t	ekg	optical	pressure	accel_x	accel_y	accel_z
0	79.702	-3.1504e+05	2166.5	-0.52265	0.18056	0.83106
0.002	79.662	-3.1504e+05	2166.1	-0.52128	0.17978	0.83048
0.004	79.703	-3.1504e+05	2165.7	-0.51992	0.179	0.82989
0.006	79.746	-3.1504e+05	2165.3	-0.51855	0.17822	0.82931
0.008	79.764	-3.1504e+05	2165	-0.51718	0.17744	0.82872
0.01	79.831	-3.1503e+05	2164.6	-0.51582	0.17666	0.82814
0.012	79.785	-3.1503e+05	2164.4	-0.51591	0.17675	0.82794
0.014	79.735	-3.1503e+05	2164.2	-0.51601	0.17685	0.82775
0.016	79.703	-3.1503e+05	2164	-0.51611	0.17695	0.82755
0.018	79.641	-3.1504e+05	2163.8	-0.51621	0.17705	0.82736
0.02	79.672	-3.1504e+05	2163.6	-0.5163	0.17714	0.82716
0.022	79.711	-3.1504e+05	2163.4	-0.51601	0.17802	0.82755
0.024	79.767	-3.1504e+05	2163.1	-0.51572	0.1789	0.82794
0.026	79.822	-3.1504e+05	2162.9	-0.51543	0.17978	0.82833
0.028	79.796	-3.1503e+05	2162.8	-0.51513	0.18066	0.82872
0.03	79.748	-3.1504e+05	2162.6	-0.51484	0.18154	0.82911
0.032	79.697	-3.1504e+05	2162.4	-0.51474	0.18085	0.82862
0.034	79.649	-3.1504e+05	2162.2	-0.51464	0.18017	0.82814
0.036	79.658	-3.1504e+05	2162	-0.51455	0.17949	0.82765
0.038	79.703	-3.1504e+05	2161.8	-0.51445	0.1788	0.82716
0.04	79.741	-3.1504e+05	2161.6	-0.51435	0.17812	0.82667
0.042	79.796	-3.1504e+05	2161.5	-0.51494	0.17773	0.82726
0.044	79.798	-3.1504e+05	2161.5	-0.51552	0.17734	0.82784
0.046	79.755	-3.1504e+05	2161.4	-0.51611	0.17695	0.82843
0.048	79.725	-3.1505e+05	2161.3	-0.51669	0.17656	0.82901
0.05	79.679	-3.1505e+05	2161.2	-0.51728	0.17617	0.8296
0.052	79.651	-3.1506e+05	2161.1	-0.51669	0.17705	0.82989
0.054	79.681	-3.1506e+05	2161	-0.51611	0.17792	0.83019
0.056	79.724	-3.1505e+05	2161	-0.51552	0.1788	0.83048
0.058	79.763	-3.1505e+05	2161	-0.51494	0.17968	0.83077
0.06	79.787	-3.1505e+05	2161	-0.51435	0.18056	0.83106
0.062	79.769	-3.1506e+05	2161.1	-0.51523	0.18056	0.83136
0.064	79.74	-3.1505e+05	2161.1	-0.51611	0.18056	0.83165
0.066	79.694	-3.1505e+05	2161.1	-0.51699	0.18056	0.83194
0.068	79.632	-3.1505e+05	2161.3	-0.51787	0.18056	0.83224
0.07	79.639	-3.1505e+05	2161.4	-0.51874	0.18056	0.83253
0.072	79.686	-3.1505e+05	2161.5	-0.51894	0.17919	0.83175
0.074	79.74	-3.1506e+05	2161.6	-0.51913	0.17783	0.83097
0.076	79.794	-3.1507e+05	2161.6	-0.51933	0.17646	0.83019
0.078	79.788	-3.1507e+05	2161.7	-0.51952	0.17509	0.8294
0.08	79.743	-3.1506e+05	2161.8	-0.51972	0.17373	0.82862
0.082	79.706	-3.1506e+05	2161.8	-0.51845	0.1747	0.82804
0.084	79.657	-3.1506e+05	2161.9	-0.51718	0.17568	0.82745
0.086	79.64	-3.1506e+05	2161.9	-0.51591	0.17666	0.82687
0.088	79.673	-3.1507e+05	2162	-0.51464	0.17763	0.82628
0.09	79.712	-3.1507e+05	2162	-0.51338	0.17861	0.8257
0.092	79.769	-3.1507e+05	2162.2	-0.51338	0.17783	0.8257
0.094	79.804	-3.1507e+05	2162.3	-0.51338	0.17705	0.8257
0.096	79.738	-3.1506e+05	2162.5	-0.51338	0.17627	0.8257
0.098	79.701	-3.1507e+05	2162.7	-0.51338	0.17548	0.8257
0.1	79.659	-3.1508e+05	2162.8	-0.51338	0.1747	0.8257
0.102	79.619	-3.1508e+05	2162.9	-0.51367	0.175	0.82618
0.104	79.676	-3.1508e+05	2163	-0.51396	0.17529	0.82667
0.106	79.726	-3.1508e+05	2163.1	-0.51425	0.17558	0.82716
0.108	79.786	-3.1507e+05	2163.1	-0.51455	0.17588	0.82765
0.11	79.817	-3.1507e+05	2163.2	-0.51484	0.17617	0.82814
0.112	79.773	-3.1508e+05	2163.2	-0.51572	0.17597	0.82882
0.114	79.733	-3.1508e+05	2163.2	-0.5166	0.17578	0.8295
0.116	79.688	-3.1509e+05	2163.2	-0.51748	0.17558	0.83019
0.118	79.653	-3.1509e+05	2163.2	-0.51835	0.17539	0.83087
0.12	79.676	-3.1508e+05	2163.2	-0.51923	0.17519	0.83155
0.122	79.712	-3.1508e+05	2163.1	-0.51874	0.17568	0.83087
0.124	79.757	-3.1508e+05	2163	-0.51826	0.17617	0.83019
0.126	79.798	-3.1508e+05	2163	-0.51777	0.17666	0.8295
0.128	79.782	-3.1508e+05	2162.9	-0.51728	0.17714	0.82882
0.13	79.742	-3.1508e+05	2162.8	-0.51679	0.17763	0.82814
0.132	79.695	-3.1509e+05	2162.7	-0.51543	0.17822	0.82804
0.134	79.648	-3.1509e+05	2162.6	-0.51406	0.1788	0.82794
0.136	79.658	-3.1508e+05	2162.5	-0.51269	0.17939	0.82784
0.138	79.705	-3.1508e+05	2162.3	-0.51133	0.17997	0.82775
0.14	79.745	-3.1508e+05	2162.2	-0.50996	0.18056	0.82765
0.142	79.792	-3.1508e+05	2162	-0.51094	0.18036	0.82794
0.144	79.812	-3.1509e+05	2161.9	-0.51191	0.18017	0.82823
0.146	79.78	-3.1509e+05	2161.7	-0.51289	0.17997	0.82853
0.148	79.742	-3.1509e+05	2161.6	-0.51386	0.17978	0.82882
0.15	79.693	-3.1509e+05	2161.5	-0.51484	0.17958	0.82911
0.152	79.656	-3.1508e+05	2161.5	-0.51455	0.17949	0.82892
0.154	79.674	-3.1508e+05	2161.5	-0.51425	0.17939	0.82872
0.156	79.718	-3.1509e+05	2161.5	-0.51396	0.17929	0.82853
0.158	79.784	-3.1509e+05	2161.4	-0.51367	0.17919	0.82833
0.16	79.827	-3.1509e+05	2161.3	-0.51338	0.1791	0.82814
0.162	79.798	-3.1509e+05	2161.3	-0.51308	0.179	0.82775
0.164	79.734	-3.1509e+05	2161.2	-0.51279	0.1789	0.82736
0.166	79.694	-3.1509e+05	2161.2	-0.5125	0.1788	0.82696
0.168	79.658	-3.1509e+05	2161.1	-0.5122	0.17871	0.82657
0.17	79.675	-3.1509e+05	2161	-0.51191	0.17861	0.82618
0.172	79.712	-3.1509e+05	2160.8	-0.51347	0.17773	0.82609
0.174	79.746	-3.1508e+05	2160.6	-0.51504	0.17685	0.82599
0.176	79.808	-3.1509e+05	2160.5	-0.5166	0.17597	0.82589
0.178	79.784	-3.1509e+05	2160.4	-0.51816	0.17509	0.82579
0.18	79.73	-3.1509e+05	2160.3	-0.51972	0.17422	0.8257
0.182	79.69	-3.1509e+05	2160.4	-0.51913	0.17451	0.82609
0.184	79.63	-3.1509e+05	2160.6	-0.51855	0.1748	0.82648
0.186	79.622	-3.1509e+05	2160.7	-0.51796	0.17509	0.82687
0.188	79.678	-3.151e+05	2160.7	-0.51738	0.17539	0.82726
0.19	79.721	-3.151e+05	2160.7	-0.51679	0.17568	0.82765
0.192	79.766	-3.1509e+05	2160.7	-0.51572	0.17705	0.82716
0.194	79.774	-3.1509e+05	2160.7	-0.51464	0.17841	0.82667
0.196	79.756	-3.1509e+05	2160.6	-0.51357	0.17978	0.82618
0.198	79.725	-3.1509e+05	2160.5	-0.5125	0.18115	0.8257
0.2	79.66	-3.1509e+05	2160.3	-0.51142	0.18251	0.82521
0.202	79.635	-3.1509e+05	2160.2	-0.51211	0.18241	0.82638
0.204	79.66	-3.1509e+05	2160.1	-0.51279	0.18232	0.82755
0.206	79.692	-3.1509e+05	2160	-0.51347	0.18222	0.82872
0.208	79.755	-3.1509e+05	2159.9	-0.51416	0.18212	0.82989
0.21	79.784	-3.1509e+05	2159.8	-0.51484	0.18202	0.83106
0.212	79.757	-3.1509e+05	2159.6	-0.51679	0.18173	0.83126
0.214	79.726	-3.151e+05	2159.5	-0.51874	0.18144	0.83145
0.216	79.68	-3.151e+05	2159.3	-0.5207	0.18115	0.83165
0.218	79.638	-3.151e+05	2159.1	-0.52265	0.18085	0.83184
0.22	79.653	-3.151e+05	2158.9	-0.5246	0.18056	0.83204
0.222	79.698	-3.151e+05	2158.7	-0.52382	0.17997	0.83126
0.224	79.744	-3.151e+05	2158.5	-0.52304	0.17939	0.83048
0.226	79.783	-3.151e+05	2158.3	-0.52226	0.1788	0.8297
0.228	79.779	-3.151e+05	2158	-0.52148	0.17822	0.82892
0.23	79.74	-3.1511e+05	2157.8	-0.5207	0.17763	0.82814
0.232	79.695	-3.1511e+05	2157.6	-0.51962	0.17812	0.82814
0.234	79.648	-3.1511e+05	2157.3	-0.51855	0.17861	0.82814
0.236	79.64	-3.1511e+05	2157.1	-0.51748	0.1791	0.82814
0.238	79.669	-3.1511e+05	2156.9	-0.5164	0.17958	0.82814
0.24	79.705	-3.1511e+05	2156.7	-0.51533	0.18007	0.82814
0.242	79.766	-3.1511e+05	2156.4	-0.51708	0.18017	0.82921
0.244	79.785	-3.1512e+05	2156.1	-0.51884	0.18027	0.83028
0.246	79.735	-3.1512e+05	2155.8	-0.5206	0.18036	0.83136
0.248	79.681	-3.1511e+05	2155.6	-0.52236	0.18046	0.83243
0.25	79.623	-3.1511e+05	2155.3	-0.52411	0.18056	0.8335
0.252	79.587	-3.1511e+05	2155	-0.52187	0.17988	0.83155
0.254	79.627	-3.1512e+05	2154.6	-0.51962	0.17919	0.8296
0.256	79.674	-3.1512e+05	2154.3	-0.51738	0.17851	0.82765
0.258	79.754	-3.1512e+05	2153.9	-0.51513	0.17783	0.8257
0.26	79.837	-3.1511e+05	2153.6	-0.51289	0.17714	0.82374
0.262	79.822	-3.1511e+05	2153.3	-0.51347	0.17763	0.82472
0.264	79.798	-3.1512e+05	2153	-0.51406	0.17812	0.8257
0.266	79.838	-3.1512e+05	2152.7	-0.51464	0.17861	0.82667
0.268	79.854	-3.1512e+05	2152.4	-0.51523	0.1791	0.82765
0.27	79.941	-3.1512e+05	2152.2	-0.51582	0.17958	0.82862
0.272	80.054	-3.1513e+05	2151.8	-0.51572	0.17958	0.82862
0.274	80.178	-3.1513e+05	2151.5	-0.51562	0.17958	0.82862
0.276	80.3	-3.1513e+05	2151.2	-0.51552	0.17958	0.82862
0.278	80.314	-3.1513e+05	2151	-0.51543	0.17958	0.82862
0.28	80.322	-3.1513e+05	2150.8	-0.51533	0.17958	0.82862
0.282	80.296	-3.1513e+05	2150.5	-0.51562	0.1788	0.82843
0.284	80.241	-3.1513e+05	2150.2	-0.51591	0.17802	0.82823
0.286	80.241	-3.1513e+05	2150	-0.51621	0.17724	0.82804
0.288	80.262	-3.1514e+05	2150	-0.5165	0.17646	0.82784
0.29	80.245	-3.1514e+05	2150	-0.51679	0.17568	0.82765
0.292	80.261	-3.1514e+05	2150	-0.51757	0.1749	0.82804
0.294	80.211	-3.1514e+05	2150	-0.51835	0.17412	0.82843
0.296	80.084	-3.1514e+05	2150.1	-0.51913	0.17334	0.82882
0.298	79.928	-3.1514e+05	2150.2	-0.51992	0.17256	0.82921
0.3	79.791	-3.1515e+05	2150.3	-0.5207	0.17178	0.8296
0.302	79.725	-3.1515e+05	2150.4	-0.5206	0.17129	0.8296
0.304	79.707	-3.1515e+05	2150.5	-0.5205	0.1708	0.8296
0.306	79.705	-3.1515e+05	2150.6	-0.5204	0.17031	0.8296
0.308	79.738	-3.1515e+05	2150.5	-0.52031	0.16982	0.8296
0.31	79.77	-3.1515e+05	2150.4	-0.52021	0.16934	0.8296
0.312	79.754	-3.1516e+05	2150.3	-0.5204	0.17012	0.82931
0.314	79.719	-3.1516e+05	2150.2	-0.5206	0.1709	0.82901
0.316	79.677	-3.1516e+05	2150.1	-0.52079	0.17168	0.82872
0.318	79.639	-3.1516e+05	2149.9	-0.52099	0.17246	0.82843
0.32	79.648	-3.1515e+05	2149.8	-0.52118	0.17324	0.82814
0.322	79.68	-3.1515e+05	2149.7	-0.52109	0.17344	0.82833
0.324	79.727	-3.1515e+05	2149.5	-0.52099	0.17363	0.82853
0.326	79.793	-3.1516e+05	2149.4	-0.52089	0.17383	0.82872
0.328	79.796	-3.1516e+05	2149.3	-0.52079	0.17402	0.82892
0.33	79.752	-3.1517e+05	2149.3	-0.5207	0.17422	0.82911
0.332	79.716	-3.1517e+05	2149.2	-0.51904	0.175	0.82814
0.334	79.642	-3.1517e+05	2149.2	-0.51738	0.17578	0.82716
0.336	79.601	-3.1517e+05	2149.1	-0.51572	0.17656	0.82618
0.338	79.659	-3.1517e+05	2149	-0.51406	0.17734	0.82521
0.34	79.708	-3.1517e+05	2148.9	-0.5124	0.17812	0.82423
0.342	79.777	-3.1517e+05	2148.8	-0.5126	0.17841	0.82472
0.344	79.798	-3.1518e+05	2148.6	-0.51279	0.17871	0.82521
0.346	79.744	-3.1518e+05	2148.4	-0.51299	0.179	0.8257
0.348	79.706	-3.1518e+05	2148.2	-0.51318	0.17929	0.82618
0.35	79.663	-3.1518e+05	2148	-0.51338	0.17958	0.82667
0.352	79.631	-3.1519e+05	2147.8	-0.51308	0.17968	0.82657
0.354	79.674	-3.1519e+05	2147.5	-0.51279	0.17978	0.82648
0.356	79.706	-3.1519e+05	2147.3	-0.5125	0.17988	0.82638
0.358	79.761	-3.152e+05	2147	-0.5122	0.17997	0.82628
0.36	79.807	-3.152e+05	2146.8	-0.51191	0.18007	0.82618
0.362	79.768	-3.152e+05	2146.6	-0.5126	0.17988	0.82687
0.364	79.727	-3.152e+05	2146.4	-0.51328	0.17968	0.82755
0.366	79.68	-3.152e+05	2146.1	-0.51396	0.17949	0.82823
0.368	79.645	-3.152e+05	2145.9	-0.51464	0.17929	0.82892
0.37	79.666	-3.152e+05	2145.6	-0.51533	0.1791	0.8296
0.372	79.7	-3.152e+05	2145.3	-0.51543	0.1788	0.82911
0.374	79.757	-3.152e+05	2145	-0.51552	0.17851	0.82862
0.376	79.804	-3.152e+05	2144.7	-0.51562	0.17822	0.82814
0.378	79.785	-3.1521e+05	2144.6	-0.51572	0.17792	0.82765
0.38	79.764	-3.1521e+05	2144.4	-0.51582	0.17763	0.82716
0.382	79.698	-3.1522e+05	2144.5	-0.5165	0.17685	0.82716
0.384	79.61	-3.1522e+05	2144.7	-0.51718	0.17607	0.82716
0.386	79.626	-3.1523e+05	2144.8	-0.51787	0.17529	0.82716
0.388	79.683	-3.1523e+05	2144.9	-0.51855	0.17451	0.82716
0.39	79.724	-3.1522e+05	2145.1	-0.51923	0.17373	0.82716
0.392	79.787	-3.1522e+05	2145.2	-0.51962	0.17441	0.82745
0.394	79.795	-3.1522e+05	2145.4	-0.52001	0.17509	0.82775
0.396	79.744	-3.1522e+05	2145.4	-0.5204	0.17578	0.82804
0.398	79.711	-3.1523e+05	2145.4	-0.52079	0.17646	0.82833
0.4	79.669	-3.1523e+05	2145.4	-0.52118	0.17714	0.82862
0.402	79.648	-3.1523e+05	2145.3	-0.52236	0.17802	0.8294
0.404	79.693	-3.1523e+05	2145.2	-0.52353	0.1789	0.83019
0.406	79.74	-3.1523e+05	2145.1	-0.5247	0.17978	0.83097
0.408	79.786	-3.1523e+05	2145	-0.52587	0.18066	0.83175
0.41	79.818	-3.1524e+05	2144.9	-0.52704	0.18154	0.83253
0.412	79.782	-3.1524e+05	2145	-0.52675	0.18212	0.83175
0.414	79.741	-3.1524e+05	2145	-0.52645	0.18271	0.83097
0.416	79.707	-3.1524e+05	2145.3	-0.52616	0.18329	0.83019
0.418	79.669	-3.1524e+05	2145.6	-0.52587	0.18388	0.8294
0.42	79.689	-3.1524e+05	2146	-0.52558	0.18446	0.82862
0.422	79.741	-3.1524e+05	2146.9	-0.52519	0.1829	0.82872
0.424	79.784	-3.1525e+05	2147.8	-0.5248	0.18134	0.82882
0.426	79.839	-3.1525e+05	2148.9	-0.5244	0.17978	0.82892
0.428	79.825	-3.1526e+05	2150.1	-0.52401	0.17822	0.82901
0.43	79.751	-3.1526e+05	2151.4	-0.52362	0.17666	0.82911
0.432	79.71	-3.1526e+05	2152.8	-0.52167	0.17714	0.82892
0.434	79.668	-3.1526e+05	2154.3	-0.51972	0.17763	0.82872
0.436	79.694	-3.1526e+05	2155.6	-0.51777	0.17812	0.82853
0.438	79.737	-3.1525e+05	2157	-0.51582	0.17861	0.82833
0.44	79.768	-3.1525e+05	2158.4	-0.51386	0.1791	0.82814
0.442	79.83	-3.1525e+05	2159.8	-0.51377	0.1789	0.82804
0.444	79.846	-3.1525e+05	2161.2	-0.51367	0.17871	0.82794
0.446	79.814	-3.1524e+05	2162.6	-0.51357	0.17851	0.82784
0.448	79.778	-3.1524e+05	2164	-0.51347	0.17832	0.82775
0.45	79.714	-3.1524e+05	2165.4	-0.51338	0.17812	0.82765
0.452	79.696	-3.1523e+05	2166.6	-0.51299	0.17851	0.82736
0.454	79.748	-3.1523e+05	2167.9	-0.5126	0.1789	0.82706
0.456	79.786	-3.1524e+05	2169.1	-0.5122	0.17929	0.82677
0.458	79.832	-3.1523e+05	2170.3	-0.51181	0.17968	0.82648
0.46	79.857	-3.1522e+05	2171.5	-0.51142	0.18007	0.82618
0.462	79.832	-3.1521e+05	2172.7	-0.51211	0.17949	0.82696
0.464	79.784	-3.1521e+05	2173.8	-0.51279	0.1789	0.82775
0.466	79.718	-3.1521e+05	2175.1	-0.51347	0.17832	0.82853
0.468	79.683	-3.152e+05	2176.3	-0.51416	0.17773	0.82931
0.47	79.701	-3.1519e+05	2177.5	-0.51484	0.17714	0.83009
0.472	79.743	-3.1518e+05	2178.6	-0.51552	0.17685	0.83019
0.474	79.808	-3.1517e+05	2179.7	-0.51621	0.17656	0.83028
0.476	79.86	-3.1516e+05	2180.6	-0.51689	0.17627	0.83038
0.478	79.848	-3.1516e+05	2181.5	-0.51757	0.17597	0.83048
0.48	79.803	-3.1515e+05	2182.3	-0.51826	0.17568	0.83058
0.482	79.743	-3.1514e+05	2183	-0.51884	0.17558	0.83067
0.484	79.689	-3.1514e+05	2183.7	-0.51943	0.17548	0.83077
0.486	79.683	-3.1513e+05	2184.3	-0.52001	0.17539	0.83087
0.488	79.699	-3.1512e+05	2184.8	-0.5206	0.17529	0.83097
0.49	79.734	-3.1511e+05	2185.4	-0.52118	0.17519	0.83106
0.492	79.78	-3.1509e+05	2185.6	-0.51982	0.17539	0.83028
0.494	79.786	-3.1508e+05	2185.9	-0.51845	0.17558	0.8295
0.496	79.743	-3.1507e+05	2186.1	-0.51708	0.17578	0.82872
0.498	79.708	-3.1506e+05	2186.2	-0.51572	0.17597	0.82794
0.5	79.67	-3.1506e+05	2186.3	-0.51435	0.17617	0.82716
0.502	79.648	-3.1505e+05	2186.3	-0.51425	0.17578	0.82687
0.504	79.676	-3.1504e+05	2186.3	-0.51416	0.17539	0.82657
0.506	79.684	-3.1503e+05	2186.3	-0.51406	0.175	0.82628
0.508	79.706	-3.1502e+05	2186.2	-0.51396	0.17461	0.82599
0.51	79.755	-3.1501e+05	2186.1	-0.51386	0.17422	0.8257
0.512	79.716	-3.15e+05	2186	-0.51484	0.17519	0.82657
0.514	79.671	-3.1499e+05	2185.8	-0.51582	0.17617	0.82745
0.516	79.612	-3.1498e+05	2185.7	-0.51679	0.17714	0.82833
0.518	79.551	-3.1497e+05	2185.6	-0.51777	0.17812	0.82921
0.52	79.582	-3.1496e+05	2185.4	-0.51874	0.1791	0.83009
0.522	79.64	-3.1495e+05	2185.3	-0.51767	0.1788	0.82901
0.524	79.675	-3.1493e+05	2185.1	-0.5166	0.17851	0.82794
0.526	79.73	-3.1492e+05	2184.9	-0.51552	0.17822	0.82687
0.528	79.702	-3.1491e+05	2184.7	-0.51445	0.17792	0.82579
0.53	79.65	-3.149e+05	2184.5	-0.51338	0.17763	0.82472
0.532	79.619	-3.1489e+05	2184.2	-0.51416	0.17802	0.8256
0.534	79.565	-3.1488e+05	2184	-0.51494	0.17841	0.82648
0.536	79.569	-3.1488e+05	2183.7	-0.51572	0.1788	0.82736
0.538	79.612	-3.1487e+05	2183.5	-0.5165	0.17919	0.82823
0.54	79.668	-3.1487e+05	2183.2	-0.51728	0.17958	0.82911
0.542	79.704	-3.1486e+05	2183.1	-0.51748	0.17871	0.82931
0.544	79.686	-3.1484e+05	2182.9	-0.51767	0.17783	0.8295
0.546	79.653	-3.1483e+05	2182.8	-0.51787	0.17695	0.8297
0.548	79.62	-3.1482e+05	2182.7	-0.51806	0.17607	0.82989
0.55	79.569	-3.1482e+05	2182.6	-0.51826	0.17519	0.83009
0.552	79.552	-3.1481e+05	2182.5	-0.51865	0.17597	0.83067
0.554	79.584	-3.148e+05	2182.5	-0.51904	0.17675	0.83126
0.556	79.63	-3.1479e+05	2182.5	-0.51943	0.17753	0.83184
0.558	79.683	-3.1478e+05	2182.5	-0.51982	0.17832	0.83243
0.56	79.704	-3.1478e+05	2182.5	-0.52021	0.1791	0.83302
0.562	79.684	-3.1477e+05	2182.4	-0.52031	0.17861	0.83253
0.564	79.658	-3.1477e+05	2182.4	-0.5204	0.17812	0.83204
0.566	79.609	-3.1476e+05	2182.3	-0.5205	0.17763	0.83155
0.568	79.565	-3.1475e+05	2182.1	-0.5206	0.17714	0.83106
0.57	79.581	-3.1474e+05	2181.9	-0.5207	0.17666	0.83058
0.572	79.623	-3.1473e+05	2181.7	-0.51913	0.17734	0.8298
0.574	79.67	-3.1473e+05	2181.5	-0.51757	0.17802	0.82901
0.576	79.71	-3.1473e+05	2181.2	-0.51601	0.17871	0.82823
0.578	79.688	-3.1473e+05	2181	-0.51445	0.17939	0.82745
0.58	79.64	-3.1472e+05	2180.7	-0.51289	0.18007	0.82667
0.582	79.605	-3.1472e+05	2180.4	-0.51357	0.1789	0.82648
0.584	79.564	-3.1471e+05	2180.1	-0.51425	0.17773	0.82628
0.586	79.576	-3.147e+05	2179.9	-0.51494	0.17656	0.82609
0.588	79.627	-3.1471e+05	2179.6	-0.51562	0.17539	0.82589
0.59	79.681	-3.147e+05	2179.4	-0.5163	0.17422	0.8257
0.592	79.741	-3.1469e+05	2179.1	-0.51591	0.17529	0.8257
0.594	79.748	-3.1469e+05	2178.9	-0.51552	0.17636	0.8257
0.596	79.697	-3.1468e+05	2178.7	-0.51513	0.17744	0.8257
0.598	79.644	-3.1468e+05	2178.5	-0.51474	0.17851	0.8257
0.6	79.584	-3.1467e+05	2178.3	-0.51435	0.17958	0.8257
0.602	79.572	-3.1467e+05	2178.1	-0.51494	0.1789	0.82618
0.604	79.617	-3.1467e+05	2177.9	-0.51552	0.17822	0.82667
0.606	79.653	-3.1466e+05	2177.8	-0.51611	0.17753	0.82716
0.608	79.709	-3.1466e+05	2177.6	-0.51669	0.17685	0.82765
0.61	79.764	-3.1466e+05	2177.4	-0.51728	0.17617	0.82814
0.612	79.732	-3.1466e+05	2177.3	-0.5164	0.17802	0.82862
0.614	79.699	-3.1466e+05	2177.2	-0.51552	0.17988	0.82911
0.616	79.623	-3.1465e+05	2177.1	-0.51464	0.18173	0.8296
0.618	79.562	-3.1464e+05	2176.9	-0.51377	0.18359	0.83009
0.62	79.608	-3.1464e+05	2176.8	-0.51289	0.18544	0.83058
0.622	79.658	-3.1464e+05	2176.5	-0.51464	0.18417	0.82989
0.624	79.714	-3.1464e+05	2176.3	-0.5164	0.1829	0.82921
0.626	79.767	-3.1464e+05	2176.1	-0.51816	0.18163	0.82853
0.628	79.741	-3.1463e+05	2175.8	-0.51992	0.18036	0.82784
0.63	79.7	-3.1463e+05	2175.6	-0.52167	0.1791	0.82716
0.632	79.658	-3.1463e+05	2175.2	-0.52206	0.17929	0.82843
0.634	79.616	-3.1462e+05	2174.9	-0.52245	0.17949	0.8297
0.636	79.635	-3.1462e+05	2174.5	-0.52284	0.17968	0.83097
0.638	79.68	-3.1462e+05	2174.1	-0.52323	0.17988	0.83224
0.64	79.721	-3.1462e+05	2173.7	-0.52362	0.18007	0.8335
0.642	79.773	-3.1462e+05	2173.4	-0.52167	0.17939	0.83214
0.644	79.762	-3.1461e+05	2173	-0.51972	0.17871	0.83077
0.646	79.721	-3.1461e+05	2172.6	-0.51777	0.17802	0.8294
0.648	79.687	-3.1461e+05	2172.3	-0.51582	0.17734	0.82804
0.65	79.64	-3.1461e+05	2171.9	-0.51386	0.17666	0.82667
0.652	79.632	-3.1461e+05	2171.7	-0.51484	0.17705	0.82755
0.654	79.671	-3.146e+05	2171.4	-0.51582	0.17744	0.82843
0.656	79.705	-3.146e+05	2171.1	-0.51679	0.17783	0.82931
0.658	79.748	-3.146e+05	2170.8	-0.51777	0.17822	0.83019
0.66	79.764	-3.146e+05	2170.6	-0.51874	0.17861	0.83106
0.662	79.72	-3.146e+05	2170.3	-0.51826	0.17929	0.83116
0.664	79.697	-3.146e+05	2170	-0.51777	0.17997	0.83126
0.666	79.673	-3.1461e+05	2169.7	-0.51728	0.18066	0.83136
0.668	79.627	-3.1461e+05	2169.4	-0.51679	0.18134	0.83145
0.67	79.643	-3.1461e+05	2169.1	-0.5163	0.18202	0.83155
0.672	79.685	-3.1461e+05	2168.8	-0.51562	0.18183	0.83106
0.674	79.736	-3.146e+05	2168.4	-0.51494	0.18163	0.83058
0.676	79.783	-3.146e+05	2168.1	-0.51425	0.18144	0.83009
0.678	79.749	-3.146e+05	2167.9	-0.51357	0.18124	0.8296
0.68	79.677	-3.146e+05	2167.7	-0.51289	0.18105	0.82911
0.682	79.648	-3.1461e+05	2167.5	-0.51289	0.18134	0.82911
0.684	79.597	-3.1461e+05	2167.3	-0.51289	0.18163	0.82911
0.686	79.6	-3.1461e+05	2167.2	-0.51289	0.18193	0.82911
0.688	79.659	-3.1461e+05	2167.1	-0.51289	0.18222	0.82911
0.69	79.707	-3.1461e+05	2167	-0.51289	0.18251	0.82911
0.692	79.755	-3.1461e+05	2167	-0.51308	0.18173	0.82833
0.694	79.744	-3.1461e+05	2167	-0.51328	0.18095	0.82755
0.696	79.712	-3.1461e+05	2167	-0.51347	0.18017	0.82677
0.698	79.692	-3.1461e+05	2167	-0.51367	0.17939	0.82599
0.7	79.607	-3.1461e+05	2167	-0.51386	0.17861	0.82521
0.702	79.575	-3.1462e+05	2167.1	-0.51435	0.17919	0.82579
0.704	79.617	-3.1461e+05	2167.1	-0.51484	0.17978	0.82638
0.706	79.67	-3.1461e+05	2167.1	-0.51533	0.18036	0.82696
0.708	79.744	-3.1461e+05	2167.1	-0.51582	0.18095	0.82755
0.71	79.767	-3.1461e+05	2167.1	-0.5163	0.18154	0.82814
0.712	79.729	-3.1461e+05	2167	-0.51621	0.18056	0.82775
0.714	79.684	-3.1461e+05	2166.9	-0.51611	0.17958	0.82736
0.716	79.623	-3.1461e+05	2166.8	-0.51601	0.17861	0.82696
0.718	79.602	-3.1462e+05	2166.6	-0.51591	0.17763	0.82657
0.72	79.64	-3.1462e+05	2166.5	-0.51582	0.17666	0.82618
0.722	79.667	-3.1462e+05	2166.3	-0.5163	0.17666	0.82599
0.724	79.696	-3.1463e+05	2166.1	-0.51679	0.17666	0.82579
0.726	79.725	-3.1463e+05	2165.9	-0.51728	0.17666	0.8256
0.728	79.713	-3.1464e+05	2165.8	-0.51777	0.17666	0.8254
0.73	79.686	-3.1464e+05	2165.6	-0.51826	0.17666	0.82521
0.732	79.641	-3.1463e+05	2165.4	-0.51835	0.17607	0.8255
0.734	79.593	-3.1463e+05	2165.3	-0.51845	0.17548	0.82579
0.736	79.608	-3.1463e+05	2165.2	-0.51855	0.1749	0.82609
0.738	79.653	-3.1463e+05	2165	-0.51865	0.17431	0.82638
0.74	79.696	-3.1464e+05	2164.9	-0.51874	0.17373	0.82667
0.742	79.752	-3.1464e+05	2164.7	-0.51913	0.1747	0.82784
0.744	79.762	-3.1464e+05	2164.5	-0.51952	0.17568	0.82901
0.746	79.717	-3.1464e+05	2164.2	-0.51992	0.17666	0.83019
0.748	79.679	-3.1464e+05	2163.9	-0.52031	0.17763	0.83136
0.75	79.638	-3.1464e+05	2163.6	-0.5207	0.17861	0.83253
0.752	79.613	-3.1464e+05	2163.3	-0.51933	0.17851	0.83175
0.754	79.649	-3.1464e+05	2163.1	-0.51796	0.17841	0.83097
0.756	79.695	-3.1464e+05	2162.9	-0.5166	0.17832	0.83019
0.758	79.755	-3.1464e+05	2162.8	-0.51523	0.17822	0.8294
0.76	79.785	-3.1464e+05	2162.7	-0.51386	0.17812	0.82862
0.762	79.731	-3.1464e+05	2162.5	-0.51435	0.17832	0.8294
0.764	79.684	-3.1464e+05	2162.3	-0.51484	0.17851	0.83019
0.766	79.654	-3.1464e+05	2162.1	-0.51533	0.17871	0.83097
0.768	79.621	-3.1465e+05	2161.9	-0.51582	0.1789	0.83175
0.77	79.645	-3.1465e+05	2161.7	-0.5163	0.1791	0.83253
0.772	79.697	-3.1464e+05	2161.5	-0.51572	0.179	0.83184
0.774	79.755	-3.1463e+05	2161.3	-0.51513	0.1789	0.83116
0.776	79.805	-3.1464e+05	2161.1	-0.51455	0.1788	0.83048
0.778	79.764	-3.1464e+05	2161	-0.51396	0.17871	0.8298
0.78	79.725	-3.1464e+05	2160.8	-0.51338	0.17861	0.82911
0.782	79.684	-3.1464e+05	2160.8	-0.51474	0.17812	0.8296
0.784	79.65	-3.1464e+05	2160.7	-0.51611	0.17763	0.83009
0.786	79.661	-3.1464e+05	2160.7	-0.51748	0.17714	0.83058
0.788	79.707	-3.1464e+05	2160.7	-0.51884	0.17666	0.83106
0.79	79.744	-3.1464e+05	2160.8	-0.52021	0.17617	0.83155
0.792	79.793	-3.1464e+05	2161	-0.51962	0.17588	0.83136
0.794	79.755	-3.1464e+05	2161.2	-0.51904	0.17558	0.83116
0.796	79.724	-3.1465e+05	2161.4	-0.51845	0.17529	0.83097
0.798	79.699	-3.1465e+05	2161.6	-0.51787	0.175	0.83077
0.8	79.634	-3.1465e+05	2161.8	-0.51728	0.1747	0.83058
0.802	79.614	-3.1465e+05	2161.9	-0.51845	0.17383	0.83145
0.804	79.652	-3.1465e+05	2162	-0.51962	0.17295	0.83233
0.806	79.695	-3.1464e+05	2162.1	-0.52079	0.17207	0.83321
0.808	79.748	-3.1464e+05	2162.1	-0.52196	0.17119	0.83409
0.81	79.771	-3.1464e+05	2162.1	-0.52314	0.17031	0.83497
0.812	79.736	-3.1465e+05	2162	-0.52196	0.1706	0.8337
0.814	79.687	-3.1465e+05	2162	-0.52079	0.1709	0.83243
0.816	79.632	-3.1464e+05	2161.9	-0.51962	0.17119	0.83116
0.818	79.604	-3.1465e+05	2161.9	-0.51845	0.17148	0.82989
0.82	79.628	-3.1465e+05	2161.8	-0.51728	0.17178	0.82862
0.822	79.664	-3.1465e+05	2161.7	-0.51757	0.17236	0.82784
0.824	79.707	-3.1464e+05	2161.7	-0.51787	0.17295	0.82706
0.826	79.742	-3.1464e+05	2161.6	-0.51816	0.17353	0.82628
0.828	79.719	-3.1464e+05	2161.4	-0.51845	0.17412	0.8255
0.83	79.671	-3.1465e+05	2161.3	-0.51874	0.1747	0.82472
0.832	79.631	-3.1465e+05	2161.1	-0.51787	0.17578	0.8257
0.834	79.587	-3.1465e+05	2160.9	-0.51699	0.17685	0.82667
0.836	79.593	-3.1465e+05	2160.7	-0.51611	0.17792	0.82765
0.838	79.641	-3.1465e+05	2160.6	-0.51523	0.179	0.82862
0.84	79.676	-3.1465e+05	2160.5	-0.51435	0.18007	0.8296
0.842	79.729	-3.1465e+05	2160.5	-0.51464	0.18007	0.8295
0.844	79.728	-3.1465e+05	2160.5	-0.51494	0.18007	0.8294
0.846	79.654	-3.1465e+05	2160.5	-0.51523	0.18007	0.82931
0.848	79.613	-3.1465e+05	2160.4	-0.51552	0.18007	0.82921
0.85	79.586	-3.1465e+05	2160.4	-0.51582	0.18007	0.82911
0.852	79.56	-3.1465e+05	2160.2	-0.5163	0.17978	0.8295
0.854	79.607	-3.1465e+05	2160	-0.51679	0.17949	0.82989
0.856	79.652	-3.1465e+05	2159.9	-0.51728	0.17919	0.83028
0.858	79.725	-3.1465e+05	2159.7	-0.51777	0.1789	0.83067
0.86	79.765	-3.1466e+05	2159.6	-0.51826	0.17861	0.83106
0.862	79.7	-3.1466e+05	2159.6	-0.51728	0.17861	0.83058
0.864	79.65	-3.1466e+05	2159.5	-0.5163	0.17861	0.83009
0.866	79.598	-3.1466e+05	2159.5	-0.51533	0.17861	0.8296
0.868	79.568	-3.1466e+05	2159.4	-0.51435	0.17861	0.82911
0.87	79.601	-3.1466e+05	2159.4	-0.51338	0.17861	0.82862
0.872	79.61	-3.1466e+05	2159.3	-0.51494	0.17753	0.82862
0.874	79.644	-3.1466e+05	2159.2	-0.5165	0.17646	0.82862
0.876	79.693	-3.1466e+05	2159.1	-0.51806	0.17539	0.82862
0.878	79.66	-3.1466e+05	2159.1	-0.51962	0.17431	0.82862
0.88	79.616	-3.1466e+05	2159	-0.52118	0.17324	0.82862
0.882	79.594	-3.1466e+05	2158.9	-0.52031	0.1749	0.82901
0.884	79.564	-3.1466e+05	2158.8	-0.51943	0.17656	0.8294
0.886	79.619	-3.1466e+05	2158.6	-0.51855	0.17822	0.8298
0.888	79.724	-3.1467e+05	2158.5	-0.51767	0.17988	0.83019
0.89	79.828	-3.1467e+05	2158.3	-0.51679	0.18154	0.83058
0.892	79.937	-3.1467e+05	2158.1	-0.5163	0.18085	0.83019
0.894	80.006	-3.1467e+05	2158	-0.51582	0.18017	0.8298
0.896	80.057	-3.1467e+05	2157.8	-0.51533	0.17949	0.8294
0.898	80.111	-3.1467e+05	2157.6	-0.51484	0.1788	0.82901
0.9	80.146	-3.1467e+05	2157.3	-0.51435	0.17812	0.82862
0.902	80.206	-3.1468e+05	2157.1	-0.51416	0.17822	0.82814
0.904	80.289	-3.1468e+05	2156.8	-0.51396	0.17832	0.82765
0.906	80.363	-3.1468e+05	2156.6	-0.51377	0.17841	0.82716
0.908	80.439	-3.1468e+05	2156.3	-0.51357	0.17851	0.82667
0.91	80.47	-3.1468e+05	2156.1	-0.51338	0.17861	0.82618
0.912	80.415	-3.1468e+05	2156	-0.51386	0.179	0.82726
0.914	80.318	-3.1468e+05	2155.9	-0.51435	0.17939	0.82833
0.916	80.211	-3.1468e+05	2155.8	-0.51484	0.17978	0.8294
0.918	80.124	-3.1468e+05	2155.6	-0.51533	0.18017	0.83048
0.92	80.08	-3.1468e+05	2155.5	-0.51582	0.18056	0.83155
0.922	80.037	-3.1468e+05	2155.3	-0.51513	0.18036	0.83067
0.924	79.995	-3.1468e+05	2155.2	-0.51445	0.18017	0.8298
0.926	79.967	-3.1468e+05	2155.2	-0.51377	0.17997	0.82892
0.928	79.863	-3.1468e+05	2155.2	-0.51308	0.17978	0.82804
0.93	79.728	-3.1469e+05	2155.1	-0.5124	0.17958	0.82716
0.932	79.64	-3.1469e+05	2155.1	-0.51279	0.17919	0.82755
0.934	79.555	-3.1469e+05	2155.1	-0.51318	0.1788	0.82794
0.936	79.576	-3.1469e+05	2155	-0.51357	0.17841	0.82833
0.938	79.652	-3.1469e+05	2155	-0.51396	0.17802	0.82872
0.94	79.723	-3.1469e+05	2154.9	-0.51435	0.17763	0.82911
0.942	79.788	-3.1469e+05	2154.8	-0.51543	0.17675	0.82921
0.944	79.744	-3.147e+05	2154.7	-0.5165	0.17588	0.82931
0.946	79.684	-3.147e+05	2154.5	-0.51757	0.175	0.8294
0.948	79.648	-3.1471e+05	2154.3	-0.51865	0.17412	0.8295
0.95	79.586	-3.1471e+05	2154	-0.51972	0.17324	0.8296
0.952	79.586	-3.1471e+05	2153.8	-0.51972	0.17373	0.82931
0.954	79.641	-3.1471e+05	2153.5	-0.51972	0.17422	0.82901
0.956	79.662	-3.1471e+05	2153.2	-0.51972	0.1747	0.82872
0.958	79.718	-3.1472e+05	2152.8	-0.51972	0.17519	0.82843
0.96	79.745	-3.1472e+05	2152.4	-0.51972	0.17568	0.82814
0.962	79.696	-3.1472e+05	2152	-0.52011	0.17578	0.82872
0.964	79.653	-3.1472e+05	2151.6	-0.5205	0.17588	0.82931
0.966	79.598	-3.1472e+05	2151.2	-0.52089	0.17597	0.82989
0.968	79.57	-3.1472e+05	2150.8	-0.52128	0.17607	0.83048
0.97	79.605	-3.1472e+05	2150.4	-0.52167	0.17617	0.83106
0.972	79.65	-3.1472e+05	2150	-0.5206	0.17714	0.83155
0.974	79.714	-3.1472e+05	2149.5	-0.51952	0.17812	0.83204
0.976	79.749	-3.1472e+05	2149.2	-0.51845	0.1791	0.83253
0.978	79.729	-3.1472e+05	2148.9	-0.51738	0.18007	0.83302
0.98	79.695	-3.1473e+05	2148.6	-0.5163	0.18105	0.8335
0.982	79.631	-3.1474e+05	2148.3	-0.51562	0.18105	0.83253
0.984	79.577	-3.1474e+05	2148	-0.51494	0.18105	0.83155
0.986	79.59	-3.1474e+05	2147.8	-0.51425	0.18105	0.83058
0.988	79.633	-3.1475e+05	2147.6	-0.51357	0.18105	0.8296
0.99	79.686	-3.1475e+05	2147.3	-0.51289	0.18105	0.82862
0.992	79.739	-3.1475e+05	2147.1	-0.51211	0.18095	0.8298
0.994	79.741	-3.1475e+05	2146.8	-0.51133	0.18085	0.83097
0.996	79.701	-3.1475e+05	2146.5	-0.51055	0.18076	0.83214
0.998	79.652	-3.1476e+05	2146.3	-0.50976	0.18066	0.83331
1	79.609	-3.1476e+05	2146	-0.50898	0.18056	0.83448
1.002	79.608	-3.1476e+05	2145.8	-0.50811	0.18076	0.83575
1.004	79.649	-3.1476e+05	2145.6	-0.50723	0.18095	0.83702
1.006	79.696	-3.1476e+05	2145.4	-0.50635	0.18115	0.83829
1.008	79.749	-3.1476e+05	2145.2	-0.50547	0.18134	0.83956
1.01	79.765	-3.1476e+05	2145	-0.50459	0.18154	0.84082
1.012	79.718	-3.1477e+05	2145	-0.50615	0.18193	0.83995
1.014	79.698	-3.1477e+05	2144.9	-0.50772	0.18232	0.83907
1.016	79.655	-3.1476e+05	2144.9	-0.50928	0.18271	0.83819
1.018	79.588	-3.1477e+05	2144.9	-0.51084	0.1831	0.83731
1.02	79.605	-3.1477e+05	2144.9	-0.5124	0.18349	0.83643
1.022	79.653	-3.1478e+05	2144.8	-0.51347	0.18261	0.83604
1.024	79.714	-3.1478e+05	2144.8	-0.51455	0.18173	0.83565
1.026	79.778	-3.1478e+05	2144.8	-0.51562	0.18085	0.83526
1.028	79.756	-3.1478e+05	2144.7	-0.51669	0.17997	0.83487
1.03	79.7	-3.1477e+05	2144.6	-0.51777	0.1791	0.83448
1.032	79.676	-3.1478e+05	2144.6	-0.51816	0.17763	0.83331
1.034	79.626	-3.1478e+05	2144.6	-0.51855	0.17617	0.83214
1.036	79.649	-3.1478e+05	2144.7	-0.51894	0.1747	0.83097
1.038	79.654	-3.1479e+05	2144.9	-0.51933	0.17324	0.8298
1.04	79.707	-3.1479e+05	2145.2	-0.51972	0.17178	0.82862
1.042	79.773	-3.1479e+05	2145.8	-0.51913	0.17363	0.82931
1.044	79.755	-3.148e+05	2146.3	-0.51855	0.17548	0.82999
1.046	79.706	-3.148e+05	2147.1	-0.51796	0.17734	0.83067
1.048	79.677	-3.148e+05	2147.9	-0.51738	0.17919	0.83136
1.05	79.617	-3.1481e+05	2148.8	-0.51679	0.18105	0.83204
1.052	79.62	-3.1481e+05	2150	-0.51708	0.17949	0.83097
1.054	79.681	-3.1481e+05	2151.1	-0.51738	0.17792	0.82989
1.056	79.718	-3.1481e+05	2152.4	-0.51767	0.17636	0.82882
1.058	79.785	-3.1481e+05	2153.7	-0.51796	0.1748	0.82775
1.06	79.814	-3.1481e+05	2155	-0.51826	0.17324	0.82667
1.062	79.779	-3.1481e+05	2156.3	-0.51748	0.17441	0.82657
1.064	79.735	-3.1481e+05	2157.7	-0.51669	0.17558	0.82648
1.066	79.68	-3.148e+05	2159	-0.51591	0.17675	0.82638
1.068	79.663	-3.148e+05	2160.3	-0.51513	0.17792	0.82628
1.07	79.688	-3.148e+05	2161.7	-0.51435	0.1791	0.82618
1.072	79.72	-3.148e+05	2163	-0.51474	0.17871	0.82667
1.074	79.781	-3.1481e+05	2164.3	-0.51513	0.17832	0.82716
1.076	79.832	-3.148e+05	2165.5	-0.51552	0.17792	0.82765
1.078	79.813	-3.148e+05	2166.8	-0.51591	0.17753	0.82814
1.08	79.764	-3.148e+05	2168.1	-0.5163	0.17714	0.82862
1.082	79.708	-3.1479e+05	2169.2	-0.51562	0.17773	0.82814
1.084	79.662	-3.1479e+05	2170.4	-0.51494	0.17832	0.82765
1.086	79.692	-3.1478e+05	2171.4	-0.51425	0.1789	0.82716
1.088	79.758	-3.1477e+05	2172.4	-0.51357	0.17949	0.82667
1.09	79.798	-3.1477e+05	2173.4	-0.51289	0.18007	0.82618
1.092	79.835	-3.1477e+05	2174.3	-0.51416	0.1789	0.82677
1.094	79.825	-3.1476e+05	2175.2	-0.51543	0.17773	0.82736
1.096	79.776	-3.1475e+05	2176	-0.51669	0.17656	0.82794
1.098	79.734	-3.1474e+05	2176.7	-0.51796	0.17539	0.82853
1.1	79.679	-3.1473e+05	2177.5	-0.51923	0.17422	0.82911
1.102	79.646	-3.1473e+05	2178.1	-0.51855	0.17548	0.8295
1.104	79.696	-3.1473e+05	2178.7	-0.51787	0.17675	0.82989
1.106	79.74	-3.1472e+05	2179.2	-0.51718	0.17802	0.83028
1.108	79.786	-3.1471e+05	2179.6	-0.5165	0.17929	0.83067
1.11	79.819	-3.147e+05	2180	-0.51582	0.18056	0.83106
1.112	79.775	-3.1469e+05	2180.2	-0.51582	0.17997	0.83038
1.114	79.73	-3.1468e+05	2180.5	-0.51582	0.17939	0.8297
1.116	79.669	-3.1467e+05	2180.7	-0.51582	0.1788	0.82901
1.118	79.617	-3.1466e+05	2180.8	-0.51582	0.17822	0.82833
1.12	79.666	-3.1464e+05	2181	-0.51582	0.17763	0.82765
1.122	79.692	-3.1463e+05	2181	-0.51591	0.17792	0.82794
1.124	79.734	-3.1462e+05	2181.1	-0.51601	0.17822	0.82823
1.126	79.778	-3.1461e+05	2181.1	-0.51611	0.17851	0.82853
1.128	79.732	-3.1462e+05	2181.1	-0.51621	0.1788	0.82882
1.13	79.689	-3.1461e+05	2181.1	-0.5163	0.1791	0.82911
1.132	79.63	-3.1459e+05	2181	-0.51582	0.1788	0.82872
1.134	79.568	-3.1457e+05	2180.9	-0.51533	0.17851	0.82833
1.136	79.582	-3.1456e+05	2180.8	-0.51484	0.17822	0.82794
1.138	79.629	-3.1456e+05	2180.7	-0.51435	0.17792	0.82755
1.14	79.675	-3.1455e+05	2180.6	-0.51386	0.17763	0.82716
1.142	79.731	-3.1454e+05	2180.4	-0.51386	0.17753	0.82726
1.144	79.719	-3.1453e+05	2180.3	-0.51386	0.17744	0.82736
1.146	79.665	-3.1451e+05	2180.1	-0.51386	0.17734	0.82745
1.148	79.634	-3.145e+05	2180	-0.51386	0.17724	0.82755
1.15	79.601	-3.1449e+05	2179.8	-0.51386	0.17714	0.82765
1.152	79.606	-3.1448e+05	2179.6	-0.51464	0.17627	0.82814
1.154	79.619	-3.1447e+05	2179.4	-0.51543	0.17539	0.82862
1.156	79.634	-3.1446e+05	2179.2	-0.51621	0.17451	0.82911
1.158	79.681	-3.1445e+05	2179	-0.51699	0.17363	0.8296
1.16	79.686	-3.1444e+05	2178.9	-0.51777	0.17275	0.83009
1.162	79.628	-3.1443e+05	2178.7	-0.51601	0.17431	0.83019
1.164	79.582	-3.1442e+05	2178.4	-0.51425	0.17588	0.83028
1.166	79.545	-3.1441e+05	2178.2	-0.5125	0.17744	0.83038
1.168	79.523	-3.144e+05	2178.1	-0.51074	0.179	0.83048
1.17	79.559	-3.144e+05	2177.9	-0.50898	0.18056	0.83058
1.172	79.611	-3.1439e+05	2177.7	-0.50918	0.17978	0.8297
1.174	79.657	-3.1438e+05	2177.5	-0.50937	0.179	0.82882
1.176	79.683	-3.1438e+05	2177.2	-0.50957	0.17822	0.82794
1.178	79.639	-3.1437e+05	2177	-0.50976	0.17744	0.82706
1.18	79.596	-3.1436e+05	2176.7	-0.50996	0.17666	0.82618
1.182	79.568	-3.1435e+05	2176.4	-0.51025	0.17763	0.82677
1.184	79.539	-3.1435e+05	2176.1	-0.51055	0.17861	0.82736
1.186	79.563	-3.1434e+05	2175.9	-0.51084	0.17958	0.82794
1.188	79.588	-3.1433e+05	2175.6	-0.51113	0.18056	0.82853
1.19	79.597	-3.1432e+05	2175.4	-0.51142	0.18154	0.82911
1.192	79.667	-3.1432e+05	2175.1	-0.5124	0.18105	0.82892
1.194	79.656	-3.1431e+05	2174.8	-0.51338	0.18056	0.82872
1.196	79.602	-3.143e+05	2174.5	-0.51435	0.18007	0.82853
1.198	79.586	-3.143e+05	2174.2	-0.51533	0.17958	0.82833
1.2	79.532	-3.1429e+05	2173.9	-0.5163	0.1791	0.82814
1.202	79.531	-3.1429e+05	2173.6	-0.51669	0.17812	0.82833
1.204	79.571	-3.1429e+05	2173.3	-0.51708	0.17714	0.82853
1.206	79.599	-3.1428e+05	2173.1	-0.51748	0.17617	0.82872
1.208	79.665	-3.1428e+05	2173	-0.51787	0.17519	0.82892
1.21	79.708	-3.1428e+05	2172.8	-0.51826	0.17422	0.82911
1.212	79.662	-3.1428e+05	2172.8	-0.51777	0.17588	0.82999
1.214	79.62	-3.1428e+05	2172.7	-0.51728	0.17753	0.83087
1.216	79.566	-3.1427e+05	2172.6	-0.51679	0.17919	0.83175
1.218	79.525	-3.1426e+05	2172.5	-0.5163	0.18085	0.83263
1.22	79.568	-3.1425e+05	2172.4	-0.51582	0.18251	0.8335
1.222	79.607	-3.1425e+05	2172.3	-0.51416	0.18232	0.83458
1.224	79.663	-3.1426e+05	2172.2	-0.5125	0.18212	0.83565
1.226	79.691	-3.1425e+05	2172.1	-0.51084	0.18193	0.83672
1.228	79.669	-3.1424e+05	2171.9	-0.50918	0.18173	0.8378
1.23	79.639	-3.1424e+05	2171.7	-0.50752	0.18154	0.83887
1.232	79.589	-3.1424e+05	2171.5	-0.50791	0.18144	0.8379
1.234	79.539	-3.1424e+05	2171.3	-0.5083	0.18134	0.83692
1.236	79.553	-3.1423e+05	2171.1	-0.50869	0.18124	0.83594
1.238	79.612	-3.1423e+05	2170.9	-0.50908	0.18115	0.83497
1.24	79.675	-3.1423e+05	2170.6	-0.50947	0.18105	0.83399
1.242	79.717	-3.1423e+05	2170.3	-0.51152	0.18163	0.8338
1.244	79.704	-3.1423e+05	2170	-0.51357	0.18222	0.8336
1.246	79.653	-3.1423e+05	2169.6	-0.51562	0.1828	0.83341
1.248	79.606	-3.1423e+05	2169.3	-0.51767	0.18339	0.83321
1.25	79.568	-3.1422e+05	2169	-0.51972	0.18398	0.83302
1.252	79.569	-3.1421e+05	2168.6	-0.51943	0.18222	0.83204
1.254	79.619	-3.1421e+05	2168.1	-0.51913	0.18046	0.83106
1.256	79.676	-3.1421e+05	2167.7	-0.51884	0.17871	0.83009
1.258	79.727	-3.1421e+05	2167.2	-0.51855	0.17695	0.82911
1.26	79.736	-3.1421e+05	2166.8	-0.51826	0.17519	0.82814
1.262	79.691	-3.142e+05	2166.3	-0.51748	0.17695	0.8296
1.264	79.642	-3.1421e+05	2165.8	-0.51669	0.17871	0.83106
1.266	79.587	-3.142e+05	2165.3	-0.51591	0.18046	0.83253
1.268	79.558	-3.142e+05	2164.7	-0.51513	0.18222	0.83399
1.27	79.597	-3.142e+05	2164.2	-0.51435	0.18398	0.83546
1.272	79.64	-3.1421e+05	2163.7	-0.51474	0.1828	0.83409
1.274	79.694	-3.1421e+05	2163.1	-0.51513	0.18163	0.83272
1.276	79.742	-3.1421e+05	2162.6	-0.51552	0.18046	0.83136
1.278	79.713	-3.142e+05	2162	-0.51591	0.17929	0.82999
1.28	79.674	-3.1419e+05	2161.5	-0.5163	0.17812	0.82862
1.282	79.631	-3.1419e+05	2160.9	-0.51572	0.1791	0.82989
1.284	79.573	-3.1419e+05	2160.3	-0.51513	0.18007	0.83116
1.286	79.604	-3.142e+05	2159.8	-0.51455	0.18105	0.83243
1.288	79.659	-3.1421e+05	2159.4	-0.51396	0.18202	0.8337
1.29	79.672	-3.1421e+05	2159	-0.51338	0.183	0.83497
1.292	79.71	-3.142e+05	2158.6	-0.5124	0.18232	0.83575
1.294	79.732	-3.142e+05	2158.2	-0.51142	0.18163	0.83653
1.296	79.684	-3.142e+05	2158	-0.51045	0.18095	0.83731
1.298	79.621	-3.142e+05	2157.8	-0.50947	0.18027	0.83809
1.3	79.565	-3.1421e+05	2157.7	-0.5085	0.17958	0.83887
1.302	79.567	-3.1421e+05	2157.7	-0.51016	0.17822	0.83682
1.304	79.628	-3.1421e+05	2157.7	-0.51181	0.17685	0.83477
1.306	79.683	-3.1421e+05	2157.7	-0.51347	0.17548	0.83272
1.308	79.743	-3.1421e+05	2157.7	-0.51513	0.17412	0.83067
1.31	79.741	-3.1421e+05	2157.8	-0.51679	0.17275	0.82862
1.312	79.698	-3.1422e+05	2157.7	-0.51708	0.17334	0.8294
1.314	79.649	-3.1422e+05	2157.7	-0.51738	0.17392	0.83019
1.316	79.6	-3.1422e+05	2157.6	-0.51767	0.17451	0.83097
1.318	79.583	-3.1422e+05	2157.5	-0.51796	0.17509	0.83175
1.32	79.621	-3.1423e+05	2157.5	-0.51826	0.17568	0.83253
1.322	79.667	-3.1423e+05	2157.3	-0.51806	0.17568	0.83136
1.324	79.722	-3.1423e+05	2157.2	-0.51787	0.17568	0.83019
1.326	79.747	-3.1422e+05	2157	-0.51767	0.17568	0.82901
1.328	79.708	-3.1422e+05	2156.8	-0.51748	0.17568	0.82784
1.33	79.664	-3.1423e+05	2156.6	-0.51728	0.17568	0.82667
1.332	79.617	-3.1424e+05	2156.4	-0.51787	0.17548	0.82736
1.334	79.577	-3.1424e+05	2156.2	-0.51845	0.17529	0.82804
1.336	79.592	-3.1424e+05	2156	-0.51904	0.17509	0.82872
1.338	79.637	-3.1424e+05	2155.7	-0.51962	0.1749	0.8294
1.34	79.689	-3.1424e+05	2155.4	-0.52021	0.1747	0.83009
1.342	79.734	-3.1424e+05	2155.2	-0.51913	0.17529	0.8297
1.344	79.711	-3.1424e+05	2155	-0.51806	0.17588	0.82931
1.346	79.645	-3.1424e+05	2154.8	-0.51699	0.17646	0.82892
1.348	79.603	-3.1424e+05	2154.6	-0.51591	0.17705	0.82853
1.35	79.578	-3.1424e+05	2154.4	-0.51484	0.17763	0.82814
1.352	79.581	-3.1424e+05	2154.3	-0.51494	0.17734	0.82833
1.354	79.623	-3.1425e+05	2154.1	-0.51504	0.17705	0.82853
1.356	79.674	-3.1425e+05	2154	-0.51513	0.17675	0.82872
1.358	79.726	-3.1426e+05	2153.8	-0.51523	0.17646	0.82892
1.36	79.742	-3.1426e+05	2153.6	-0.51533	0.17617	0.82911
1.362	79.695	-3.1426e+05	2153.5	-0.51523	0.17656	0.82911
1.364	79.642	-3.1426e+05	2153.4	-0.51513	0.17695	0.82911
1.366	79.587	-3.1426e+05	2153.2	-0.51504	0.17734	0.82911
1.368	79.567	-3.1426e+05	2153	-0.51494	0.17773	0.82911
1.37	79.604	-3.1426e+05	2152.9	-0.51484	0.17812	0.82911
1.372	79.65	-3.1426e+05	2152.7	-0.51543	0.17744	0.82843
1.374	79.714	-3.1427e+05	2152.6	-0.51601	0.17675	0.82775
1.376	79.759	-3.1427e+05	2152.5	-0.5166	0.17607	0.82706
1.378	79.651	-3.1427e+05	2152.4	-0.51718	0.17539	0.82638
1.38	79.626	-3.1427e+05	2152.3	-0.51777	0.1747	0.8257
1.382	79.604	-3.1427e+05	2152.4	-0.5165	0.17636	0.82775
1.384	79.55	-3.1427e+05	2152.5	-0.51523	0.17802	0.8298
1.386	79.557	-3.1427e+05	2152.7	-0.51396	0.17968	0.83184
1.388	79.608	-3.1427e+05	2152.8	-0.51269	0.18134	0.83389
1.39	79.674	-3.1427e+05	2152.9	-0.51142	0.183	0.83594
1.392	79.728	-3.1428e+05	2153.2	-0.51142	0.18241	0.83624
1.394	79.7	-3.1429e+05	2153.4	-0.51142	0.18183	0.83653
1.396	79.678	-3.1428e+05	2153.6	-0.51142	0.18124	0.83682
1.398	79.644	-3.1428e+05	2153.7	-0.51142	0.18066	0.83712
1.4	79.588	-3.1428e+05	2153.9	-0.51142	0.18007	0.83741
1.402	79.589	-3.1429e+05	2153.9	-0.51094	0.17978	0.83741
1.404	79.63	-3.1428e+05	2154	-0.51045	0.17949	0.83741
1.406	79.671	-3.1428e+05	2154	-0.50996	0.17919	0.83741
1.408	79.724	-3.1428e+05	2154	-0.50947	0.1789	0.83741
1.41	79.734	-3.1428e+05	2154	-0.50898	0.17861	0.83741
1.412	79.692	-3.1428e+05	2153.9	-0.51123	0.17812	0.83585
1.414	79.647	-3.1429e+05	2153.9	-0.51347	0.17763	0.83428
1.416	79.594	-3.143e+05	2153.9	-0.51572	0.17714	0.83272
1.418	79.57	-3.143e+05	2153.8	-0.51796	0.17666	0.83116
1.42	79.619	-3.143e+05	2153.8	-0.52021	0.17617	0.8296
1.422	79.679	-3.143e+05	2153.7	-0.51904	0.17636	0.82872
1.424	79.726	-3.1429e+05	2153.7	-0.51787	0.17656	0.82784
1.426	79.757	-3.1429e+05	2153.7	-0.51669	0.17675	0.82696
1.428	79.726	-3.1429e+05	2153.7	-0.51552	0.17695	0.82609
1.43	79.671	-3.1429e+05	2153.6	-0.51435	0.17714	0.82521
1.432	79.621	-3.1429e+05	2153.6	-0.51455	0.17705	0.8257
1.434	79.582	-3.143e+05	2153.6	-0.51474	0.17695	0.82618
1.436	79.605	-3.143e+05	2153.6	-0.51494	0.17685	0.82667
1.438	79.648	-3.143e+05	2153.6	-0.51513	0.17675	0.82716
1.44	79.694	-3.143e+05	2153.6	-0.51533	0.17666	0.82765
1.442	79.753	-3.143e+05	2153.5	-0.51455	0.17646	0.82775
1.444	79.75	-3.143e+05	2153.4	-0.51377	0.17627	0.82784
1.446	79.709	-3.143e+05	2153.3	-0.51299	0.17607	0.82794
1.448	79.666	-3.1429e+05	2153.2	-0.5122	0.17588	0.82804
1.45	79.619	-3.143e+05	2153.1	-0.51142	0.17568	0.82814
1.452	79.624	-3.1431e+05	2153	-0.51094	0.17597	0.82784
1.454	79.683	-3.1431e+05	2152.9	-0.51045	0.17627	0.82755
1.456	79.707	-3.1431e+05	2152.7	-0.50996	0.17656	0.82726
1.458	79.748	-3.1431e+05	2152.6	-0.50947	0.17685	0.82696
1.46	79.748	-3.1431e+05	2152.4	-0.50898	0.17714	0.82667
1.462	79.665	-3.1431e+05	2152.2	-0.5084	0.17675	0.82648
1.464	79.66	-3.1431e+05	2151.9	-0.50781	0.17636	0.82628
1.466	79.607	-3.1431e+05	2151.7	-0.50723	0.17597	0.82609
1.468	79.58	-3.1431e+05	2151.4	-0.50664	0.17558	0.82589
1.47	79.616	-3.1431e+05	2151.2	-0.50606	0.17519	0.8257
1.472	79.659	-3.1431e+05	2151	-0.5085	0.17578	0.82706
1.474	79.696	-3.1432e+05	2150.8	-0.51094	0.17636	0.82843
1.476	79.734	-3.1433e+05	2150.5	-0.51338	0.17695	0.8298
1.478	79.709	-3.1433e+05	2150.3	-0.51582	0.17753	0.83116
1.48	79.659	-3.1432e+05	2150	-0.51826	0.17812	0.83253
1.482	79.607	-3.1432e+05	2149.8	-0.51777	0.17783	0.83184
1.484	79.563	-3.1433e+05	2149.6	-0.51728	0.17753	0.83116
1.486	79.601	-3.1433e+05	2149.4	-0.51679	0.17724	0.83048
1.488	79.648	-3.1433e+05	2149.2	-0.5163	0.17695	0.8298
1.49	79.675	-3.1433e+05	2149	-0.51582	0.17666	0.82911
1.492	79.718	-3.1433e+05	2148.7	-0.51601	0.17695	0.8294
1.494	79.716	-3.1433e+05	2148.5	-0.51621	0.17724	0.8297
1.496	79.68	-3.1433e+05	2148.2	-0.5164	0.17753	0.82999
1.498	79.636	-3.1433e+05	2148	-0.5166	0.17783	0.83028
1.5	79.588	-3.1433e+05	2147.7	-0.51679	0.17812	0.83058
1.502	79.589	-3.1433e+05	2147.4	-0.51669	0.1788	0.83165
1.504	79.629	-3.1433e+05	2147	-0.5166	0.17949	0.83272
1.506	79.668	-3.1433e+05	2146.7	-0.5165	0.18017	0.8338
1.508	79.712	-3.1434e+05	2146.3	-0.5164	0.18085	0.83487
1.51	79.722	-3.1434e+05	2145.9	-0.5163	0.18154	0.83594
1.512	79.683	-3.1434e+05	2145.6	-0.51572	0.18202	0.83575
1.514	79.641	-3.1434e+05	2145.4	-0.51513	0.18251	0.83555
1.516	79.588	-3.1434e+05	2145.1	-0.51455	0.183	0.83536
1.518	79.552	-3.1434e+05	2144.8	-0.51396	0.18349	0.83516
1.52	79.591	-3.1435e+05	2144.5	-0.51338	0.18398	0.83497
1.522	79.646	-3.1435e+05	2144.2	-0.51435	0.1828	0.83428
1.524	79.686	-3.1435e+05	2144	-0.51533	0.18163	0.8336
1.526	79.719	-3.1436e+05	2143.7	-0.5163	0.18046	0.83292
1.528	79.676	-3.1436e+05	2143.5	-0.51728	0.17929	0.83224
1.53	79.627	-3.1436e+05	2143.3	-0.51826	0.17812	0.83155
1.532	79.585	-3.1436e+05	2143	-0.51767	0.17841	0.83155
1.534	79.528	-3.1437e+05	2142.7	-0.51708	0.17871	0.83155
1.536	79.544	-3.1437e+05	2142.4	-0.5165	0.179	0.83155
1.538	79.591	-3.1437e+05	2142.1	-0.51591	0.17929	0.83155
1.54	79.62	-3.1437e+05	2141.8	-0.51533	0.17958	0.83155
1.542	79.657	-3.1437e+05	2141.5	-0.51494	0.17871	0.83048
1.544	79.663	-3.1437e+05	2141.2	-0.51455	0.17783	0.8294
1.546	79.646	-3.1437e+05	2140.9	-0.51416	0.17695	0.82833
1.548	79.664	-3.1438e+05	2140.6	-0.51377	0.17607	0.82726
1.55	79.663	-3.1439e+05	2140.3	-0.51338	0.17519	0.82618
1.552	79.73	-3.1439e+05	2139.9	-0.51416	0.1749	0.82677
1.554	79.84	-3.1439e+05	2139.6	-0.51494	0.17461	0.82736
1.556	79.959	-3.1439e+05	2139.3	-0.51572	0.17431	0.82794
1.558	80.128	-3.144e+05	2139.2	-0.5165	0.17402	0.82853
1.56	80.226	-3.144e+05	2139.1	-0.51728	0.17373	0.82911
1.562	80.263	-3.144e+05	2139.1	-0.51708	0.17529	0.83019
1.564	80.279	-3.1441e+05	2139.1	-0.51689	0.17685	0.83126
1.566	80.304	-3.1441e+05	2139.1	-0.51669	0.17841	0.83233
1.568	80.344	-3.1441e+05	2139	-0.5165	0.17997	0.83341
1.57	80.411	-3.1441e+05	2138.9	-0.5163	0.18154	0.83448
1.572	80.466	-3.1441e+05	2138.7	-0.51523	0.18193	0.83526
1.574	80.507	-3.1441e+05	2138.5	-0.51416	0.18232	0.83604
1.576	80.487	-3.1441e+05	2138.3	-0.51308	0.18271	0.83682
1.578	80.395	-3.1441e+05	2138.1	-0.51201	0.1831	0.8376
1.58	80.298	-3.1441e+05	2137.9	-0.51094	0.18349	0.83838
1.582	80.176	-3.1441e+05	2137.7	-0.51084	0.18368	0.8376
1.584	80.036	-3.1441e+05	2137.5	-0.51074	0.18388	0.83682
1.586	79.932	-3.1442e+05	2137.2	-0.51064	0.18407	0.83604
1.588	79.869	-3.1442e+05	2136.9	-0.51055	0.18427	0.83526
1.59	79.831	-3.1442e+05	2136.6	-0.51045	0.18446	0.83448
1.592	79.792	-3.1443e+05	2136.3	-0.51084	0.18495	0.83458
1.594	79.734	-3.1444e+05	2136	-0.51123	0.18544	0.83468
1.596	79.683	-3.1444e+05	2135.7	-0.51162	0.18593	0.83477
1.598	79.648	-3.1444e+05	2135.4	-0.51201	0.18642	0.83487
1.6	79.613	-3.1444e+05	2135.1	-0.5124	0.1869	0.83497
1.602	79.612	-3.1444e+05	2134.8	-0.5123	0.18554	0.83487
1.604	79.653	-3.1444e+05	2134.5	-0.5122	0.18417	0.83477
1.606	79.689	-3.1444e+05	2134.3	-0.51211	0.1828	0.83468
1.608	79.723	-3.1444e+05	2134.1	-0.51201	0.18144	0.83458
1.61	79.731	-3.1445e+05	2133.9	-0.51191	0.18007	0.83448
1.612	79.684	-3.1445e+05	2133.7	-0.5123	0.1791	0.83311
1.614	79.654	-3.1446e+05	2133.5	-0.51269	0.17812	0.83175
1.616	79.601	-3.1446e+05	2133.4	-0.51308	0.17714	0.83038
1.618	79.57	-3.1446e+05	2133.2	-0.51347	0.17617	0.82901
1.62	79.617	-3.1446e+05	2133	-0.51386	0.17519	0.82765
1.622	79.659	-3.1447e+05	2132.8	-0.51406	0.17578	0.82901
1.624	79.704	-3.1447e+05	2132.6	-0.51425	0.17636	0.83038
1.626	79.737	-3.1447e+05	2132.4	-0.51445	0.17695	0.83175
1.628	79.706	-3.1447e+05	2132.2	-0.51464	0.17753	0.83311
1.63	79.673	-3.1448e+05	2132	-0.51484	0.17812	0.83448
1.632	79.619	-3.1448e+05	2131.7	-0.51425	0.17871	0.83409
1.634	79.579	-3.1449e+05	2131.3	-0.51367	0.17929	0.8337
1.636	79.617	-3.1449e+05	2131	-0.51308	0.17988	0.83331
1.638	79.639	-3.1449e+05	2130.7	-0.5125	0.18046	0.83292
1.64	79.671	-3.1449e+05	2130.3	-0.51191	0.18105	0.83253
1.642	79.732	-3.1449e+05	2130.1	-0.51201	0.18115	0.83321
1.644	79.73	-3.1449e+05	2129.8	-0.51211	0.18124	0.83389
1.646	79.691	-3.145e+05	2129.6	-0.5122	0.18134	0.83458
1.648	79.633	-3.145e+05	2129.4	-0.5123	0.18144	0.83526
1.65	79.566	-3.1451e+05	2129.3	-0.5124	0.18154	0.83594
1.652	79.582	-3.1451e+05	2129.1	-0.51191	0.18163	0.83604
1.654	79.624	-3.1451e+05	2128.9	-0.51142	0.18173	0.83614
1.656	79.668	-3.1451e+05	2128.7	-0.51094	0.18183	0.83624
1.658	79.713	-3.1451e+05	2128.5	-0.51045	0.18193	0.83633
1.66	79.728	-3.1452e+05	2128.3	-0.50996	0.18202	0.83643
1.662	79.699	-3.1452e+05	2127.9	-0.50889	0.18173	0.83702
1.664	79.661	-3.1453e+05	2127.6	-0.50781	0.18144	0.8376
1.666	79.614	-3.1453e+05	2127.3	-0.50674	0.18115	0.83819
1.668	79.595	-3.1453e+05	2127	-0.50567	0.18085	0.83877
1.67	79.621	-3.1453e+05	2126.7	-0.50459	0.18056	0.83936
1.672	79.663	-3.1453e+05	2126.3	-0.50528	0.18036	0.83877
1.674	79.717	-3.1454e+05	2126	-0.50596	0.18017	0.83819
1.676	79.748	-3.1454e+05	2125.7	-0.50664	0.17997	0.8376
1.678	79.725	-3.1454e+05	2125.4	-0.50732	0.17978	0.83702
1.68	79.684	-3.1455e+05	2125.1	-0.50801	0.17958	0.83643
1.682	79.633	-3.1455e+05	2124.9	-0.50801	0.17988	0.83672
1.684	79.584	-3.1455e+05	2124.7	-0.50801	0.18017	0.83702
1.686	79.595	-3.1456e+05	2124.6	-0.50801	0.18046	0.83731
1.688	79.63	-3.1456e+05	2124.6	-0.50801	0.18076	0.8376
1.69	79.664	-3.1456e+05	2124.6	-0.50801	0.18105	0.8379
1.692	79.728	-3.1456e+05	2124.7	-0.50918	0.18124	0.83731
1.694	79.734	-3.1456e+05	2124.8	-0.51035	0.18144	0.83672
1.696	79.68	-3.1457e+05	2125	-0.51152	0.18163	0.83614
1.698	79.65	-3.1457e+05	2125.3	-0.51269	0.18183	0.83555
1.7	79.602	-3.1457e+05	2125.6	-0.51386	0.18202	0.83497
1.702	79.587	-3.1458e+05	2126.3	-0.51377	0.18095	0.8337
1.704	79.646	-3.1458e+05	2127.1	-0.51367	0.17988	0.83243
1.706	79.693	-3.1458e+05	2128	-0.51357	0.1788	0.83116
1.708	79.753	-3.1458e+05	2129.2	-0.51347	0.17773	0.82989
1.71	79.771	-3.1459e+05	2130.4	-0.51338	0.17666	0.82862
1.712	79.717	-3.1459e+05	2131.9	-0.51494	0.17705	0.82901
1.714	79.678	-3.1459e+05	2133.5	-0.5165	0.17744	0.8294
1.716	79.62	-3.146e+05	2135.1	-0.51806	0.17783	0.8298
1.718	79.607	-3.146e+05	2136.8	-0.51962	0.17822	0.83019
1.72	79.676	-3.146e+05	2138.5	-0.52118	0.17861	0.83058
1.722	79.711	-3.146e+05	2140.1	-0.5205	0.1788	0.83048
1.724	79.769	-3.146e+05	2141.7	-0.51982	0.179	0.83038
1.726	79.792	-3.146e+05	2143.3	-0.51913	0.17919	0.83028
1.728	79.746	-3.1459e+05	2144.7	-0.51845	0.17939	0.83019
1.73	79.716	-3.1459e+05	2146.2	-0.51777	0.17958	0.83009
1.732	79.678	-3.146e+05	2147.6	-0.5165	0.1791	0.82901
1.734	79.644	-3.146e+05	2148.9	-0.51523	0.17861	0.82794
1.736	79.681	-3.146e+05	2150.2	-0.51396	0.17812	0.82687
1.738	79.733	-3.1459e+05	2151.5	-0.51269	0.17763	0.82579
1.74	79.773	-3.1459e+05	2152.8	-0.51142	0.17714	0.82472
1.742	79.821	-3.1458e+05	2154	-0.5123	0.17773	0.82609
1.744	79.812	-3.1458e+05	2155.1	-0.51318	0.17832	0.82745
1.746	79.776	-3.1458e+05	2156.2	-0.51406	0.1789	0.82882
1.748	79.731	-3.1457e+05	2157.2	-0.51494	0.17949	0.83019
1.75	79.669	-3.1456e+05	2158.2	-0.51582	0.18007	0.83155
1.752	79.655	-3.1457e+05	2159.1	-0.51582	0.17871	0.83136
1.754	79.692	-3.1456e+05	2160	-0.51582	0.17734	0.83116
1.756	79.738	-3.1455e+05	2160.8	-0.51582	0.17597	0.83097
1.758	79.796	-3.1454e+05	2161.4	-0.51582	0.17461	0.83077
1.76	79.809	-3.1453e+05	2162.1	-0.51582	0.17324	0.83058
1.762	79.765	-3.1452e+05	2162.6	-0.51552	0.17431	0.83009
1.764	79.727	-3.1452e+05	2163.1	-0.51523	0.17539	0.8296
1.766	79.689	-3.1451e+05	2163.5	-0.51494	0.17646	0.82911
1.768	79.68	-3.145e+05	2163.9	-0.51464	0.17753	0.82862
1.77	79.715	-3.1449e+05	2164.2	-0.51435	0.17861	0.82814
1.772	79.732	-3.1448e+05	2164.5	-0.51455	0.17871	0.82814
1.774	79.742	-3.1448e+05	2164.8	-0.51474	0.1788	0.82814
1.776	79.76	-3.1447e+05	2165	-0.51494	0.1789	0.82814
1.778	79.734	-3.1446e+05	2165.2	-0.51513	0.179	0.82814
1.78	79.698	-3.1444e+05	2165.3	-0.51533	0.1791	0.82814
1.782	79.652	-3.1443e+05	2165.5	-0.51504	0.17861	0.82804
1.784	79.607	-3.1443e+05	2165.6	-0.51474	0.17812	0.82794
1.786	79.623	-3.1442e+05	2165.7	-0.51445	0.17763	0.82784
1.788	79.642	-3.1442e+05	2165.8	-0.51416	0.17714	0.82775
1.79	79.669	-3.144e+05	2165.8	-0.51386	0.17666	0.82765
1.792	79.739	-3.1438e+05	2165.8	-0.51504	0.17675	0.82794
1.794	79.716	-3.1437e+05	2165.8	-0.51621	0.17685	0.82823
1.796	79.645	-3.1436e+05	2165.8	-0.51738	0.17695	0.82853
1.798	79.616	-3.1435e+05	2165.7	-0.51855	0.17705	0.82882
1.8	79.557	-3.1434e+05	2165.7	-0.51972	0.17714	0.82911
1.802	79.566	-3.1432e+05	2165.6	-0.51943	0.17666	0.82882
1.804	79.595	-3.1431e+05	2165.4	-0.51913	0.17617	0.82853
1.806	79.61	-3.143e+05	2165.4	-0.51884	0.17568	0.82823
1.808	79.698	-3.1429e+05	2165.3	-0.51855	0.17519	0.82794
1.81	79.71	-3.1428e+05	2165.2	-0.51826	0.1747	0.82765
1.812	79.651	-3.1427e+05	2165.2	-0.51699	0.17548	0.82794
1.814	79.607	-3.1427e+05	2165.1	-0.51572	0.17627	0.82823
1.816	79.548	-3.1426e+05	2165	-0.51445	0.17705	0.82853
1.818	79.53	-3.1425e+05	2164.8	-0.51318	0.17783	0.82882
1.82	79.57	-3.1424e+05	2164.6	-0.51191	0.17861	0.82911
1.822	79.601	-3.1423e+05	2164.4	-0.5124	0.17841	0.82911
1.824	79.662	-3.1422e+05	2164.3	-0.51289	0.17822	0.82911
1.826	79.693	-3.1421e+05	2164.1	-0.51338	0.17802	0.82911
1.828	79.656	-3.142e+05	2163.9	-0.51386	0.17783	0.82911
1.83	79.626	-3.1419e+05	2163.7	-0.51435	0.17763	0.82911
1.832	79.564	-3.1419e+05	2163.6	-0.51425	0.17773	0.83019
1.834	79.518	-3.1418e+05	2163.5	-0.51416	0.17783	0.83126
1.836	79.536	-3.1418e+05	2163.4	-0.51406	0.17792	0.83233
1.838	79.586	-3.1417e+05	2163.4	-0.51396	0.17802	0.83341
1.84	79.647	-3.1416e+05	2163.4	-0.51386	0.17812	0.83448
1.842	79.685	-3.1415e+05	2163.4	-0.51494	0.17724	0.83399
1.844	79.667	-3.1416e+05	2163.4	-0.51601	0.17636	0.8335
1.846	79.614	-3.1415e+05	2163.4	-0.51708	0.17548	0.83302
1.848	79.548	-3.1413e+05	2163.3	-0.51816	0.17461	0.83253
1.85	79.5	-3.1412e+05	2163.1	-0.51923	0.17373	0.83204
1.852	79.516	-3.1412e+05	2162.9	-0.51835	0.17519	0.83282
1.854	79.575	-3.1411e+05	2162.6	-0.51748	0.17666	0.8336
1.856	79.632	-3.1411e+05	2162.4	-0.5166	0.17812	0.83438
1.858	79.678	-3.141e+05	2162.2	-0.51572	0.17958	0.83516
1.86	79.689	-3.1411e+05	2162	-0.51484	0.18105	0.83594
1.862	79.652	-3.141e+05	2161.9	-0.51416	0.18134	0.83633
1.864	79.603	-3.141e+05	2161.8	-0.51347	0.18163	0.83672
1.866	79.524	-3.1409e+05	2161.6	-0.51279	0.18193	0.83712
1.868	79.475	-3.1409e+05	2161.5	-0.51211	0.18222	0.83751
1.87	79.525	-3.1408e+05	2161.4	-0.51142	0.18251	0.8379
1.872	79.584	-3.1408e+05	2161.2	-0.51074	0.18212	0.8379
1.874	79.65	-3.1407e+05	2161.1	-0.51006	0.18173	0.8379
1.876	79.697	-3.1406e+05	2160.9	-0.50937	0.18134	0.8379
1.878	79.651	-3.1406e+05	2160.8	-0.50869	0.18095	0.8379
1.88	79.6	-3.1406e+05	2160.7	-0.50801	0.18056	0.8379
1.882	79.564	-3.1406e+05	2160.6	-0.5083	0.18124	0.83809
1.884	79.527	-3.1406e+05	2160.5	-0.50859	0.18193	0.83829
1.886	79.562	-3.1405e+05	2160.4	-0.50889	0.18261	0.83848
1.888	79.615	-3.1404e+05	2160.2	-0.50918	0.18329	0.83868
1.89	79.662	-3.1404e+05	2160	-0.50947	0.18398	0.83887
1.892	79.72	-3.1404e+05	2159.9	-0.51123	0.1828	0.83712
1.894	79.685	-3.1404e+05	2159.7	-0.51299	0.18163	0.83536
1.896	79.638	-3.1404e+05	2159.5	-0.51474	0.18046	0.8336
1.898	79.615	-3.1403e+05	2159.2	-0.5165	0.17929	0.83184
1.9	79.573	-3.1402e+05	2159	-0.51826	0.17812	0.83009
1.902	79.595	-3.1402e+05	2158.8	-0.51738	0.17929	0.83067
1.904	79.635	-3.1403e+05	2158.6	-0.5165	0.18046	0.83126
1.906	79.671	-3.1403e+05	2158.3	-0.51562	0.18163	0.83184
1.908	79.731	-3.1402e+05	2158	-0.51474	0.1828	0.83243
1.91	79.732	-3.1402e+05	2157.8	-0.51386	0.18398	0.83302
1.912	79.694	-3.1403e+05	2157.4	-0.51425	0.18368	0.83341
1.914	79.647	-3.1403e+05	2157.1	-0.51464	0.18339	0.8338
1.916	79.598	-3.1402e+05	2156.7	-0.51504	0.1831	0.83419
1.918	79.594	-3.1402e+05	2156.3	-0.51543	0.1828	0.83458
1.92	79.631	-3.1401e+05	2155.9	-0.51582	0.18251	0.83497
1.922	79.683	-3.1401e+05	2155.5	-0.51484	0.1829	0.83497
1.924	79.757	-3.1401e+05	2155	-0.51386	0.18329	0.83497
1.926	79.776	-3.1401e+05	2154.6	-0.51289	0.18368	0.83497
1.928	79.728	-3.1401e+05	2154.2	-0.51191	0.18407	0.83497
1.93	79.69	-3.14e+05	2153.7	-0.51094	0.18446	0.83497
1.932	79.652	-3.14e+05	2153.3	-0.51201	0.18388	0.83497
1.934	79.628	-3.14e+05	2152.9	-0.51308	0.18329	0.83497
1.936	79.661	-3.14e+05	2152.4	-0.51416	0.18271	0.83497
1.938	79.707	-3.14e+05	2152	-0.51523	0.18212	0.83497
1.94	79.749	-3.1401e+05	2151.5	-0.5163	0.18154	0.83497
1.942	79.768	-3.1401e+05	2151.1	-0.51435	0.18124	0.83604
1.944	79.723	-3.1401e+05	2150.6	-0.5124	0.18095	0.83712
1.946	79.665	-3.1401e+05	2150.2	-0.51045	0.18066	0.83819
1.948	79.643	-3.1401e+05	2149.9	-0.5085	0.18036	0.83926
1.95	79.6	-3.1401e+05	2149.6	-0.50654	0.18007	0.84034
1.952	79.595	-3.1401e+05	2149.3	-0.50684	0.18066	0.84014
1.954	79.652	-3.1401e+05	2149	-0.50713	0.18124	0.83995
1.956	79.699	-3.1401e+05	2148.7	-0.50742	0.18183	0.83975
1.958	79.762	-3.1401e+05	2148.3	-0.50772	0.18241	0.83956
1.96	79.763	-3.1402e+05	2148	-0.50801	0.183	0.83936
1.962	79.698	-3.1402e+05	2147.7	-0.50869	0.18202	0.8379
1.964	79.659	-3.1403e+05	2147.4	-0.50937	0.18105	0.83643
1.966	79.619	-3.1403e+05	2147	-0.51006	0.18007	0.83497
1.968	79.605	-3.1404e+05	2146.7	-0.51074	0.1791	0.8335
1.97	79.657	-3.1405e+05	2146.3	-0.51142	0.17812	0.83204
1.972	79.663	-3.1405e+05	2146	-0.5122	0.17929	0.83282
1.974	79.73	-3.1404e+05	2145.6	-0.51299	0.18046	0.8336
1.976	79.771	-3.1404e+05	2145.3	-0.51377	0.18163	0.83438
1.978	79.743	-3.1404e+05	2145	-0.51455	0.1828	0.83516
1.98	79.69	-3.1405e+05	2144.6	-0.51533	0.18398	0.83594
1.982	79.617	-3.1405e+05	2144.3	-0.51504	0.1831	0.83438
1.984	79.584	-3.1406e+05	2143.9	-0.51474	0.18222	0.83282
1.986	79.627	-3.1406e+05	2143.6	-0.51445	0.18134	0.83126
1.988	79.676	-3.1406e+05	2143.3	-0.51416	0.18046	0.8297
1.99	79.717	-3.1406e+05	2143.1	-0.51386	0.17958	0.82814
1.992	79.759	-3.1406e+05	2142.9	-0.51396	0.17949	0.82843
1.994	79.734	-3.1406e+05	2142.7	-0.51406	0.17939	0.82872
1.996	79.695	-3.1406e+05	2142.4	-0.51416	0.17929	0.82901
1.998	79.652	-3.1407e+05	2142.2	-0.51425	0.17919	0.82931
2	79.594	-3.1407e+05	2142.1	-0.51435	0.1791	0.8296
2.002	79.596	-3.1407e+05	2142	-0.51464	0.17929	0.8298
2.004	79.651	-3.1407e+05	2141.9	-0.51494	0.17949	0.82999
2.006	79.706	-3.1407e+05	2141.8	-0.51523	0.17968	0.83019
2.008	79.754	-3.1407e+05	2141.7	-0.51552	0.17988	0.83038
2.01	79.756	-3.1407e+05	2141.6	-0.51582	0.18007	0.83058
2.012	79.702	-3.1407e+05	2141.5	-0.51679	0.17968	0.83087
2.014	79.64	-3.1408e+05	2141.3	-0.51777	0.17929	0.83116
2.016	79.583	-3.1408e+05	2141.1	-0.51874	0.1789	0.83145
2.018	79.58	-3.1408e+05	2140.9	-0.51972	0.17851	0.83175
2.02	79.648	-3.1409e+05	2140.7	-0.5207	0.17812	0.83204
2.022	79.714	-3.141e+05	2140.5	-0.5207	0.17792	0.83224
2.024	79.755	-3.141e+05	2140.3	-0.5207	0.17773	0.83243
2.026	79.753	-3.141e+05	2140.1	-0.5207	0.17753	0.83263
2.028	79.704	-3.141e+05	2139.9	-0.5207	0.17734	0.83282
2.03	79.665	-3.141e+05	2139.7	-0.5207	0.17714	0.83302
2.032	79.625	-3.141e+05	2139.5	-0.5206	0.17597	0.83282
2.034	79.591	-3.141e+05	2139.3	-0.5205	0.1748	0.83263
2.036	79.614	-3.1411e+05	2139.1	-0.5204	0.17363	0.83243
2.038	79.657	-3.1411e+05	2139	-0.52031	0.17246	0.83224
2.04	79.71	-3.141e+05	2138.8	-0.52021	0.17129	0.83204
2.042	79.742	-3.141e+05	2138.6	-0.5204	0.17168	0.83155
2.044	79.71	-3.141e+05	2138.3	-0.5206	0.17207	0.83106
2.046	79.674	-3.141e+05	2138.1	-0.52079	0.17246	0.83058
2.048	79.64	-3.141e+05	2137.9	-0.52099	0.17285	0.83009
2.05	79.572	-3.141e+05	2137.6	-0.52118	0.17324	0.8296
2.052	79.587	-3.141e+05	2137.5	-0.52021	0.17383	0.82989
2.054	79.647	-3.1411e+05	2137.3	-0.51923	0.17441	0.83019
2.056	79.676	-3.1411e+05	2137.2	-0.51826	0.175	0.83048
2.058	79.726	-3.1411e+05	2137.1	-0.51728	0.17558	0.83077
2.06	79.719	-3.1411e+05	2137.1	-0.5163	0.17617	0.83106
2.062	79.674	-3.1411e+05	2137.1	-0.5164	0.17568	0.83058
2.064	79.641	-3.1412e+05	2137.1	-0.5165	0.17519	0.83009
2.066	79.589	-3.1412e+05	2137.1	-0.5166	0.1747	0.8296
2.068	79.575	-3.1412e+05	2137	-0.51669	0.17422	0.82911
2.07	79.634	-3.1412e+05	2137	-0.51679	0.17373	0.82862
2.072	79.674	-3.1412e+05	2136.9	-0.51406	0.17265	0.82862
2.074	79.722	-3.1412e+05	2136.9	-0.51133	0.17158	0.82862
2.076	79.738	-3.1412e+05	2136.9	-0.50859	0.17051	0.82862
2.078	79.711	-3.1412e+05	2137	-0.50586	0.16943	0.82862
2.08	79.684	-3.1412e+05	2137	-0.50313	0.16836	0.82862
2.082	79.616	-3.1412e+05	2137.2	-0.50381	0.16914	0.82794
2.084	79.551	-3.1413e+05	2137.3	-0.50449	0.16992	0.82726
2.086	79.598	-3.1413e+05	2137.4	-0.50518	0.1707	0.82657
2.088	79.665	-3.1413e+05	2137.5	-0.50586	0.17148	0.82589
2.09	79.724	-3.1413e+05	2137.6	-0.50654	0.17226	0.82521
2.092	79.764	-3.1413e+05	2137.6	-0.50811	0.17363	0.82579
2.094	79.729	-3.1414e+05	2137.6	-0.50967	0.175	0.82638
2.096	79.681	-3.1414e+05	2137.6	-0.51123	0.17636	0.82696
2.098	79.642	-3.1414e+05	2137.6	-0.51279	0.17773	0.82755
2.1	79.612	-3.1414e+05	2137.6	-0.51435	0.1791	0.82814
2.102	79.629	-3.1414e+05	2137.4	-0.51425	0.1789	0.82814
2.104	79.67	-3.1414e+05	2137.3	-0.51416	0.17871	0.82814
2.106	79.706	-3.1414e+05	2137.2	-0.51406	0.17851	0.82814
2.108	79.745	-3.1415e+05	2137	-0.51396	0.17832	0.82814
2.11	79.753	-3.1415e+05	2136.9	-0.51386	0.17812	0.82814
2.112	79.721	-3.1415e+05	2136.7	-0.51338	0.17822	0.82794
2.114	79.683	-3.1415e+05	2136.6	-0.51289	0.17832	0.82775
2.116	79.638	-3.1416e+05	2136.4	-0.5124	0.17841	0.82755
2.118	79.632	-3.1416e+05	2136.3	-0.51191	0.17851	0.82736
2.12	79.668	-3.1415e+05	2136.2	-0.51142	0.17861	0.82716
2.122	79.7	-3.1415e+05	2136.1	-0.51357	0.17851	0.82775
2.124	79.742	-3.1415e+05	2136	-0.51572	0.17841	0.82833
2.126	79.754	-3.1415e+05	2135.8	-0.51787	0.17832	0.82892
2.128	79.705	-3.1415e+05	2135.7	-0.52001	0.17822	0.8295
2.13	79.653	-3.1415e+05	2135.5	-0.52216	0.17812	0.83009
2.132	79.62	-3.1416e+05	2135.3	-0.5207	0.17861	0.82999
2.134	79.586	-3.1416e+05	2135	-0.51923	0.1791	0.82989
2.136	79.629	-3.1417e+05	2134.8	-0.51777	0.17958	0.8298
2.138	79.667	-3.1417e+05	2134.6	-0.5163	0.18007	0.8297
2.14	79.694	-3.1417e+05	2134.3	-0.51484	0.18056	0.8296
2.142	79.727	-3.1418e+05	2134.1	-0.51386	0.18017	0.82911
2.144	79.697	-3.1418e+05	2133.8	-0.51289	0.17978	0.82862
2.146	79.669	-3.1418e+05	2133.5	-0.51191	0.17939	0.82814
2.148	79.655	-3.1418e+05	2133.2	-0.51094	0.179	0.82765
2.15	79.585	-3.1418e+05	2132.9	-0.50996	0.17861	0.82716
2.152	79.59	-3.1418e+05	2132.5	-0.51074	0.17929	0.82862
2.154	79.63	-3.1418e+05	2132.1	-0.51152	0.17997	0.83009
2.156	79.677	-3.1418e+05	2131.8	-0.5123	0.18066	0.83155
2.158	79.752	-3.1418e+05	2131.7	-0.51308	0.18134	0.83302
2.16	79.732	-3.1418e+05	2131.5	-0.51386	0.18202	0.83448
2.162	79.674	-3.1418e+05	2131.5	-0.51484	0.18154	0.83458
2.164	79.651	-3.1418e+05	2131.5	-0.51582	0.18105	0.83468
2.166	79.586	-3.1418e+05	2131.5	-0.51679	0.18056	0.83477
2.168	79.568	-3.1419e+05	2131.5	-0.51777	0.18007	0.83487
2.17	79.614	-3.1419e+05	2131.4	-0.51874	0.17958	0.83497
2.172	79.664	-3.1419e+05	2131.3	-0.51787	0.17978	0.83399
2.174	79.725	-3.1419e+05	2131.3	-0.51699	0.17997	0.83302
2.176	79.743	-3.142e+05	2131.3	-0.51611	0.18017	0.83204
2.178	79.703	-3.142e+05	2131.4	-0.51523	0.18036	0.83106
2.18	79.643	-3.142e+05	2131.5	-0.51435	0.18056	0.83009
2.182	79.575	-3.142e+05	2131.6	-0.51533	0.17949	0.8296
2.184	79.561	-3.142e+05	2131.7	-0.5163	0.17841	0.82911
2.186	79.613	-3.142e+05	2131.8	-0.51728	0.17734	0.82862
2.188	79.659	-3.142e+05	2131.7	-0.51826	0.17627	0.82814
2.19	79.69	-3.1421e+05	2131.7	-0.51923	0.17519	0.82765
2.192	79.706	-3.1421e+05	2131.5	-0.51884	0.17656	0.82862
2.194	79.678	-3.1421e+05	2131.3	-0.51845	0.17792	0.8296
2.196	79.645	-3.1421e+05	2131.2	-0.51806	0.17929	0.83058
2.198	79.612	-3.1421e+05	2130.9	-0.51767	0.18066	0.83155
2.2	79.565	-3.1421e+05	2130.7	-0.51728	0.18202	0.83253
2.202	79.563	-3.1421e+05	2130.6	-0.51689	0.18095	0.83155
2.204	79.601	-3.1422e+05	2130.5	-0.5165	0.17988	0.83058
2.206	79.643	-3.1422e+05	2130.4	-0.51611	0.1788	0.8296
2.208	79.688	-3.1422e+05	2130.4	-0.51572	0.17773	0.82862
2.21	79.68	-3.1422e+05	2130.3	-0.51533	0.17666	0.82765
2.212	79.64	-3.1422e+05	2130.2	-0.51484	0.17714	0.82745
2.214	79.609	-3.1422e+05	2130.2	-0.51435	0.17763	0.82726
2.216	79.602	-3.1423e+05	2130.1	-0.51386	0.17812	0.82706
2.218	79.651	-3.1424e+05	2130	-0.51338	0.17861	0.82687
2.22	79.749	-3.1424e+05	2129.9	-0.51289	0.1791	0.82667
2.222	79.85	-3.1424e+05	2129.8	-0.51347	0.17919	0.82667
2.224	79.991	-3.1424e+05	2129.6	-0.51406	0.17929	0.82667
2.226	80.114	-3.1425e+05	2129.5	-0.51464	0.17939	0.82667
2.228	80.145	-3.1425e+05	2129.4	-0.51523	0.17949	0.82667
2.23	80.189	-3.1425e+05	2129.2	-0.51582	0.17958	0.82667
2.232	80.198	-3.1425e+05	2129.1	-0.5163	0.17949	0.82794
2.234	80.215	-3.1426e+05	2128.9	-0.51679	0.17939	0.82921
2.236	80.306	-3.1426e+05	2128.7	-0.51728	0.17929	0.83048
2.238	80.38	-3.1426e+05	2128.5	-0.51777	0.17919	0.83175
2.24	80.431	-3.1426e+05	2128.4	-0.51826	0.1791	0.83302
2.242	80.446	-3.1426e+05	2128.1	-0.51787	0.17871	0.83214
2.244	80.378	-3.1426e+05	2127.9	-0.51748	0.17832	0.83126
2.246	80.275	-3.1425e+05	2127.7	-0.51708	0.17792	0.83038
2.248	80.172	-3.1425e+05	2127.5	-0.51669	0.17753	0.8295
2.25	80.059	-3.1425e+05	2127.3	-0.5163	0.17714	0.82862
2.252	79.987	-3.1426e+05	2127.1	-0.5164	0.17695	0.82843
2.254	79.922	-3.1427e+05	2126.9	-0.5165	0.17675	0.82823
2.256	79.888	-3.1427e+05	2126.7	-0.5166	0.17656	0.82804
2.258	79.883	-3.1427e+05	2126.5	-0.51669	0.17636	0.82784
2.26	79.806	-3.1426e+05	2126.4	-0.51679	0.17617	0.82765
2.262	79.689	-3.1426e+05	2126.3	-0.5165	0.17588	0.82755
2.264	79.606	-3.1427e+05	2126.2	-0.51621	0.17558	0.82745
2.266	79.561	-3.1427e+05	2126.1	-0.51591	0.17529	0.82736
2.268	79.57	-3.1427e+05	2125.9	-0.51562	0.175	0.82726
2.27	79.623	-3.1428e+05	2125.7	-0.51533	0.1747	0.82716
2.272	79.662	-3.1428e+05	2125.6	-0.51474	0.17529	0.82677
2.274	79.712	-3.1428e+05	2125.5	-0.51416	0.17588	0.82638
2.276	79.756	-3.1428e+05	2125.4	-0.51357	0.17646	0.82599
2.278	79.728	-3.1429e+05	2125.5	-0.51299	0.17705	0.8256
2.28	79.655	-3.1429e+05	2125.5	-0.5124	0.17763	0.82521
2.282	79.569	-3.1429e+05	2125.7	-0.5126	0.17734	0.8254
2.284	79.529	-3.1429e+05	2126	-0.51279	0.17705	0.8256
2.286	79.579	-3.1429e+05	2126.1	-0.51299	0.17675	0.82579
2.288	79.651	-3.1428e+05	2126.2	-0.51318	0.17646	0.82599
2.29	79.695	-3.1428e+05	2126.3	-0.51338	0.17617	0.82618
2.292	79.729	-3.1428e+05	2126.3	-0.51435	0.17578	0.82667
2.294	79.698	-3.1429e+05	2126.4	-0.51533	0.17539	0.82716
2.296	79.647	-3.1429e+05	2126.4	-0.5163	0.175	0.82765
2.298	79.592	-3.143e+05	2126.4	-0.51728	0.17461	0.82814
2.3	79.542	-3.143e+05	2126.3	-0.51826	0.17422	0.82862
2.302	79.555	-3.1431e+05	2126.3	-0.51913	0.1747	0.82901
2.304	79.609	-3.1431e+05	2126.2	-0.52001	0.17519	0.8294
2.306	79.654	-3.1431e+05	2126	-0.52089	0.17568	0.8298
2.308	79.727	-3.1431e+05	2125.9	-0.52177	0.17617	0.83019
2.31	79.731	-3.1431e+05	2125.7	-0.52265	0.17666	0.83058
2.312	79.67	-3.1431e+05	2125.6	-0.52148	0.17705	0.82999
2.314	79.624	-3.1431e+05	2125.5	-0.52031	0.17744	0.8294
2.316	79.567	-3.1431e+05	2125.4	-0.51913	0.17783	0.82882
2.318	79.58	-3.1432e+05	2125.4	-0.51796	0.17822	0.82823
2.32	79.629	-3.1432e+05	2125.3	-0.51679	0.17861	0.82765
2.322	79.661	-3.1433e+05	2125.2	-0.51552	0.17919	0.82726
2.324	79.715	-3.1433e+05	2125.2	-0.51425	0.17978	0.82687
2.326	79.731	-3.1434e+05	2125.1	-0.51299	0.18036	0.82648
2.328	79.692	-3.1434e+05	2125	-0.51172	0.18095	0.82609
2.33	79.677	-3.1434e+05	2124.9	-0.51045	0.18154	0.8257
2.332	79.623	-3.1434e+05	2124.8	-0.5125	0.18095	0.82648
2.334	79.569	-3.1434e+05	2124.7	-0.51455	0.18036	0.82726
2.336	79.603	-3.1434e+05	2124.6	-0.5166	0.17978	0.82804
2.338	79.657	-3.1434e+05	2124.5	-0.51865	0.17919	0.82882
2.34	79.691	-3.1434e+05	2124.4	-0.5207	0.17861	0.8296
2.342	79.713	-3.1435e+05	2124.3	-0.51943	0.1791	0.8295
2.344	79.712	-3.1436e+05	2124.3	-0.51816	0.17958	0.8294
2.346	79.678	-3.1437e+05	2124.2	-0.51689	0.18007	0.82931
2.348	79.627	-3.1437e+05	2124.1	-0.51562	0.18056	0.82921
2.35	79.591	-3.1437e+05	2124	-0.51435	0.18105	0.82911
2.352	79.593	-3.1437e+05	2123.9	-0.51396	0.18017	0.82843
2.354	79.63	-3.1437e+05	2123.7	-0.51357	0.17929	0.82775
2.356	79.688	-3.1437e+05	2123.6	-0.51318	0.17841	0.82706
2.358	79.74	-3.1438e+05	2123.5	-0.51279	0.17753	0.82638
2.36	79.739	-3.1439e+05	2123.4	-0.5124	0.17666	0.8257
2.362	79.71	-3.1439e+05	2123.3	-0.51289	0.17685	0.82618
2.364	79.685	-3.1439e+05	2123.3	-0.51338	0.17705	0.82667
2.366	79.644	-3.144e+05	2123.4	-0.51386	0.17724	0.82716
2.368	79.628	-3.144e+05	2123.7	-0.51435	0.17744	0.82765
2.37	79.653	-3.144e+05	2124.1	-0.51484	0.17763	0.82814
2.372	79.691	-3.144e+05	2124.8	-0.51543	0.17724	0.82794
2.374	79.746	-3.144e+05	2125.5	-0.51601	0.17685	0.82775
2.376	79.795	-3.1439e+05	2126.4	-0.5166	0.17646	0.82755
2.378	79.764	-3.1439e+05	2127.5	-0.51718	0.17607	0.82736
2.38	79.72	-3.144e+05	2128.6	-0.51777	0.17568	0.82716
2.382	79.68	-3.1441e+05	2130	-0.51826	0.17568	0.82765
2.384	79.636	-3.1442e+05	2131.4	-0.51874	0.17568	0.82814
2.386	79.673	-3.1442e+05	2132.9	-0.51923	0.17568	0.82862
2.388	79.712	-3.1442e+05	2134.5	-0.51972	0.17568	0.82911
2.39	79.754	-3.1442e+05	2136	-0.52021	0.17568	0.8296
2.392	79.792	-3.1442e+05	2137.6	-0.52001	0.1749	0.8294
2.394	79.75	-3.1442e+05	2139.1	-0.51982	0.17412	0.82921
2.396	79.706	-3.1442e+05	2140.6	-0.51962	0.17334	0.82901
2.398	79.711	-3.1442e+05	2142.1	-0.51943	0.17256	0.82882
2.4	79.677	-3.1443e+05	2143.5	-0.51923	0.17178	0.82862
2.402	79.666	-3.1443e+05	2144.9	-0.52011	0.17285	0.8294
2.404	79.704	-3.1443e+05	2146.2	-0.52099	0.17392	0.83019
2.406	79.776	-3.1442e+05	2147.5	-0.52187	0.175	0.83097
2.408	79.844	-3.1442e+05	2148.7	-0.52275	0.17607	0.83175
2.41	79.814	-3.1441e+05	2149.9	-0.52362	0.17714	0.83253
2.412	79.759	-3.1441e+05	2151	-0.52157	0.17695	0.83106
2.414	79.744	-3.1441e+05	2152.2	-0.51952	0.17675	0.8296
2.416	79.688	-3.144e+05	2153.2	-0.51748	0.17656	0.82814
2.418	79.68	-3.1439e+05	2154.3	-0.51543	0.17636	0.82667
2.42	79.727	-3.1439e+05	2155.3	-0.51338	0.17617	0.82521
2.422	79.772	-3.1439e+05	2156.2	-0.51367	0.17666	0.8256
2.424	79.819	-3.1438e+05	2157.2	-0.51396	0.17714	0.82599
2.426	79.806	-3.1437e+05	2158	-0.51425	0.17763	0.82638
2.428	79.761	-3.1436e+05	2158.8	-0.51455	0.17812	0.82677
2.43	79.727	-3.1436e+05	2159.6	-0.51484	0.17861	0.82716
2.432	79.673	-3.1435e+05	2160.2	-0.51504	0.179	0.82823
2.434	79.636	-3.1435e+05	2160.7	-0.51523	0.17939	0.82931
2.436	79.65	-3.1434e+05	2161.2	-0.51543	0.17978	0.83038
2.438	79.692	-3.1434e+05	2161.6	-0.51562	0.18017	0.83145
2.44	79.749	-3.1433e+05	2162	-0.51582	0.18056	0.83253
2.442	79.781	-3.1432e+05	2162.6	-0.51611	0.18036	0.83175
2.444	79.761	-3.1431e+05	2163.1	-0.5164	0.18017	0.83097
2.446	79.714	-3.143e+05	2163.6	-0.51669	0.17997	0.83019
2.448	79.642	-3.143e+05	2164.2	-0.51699	0.17978	0.8294
2.45	79.593	-3.1429e+05	2164.8	-0.51728	0.17958	0.82862
2.452	79.624	-3.1428e+05	2165.2	-0.51543	0.17939	0.82814
2.454	79.681	-3.1428e+05	2165.6	-0.51357	0.17919	0.82765
2.456	79.723	-3.1427e+05	2166	-0.51172	0.179	0.82716
2.458	79.748	-3.1426e+05	2166.2	-0.50986	0.1788	0.82667
2.46	79.708	-3.1426e+05	2166.4	-0.50801	0.17861	0.82618
2.462	79.631	-3.1424e+05	2166.5	-0.50947	0.17871	0.82716
2.464	79.59	-3.1422e+05	2166.6	-0.51094	0.1788	0.82814
2.466	79.553	-3.1421e+05	2166.7	-0.5124	0.1789	0.82911
2.468	79.536	-3.142e+05	2166.7	-0.51386	0.179	0.83009
2.47	79.576	-3.142e+05	2166.7	-0.51533	0.1791	0.83106
2.472	79.622	-3.1419e+05	2166.6	-0.51474	0.17929	0.83028
2.474	79.671	-3.1418e+05	2166.6	-0.51416	0.17949	0.8295
2.476	79.689	-3.1417e+05	2166.5	-0.51357	0.17968	0.82872
2.478	79.648	-3.1416e+05	2166.4	-0.51299	0.17988	0.82794
2.48	79.623	-3.1415e+05	2166.3	-0.5124	0.18007	0.82716
2.482	79.565	-3.1414e+05	2166.1	-0.51299	0.17919	0.82687
2.484	79.508	-3.1413e+05	2166	-0.51357	0.17832	0.82657
2.486	79.553	-3.1413e+05	2165.9	-0.51416	0.17744	0.82628
2.488	79.598	-3.1412e+05	2165.7	-0.51474	0.17656	0.82599
2.49	79.636	-3.1411e+05	2165.5	-0.51533	0.17568	0.8257
2.492	79.673	-3.141e+05	2165.3	-0.5166	0.17548	0.82638
2.494	79.63	-3.141e+05	2165.1	-0.51787	0.17529	0.82706
2.496	79.606	-3.1409e+05	2164.9	-0.51913	0.17509	0.82775
2.498	79.569	-3.1409e+05	2164.6	-0.5204	0.1749	0.82843
2.5	79.528	-3.1408e+05	2164.3	-0.52167	0.1747	0.82911
2.502	79.561	-3.1407e+05	2164.1	-0.51952	0.17588	0.82911
2.504	79.601	-3.1406e+05	2163.8	-0.51738	0.17705	0.82911
2.506	79.631	-3.1406e+05	2163.5	-0.51523	0.17822	0.82911
2.508	79.637	-3.1406e+05	2163.2	-0.51308	0.17939	0.82911
2.51	79.613	-3.1406e+05	2163	-0.51094	0.18056	0.82911
2.512	79.609	-3.1404e+05	2162.7	-0.5123	0.17997	0.82862
2.514	79.574	-3.1404e+05	2162.5	-0.51367	0.17939	0.82814
2.516	79.514	-3.1403e+05	2162.2	-0.51504	0.1788	0.82765
2.518	79.514	-3.1402e+05	2161.8	-0.5164	0.17822	0.82716
2.52	79.555	-3.1402e+05	2161.5	-0.51777	0.17763	0.82667
2.522	79.604	-3.1402e+05	2161.1	-0.51748	0.17812	0.82745
2.524	79.657	-3.1401e+05	2160.8	-0.51718	0.17861	0.82823
2.526	79.671	-3.1401e+05	2160.5	-0.51689	0.1791	0.82901
2.528	79.644	-3.1401e+05	2160.1	-0.5166	0.17958	0.8298
2.53	79.607	-3.1401e+05	2159.8	-0.5163	0.18007	0.83058
2.532	79.558	-3.1401e+05	2159.7	-0.5164	0.17958	0.83067
2.534	79.54	-3.14e+05	2159.6	-0.5165	0.1791	0.83077
2.536	79.58	-3.1399e+05	2159.5	-0.5166	0.17861	0.83087
2.538	79.615	-3.1399e+05	2159.5	-0.51669	0.17812	0.83097
2.54	79.638	-3.1398e+05	2159.5	-0.51679	0.17763	0.83106
2.542	79.664	-3.1398e+05	2159.5	-0.51689	0.17832	0.83165
2.544	79.649	-3.1397e+05	2159.5	-0.51699	0.179	0.83224
2.546	79.615	-3.1397e+05	2159.5	-0.51708	0.17968	0.83282
2.548	79.589	-3.1396e+05	2159.4	-0.51718	0.18036	0.83341
2.55	79.545	-3.1396e+05	2159.4	-0.51728	0.18105	0.83399
2.552	79.557	-3.1396e+05	2159.5	-0.51699	0.18036	0.83263
2.554	79.602	-3.1396e+05	2159.5	-0.51669	0.17968	0.83126
2.556	79.64	-3.1396e+05	2159.6	-0.5164	0.179	0.82989
2.558	79.696	-3.1395e+05	2159.6	-0.51611	0.17832	0.82853
2.56	79.692	-3.1395e+05	2159.6	-0.51582	0.17763	0.82716
2.562	79.648	-3.1395e+05	2159.5	-0.51689	0.17773	0.82765
2.564	79.603	-3.1395e+05	2159.5	-0.51796	0.17783	0.82814
2.566	79.549	-3.1395e+05	2159.4	-0.51904	0.17792	0.82862
2.568	79.561	-3.1394e+05	2159.3	-0.52011	0.17802	0.82911
2.57	79.603	-3.1394e+05	2159.2	-0.52118	0.17812	0.8296
2.572	79.634	-3.1394e+05	2159.2	-0.5207	0.17773	0.82931
2.574	79.687	-3.1394e+05	2159.1	-0.52021	0.17734	0.82901
2.576	79.72	-3.1393e+05	2159.1	-0.51972	0.17695	0.82872
2.578	79.695	-3.1393e+05	2158.9	-0.51923	0.17656	0.82843
2.58	79.668	-3.1394e+05	2158.8	-0.51874	0.17617	0.82814
2.582	79.615	-3.1394e+05	2158.7	-0.51923	0.17588	0.82862
2.584	79.562	-3.1394e+05	2158.6	-0.51972	0.17558	0.82911
2.586	79.54	-3.1393e+05	2158.4	-0.52021	0.17529	0.8296
2.588	79.56	-3.1394e+05	2158.3	-0.5207	0.175	0.83009
2.59	79.637	-3.1394e+05	2158.1	-0.52118	0.1747	0.83058
2.592	79.692	-3.1393e+05	2157.8	-0.52109	0.17548	0.83067
2.594	79.687	-3.1393e+05	2157.5	-0.52099	0.17627	0.83077
2.596	79.664	-3.1393e+05	2157.2	-0.52089	0.17705	0.83087
2.598	79.612	-3.1393e+05	2156.9	-0.52079	0.17783	0.83097
2.6	79.56	-3.1393e+05	2156.5	-0.5207	0.17861	0.83106
2.602	79.578	-3.1393e+05	2156.2	-0.51982	0.17929	0.83116
2.604	79.621	-3.1394e+05	2155.8	-0.51894	0.17997	0.83126
2.606	79.669	-3.1394e+05	2155.4	-0.51806	0.18066	0.83136
2.608	79.715	-3.1393e+05	2155	-0.51718	0.18134	0.83145
2.61	79.704	-3.1393e+05	2154.6	-0.5163	0.18202	0.83155
2.612	79.658	-3.1393e+05	2154.1	-0.51621	0.18193	0.83145
2.614	79.614	-3.1393e+05	2153.6	-0.51611	0.18183	0.83136
2.616	79.559	-3.1392e+05	2153.1	-0.51601	0.18173	0.83126
2.618	79.549	-3.1393e+05	2152.6	-0.51591	0.18163	0.83116
2.62	79.597	-3.1393e+05	2152.1	-0.51582	0.18154	0.83106
2.622	79.644	-3.1394e+05	2151.7	-0.51513	0.18105	0.83009
2.624	79.693	-3.1394e+05	2151.2	-0.51445	0.18056	0.82911
2.626	79.719	-3.1394e+05	2150.8	-0.51377	0.18007	0.82814
2.628	79.684	-3.1394e+05	2150.4	-0.51308	0.17958	0.82716
2.63	79.637	-3.1394e+05	2150	-0.5124	0.1791	0.82618
2.632	79.583	-3.1394e+05	2149.7	-0.5126	0.1789	0.82618
2.634	79.544	-3.1394e+05	2149.3	-0.51279	0.17871	0.82618
2.636	79.595	-3.1395e+05	2149	-0.51299	0.17851	0.82618
2.638	79.655	-3.1395e+05	2148.8	-0.51318	0.17832	0.82618
2.64	79.701	-3.1395e+05	2148.5	-0.51338	0.17812	0.82618
2.642	79.725	-3.1395e+05	2148.4	-0.51367	0.17822	0.82667
2.644	79.662	-3.1395e+05	2148.3	-0.51396	0.17832	0.82716
2.646	79.622	-3.1396e+05	2148.2	-0.51425	0.17841	0.82765
2.648	79.608	-3.1396e+05	2148	-0.51455	0.17851	0.82814
2.65	79.55	-3.1396e+05	2147.9	-0.51484	0.17861	0.82862
2.652	79.561	-3.1396e+05	2147.9	-0.51552	0.17773	0.82911
2.654	79.609	-3.1396e+05	2147.8	-0.51621	0.17685	0.8296
2.656	79.635	-3.1396e+05	2147.8	-0.51689	0.17597	0.83009
2.658	79.706	-3.1396e+05	2147.8	-0.51757	0.17509	0.83058
2.66	79.706	-3.1397e+05	2147.8	-0.51826	0.17422	0.83106
2.662	79.644	-3.1397e+05	2147.9	-0.51835	0.17412	0.83048
2.664	79.612	-3.1397e+05	2148.1	-0.51845	0.17402	0.82989
2.666	79.539	-3.1397e+05	2148.2	-0.51855	0.17392	0.82931
2.668	79.534	-3.1397e+05	2148.4	-0.51865	0.17383	0.82872
2.67	79.573	-3.1397e+05	2148.7	-0.51874	0.17373	0.82814
2.672	79.622	-3.1398e+05	2148.8	-0.51845	0.17451	0.82833
2.674	79.683	-3.1398e+05	2148.9	-0.51816	0.17529	0.82853
2.676	79.681	-3.1399e+05	2148.9	-0.51787	0.17607	0.82872
2.678	79.64	-3.1399e+05	2148.9	-0.51757	0.17685	0.82892
2.68	79.61	-3.1399e+05	2149	-0.51728	0.17763	0.82911
2.682	79.567	-3.1399e+05	2148.9	-0.51787	0.17734	0.82882
2.684	79.547	-3.1399e+05	2148.8	-0.51845	0.17705	0.82853
2.686	79.582	-3.1399e+05	2148.8	-0.51904	0.17675	0.82823
2.688	79.628	-3.14e+05	2148.7	-0.51962	0.17646	0.82794
2.69	79.695	-3.14e+05	2148.7	-0.52021	0.17617	0.82765
2.692	79.729	-3.14e+05	2148.7	-0.51904	0.17597	0.82765
2.694	79.702	-3.14e+05	2148.6	-0.51787	0.17578	0.82765
2.696	79.648	-3.14e+05	2148.6	-0.51669	0.17558	0.82765
2.698	79.559	-3.14e+05	2148.6	-0.51552	0.17539	0.82765
2.7	79.493	-3.14e+05	2148.5	-0.51435	0.17519	0.82765
2.702	79.528	-3.14e+05	2148.6	-0.51386	0.17656	0.82823
2.704	79.604	-3.1401e+05	2148.7	-0.51338	0.17792	0.82882
2.706	79.655	-3.1401e+05	2148.7	-0.51289	0.17929	0.8294
2.708	79.686	-3.1401e+05	2148.7	-0.5124	0.18066	0.82999
2.71	79.668	-3.1402e+05	2148.8	-0.51191	0.18202	0.83058
2.712	79.629	-3.1402e+05	2148.8	-0.51269	0.18173	0.83038
2.714	79.596	-3.1402e+05	2148.8	-0.51347	0.18144	0.83019
2.716	79.555	-3.1402e+05	2148.8	-0.51425	0.18115	0.82999
2.718	79.558	-3.1403e+05	2148.7	-0.51504	0.18085	0.8298
2.72	79.609	-3.1403e+05	2148.7	-0.51582	0.18056	0.8296
2.722	79.651	-3.1403e+05	2148.6	-0.51533	0.17997	0.8296
2.724	79.694	-3.1403e+05	2148.5	-0.51484	0.17939	0.8296
2.726	79.698	-3.1403e+05	2148.4	-0.51435	0.1788	0.8296
2.728	79.645	-3.1403e+05	2148.2	-0.51386	0.17822	0.8296
2.73	79.621	-3.1403e+05	2148.1	-0.51338	0.17763	0.8296
2.732	79.576	-3.1403e+05	2148	-0.51406	0.17763	0.8294
2.734	79.542	-3.1404e+05	2147.8	-0.51474	0.17763	0.82921
2.736	79.59	-3.1405e+05	2147.7	-0.51543	0.17763	0.82901
2.738	79.655	-3.1405e+05	2147.5	-0.51611	0.17763	0.82882
2.74	79.685	-3.1405e+05	2147.3	-0.51679	0.17763	0.82862
2.742	79.724	-3.1405e+05	2147.1	-0.51611	0.17763	0.82804
2.744	79.672	-3.1405e+05	2146.9	-0.51543	0.17763	0.82745
2.746	79.633	-3.1405e+05	2146.7	-0.51474	0.17763	0.82687
2.748	79.604	-3.1406e+05	2146.6	-0.51406	0.17763	0.82628
2.75	79.553	-3.1406e+05	2146.5	-0.51338	0.17763	0.8257
2.752	79.568	-3.1406e+05	2146.5	-0.51338	0.17773	0.82628
2.754	79.608	-3.1406e+05	2146.4	-0.51338	0.17783	0.82687
2.756	79.64	-3.1406e+05	2146.4	-0.51338	0.17792	0.82745
2.758	79.707	-3.1405e+05	2146.3	-0.51338	0.17802	0.82804
2.76	79.703	-3.1406e+05	2146.2	-0.51338	0.17812	0.82862
2.762	79.662	-3.1406e+05	2146.4	-0.51357	0.17802	0.82853
2.764	79.615	-3.1406e+05	2146.6	-0.51377	0.17792	0.82843
2.766	79.553	-3.1407e+05	2146.8	-0.51396	0.17783	0.82833
2.768	79.572	-3.1407e+05	2147	-0.51416	0.17773	0.82823
2.77	79.627	-3.1407e+05	2147.1	-0.51435	0.17763	0.82814
2.772	79.665	-3.1407e+05	2147.2	-0.51552	0.17695	0.82823
2.774	79.719	-3.1407e+05	2147.2	-0.51669	0.17627	0.82833
2.776	79.728	-3.1407e+05	2147.2	-0.51787	0.17558	0.82843
2.778	79.679	-3.1408e+05	2147.2	-0.51904	0.1749	0.82853
2.78	79.634	-3.1409e+05	2147.1	-0.52021	0.17422	0.82862
2.782	79.583	-3.1409e+05	2147	-0.51933	0.175	0.82843
2.784	79.559	-3.1409e+05	2146.9	-0.51845	0.17578	0.82823
2.786	79.604	-3.1409e+05	2146.8	-0.51757	0.17656	0.82804
2.788	79.664	-3.1409e+05	2146.6	-0.51669	0.17734	0.82784
2.79	79.715	-3.1409e+05	2146.5	-0.51582	0.17812	0.82765
2.792	79.746	-3.141e+05	2146.3	-0.51757	0.1791	0.82892
2.794	79.713	-3.141e+05	2146.1	-0.51933	0.18007	0.83019
2.796	79.662	-3.1409e+05	2145.9	-0.52109	0.18105	0.83145
2.798	79.625	-3.1409e+05	2145.6	-0.52284	0.18202	0.83272
2.8	79.583	-3.1409e+05	2145.4	-0.5246	0.183	0.83399
2.802	79.589	-3.1409e+05	2145.2	-0.52343	0.18163	0.83263
2.804	79.631	-3.141e+05	2145	-0.52226	0.18027	0.83126
2.806	79.663	-3.141e+05	2144.8	-0.52109	0.1789	0.82989
2.808	79.685	-3.1411e+05	2144.6	-0.51992	0.17753	0.82853
2.81	79.67	-3.1411e+05	2144.4	-0.51874	0.17617	0.82716
2.812	79.634	-3.1411e+05	2144.2	-0.51718	0.17734	0.82716
2.814	79.593	-3.1411e+05	2144	-0.51562	0.17851	0.82716
2.816	79.532	-3.1412e+05	2143.9	-0.51406	0.17968	0.82716
2.818	79.509	-3.1412e+05	2143.7	-0.5125	0.18085	0.82716
2.82	79.526	-3.1412e+05	2143.5	-0.51094	0.18202	0.82716
2.822	79.54	-3.1413e+05	2143.3	-0.51172	0.18144	0.82706
2.824	79.616	-3.1413e+05	2143.1	-0.5125	0.18085	0.82696
2.826	79.641	-3.1413e+05	2142.9	-0.51328	0.18027	0.82687
2.828	79.594	-3.1413e+05	2142.7	-0.51406	0.17968	0.82677
2.83	79.534	-3.1413e+05	2142.6	-0.51484	0.1791	0.82667
2.832	79.476	-3.1413e+05	2142.3	-0.51484	0.17919	0.82667
2.834	79.477	-3.1413e+05	2142	-0.51484	0.17929	0.82667
2.836	79.531	-3.1413e+05	2141.8	-0.51484	0.17939	0.82667
2.838	79.574	-3.1413e+05	2141.5	-0.51484	0.17949	0.82667
2.84	79.642	-3.1414e+05	2141.2	-0.51484	0.17958	0.82667
2.842	79.687	-3.1414e+05	2141	-0.51582	0.17929	0.82726
2.844	79.651	-3.1415e+05	2140.7	-0.51679	0.179	0.82784
2.846	79.612	-3.1415e+05	2140.5	-0.51777	0.17871	0.82843
2.848	79.558	-3.1415e+05	2140.3	-0.51874	0.17841	0.82901
2.85	79.522	-3.1415e+05	2140	-0.51972	0.17812	0.8296
2.852	79.548	-3.1416e+05	2139.8	-0.51943	0.17822	0.8296
2.854	79.596	-3.1416e+05	2139.6	-0.51913	0.17832	0.8296
2.856	79.65	-3.1416e+05	2139.4	-0.51884	0.17841	0.8296
2.858	79.699	-3.1417e+05	2139.2	-0.51855	0.17851	0.8296
2.86	79.698	-3.1417e+05	2139	-0.51826	0.17861	0.8296
2.862	79.661	-3.1417e+05	2138.7	-0.51884	0.17861	0.82999
2.864	79.613	-3.1417e+05	2138.5	-0.51943	0.17861	0.83038
2.866	79.564	-3.1417e+05	2138.2	-0.52001	0.17861	0.83077
2.868	79.56	-3.1417e+05	2137.9	-0.5206	0.17861	0.83116
2.87	79.595	-3.1418e+05	2137.6	-0.52118	0.17861	0.83155
2.872	79.641	-3.1418e+05	2137.4	-0.52031	0.17802	0.83077
2.874	79.696	-3.1418e+05	2137.2	-0.51943	0.17744	0.82999
2.876	79.706	-3.1419e+05	2137	-0.51855	0.17685	0.82921
2.878	79.646	-3.1419e+05	2136.9	-0.51767	0.17627	0.82843
2.88	79.579	-3.1419e+05	2136.8	-0.51679	0.17568	0.82765
2.882	79.525	-3.1419e+05	2136.9	-0.51796	0.17509	0.82814
2.884	79.511	-3.1419e+05	2136.9	-0.51913	0.17451	0.82862
2.886	79.564	-3.142e+05	2137	-0.52031	0.17392	0.82911
2.888	79.61	-3.1421e+05	2136.9	-0.52148	0.17334	0.8296
2.89	79.686	-3.1422e+05	2136.9	-0.52265	0.17275	0.83009
2.892	79.778	-3.1422e+05	2136.9	-0.52031	0.17363	0.82921
2.894	79.807	-3.1422e+05	2136.9	-0.51796	0.17451	0.82833
2.896	79.802	-3.1422e+05	2136.8	-0.51562	0.17539	0.82745
2.898	79.797	-3.1422e+05	2136.7	-0.51328	0.17627	0.82657
2.9	79.785	-3.1422e+05	2136.6	-0.51094	0.17714	0.8257
2.902	79.889	-3.1423e+05	2136.5	-0.51172	0.17734	0.82618
2.904	80.017	-3.1423e+05	2136.4	-0.5125	0.17753	0.82667
2.906	80.146	-3.1423e+05	2136.4	-0.51328	0.17773	0.82716
2.908	80.247	-3.1424e+05	2136.3	-0.51406	0.17792	0.82765
2.91	80.256	-3.1424e+05	2136.2	-0.51484	0.17812	0.82814
2.912	80.218	-3.1424e+05	2136.2	-0.51474	0.17812	0.82765
2.914	80.189	-3.1424e+05	2136.1	-0.51464	0.17812	0.82716
2.916	80.12	-3.1425e+05	2136	-0.51455	0.17812	0.82667
2.918	80.084	-3.1425e+05	2135.8	-0.51445	0.17812	0.82618
2.92	80.094	-3.1425e+05	2135.7	-0.51435	0.17812	0.8257
2.922	80.1	-3.1425e+05	2135.5	-0.51416	0.17812	0.82618
2.924	80.113	-3.1425e+05	2135.4	-0.51396	0.17812	0.82667
2.926	80.049	-3.1425e+05	2135.3	-0.51377	0.17812	0.82716
2.928	79.911	-3.1425e+05	2135.3	-0.51357	0.17812	0.82765
2.93	79.763	-3.1426e+05	2135.2	-0.51338	0.17812	0.82814
2.932	79.622	-3.1427e+05	2135.2	-0.51338	0.17861	0.82755
2.934	79.546	-3.1428e+05	2135.1	-0.51338	0.1791	0.82696
2.936	79.545	-3.1427e+05	2135	-0.51338	0.17958	0.82638
2.938	79.573	-3.1427e+05	2134.9	-0.51338	0.18007	0.82579
2.94	79.634	-3.1427e+05	2134.8	-0.51338	0.18056	0.82521
2.942	79.67	-3.1428e+05	2134.6	-0.51347	0.18076	0.82609
2.944	79.633	-3.1428e+05	2134.5	-0.51357	0.18095	0.82696
2.946	79.587	-3.1429e+05	2134.3	-0.51367	0.18115	0.82784
2.948	79.549	-3.1429e+05	2134.1	-0.51377	0.18134	0.82872
2.95	79.53	-3.1429e+05	2133.9	-0.51386	0.18154	0.8296
2.952	79.555	-3.1429e+05	2133.8	-0.51455	0.18085	0.8294
2.954	79.597	-3.1429e+05	2133.6	-0.51523	0.18017	0.82921
2.956	79.654	-3.1429e+05	2133.5	-0.51591	0.17949	0.82901
2.958	79.702	-3.1429e+05	2133.3	-0.5166	0.1788	0.82882
2.96	79.685	-3.143e+05	2133.1	-0.51728	0.17812	0.82862
2.962	79.633	-3.143e+05	2133	-0.51767	0.17714	0.82862
2.964	79.567	-3.143e+05	2132.8	-0.51806	0.17617	0.82862
2.966	79.497	-3.143e+05	2132.7	-0.51845	0.17519	0.82862
2.968	79.505	-3.1431e+05	2132.5	-0.51884	0.17422	0.82862
2.97	79.577	-3.1432e+05	2132.4	-0.51923	0.17324	0.82862
2.972	79.621	-3.1432e+05	2132.4	-0.51894	0.17392	0.82872
2.974	79.654	-3.1433e+05	2132.4	-0.51865	0.17461	0.82882
2.976	79.668	-3.1433e+05	2132.3	-0.51835	0.17529	0.82892
2.978	79.641	-3.1433e+05	2132.2	-0.51806	0.17597	0.82901
2.98	79.596	-3.1433e+05	2132	-0.51777	0.17666	0.82911
2.982	79.548	-3.1434e+05	2131.8	-0.51757	0.17685	0.82901
2.984	79.505	-3.1434e+05	2131.6	-0.51738	0.17705	0.82892
2.986	79.544	-3.1434e+05	2131.3	-0.51718	0.17724	0.82882
2.988	79.599	-3.1434e+05	2131	-0.51699	0.17744	0.82872
2.99	79.656	-3.1435e+05	2130.7	-0.51679	0.17763	0.82862
2.992	79.682	-3.1435e+05	2130.4	-0.51601	0.17841	0.82882
2.994	79.638	-3.1435e+05	2130.1	-0.51523	0.17919	0.82901
2.996	79.605	-3.1435e+05	2129.8	-0.51445	0.17997	0.82921
2.998	79.577	-3.1435e+05	2129.5	-0.51367	0.18076	0.8294
3	79.532	-3.1435e+05	2129.1	-0.51289	0.18154	0.8296
3.002	79.56	-3.1436e+05	2128.8	-0.51406	0.18193	0.82999
3.004	79.6	-3.1436e+05	2128.6	-0.51523	0.18232	0.83038
3.006	79.613	-3.1437e+05	2128.4	-0.5164	0.18271	0.83077
3.008	79.66	-3.1437e+05	2128.3	-0.51757	0.1831	0.83116
3.01	79.67	-3.1438e+05	2128.2	-0.51874	0.18349	0.83155
3.012	79.637	-3.1438e+05	2128.1	-0.51855	0.18271	0.83194
3.014	79.605	-3.1438e+05	2128	-0.51835	0.18193	0.83233
3.016	79.544	-3.1439e+05	2128	-0.51816	0.18115	0.83272
3.018	79.533	-3.1439e+05	2128	-0.51796	0.18036	0.83311
3.02	79.575	-3.1439e+05	2127.9	-0.51777	0.17958	0.8335
3.022	79.626	-3.144e+05	2127.9	-0.51894	0.17919	0.8335
3.024	79.687	-3.144e+05	2127.9	-0.52011	0.1788	0.8335
3.026	79.7	-3.144e+05	2127.8	-0.52128	0.17841	0.8335
3.028	79.664	-3.144e+05	2127.7	-0.52245	0.17802	0.8335
3.03	79.624	-3.144e+05	2127.7	-0.52362	0.17763	0.8335
3.032	79.567	-3.1441e+05	2127.6	-0.52323	0.17744	0.83263
3.034	79.555	-3.1441e+05	2127.5	-0.52284	0.17724	0.83175
3.036	79.611	-3.1442e+05	2127.5	-0.52245	0.17705	0.83087
3.038	79.658	-3.1442e+05	2127.4	-0.52206	0.17685	0.82999
3.04	79.694	-3.1442e+05	2127.4	-0.52167	0.17666	0.82911
3.042	79.727	-3.1443e+05	2127.4	-0.52167	0.17734	0.82921
3.044	79.715	-3.1443e+05	2127.3	-0.52167	0.17802	0.82931
3.046	79.676	-3.1443e+05	2127.5	-0.52167	0.17871	0.8294
3.048	79.615	-3.1443e+05	2127.8	-0.52167	0.17939	0.8295
3.05	79.565	-3.1443e+05	2128.1	-0.52167	0.18007	0.8296
3.052	79.591	-3.1444e+05	2129	-0.52187	0.18007	0.83038
3.054	79.645	-3.1445e+05	2129.9	-0.52206	0.18007	0.83116
3.056	79.705	-3.1445e+05	2131	-0.52226	0.18007	0.83194
3.058	79.761	-3.1445e+05	2132.3	-0.52245	0.18007	0.83272
3.06	79.733	-3.1445e+05	2133.6	-0.52265	0.18007	0.8335
3.062	79.668	-3.1445e+05	2135.2	-0.52118	0.17861	0.83224
3.064	79.63	-3.1445e+05	2136.7	-0.51972	0.17714	0.83097
3.066	79.582	-3.1446e+05	2138.2	-0.51826	0.17568	0.8297
3.068	79.592	-3.1445e+05	2139.7	-0.51679	0.17422	0.82843
3.07	79.659	-3.1445e+05	2141.1	-0.51533	0.17275	0.82716
3.072	79.686	-3.1445e+05	2142.5	-0.51533	0.17402	0.82784
3.074	79.735	-3.1445e+05	2143.9	-0.51533	0.17529	0.82853
3.076	79.765	-3.1446e+05	2145.2	-0.51533	0.17656	0.82921
3.078	79.721	-3.1446e+05	2146.5	-0.51533	0.17783	0.82989
3.08	79.687	-3.1446e+05	2147.7	-0.51533	0.1791	0.83058
3.082	79.63	-3.1446e+05	2148.9	-0.51464	0.17958	0.83038
3.084	79.608	-3.1445e+05	2150.1	-0.51396	0.18007	0.83019
3.086	79.647	-3.1445e+05	2151.3	-0.51328	0.18056	0.82999
3.088	79.669	-3.1445e+05	2152.4	-0.5126	0.18105	0.8298
3.09	79.729	-3.1444e+05	2153.5	-0.51191	0.18154	0.8296
3.092	79.759	-3.1444e+05	2154.6	-0.51162	0.18066	0.82882
3.094	79.725	-3.1444e+05	2155.6	-0.51133	0.17978	0.82804
3.096	79.692	-3.1442e+05	2156.6	-0.51103	0.1789	0.82726
3.098	79.643	-3.1442e+05	2157.5	-0.51074	0.17802	0.82648
3.1	79.613	-3.1441e+05	2158.4	-0.51045	0.17714	0.8257
3.102	79.643	-3.1441e+05	2159.2	-0.51172	0.17685	0.82599
3.104	79.685	-3.1441e+05	2160	-0.51299	0.17656	0.82628
3.106	79.735	-3.1441e+05	2160.7	-0.51425	0.17627	0.82657
3.108	79.785	-3.1441e+05	2161.4	-0.51552	0.17597	0.82687
3.11	79.763	-3.144e+05	2162.2	-0.51679	0.17568	0.82716
3.112	79.685	-3.144e+05	2162.8	-0.51611	0.17627	0.82736
3.114	79.636	-3.1439e+05	2163.5	-0.51543	0.17685	0.82755
3.116	79.614	-3.1437e+05	2164.1	-0.51474	0.17744	0.82775
3.118	79.604	-3.1436e+05	2164.6	-0.51406	0.17802	0.82794
3.12	79.628	-3.1436e+05	2165.2	-0.51338	0.17861	0.82814
3.122	79.681	-3.1436e+05	2165.5	-0.51435	0.17792	0.82765
3.124	79.723	-3.1434e+05	2165.9	-0.51533	0.17724	0.82716
3.126	79.709	-3.1433e+05	2166.2	-0.5163	0.17656	0.82667
3.128	79.65	-3.1433e+05	2166.5	-0.51728	0.17588	0.82618
3.13	79.609	-3.1432e+05	2166.7	-0.51826	0.17519	0.8257
3.132	79.583	-3.1432e+05	2167	-0.51835	0.17548	0.82618
3.134	79.56	-3.1431e+05	2167.3	-0.51845	0.17578	0.82667
3.136	79.576	-3.1429e+05	2167.5	-0.51855	0.17607	0.82716
3.138	79.611	-3.1429e+05	2167.5	-0.51865	0.17636	0.82765
3.14	79.643	-3.1429e+05	2167.6	-0.51874	0.17666	0.82814
3.142	79.673	-3.1428e+05	2167.6	-0.51962	0.17685	0.82862
3.144	79.65	-3.1427e+05	2167.5	-0.5205	0.17705	0.82911
3.146	79.614	-3.1426e+05	2167.4	-0.52138	0.17724	0.8296
3.148	79.582	-3.1425e+05	2167.3	-0.52226	0.17744	0.83009
3.15	79.523	-3.1424e+05	2167.2	-0.52314	0.17763	0.83058
3.152	79.524	-3.1424e+05	2167.1	-0.52236	0.17666	0.8298
3.154	79.561	-3.1423e+05	2167	-0.52157	0.17568	0.82901
3.156	79.583	-3.1423e+05	2166.9	-0.52079	0.1747	0.82823
3.158	79.655	-3.1422e+05	2166.7	-0.52001	0.17373	0.82745
3.16	79.648	-3.1421e+05	2166.6	-0.51923	0.17275	0.82667
3.162	79.585	-3.142e+05	2166.4	-0.51884	0.17363	0.82745
3.164	79.544	-3.1419e+05	2166.1	-0.51845	0.17451	0.82823
3.166	79.478	-3.1418e+05	2165.9	-0.51806	0.17539	0.82901
3.168	79.48	-3.1417e+05	2165.7	-0.51767	0.17627	0.8298
3.17	79.537	-3.1417e+05	2165.4	-0.51728	0.17714	0.83058
3.172	79.586	-3.1416e+05	2165.2	-0.51767	0.17744	0.83028
3.174	79.642	-3.1416e+05	2165	-0.51806	0.17773	0.82999
3.176	79.635	-3.1415e+05	2164.7	-0.51845	0.17802	0.8297
3.178	79.599	-3.1414e+05	2164.5	-0.51884	0.17832	0.8294
3.18	79.544	-3.1414e+05	2164.3	-0.51923	0.17861	0.82911
3.182	79.492	-3.1413e+05	2164.1	-0.51816	0.17871	0.8297
3.184	79.497	-3.1413e+05	2163.8	-0.51708	0.1788	0.83028
3.186	79.537	-3.1412e+05	2163.6	-0.51601	0.1789	0.83087
3.188	79.56	-3.1412e+05	2163.5	-0.51494	0.179	0.83145
3.19	79.622	-3.1412e+05	2163.3	-0.51386	0.1791	0.83204
3.192	79.667	-3.1411e+05	2163.2	-0.51435	0.1791	0.83204
3.194	79.633	-3.141e+05	2163.1	-0.51484	0.1791	0.83204
3.196	79.579	-3.141e+05	2163	-0.51533	0.1791	0.83204
3.198	79.514	-3.1409e+05	2162.8	-0.51582	0.1791	0.83204
3.2	79.471	-3.1409e+05	2162.7	-0.5163	0.1791	0.83204
3.202	79.496	-3.1409e+05	2162.4	-0.51464	0.179	0.83106
3.204	79.545	-3.1408e+05	2162.2	-0.51299	0.1789	0.83009
3.206	79.602	-3.1408e+05	2162	-0.51133	0.1788	0.82911
3.208	79.651	-3.1408e+05	2161.8	-0.50967	0.17871	0.82814
3.21	79.645	-3.1408e+05	2161.5	-0.50801	0.17861	0.82716
3.212	79.603	-3.1407e+05	2161.3	-0.50986	0.17871	0.82853
3.214	79.549	-3.1406e+05	2161.1	-0.51172	0.1788	0.82989
3.216	79.506	-3.1406e+05	2160.8	-0.51357	0.1789	0.83126
3.218	79.522	-3.1406e+05	2160.5	-0.51543	0.179	0.83263
3.22	79.566	-3.1406e+05	2160.3	-0.51728	0.1791	0.83399
3.222	79.61	-3.1406e+05	2160	-0.51689	0.17812	0.83263
3.224	79.667	-3.1406e+05	2159.7	-0.5165	0.17714	0.83126
3.226	79.672	-3.1406e+05	2159.5	-0.51611	0.17617	0.82989
3.228	79.625	-3.1405e+05	2159.3	-0.51572	0.17519	0.82853
3.23	79.604	-3.1405e+05	2159	-0.51533	0.17422	0.82716
3.232	79.563	-3.1405e+05	2158.9	-0.5163	0.175	0.82814
3.234	79.547	-3.1405e+05	2158.7	-0.51728	0.17578	0.82911
3.236	79.589	-3.1405e+05	2158.6	-0.51826	0.17656	0.83009
3.238	79.599	-3.1405e+05	2158.5	-0.51923	0.17734	0.83106
3.24	79.611	-3.1405e+05	2158.4	-0.52021	0.17812	0.83204
3.242	79.669	-3.1405e+05	2158.3	-0.52001	0.17724	0.83145
3.244	79.644	-3.1404e+05	2158.2	-0.51982	0.17636	0.83087
3.246	79.607	-3.1404e+05	2158	-0.51962	0.17548	0.83028
3.248	79.565	-3.1403e+05	2157.8	-0.51943	0.17461	0.8297
3.25	79.512	-3.1403e+05	2157.7	-0.51923	0.17373	0.82911
3.252	79.552	-3.1404e+05	2157.4	-0.51835	0.1747	0.8294
3.254	79.595	-3.1404e+05	2157.2	-0.51748	0.17568	0.8297
3.256	79.648	-3.1403e+05	2157.1	-0.5166	0.17666	0.82999
3.258	79.712	-3.1403e+05	2157	-0.51572	0.17763	0.83028
3.26	79.665	-3.1404e+05	2156.9	-0.51484	0.17861	0.83058
3.262	79.629	-3.1404e+05	2156.8	-0.51582	0.17763	0.83019
3.264	79.591	-3.1404e+05	2156.7	-0.51679	0.17666	0.8298
3.266	79.502	-3.1404e+05	2156.6	-0.51777	0.17568	0.8294
3.268	79.494	-3.1405e+05	2156.4	-0.51874	0.1747	0.82901
3.27	79.56	-3.1404e+05	2156.3	-0.51972	0.17373	0.82862
3.272	79.619	-3.1404e+05	2156	-0.51894	0.17548	0.82999
3.274	79.683	-3.1404e+05	2155.7	-0.51816	0.17724	0.83136
3.276	79.684	-3.1404e+05	2155.4	-0.51738	0.179	0.83272
3.278	79.642	-3.1404e+05	2155.1	-0.5166	0.18076	0.83409
3.28	79.611	-3.1404e+05	2154.8	-0.51582	0.18251	0.83546
3.282	79.562	-3.1404e+05	2154.5	-0.51523	0.18154	0.8335
3.284	79.532	-3.1404e+05	2154.1	-0.51464	0.18056	0.83155
3.286	79.541	-3.1404e+05	2153.8	-0.51406	0.17958	0.8296
3.288	79.582	-3.1404e+05	2153.6	-0.51347	0.17861	0.82765
3.29	79.64	-3.1404e+05	2153.4	-0.51289	0.17763	0.8257
3.292	79.673	-3.1405e+05	2153.2	-0.51367	0.17763	0.82589
3.294	79.644	-3.1405e+05	2153	-0.51445	0.17763	0.82609
3.296	79.601	-3.1405e+05	2152.8	-0.51523	0.17763	0.82628
3.298	79.544	-3.1405e+05	2152.5	-0.51601	0.17763	0.82648
3.3	79.498	-3.1405e+05	2152.3	-0.51679	0.17763	0.82667
3.302	79.534	-3.1405e+05	2152	-0.51591	0.17832	0.82657
3.304	79.6	-3.1406e+05	2151.7	-0.51504	0.179	0.82648
3.306	79.651	-3.1406e+05	2151.4	-0.51416	0.17968	0.82638
3.308	79.685	-3.1406e+05	2151.1	-0.51328	0.18036	0.82628
3.31	79.663	-3.1406e+05	2150.8	-0.5124	0.18105	0.82618
3.312	79.607	-3.1406e+05	2150.4	-0.51367	0.18124	0.82736
3.314	79.559	-3.1407e+05	2150.1	-0.51494	0.18144	0.82853
3.316	79.523	-3.1407e+05	2149.8	-0.51621	0.18163	0.8297
3.318	79.526	-3.1407e+05	2149.6	-0.51748	0.18183	0.83087
3.32	79.575	-3.1408e+05	2149.3	-0.51874	0.18202	0.83204
3.322	79.615	-3.1408e+05	2149	-0.51826	0.18085	0.83126
3.324	79.648	-3.1408e+05	2148.7	-0.51777	0.17968	0.83048
3.326	79.669	-3.1408e+05	2148.5	-0.51728	0.17851	0.8297
3.328	79.64	-3.1408e+05	2148.2	-0.51679	0.17734	0.82892
3.33	79.596	-3.1408e+05	2148	-0.5163	0.17617	0.82814
3.332	79.536	-3.1408e+05	2147.8	-0.51611	0.17646	0.82775
3.334	79.508	-3.1408e+05	2147.6	-0.51591	0.17675	0.82736
3.336	79.541	-3.1408e+05	2147.4	-0.51572	0.17705	0.82696
3.338	79.566	-3.1409e+05	2147.3	-0.51552	0.17734	0.82657
3.34	79.642	-3.1409e+05	2147.2	-0.51533	0.17763	0.82618
3.342	79.675	-3.1409e+05	2147.1	-0.5163	0.17783	0.82677
3.344	79.614	-3.141e+05	2147.1	-0.51728	0.17802	0.82736
3.346	79.589	-3.1411e+05	2147.1	-0.51826	0.17822	0.82794
3.348	79.548	-3.1411e+05	2147	-0.51923	0.17841	0.82853
3.35	79.517	-3.1411e+05	2146.9	-0.52021	0.17861	0.82911
3.352	79.553	-3.1411e+05	2146.8	-0.52079	0.17822	0.8296
3.354	79.59	-3.1411e+05	2146.7	-0.52138	0.17783	0.83009
3.356	79.634	-3.1411e+05	2146.5	-0.52196	0.17744	0.83058
3.358	79.678	-3.1412e+05	2146.4	-0.52255	0.17705	0.83106
3.36	79.64	-3.1413e+05	2146.3	-0.52314	0.17666	0.83155
3.362	79.591	-3.1413e+05	2146.2	-0.52294	0.17675	0.83184
3.364	79.559	-3.1413e+05	2146.1	-0.52275	0.17685	0.83214
3.366	79.501	-3.1413e+05	2146	-0.52255	0.17695	0.83243
3.368	79.497	-3.1412e+05	2146.1	-0.52236	0.17705	0.83272
3.37	79.551	-3.1412e+05	2146.1	-0.52216	0.17714	0.83302
3.372	79.616	-3.1412e+05	2146.1	-0.52118	0.17685	0.83184
3.374	79.668	-3.1413e+05	2146.1	-0.52021	0.17656	0.83067
3.376	79.663	-3.1413e+05	2146.1	-0.51923	0.17627	0.8295
3.378	79.62	-3.1414e+05	2146.1	-0.51826	0.17597	0.82833
3.38	79.579	-3.1414e+05	2146	-0.51728	0.17568	0.82716
3.382	79.528	-3.1415e+05	2146.1	-0.5164	0.17705	0.82872
3.384	79.514	-3.1415e+05	2146.1	-0.51552	0.17841	0.83028
3.386	79.564	-3.1415e+05	2146.1	-0.51464	0.17978	0.83184
3.388	79.609	-3.1415e+05	2146	-0.51377	0.18115	0.83341
3.39	79.65	-3.1415e+05	2146	-0.51289	0.18251	0.83497
3.392	79.689	-3.1416e+05	2146	-0.51406	0.18144	0.83399
3.394	79.659	-3.1416e+05	2146	-0.51523	0.18036	0.83302
3.396	79.612	-3.1416e+05	2145.9	-0.5164	0.17929	0.83204
3.398	79.564	-3.1416e+05	2145.9	-0.51757	0.17822	0.83106
3.4	79.527	-3.1417e+05	2145.8	-0.51874	0.17714	0.83009
3.402	79.555	-3.1418e+05	2145.7	-0.51767	0.17783	0.8298
3.404	79.604	-3.1418e+05	2145.6	-0.5166	0.17851	0.8295
3.406	79.659	-3.1418e+05	2145.5	-0.51552	0.17919	0.82921
3.408	79.707	-3.1418e+05	2145.4	-0.51445	0.17988	0.82892
3.41	79.697	-3.1419e+05	2145.3	-0.51338	0.18056	0.82862
3.412	79.657	-3.1419e+05	2145.1	-0.51416	0.17939	0.82843
3.414	79.606	-3.1419e+05	2145	-0.51494	0.17822	0.82823
3.416	79.524	-3.1419e+05	2144.9	-0.51572	0.17705	0.82804
3.418	79.547	-3.1419e+05	2144.8	-0.5165	0.17588	0.82784
3.42	79.606	-3.1419e+05	2144.7	-0.51728	0.1747	0.82765
3.422	79.65	-3.142e+05	2144.6	-0.51669	0.17509	0.82784
3.424	79.721	-3.142e+05	2144.5	-0.51611	0.17548	0.82804
3.426	79.733	-3.142e+05	2144.4	-0.51552	0.17588	0.82823
3.428	79.668	-3.1421e+05	2144.3	-0.51494	0.17627	0.82843
3.43	79.61	-3.1421e+05	2144.3	-0.51435	0.17666	0.82862
3.432	79.536	-3.1421e+05	2144.3	-0.51504	0.17558	0.82892
3.434	79.533	-3.1421e+05	2144.3	-0.51572	0.17451	0.82921
3.436	79.572	-3.1421e+05	2144.3	-0.5164	0.17344	0.8295
3.438	79.614	-3.1421e+05	2144.3	-0.51708	0.17236	0.8298
3.44	79.685	-3.1422e+05	2144.4	-0.51777	0.17129	0.83009
3.442	79.702	-3.1422e+05	2144.4	-0.51826	0.17148	0.83009
3.444	79.676	-3.1422e+05	2144.4	-0.51874	0.17168	0.83009
3.446	79.655	-3.1422e+05	2144.4	-0.51923	0.17187	0.83009
3.448	79.602	-3.1422e+05	2144.3	-0.51972	0.17207	0.83009
3.45	79.567	-3.1423e+05	2144.2	-0.52021	0.17226	0.83009
3.452	79.584	-3.1423e+05	2144.1	-0.51962	0.17304	0.83009
3.454	79.624	-3.1423e+05	2144	-0.51904	0.17383	0.83009
3.456	79.682	-3.1423e+05	2143.9	-0.51845	0.17461	0.83009
3.458	79.722	-3.1424e+05	2143.7	-0.51787	0.17539	0.83009
3.46	79.699	-3.1424e+05	2143.6	-0.51728	0.17617	0.83009
3.462	79.64	-3.1424e+05	2143.4	-0.51806	0.17529	0.8297
3.464	79.577	-3.1424e+05	2143.3	-0.51884	0.17441	0.82931
3.466	79.535	-3.1424e+05	2143.2	-0.51962	0.17353	0.82892
3.468	79.537	-3.1425e+05	2143.1	-0.5204	0.17265	0.82853
3.47	79.577	-3.1425e+05	2143	-0.52118	0.17178	0.82814
3.472	79.635	-3.1425e+05	2143	-0.51992	0.17275	0.82804
3.474	79.688	-3.1426e+05	2142.9	-0.51865	0.17373	0.82794
3.476	79.678	-3.1426e+05	2142.9	-0.51738	0.1747	0.82784
3.478	79.619	-3.1426e+05	2142.9	-0.51611	0.17568	0.82775
3.48	79.573	-3.1426e+05	2142.9	-0.51484	0.17666	0.82765
3.482	79.507	-3.1426e+05	2142.9	-0.51562	0.17617	0.82784
3.484	79.493	-3.1426e+05	2142.9	-0.5164	0.17568	0.82804
3.486	79.553	-3.1426e+05	2142.9	-0.51718	0.17519	0.82823
3.488	79.602	-3.1426e+05	2142.8	-0.51796	0.1747	0.82843
3.49	79.664	-3.1427e+05	2142.8	-0.51874	0.17422	0.82862
3.492	79.692	-3.1427e+05	2142.7	-0.51894	0.1747	0.82882
3.494	79.641	-3.1428e+05	2142.6	-0.51913	0.17519	0.82901
3.496	79.586	-3.1428e+05	2142.5	-0.51933	0.17568	0.82921
3.498	79.541	-3.1428e+05	2142.4	-0.51952	0.17617	0.8294
3.5	79.504	-3.1428e+05	2142.3	-0.51972	0.17666	0.8296
3.502	79.533	-3.1429e+05	2142.1	-0.51865	0.17705	0.8295
3.504	79.572	-3.1429e+05	2141.9	-0.51757	0.17744	0.8294
3.506	79.637	-3.1429e+05	2141.7	-0.5165	0.17783	0.82931
3.508	79.701	-3.1429e+05	2141.5	-0.51543	0.17822	0.82921
3.51	79.678	-3.1429e+05	2141.4	-0.51435	0.17861	0.82911
3.512	79.626	-3.1429e+05	2141.3	-0.51484	0.17812	0.82872
3.514	79.591	-3.1429e+05	2141.2	-0.51533	0.17763	0.82833
3.516	79.482	-3.143e+05	2141.2	-0.51582	0.17714	0.82794
3.518	79.468	-3.1431e+05	2141.1	-0.5163	0.17666	0.82755
3.52	79.531	-3.1431e+05	2141.1	-0.51679	0.17617	0.82716
3.522	79.582	-3.1432e+05	2140.9	-0.51669	0.17773	0.82814
3.524	79.66	-3.1432e+05	2140.8	-0.5166	0.17929	0.82911
3.526	79.662	-3.1432e+05	2140.6	-0.5165	0.18085	0.83009
3.528	79.612	-3.1432e+05	2140.5	-0.5164	0.18241	0.83106
3.53	79.571	-3.1433e+05	2140.3	-0.5163	0.18398	0.83204
3.532	79.513	-3.1433e+05	2140.1	-0.5164	0.18261	0.83155
3.534	79.507	-3.1433e+05	2139.9	-0.5165	0.18124	0.83106
3.536	79.55	-3.1433e+05	2139.7	-0.5166	0.17988	0.83058
3.538	79.582	-3.1434e+05	2139.5	-0.51669	0.17851	0.83009
3.54	79.626	-3.1434e+05	2139.3	-0.51679	0.17714	0.8296
3.542	79.632	-3.1434e+05	2139.1	-0.51787	0.17695	0.8296
3.544	79.605	-3.1434e+05	2139	-0.51894	0.17675	0.8296
3.546	79.573	-3.1435e+05	2138.8	-0.52001	0.17656	0.8296
3.548	79.507	-3.1435e+05	2138.6	-0.52109	0.17636	0.8296
3.55	79.465	-3.1435e+05	2138.4	-0.52216	0.17617	0.8296
3.552	79.51	-3.1435e+05	2138.2	-0.52128	0.17558	0.82911
3.554	79.589	-3.1435e+05	2138	-0.5204	0.175	0.82862
3.556	79.689	-3.1436e+05	2137.8	-0.51952	0.17441	0.82814
3.558	79.801	-3.1436e+05	2137.5	-0.51865	0.17383	0.82765
3.56	79.85	-3.1436e+05	2137.3	-0.51777	0.17324	0.82716
3.562	79.865	-3.1436e+05	2137.1	-0.51708	0.17412	0.82745
3.564	79.885	-3.1437e+05	2136.8	-0.5164	0.175	0.82775
3.566	79.916	-3.1438e+05	2136.6	-0.51572	0.17588	0.82804
3.568	80.019	-3.1438e+05	2136.3	-0.51504	0.17675	0.82833
3.57	80.159	-3.1439e+05	2136	-0.51435	0.17763	0.82862
3.572	80.265	-3.1439e+05	2135.8	-0.51406	0.17753	0.82833
3.574	80.351	-3.1439e+05	2135.6	-0.51377	0.17744	0.82804
3.576	80.371	-3.1439e+05	2135.4	-0.51347	0.17734	0.82775
3.578	80.361	-3.1439e+05	2135.2	-0.51318	0.17724	0.82745
3.58	80.322	-3.144e+05	2135	-0.51289	0.17714	0.82716
3.582	80.225	-3.144e+05	2134.8	-0.51357	0.17753	0.82823
3.584	80.138	-3.1439e+05	2134.6	-0.51425	0.17792	0.82931
3.586	80.095	-3.144e+05	2134.4	-0.51494	0.17832	0.83038
3.588	80.073	-3.144e+05	2134.2	-0.51562	0.17871	0.83145
3.59	80.049	-3.1441e+05	2133.9	-0.5163	0.1791	0.83253
3.592	79.993	-3.1442e+05	2133.7	-0.51718	0.17744	0.83253
3.594	79.86	-3.1442e+05	2133.4	-0.51806	0.17578	0.83253
3.596	79.752	-3.1442e+05	2133.2	-0.51894	0.17412	0.83253
3.598	79.625	-3.1442e+05	2133	-0.51982	0.17246	0.83253
3.6	79.511	-3.1443e+05	2132.8	-0.5207	0.1708	0.83253
3.602	79.559	-3.1443e+05	2132.8	-0.51992	0.17236	0.83165
3.604	79.613	-3.1444e+05	2132.7	-0.51913	0.17392	0.83077
3.606	79.653	-3.1444e+05	2132.7	-0.51835	0.17548	0.82989
3.608	79.699	-3.1444e+05	2132.6	-0.51757	0.17705	0.82901
3.61	79.662	-3.1444e+05	2132.5	-0.51679	0.17861	0.82814
3.612	79.626	-3.1445e+05	2132.4	-0.51601	0.17841	0.82794
3.614	79.591	-3.1445e+05	2132.2	-0.51523	0.17822	0.82775
3.616	79.547	-3.1445e+05	2132.2	-0.51445	0.17802	0.82755
3.618	79.563	-3.1445e+05	2132.1	-0.51367	0.17783	0.82736
3.62	79.565	-3.1445e+05	2132	-0.51289	0.17763	0.82716
3.622	79.583	-3.1445e+05	2132	-0.51357	0.17792	0.82755
3.624	79.653	-3.1446e+05	2131.9	-0.51425	0.17822	0.82794
3.626	79.667	-3.1447e+05	2131.8	-0.51494	0.17851	0.82833
3.628	79.62	-3.1448e+05	2131.7	-0.51562	0.1788	0.82872
3.63	79.562	-3.1448e+05	2131.6	-0.5163	0.1791	0.82911
3.632	79.511	-3.1448e+05	2131.5	-0.51572	0.1791	0.82901
3.634	79.507	-3.1448e+05	2131.4	-0.51513	0.1791	0.82892
3.636	79.528	-3.1449e+05	2131.3	-0.51455	0.1791	0.82882
3.638	79.553	-3.1449e+05	2131.1	-0.51396	0.1791	0.82872
3.64	79.612	-3.145e+05	2131	-0.51338	0.1791	0.82862
3.642	79.65	-3.145e+05	2130.8	-0.51406	0.17822	0.82872
3.644	79.624	-3.145e+05	2130.6	-0.51474	0.17734	0.82882
3.646	79.582	-3.145e+05	2130.5	-0.51543	0.17646	0.82892
3.648	79.539	-3.1451e+05	2130.3	-0.51611	0.17558	0.82901
3.65	79.516	-3.1451e+05	2130.1	-0.51679	0.1747	0.82911
3.652	79.535	-3.1452e+05	2130	-0.5164	0.17627	0.82989
3.654	79.566	-3.1453e+05	2129.9	-0.51601	0.17783	0.83067
3.656	79.595	-3.1453e+05	2129.9	-0.51562	0.17939	0.83145
3.658	79.641	-3.1453e+05	2129.9	-0.51523	0.18095	0.83224
3.66	79.642	-3.1453e+05	2129.8	-0.51484	0.18251	0.83302
3.662	79.593	-3.1453e+05	2129.8	-0.51513	0.18173	0.83341
3.664	79.56	-3.1453e+05	2129.7	-0.51543	0.18095	0.8338
3.666	79.521	-3.1454e+05	2129.7	-0.51572	0.18017	0.83419
3.668	79.528	-3.1455e+05	2129.6	-0.51601	0.17939	0.83458
3.67	79.571	-3.1455e+05	2129.5	-0.5163	0.17861	0.83497
3.672	79.62	-3.1455e+05	2129.3	-0.51591	0.17958	0.83507
3.674	79.683	-3.1455e+05	2129.1	-0.51552	0.18056	0.83516
3.676	79.679	-3.1455e+05	2129	-0.51513	0.18154	0.83526
3.678	79.64	-3.1455e+05	2128.8	-0.51474	0.18251	0.83536
3.68	79.609	-3.1455e+05	2128.7	-0.51435	0.18349	0.83546
3.682	79.524	-3.1456e+05	2128.5	-0.51425	0.18359	0.83555
3.684	79.521	-3.1456e+05	2128.4	-0.51416	0.18368	0.83565
3.686	79.59	-3.1457e+05	2128.2	-0.51406	0.18378	0.83575
3.688	79.622	-3.1458e+05	2128	-0.51396	0.18388	0.83585
3.69	79.675	-3.1458e+05	2127.8	-0.51386	0.18398	0.83594
3.692	79.707	-3.1459e+05	2127.6	-0.51357	0.1829	0.83399
3.694	79.679	-3.1459e+05	2127.4	-0.51328	0.18183	0.83204
3.696	79.635	-3.1458e+05	2127.3	-0.51299	0.18076	0.83009
3.698	79.582	-3.1458e+05	2127.2	-0.51269	0.17968	0.82814
3.7	79.571	-3.1459e+05	2127.2	-0.5124	0.17861	0.82618
3.702	79.598	-3.146e+05	2127.2	-0.51181	0.1791	0.82628
3.704	79.621	-3.1461e+05	2127.2	-0.51123	0.17958	0.82638
3.706	79.669	-3.1461e+05	2127.3	-0.51064	0.18007	0.82648
3.708	79.704	-3.146e+05	2127.4	-0.51006	0.18056	0.82657
3.71	79.676	-3.146e+05	2127.5	-0.50947	0.18105	0.82667
3.712	79.645	-3.1461e+05	2127.9	-0.51142	0.18036	0.82696
3.714	79.619	-3.1461e+05	2128.4	-0.51338	0.17968	0.82726
3.716	79.594	-3.1462e+05	2129.1	-0.51533	0.179	0.82755
3.718	79.603	-3.1462e+05	2130	-0.51728	0.17832	0.82784
3.72	79.626	-3.1462e+05	2131	-0.51923	0.17763	0.82814
3.722	79.665	-3.1463e+05	2132.4	-0.51845	0.17763	0.82853
3.724	79.726	-3.1463e+05	2133.7	-0.51767	0.17763	0.82892
3.726	79.732	-3.1463e+05	2135.1	-0.51689	0.17763	0.82931
3.728	79.683	-3.1463e+05	2136.6	-0.51611	0.17763	0.8297
3.73	79.638	-3.1464e+05	2138	-0.51533	0.17763	0.83009
3.732	79.595	-3.1465e+05	2139.3	-0.51611	0.17695	0.82999
3.734	79.59	-3.1465e+05	2140.6	-0.51689	0.17627	0.82989
3.736	79.642	-3.1465e+05	2141.9	-0.51767	0.17558	0.8298
3.738	79.68	-3.1465e+05	2143.2	-0.51845	0.1749	0.8297
3.74	79.724	-3.1465e+05	2144.5	-0.51923	0.17422	0.8296
3.742	79.761	-3.1464e+05	2145.8	-0.52001	0.17392	0.8296
3.744	79.724	-3.1464e+05	2147.1	-0.52079	0.17363	0.8296
3.746	79.681	-3.1464e+05	2148.5	-0.52157	0.17334	0.8296
3.748	79.64	-3.1464e+05	2149.8	-0.52236	0.17304	0.8296
3.75	79.616	-3.1464e+05	2151.1	-0.52314	0.17275	0.8296
3.752	79.632	-3.1464e+05	2152.3	-0.52216	0.17295	0.8297
3.754	79.669	-3.1464e+05	2153.5	-0.52118	0.17314	0.8298
3.756	79.736	-3.1464e+05	2154.6	-0.52021	0.17334	0.82989
3.758	79.799	-3.1463e+05	2155.7	-0.51923	0.17353	0.82999
3.76	79.765	-3.1463e+05	2156.8	-0.51826	0.17373	0.83009
3.762	79.709	-3.1462e+05	2157.6	-0.51826	0.17363	0.83019
3.764	79.667	-3.1463e+05	2158.5	-0.51826	0.17353	0.83028
3.766	79.597	-3.1462e+05	2159.4	-0.51826	0.17344	0.83038
3.768	79.609	-3.1461e+05	2160.1	-0.51826	0.17334	0.83048
3.77	79.663	-3.146e+05	2160.9	-0.51826	0.17324	0.83058
3.772	79.716	-3.146e+05	2161.4	-0.51777	0.17324	0.83009
3.774	79.782	-3.1459e+05	2162	-0.51728	0.17324	0.8296
3.776	79.752	-3.1459e+05	2162.5	-0.51679	0.17324	0.82911
3.778	79.701	-3.1459e+05	2162.9	-0.5163	0.17324	0.82862
3.78	79.653	-3.1458e+05	2163.4	-0.51582	0.17324	0.82814
3.782	79.579	-3.1457e+05	2163.8	-0.51543	0.17373	0.82784
3.784	79.558	-3.1458e+05	2164.1	-0.51504	0.17422	0.82755
3.786	79.592	-3.1458e+05	2164.5	-0.51464	0.1747	0.82726
3.788	79.636	-3.1457e+05	2164.8	-0.51425	0.17519	0.82696
3.79	79.689	-3.1456e+05	2165.1	-0.51386	0.17568	0.82667
3.792	79.698	-3.1455e+05	2165.3	-0.51338	0.17627	0.82726
3.794	79.658	-3.1454e+05	2165.5	-0.51289	0.17685	0.82784
3.796	79.622	-3.1453e+05	2165.7	-0.5124	0.17744	0.82843
3.798	79.566	-3.1452e+05	2165.8	-0.51191	0.17802	0.82901
3.8	79.527	-3.1452e+05	2165.9	-0.51142	0.17861	0.8296
3.802	79.538	-3.1452e+05	2165.9	-0.51133	0.1788	0.82882
3.804	79.563	-3.1451e+05	2165.8	-0.51123	0.179	0.82804
3.806	79.614	-3.1451e+05	2165.8	-0.51113	0.17919	0.82726
3.808	79.67	-3.145e+05	2165.6	-0.51103	0.17939	0.82648
3.81	79.665	-3.1449e+05	2165.5	-0.51094	0.17958	0.8257
3.812	79.606	-3.1448e+05	2165.4	-0.51113	0.17968	0.82531
3.814	79.543	-3.1447e+05	2165.3	-0.51133	0.17978	0.82492
3.816	79.506	-3.1447e+05	2165.3	-0.51152	0.17988	0.82452
3.818	79.507	-3.1446e+05	2165.2	-0.51172	0.17997	0.82413
3.82	79.517	-3.1446e+05	2165.1	-0.51191	0.18007	0.82374
3.822	79.544	-3.1445e+05	2165	-0.51386	0.17919	0.82501
3.824	79.598	-3.1445e+05	2165	-0.51582	0.17832	0.82628
3.826	79.611	-3.1444e+05	2164.8	-0.51777	0.17744	0.82755
3.828	79.574	-3.1443e+05	2164.6	-0.51972	0.17656	0.82882
3.83	79.538	-3.1442e+05	2164.5	-0.52167	0.17568	0.83009
3.832	79.477	-3.1442e+05	2164.2	-0.52099	0.1748	0.82989
3.834	79.447	-3.1442e+05	2163.9	-0.52031	0.17392	0.8297
3.836	79.493	-3.1441e+05	2163.7	-0.51962	0.17304	0.8295
3.838	79.545	-3.1441e+05	2163.5	-0.51894	0.17217	0.82931
3.84	79.59	-3.144e+05	2163.2	-0.51826	0.17129	0.82911
3.842	79.612	-3.144e+05	2163.1	-0.51904	0.17168	0.8296
3.844	79.584	-3.1439e+05	2162.9	-0.51982	0.17207	0.83009
3.846	79.551	-3.1439e+05	2162.8	-0.5206	0.17246	0.83058
3.848	79.501	-3.1438e+05	2162.7	-0.52138	0.17285	0.83106
3.85	79.46	-3.1438e+05	2162.6	-0.52216	0.17324	0.83155
3.852	79.469	-3.1437e+05	2162.6	-0.52206	0.17363	0.83136
3.854	79.535	-3.1437e+05	2162.5	-0.52196	0.17402	0.83116
3.856	79.583	-3.1437e+05	2162.4	-0.52187	0.17441	0.83097
3.858	79.621	-3.1436e+05	2162.3	-0.52177	0.1748	0.83077
3.86	79.605	-3.1436e+05	2162.2	-0.52167	0.17519	0.83058
3.862	79.569	-3.1435e+05	2162	-0.52001	0.17705	0.83155
3.864	79.524	-3.1435e+05	2161.7	-0.51835	0.1789	0.83253
3.866	79.454	-3.1434e+05	2161.5	-0.51669	0.18076	0.8335
3.868	79.472	-3.1434e+05	2161.3	-0.51504	0.18261	0.83448
3.87	79.507	-3.1434e+05	2161.2	-0.51338	0.18446	0.83546
3.872	79.543	-3.1434e+05	2161	-0.51299	0.18446	0.83546
3.874	79.601	-3.1433e+05	2160.8	-0.5126	0.18446	0.83546
3.876	79.592	-3.1433e+05	2160.6	-0.5122	0.18446	0.83546
3.878	79.56	-3.1433e+05	2160.3	-0.51181	0.18446	0.83546
3.88	79.536	-3.1433e+05	2160.1	-0.51142	0.18446	0.83546
3.882	79.502	-3.1433e+05	2159.8	-0.51201	0.18446	0.83487
3.884	79.498	-3.1432e+05	2159.6	-0.5126	0.18446	0.83428
3.886	79.531	-3.1432e+05	2159.4	-0.51318	0.18446	0.8337
3.888	79.576	-3.1432e+05	2159.2	-0.51377	0.18446	0.83311
3.89	79.616	-3.1432e+05	2158.9	-0.51435	0.18446	0.83253
3.892	79.612	-3.1432e+05	2158.7	-0.51464	0.18339	0.83263
3.894	79.567	-3.1432e+05	2158.4	-0.51494	0.18232	0.83272
3.896	79.535	-3.1431e+05	2158.2	-0.51523	0.18124	0.83282
3.898	79.508	-3.1431e+05	2158	-0.51552	0.18017	0.83292
3.9	79.494	-3.1431e+05	2157.8	-0.51582	0.1791	0.83302
3.902	79.526	-3.143e+05	2157.5	-0.51425	0.17949	0.83253
3.904	79.567	-3.143e+05	2157.3	-0.51269	0.17988	0.83204
3.906	79.623	-3.143e+05	2157.1	-0.51113	0.18027	0.83155
3.908	79.683	-3.143e+05	2156.9	-0.50957	0.18066	0.83106
3.91	79.666	-3.143e+05	2156.7	-0.50801	0.18105	0.83058
3.912	79.606	-3.143e+05	2156.5	-0.50937	0.18085	0.83116
3.914	79.547	-3.143e+05	2156.4	-0.51074	0.18066	0.83175
3.916	79.502	-3.1431e+05	2156.2	-0.51211	0.18046	0.83233
3.918	79.511	-3.1431e+05	2156.2	-0.51347	0.18027	0.83292
3.92	79.563	-3.1431e+05	2156.1	-0.51484	0.18007	0.8335
3.922	79.607	-3.1431e+05	2155.9	-0.51455	0.18007	0.83428
3.924	79.662	-3.1431e+05	2155.7	-0.51425	0.18007	0.83507
3.926	79.644	-3.1431e+05	2155.6	-0.51396	0.18007	0.83585
3.928	79.602	-3.1431e+05	2155.4	-0.51367	0.18007	0.83663
3.93	79.575	-3.1431e+05	2155.3	-0.51338	0.18007	0.83741
3.932	79.511	-3.1431e+05	2155.1	-0.51308	0.18076	0.8379
3.934	79.496	-3.1431e+05	2155	-0.51279	0.18144	0.83838
3.936	79.601	-3.143e+05	2154.9	-0.5125	0.18212	0.83887
3.938	79.612	-3.143e+05	2154.7	-0.5122	0.1828	0.83936
3.94	79.65	-3.143e+05	2154.6	-0.51191	0.18349	0.83985
3.942	79.674	-3.143e+05	2154.3	-0.51123	0.18349	0.83936
3.944	79.642	-3.143e+05	2154	-0.51055	0.18349	0.83887
3.946	79.611	-3.143e+05	2153.7	-0.50986	0.18349	0.83838
3.948	79.551	-3.143e+05	2153.4	-0.50918	0.18349	0.8379
3.95	79.506	-3.143e+05	2153.1	-0.5085	0.18349	0.83741
3.952	79.541	-3.143e+05	2152.8	-0.51064	0.18271	0.83672
3.954	79.58	-3.143e+05	2152.5	-0.51279	0.18193	0.83604
3.956	79.627	-3.1431e+05	2152.2	-0.51494	0.18115	0.83536
3.958	79.665	-3.1431e+05	2152	-0.51708	0.18036	0.83468
3.96	79.652	-3.1432e+05	2151.8	-0.51923	0.17958	0.83399
3.962	79.627	-3.1432e+05	2151.5	-0.51796	0.1791	0.83263
3.964	79.584	-3.1432e+05	2151.1	-0.51669	0.17861	0.83126
3.966	79.513	-3.1432e+05	2150.8	-0.51543	0.17812	0.82989
3.968	79.496	-3.1432e+05	2150.4	-0.51416	0.17763	0.82853
3.97	79.527	-3.1432e+05	2150.1	-0.51289	0.17714	0.82716
3.972	79.585	-3.1431e+05	2149.8	-0.51377	0.17705	0.82775
3.974	79.657	-3.1431e+05	2149.4	-0.51464	0.17695	0.82833
3.976	79.665	-3.1431e+05	2149.1	-0.51552	0.17685	0.82892
3.978	79.617	-3.1432e+05	2148.8	-0.5164	0.17675	0.8295
3.98	79.565	-3.1433e+05	2148.6	-0.51728	0.17666	0.83009
3.982	79.512	-3.1433e+05	2148.3	-0.5165	0.17763	0.83028
3.984	79.509	-3.1433e+05	2148.1	-0.51572	0.17861	0.83048
3.986	79.556	-3.1433e+05	2147.8	-0.51494	0.17958	0.83067
3.988	79.593	-3.1433e+05	2147.6	-0.51416	0.18056	0.83087
3.99	79.635	-3.1433e+05	2147.3	-0.51338	0.18154	0.83106
3.992	79.662	-3.1434e+05	2147	-0.5125	0.18105	0.83028
3.994	79.634	-3.1434e+05	2146.7	-0.51162	0.18056	0.8295
3.996	79.594	-3.1435e+05	2146.5	-0.51074	0.18007	0.82872
3.998	79.545	-3.1436e+05	2146.3	-0.50986	0.17958	0.82794
4	79.507	-3.1436e+05	2146.2	-0.50898	0.1791	0.82716
4.002	79.545	-3.1436e+05	2146	-0.51064	0.179	0.82823
4.004	79.58	-3.1436e+05	2145.9	-0.5123	0.1789	0.82931
4.006	79.639	-3.1436e+05	2145.7	-0.51396	0.1788	0.83038
4.008	79.686	-3.1436e+05	2145.6	-0.51562	0.17871	0.83145
4.01	79.653	-3.1437e+05	2145.5	-0.51728	0.17861	0.83253
4.012	79.617	-3.1437e+05	2145.4	-0.5166	0.17812	0.83145
4.014	79.559	-3.1437e+05	2145.3	-0.51591	0.17763	0.83038
4.016	79.485	-3.1437e+05	2145.2	-0.51523	0.17714	0.82931
4.018	79.526	-3.1437e+05	2145.1	-0.51455	0.17666	0.82823
4.02	79.577	-3.1438e+05	2144.9	-0.51386	0.17617	0.82716
4.022	79.633	-3.1438e+05	2144.8	-0.51543	0.17588	0.82775
4.024	79.694	-3.1439e+05	2144.7	-0.51699	0.17558	0.82833
4.026	79.652	-3.1439e+05	2144.6	-0.51855	0.17529	0.82892
4.028	79.609	-3.1439e+05	2144.5	-0.52011	0.175	0.8295
4.03	79.558	-3.1439e+05	2144.4	-0.52167	0.1747	0.83009
4.032	79.493	-3.1439e+05	2144.5	-0.52099	0.17519	0.83038
4.034	79.496	-3.144e+05	2144.5	-0.52031	0.17568	0.83067
4.036	79.523	-3.144e+05	2144.6	-0.51962	0.17617	0.83097
4.038	79.559	-3.1441e+05	2144.6	-0.51894	0.17666	0.83126
4.04	79.644	-3.1441e+05	2144.6	-0.51826	0.17714	0.83155
4.042	79.658	-3.1442e+05	2144.6	-0.51816	0.17695	0.83126
4.044	79.619	-3.1443e+05	2144.6	-0.51806	0.17675	0.83097
4.046	79.575	-3.1443e+05	2144.6	-0.51796	0.17656	0.83067
4.048	79.528	-3.1443e+05	2144.6	-0.51787	0.17636	0.83038
4.05	79.504	-3.1443e+05	2144.6	-0.51777	0.17617	0.83009
4.052	79.522	-3.1443e+05	2144.6	-0.51787	0.17656	0.83058
4.054	79.566	-3.1443e+05	2144.6	-0.51796	0.17695	0.83106
4.056	79.626	-3.1443e+05	2144.5	-0.51806	0.17734	0.83155
4.058	79.659	-3.1443e+05	2144.4	-0.51816	0.17773	0.83204
4.06	79.629	-3.1444e+05	2144.3	-0.51826	0.17812	0.83253
4.062	79.577	-3.1444e+05	2144.2	-0.51689	0.17773	0.83106
4.064	79.529	-3.1444e+05	2144.2	-0.51552	0.17734	0.8296
4.066	79.498	-3.1444e+05	2144.1	-0.51416	0.17695	0.82814
4.068	79.522	-3.1444e+05	2144	-0.51279	0.17656	0.82667
4.07	79.563	-3.1444e+05	2143.9	-0.51142	0.17617	0.82521
4.072	79.601	-3.1445e+05	2143.8	-0.51211	0.17597	0.82599
4.074	79.648	-3.1446e+05	2143.7	-0.51279	0.17578	0.82677
4.076	79.642	-3.1446e+05	2143.7	-0.51347	0.17558	0.82755
4.078	79.589	-3.1446e+05	2143.7	-0.51416	0.17539	0.82833
4.08	79.552	-3.1447e+05	2143.7	-0.51484	0.17519	0.82911
4.082	79.503	-3.1447e+05	2143.7	-0.51494	0.17548	0.82911
4.084	79.481	-3.1447e+05	2143.7	-0.51504	0.17578	0.82911
4.086	79.539	-3.1448e+05	2143.7	-0.51513	0.17607	0.82911
4.088	79.594	-3.1448e+05	2143.6	-0.51523	0.17636	0.82911
4.09	79.63	-3.1448e+05	2143.5	-0.51533	0.17666	0.82911
4.092	79.645	-3.1448e+05	2143.3	-0.51513	0.17705	0.82872
4.094	79.602	-3.1448e+05	2143.1	-0.51494	0.17744	0.82833
4.096	79.566	-3.1448e+05	2143	-0.51474	0.17783	0.82794
4.098	79.52	-3.1449e+05	2142.8	-0.51455	0.17822	0.82755
4.1	79.497	-3.145e+05	2142.6	-0.51435	0.17861	0.82716
4.102	79.554	-3.145e+05	2142.5	-0.51494	0.17792	0.82775
4.104	79.608	-3.1451e+05	2142.4	-0.51552	0.17724	0.82833
4.106	79.669	-3.1451e+05	2142.4	-0.51611	0.17656	0.82892
4.108	79.719	-3.1451e+05	2142.5	-0.51669	0.17588	0.8295
4.11	79.615	-3.145e+05	2142.5	-0.51728	0.17519	0.83009
4.112	79.539	-3.145e+05	2142.6	-0.51708	0.17588	0.83009
4.114	79.501	-3.145e+05	2142.6	-0.51689	0.17656	0.83009
4.116	79.466	-3.145e+05	2142.6	-0.51669	0.17724	0.83009
4.118	79.499	-3.145e+05	2142.5	-0.5165	0.17792	0.83009
4.12	79.562	-3.145e+05	2142.5	-0.5163	0.17861	0.83009
4.122	79.62	-3.145e+05	2142.4	-0.51611	0.1788	0.83009
4.124	79.671	-3.1451e+05	2142.3	-0.51591	0.179	0.83009
4.126	79.639	-3.1451e+05	2142.3	-0.51572	0.17919	0.83009
4.128	79.581	-3.1451e+05	2142.3	-0.51552	0.17939	0.83009
4.13	79.536	-3.1451e+05	2142.3	-0.51533	0.17958	0.83009
4.132	79.489	-3.1452e+05	2142.2	-0.51543	0.1791	0.8298
4.134	79.513	-3.1452e+05	2142.1	-0.51552	0.17861	0.8295
4.136	79.567	-3.1452e+05	2142	-0.51562	0.17812	0.82921
4.138	79.605	-3.1451e+05	2142.1	-0.51572	0.17763	0.82892
4.14	79.634	-3.1452e+05	2142.1	-0.51582	0.17714	0.82862
4.142	79.636	-3.1452e+05	2142.1	-0.51611	0.17744	0.82911
4.144	79.616	-3.1452e+05	2142.1	-0.5164	0.17773	0.8296
4.146	79.595	-3.1452e+05	2142.1	-0.51669	0.17802	0.83009
4.148	79.546	-3.1453e+05	2142	-0.51699	0.17832	0.83058
4.15	79.506	-3.1453e+05	2142	-0.51728	0.17861	0.83106
4.152	79.528	-3.1453e+05	2141.9	-0.5166	0.17871	0.83097
4.154	79.576	-3.1453e+05	2141.9	-0.51591	0.1788	0.83087
4.156	79.627	-3.1453e+05	2141.8	-0.51523	0.1789	0.83077
4.158	79.661	-3.1453e+05	2141.6	-0.51455	0.179	0.83067
4.16	79.638	-3.1453e+05	2141.4	-0.51386	0.1791	0.83058
4.162	79.587	-3.1453e+05	2141.3	-0.51474	0.17851	0.83077
4.164	79.535	-3.1453e+05	2141.2	-0.51562	0.17792	0.83097
4.166	79.499	-3.1454e+05	2141	-0.5165	0.17734	0.83116
4.168	79.535	-3.1454e+05	2140.8	-0.51738	0.17675	0.83136
4.17	79.59	-3.1454e+05	2140.6	-0.51826	0.17617	0.83155
4.172	79.634	-3.1455e+05	2140.4	-0.51728	0.17675	0.83087
4.174	79.687	-3.1455e+05	2140.2	-0.5163	0.17734	0.83019
4.176	79.694	-3.1455e+05	2139.9	-0.51533	0.17792	0.8295
4.178	79.633	-3.1455e+05	2139.7	-0.51435	0.17851	0.82882
4.18	79.562	-3.1455e+05	2139.5	-0.51338	0.1791	0.82814
4.182	79.511	-3.1456e+05	2139.2	-0.51386	0.17861	0.82833
4.184	79.522	-3.1456e+05	2138.9	-0.51435	0.17812	0.82853
4.186	79.552	-3.1456e+05	2138.7	-0.51484	0.17763	0.82872
4.188	79.567	-3.1457e+05	2138.6	-0.51533	0.17714	0.82892
4.19	79.647	-3.1456e+05	2138.5	-0.51582	0.17666	0.82911
4.192	79.7	-3.1456e+05	2138.5	-0.51591	0.17724	0.82921
4.194	79.659	-3.1456e+05	2138.6	-0.51601	0.17783	0.82931
4.196	79.565	-3.1457e+05	2138.5	-0.51611	0.17841	0.8294
4.198	79.488	-3.1457e+05	2138.4	-0.51621	0.179	0.8295
4.2	79.486	-3.1458e+05	2138.3	-0.5163	0.17958	0.8296
4.202	79.542	-3.1458e+05	2138.2	-0.5165	0.17949	0.8297
4.204	79.585	-3.1458e+05	2138.1	-0.51669	0.17939	0.8298
4.206	79.636	-3.1458e+05	2138	-0.51689	0.17929	0.82989
4.208	79.653	-3.1458e+05	2137.9	-0.51708	0.17919	0.82999
4.21	79.601	-3.1458e+05	2137.8	-0.51728	0.1791	0.83009
4.212	79.565	-3.1458e+05	2137.6	-0.51748	0.17802	0.8296
4.214	79.543	-3.1459e+05	2137.3	-0.51767	0.17695	0.82911
4.216	79.51	-3.1459e+05	2137.1	-0.51787	0.17588	0.82862
4.218	79.518	-3.146e+05	2136.9	-0.51806	0.1748	0.82814
4.22	79.563	-3.146e+05	2136.7	-0.51826	0.17373	0.82765
4.222	79.619	-3.1461e+05	2136.4	-0.51777	0.17451	0.82853
4.224	79.671	-3.1461e+05	2136.1	-0.51728	0.17529	0.8294
4.226	79.662	-3.1461e+05	2135.9	-0.51679	0.17607	0.83028
4.228	79.613	-3.146e+05	2135.7	-0.5163	0.17685	0.83116
4.23	79.557	-3.146e+05	2135.5	-0.51582	0.17763	0.83204
4.232	79.515	-3.1461e+05	2135.3	-0.51601	0.17705	0.83106
4.234	79.52	-3.1461e+05	2135.2	-0.51621	0.17646	0.83009
4.236	79.542	-3.1461e+05	2135.1	-0.5164	0.17588	0.82911
4.238	79.582	-3.1462e+05	2134.9	-0.5166	0.17529	0.82814
4.24	79.652	-3.1462e+05	2134.8	-0.51679	0.1747	0.82716
4.242	79.669	-3.1462e+05	2134.6	-0.51669	0.17558	0.82843
4.244	79.63	-3.1463e+05	2134.3	-0.5166	0.17646	0.8297
4.246	79.59	-3.1463e+05	2134.1	-0.5165	0.17734	0.83097
4.248	79.544	-3.1463e+05	2133.9	-0.5164	0.17822	0.83224
4.25	79.529	-3.1463e+05	2133.7	-0.5163	0.1791	0.8335
4.252	79.582	-3.1464e+05	2133.5	-0.51679	0.17753	0.8335
4.254	79.633	-3.1464e+05	2133.3	-0.51728	0.17597	0.8335
4.256	79.666	-3.1465e+05	2133	-0.51777	0.17441	0.8335
4.258	79.652	-3.1466e+05	2132.7	-0.51826	0.17285	0.8335
4.26	79.585	-3.1466e+05	2132.4	-0.51874	0.17129	0.8335
4.262	79.561	-3.1466e+05	2132.1	-0.51796	0.17207	0.83233
4.264	79.555	-3.1466e+05	2131.8	-0.51718	0.17285	0.83116
4.266	79.519	-3.1466e+05	2131.5	-0.5164	0.17363	0.82999
4.268	79.542	-3.1466e+05	2131.2	-0.51562	0.17441	0.82882
4.27	79.594	-3.1467e+05	2130.8	-0.51484	0.17519	0.82765
4.272	79.636	-3.1468e+05	2130.7	-0.51543	0.17558	0.82833
4.274	79.701	-3.1469e+05	2130.5	-0.51601	0.17597	0.82901
4.276	79.669	-3.147e+05	2130.3	-0.5166	0.17636	0.8297
4.278	79.622	-3.1471e+05	2130.1	-0.51718	0.17675	0.83038
4.28	79.583	-3.1471e+05	2130	-0.51777	0.17714	0.83106
4.282	79.531	-3.1471e+05	2129.7	-0.51787	0.17636	0.83087
