t	ekg	optical	pressure	accel_x	accel_y	accel_z
0	15.205	-13641	4342.9	-0.95921	0.24088	-0.092427
0.002	15.202	-13641	4343.6	-0.9598	0.24	-0.091354
0.004	15.199	-13641	4344.3	-0.96038	0.23912	-0.09028
0.006	15.19	-13644	4345.1	-0.96097	0.23824	-0.089206
0.008	15.183	-13646	4345.8	-0.96156	0.23736	-0.088133
0.01	15.172	-13644	4346.6	-0.96214	0.23648	-0.087059
0.012	15.179	-13643	4347.4	-0.96273	0.23561	-0.085986
0.014	15.175	-13642	4348.2	-0.96331	0.23473	-0.084912
0.016	15.163	-13640	4349	-0.96312	0.23541	-0.086181
0.018	15.151	-13642	4349.8	-0.96292	0.23609	-0.08745
0.02	15.16	-13644	4350.5	-0.96273	0.23678	-0.088718
0.022	15.165	-13641	4351.1	-0.96253	0.23746	-0.089987
0.024	15.132	-13639	4351.7	-0.96234	0.23814	-0.091256
0.026	15.091	-13642	4352.3	-0.96234	0.23775	-0.091256
0.028	15.082	-13645	4352.9	-0.96234	0.23736	-0.091256
0.03	15.107	-13645	4353.5	-0.96234	0.23697	-0.091256
0.032	15.11	-13646	4354.3	-0.96234	0.23658	-0.091256
0.034	15.117	-13642	4355.1	-0.96234	0.23619	-0.091256
0.036	15.2	-13639	4356	-0.96263	0.23629	-0.090866
0.038	15.189	-13644	4356.9	-0.96292	0.23639	-0.090475
0.04	15.125	-13650	4357.8	-0.96321	0.23648	-0.090085
0.042	15.146	-13652	4358.7	-0.96351	0.23658	-0.089694
0.044	15.201	-13655	4359.7	-0.9638	0.23668	-0.089304
0.046	15.211	-13649	4360.6	-0.96448	0.23697	-0.089694
0.048	15.193	-13644	4361.5	-0.96517	0.23727	-0.090085
0.05	15.186	-13643	4362.3	-0.96585	0.23756	-0.090475
0.052	15.192	-13641	4363.1	-0.96653	0.23785	-0.090866
0.054	15.201	-13643	4364	-0.96722	0.23814	-0.091256
0.056	15.225	-13644	4364.7	-0.96634	0.23766	-0.090963
0.058	15.239	-13645	4365.4	-0.96546	0.23717	-0.09067
0.06	15.242	-13646	4366	-0.96458	0.23668	-0.090378
0.062	15.219	-13646	4366.5	-0.9637	0.23619	-0.090085
0.064	15.204	-13647	4367	-0.96282	0.2357	-0.089792
0.066	15.221	-13651	4367.4	-0.96214	0.23668	-0.089694
0.068	15.222	-13655	4367.9	-0.96146	0.23766	-0.089597
0.07	15.229	-13646	4368.2	-0.96077	0.23863	-0.089499
0.072	15.238	-13637	4368.4	-0.96009	0.23961	-0.089402
0.074	15.219	-13639	4368.7	-0.95941	0.24058	-0.089304
0.076	15.21	-13641	4368.9	-0.95951	0.24088	-0.088718
0.078	15.223	-13633	4369	-0.9596	0.24117	-0.088133
0.08	15.223	-13625	4369.1	-0.9597	0.24146	-0.087547
0.082	15.212	-13629	4369.2	-0.9598	0.24176	-0.086962
0.084	15.212	-13633	4369.2	-0.9599	0.24205	-0.086376
0.086	15.221	-13634	4369.2	-0.9596	0.24205	-0.087352
0.088	15.217	-13635	4369.1	-0.95931	0.24205	-0.088328
0.09	15.215	-13637	4369.1	-0.95902	0.24205	-0.089304
0.092	15.241	-13639	4369	-0.95872	0.24205	-0.09028
0.094	15.256	-13636	4368.9	-0.95843	0.24205	-0.091256
0.096	15.253	-13634	4368.6	-0.9597	0.24176	-0.091744
0.098	15.24	-13639	4368.4	-0.96097	0.24146	-0.092232
0.1	15.227	-13643	4368.1	-0.96224	0.24117	-0.09272
0.102	15.226	-13640	4367.6	-0.96351	0.24088	-0.093208
0.104	15.232	-13638	4367.2	-0.96478	0.24058	-0.093696
0.106	15.239	-13644	4366.5	-0.96409	0.2399	-0.093208
0.108	15.232	-13650	4365.8	-0.96341	0.23922	-0.09272
0.11	15.22	-13646	4365.1	-0.96273	0.23853	-0.092232
0.112	15.218	-13641	4364.3	-0.96204	0.23785	-0.091744
0.114	15.202	-13641	4363.6	-0.96136	0.23717	-0.091256
0.116	15.212	-13640	4362.8	-0.96253	0.23756	-0.091256
0.118	15.215	-13641	4362.1	-0.9637	0.23795	-0.091256
0.12	15.195	-13641	4361.4	-0.96487	0.23834	-0.091256
0.122	15.192	-13638	4360.7	-0.96604	0.23873	-0.091256
0.124	15.274	-13634	4360	-0.96722	0.23912	-0.091256
0.126	15.329	-13634	4359.5	-0.96692	0.23912	-0.091158
0.128	15.296	-13634	4359.1	-0.96663	0.23912	-0.091061
0.13	15.283	-13640	4358.6	-0.96634	0.23912	-0.090963
0.132	15.257	-13645	4358.3	-0.96604	0.23912	-0.090866
0.134	15.269	-13641	4357.9	-0.96575	0.23912	-0.090768
0.136	15.246	-13638	4357.6	-0.96575	0.23863	-0.090963
0.138	15.227	-13639	4357.2	-0.96575	0.23814	-0.091158
0.14	15.256	-13641	4356.9	-0.96575	0.23766	-0.091354
0.142	15.28	-13641	4356.7	-0.96575	0.23717	-0.091549
0.144	15.254	-13642	4356.4	-0.96575	0.23668	-0.091744
0.146	15.243	-13642	4356.1	-0.96536	0.23609	-0.091744
0.148	15.243	-13643	4355.8	-0.96497	0.23551	-0.091744
0.15	15.246	-13643	4355.5	-0.96458	0.23492	-0.091744
0.152	15.235	-13644	4355.1	-0.96419	0.23434	-0.091744
0.154	15.236	-13640	4354.8	-0.9638	0.23375	-0.091744
0.156	15.252	-13636	4354.3	-0.96273	0.23463	-0.091158
0.158	15.239	-13636	4353.8	-0.96165	0.23551	-0.090573
0.16	15.22	-13635	4353.3	-0.96058	0.23639	-0.089987
0.162	15.217	-13639	4352.8	-0.95951	0.23727	-0.089402
0.164	15.216	-13642	4352.3	-0.95843	0.23814	-0.088816
0.166	15.219	-13640	4351.8	-0.9596	0.23707	-0.088133
0.168	15.22	-13637	4351.3	-0.96077	0.236	-0.08745
0.17	15.221	-13636	4350.9	-0.96195	0.23492	-0.086766
0.172	15.237	-13634	4350.5	-0.96312	0.23385	-0.086083
0.174	15.255	-13637	4350.1	-0.96429	0.23278	-0.0854
0.176	15.251	-13640	4349.7	-0.96429	0.23336	-0.085693
0.178	15.241	-13640	4349.4	-0.96429	0.23395	-0.085986
0.18	15.243	-13640	4349	-0.96429	0.23453	-0.086278
0.182	15.247	-13639	4348.6	-0.96429	0.23512	-0.086571
0.184	15.234	-13639	4348.3	-0.96429	0.2357	-0.086864
0.186	15.222	-13634	4347.8	-0.96331	0.23609	-0.086962
0.188	15.234	-13628	4347.4	-0.96234	0.23648	-0.087059
0.19	15.246	-13636	4347	-0.96136	0.23688	-0.087157
0.192	15.244	-13643	4346.5	-0.96038	0.23727	-0.087254
0.194	15.212	-13647	4346	-0.95941	0.23766	-0.087352
0.196	15.184	-13652	4345.5	-0.9596	0.23756	-0.08745
0.198	15.18	-13646	4345	-0.9598	0.23746	-0.087547
0.2	15.205	-13640	4344.4	-0.95999	0.23736	-0.087645
0.202	15.244	-13645	4343.9	-0.96019	0.23727	-0.087742
0.204	15.233	-13651	4343.3	-0.96038	0.23717	-0.08784
0.206	15.258	-13647	4342.8	-0.96097	0.23775	-0.087645
0.208	15.237	-13642	4342.3	-0.96156	0.23834	-0.08745
0.21	15.216	-13642	4341.8	-0.96214	0.23892	-0.087254
0.212	15.271	-13643	4341.3	-0.96273	0.23951	-0.087059
0.214	15.28	-13634	4340.8	-0.96331	0.2401	-0.086864
0.216	15.251	-13625	4340.5	-0.96419	0.24068	-0.087157
0.218	15.25	-13631	4340.1	-0.96507	0.24127	-0.08745
0.22	15.249	-13638	4339.8	-0.96595	0.24185	-0.087742
0.222	15.219	-13638	4339.5	-0.96683	0.24244	-0.088035
0.224	15.212	-13638	4339.3	-0.9677	0.24302	-0.088328
0.226	15.227	-13636	4338.9	-0.96663	0.24215	-0.088426
0.228	15.243	-13635	4338.6	-0.96556	0.24127	-0.088523
0.23	15.209	-13635	4338.2	-0.96448	0.24039	-0.088621
0.232	15.208	-13635	4337.8	-0.96341	0.23951	-0.088718
0.234	15.255	-13636	4337.5	-0.96234	0.23863	-0.088816
0.236	15.249	-13638	4337.2	-0.96263	0.23805	-0.087938
0.238	15.219	-13645	4336.8	-0.96292	0.23746	-0.087059
0.24	15.196	-13652	4336.7	-0.96321	0.23688	-0.086181
0.242	15.216	-13651	4336.6	-0.96351	0.23629	-0.085302
0.244	15.232	-13651	4336.6	-0.9638	0.2357	-0.084424
0.246	15.224	-13649	4336.6	-0.96458	0.236	-0.084522
0.248	15.214	-13648	4336.7	-0.96536	0.23629	-0.084619
0.25	15.201	-13649	4336.8	-0.96614	0.23658	-0.084717
0.252	15.186	-13651	4336.9	-0.96692	0.23688	-0.084814
0.254	15.179	-13642	4337	-0.9677	0.23717	-0.084912
0.256	15.172	-13634	4337.2	-0.96634	0.23727	-0.086278
0.258	15.152	-13637	4337.3	-0.96497	0.23736	-0.087645
0.26	15.141	-13639	4337.5	-0.9636	0.23746	-0.089011
0.262	15.141	-13643	4337.7	-0.96224	0.23756	-0.090378
0.264	15.132	-13647	4338	-0.96087	0.23766	-0.091744
0.266	15.129	-13641	4338.1	-0.96048	0.23805	-0.091354
0.268	15.126	-13636	4338.2	-0.96009	0.23844	-0.090963
0.27	15.115	-13639	4338.4	-0.9597	0.23883	-0.090573
0.272	15.101	-13642	4338.5	-0.95931	0.23922	-0.090182
0.274	15.122	-13643	4338.6	-0.95892	0.23961	-0.089792
0.276	15.15	-13644	4338.7	-0.95892	0.23941	-0.090085
0.278	15.168	-13642	4338.8	-0.95892	0.23922	-0.090378
0.28	15.159	-13639	4338.8	-0.95892	0.23902	-0.09067
0.282	15.148	-13643	4338.8	-0.95892	0.23883	-0.090963
0.284	15.15	-13647	4338.7	-0.95892	0.23863	-0.091256
0.286	15.142	-13645	4338.6	-0.95921	0.23844	-0.091256
0.288	15.151	-13643	4338.4	-0.95951	0.23824	-0.091256
0.29	15.139	-13639	4338.3	-0.9598	0.23805	-0.091256
0.292	15.11	-13634	4338.2	-0.96009	0.23785	-0.091256
0.294	15.104	-13637	4338.1	-0.96038	0.23766	-0.091256
0.296	15.117	-13639	4337.9	-0.96058	0.23746	-0.09067
0.298	15.169	-13642	4337.6	-0.96077	0.23727	-0.090085
0.3	15.247	-13644	4337.4	-0.96097	0.23707	-0.089499
0.302	15.281	-13644	4337	-0.96116	0.23688	-0.088914
0.304	15.267	-13643	4336.7	-0.96136	0.23668	-0.088328
0.306	15.269	-13638	4336.2	-0.96126	0.23688	-0.088035
0.308	15.268	-13633	4335.7	-0.96116	0.23707	-0.087742
0.31	15.255	-13634	4335.3	-0.96107	0.23727	-0.08745
0.312	15.245	-13635	4334.9	-0.96097	0.23746	-0.087157
0.314	15.244	-13637	4334.5	-0.96087	0.23766	-0.086864
0.316	15.251	-13640	4334.2	-0.96097	0.23756	-0.086864
0.318	15.238	-13638	4333.8	-0.96107	0.23746	-0.086864
0.32	15.244	-13636	4333.5	-0.96116	0.23736	-0.086864
0.322	15.242	-13639	4333.2	-0.96126	0.23727	-0.086864
0.324	15.251	-13643	4332.9	-0.96136	0.23717	-0.086864
0.326	15.279	-13645	4332.7	-0.96282	0.23756	-0.086571
0.328	15.299	-13647	4332.5	-0.96429	0.23795	-0.086278
0.33	15.3	-13645	4332.3	-0.96575	0.23834	-0.085986
0.332	15.272	-13642	4332.2	-0.96722	0.23873	-0.085693
0.334	15.254	-13642	4332	-0.96868	0.23912	-0.0854
0.336	15.256	-13642	4331.9	-0.96751	0.23814	-0.085986
0.338	15.245	-13640	4331.9	-0.96634	0.23717	-0.086571
0.34	15.23	-13637	4331.8	-0.96517	0.23619	-0.087157
0.342	15.228	-13637	4331.8	-0.964	0.23522	-0.087742
0.344	15.236	-13636	4331.7	-0.96282	0.23424	-0.088328
0.346	15.241	-13637	4331.7	-0.96282	0.23551	-0.088133
0.348	15.264	-13638	4331.8	-0.96282	0.23678	-0.087938
0.35	15.313	-13638	4331.8	-0.96282	0.23805	-0.087742
0.352	15.309	-13638	4331.9	-0.96282	0.23932	-0.087547
0.354	15.287	-13638	4332	-0.96282	0.24058	-0.087352
0.356	15.293	-13637	4332.1	-0.96273	0.24097	-0.08823
0.358	15.312	-13637	4332.2	-0.96263	0.24136	-0.089109
0.36	15.324	-13636	4332.2	-0.96253	0.24176	-0.089987
0.362	15.307	-13636	4332.3	-0.96243	0.24215	-0.090866
0.364	15.294	-13636	4332.3	-0.96234	0.24254	-0.091744
0.366	15.308	-13637	4332.4	-0.96234	0.24205	-0.091646
0.368	15.296	-13639	4332.5	-0.96234	0.24156	-0.091549
0.37	15.27	-13639	4332.5	-0.96234	0.24107	-0.091451
0.372	15.252	-13639	4332.5	-0.96234	0.24058	-0.091354
0.374	15.25	-13641	4332.5	-0.96234	0.2401	-0.091256
0.376	15.263	-13644	4332.5	-0.96195	0.24039	-0.09028
0.378	15.282	-13642	4332.5	-0.96156	0.24068	-0.089304
0.38	15.255	-13641	4332.4	-0.96116	0.24097	-0.088328
0.382	15.23	-13641	4332.4	-0.96077	0.24127	-0.087352
0.384	15.253	-13641	4332.3	-0.96038	0.24156	-0.086376
0.386	15.27	-13640	4332.1	-0.9598	0.24185	-0.086962
0.388	15.3	-13640	4331.9	-0.95921	0.24215	-0.087547
0.39	15.299	-13641	4331.6	-0.95863	0.24244	-0.088133
0.392	15.282	-13642	4331.3	-0.95804	0.24273	-0.088718
0.394	15.289	-13641	4331	-0.95746	0.24302	-0.089304
0.396	15.266	-13640	4330.6	-0.95824	0.24146	-0.089109
0.398	15.245	-13638	4330.3	-0.95902	0.2399	-0.088914
0.4	15.227	-13636	4330	-0.9598	0.23834	-0.088718
0.402	15.207	-13636	4329.6	-0.96058	0.23678	-0.088523
0.404	15.203	-13636	4329.3	-0.96136	0.23522	-0.088328
0.406	15.205	-13636	4328.9	-0.96029	0.2359	-0.088816
0.408	15.204	-13635	4328.6	-0.95921	0.23658	-0.089304
0.41	15.194	-13636	4328.2	-0.95814	0.23727	-0.089792
0.412	15.173	-13637	4327.8	-0.95707	0.23795	-0.09028
0.414	15.142	-13640	4327.4	-0.95599	0.23863	-0.090768
0.416	15.124	-13644	4326.9	-0.95628	0.23951	-0.090768
0.418	15.132	-13645	4326.5	-0.95658	0.24039	-0.090768
0.42	15.165	-13647	4326.1	-0.95687	0.24127	-0.090768
0.422	15.178	-13638	4325.8	-0.95716	0.24215	-0.090768
0.424	15.142	-13629	4325.4	-0.95746	0.24302	-0.090768
0.426	15.106	-13636	4325.2	-0.9599	0.24283	-0.091354
0.428	15.106	-13643	4325	-0.96234	0.24263	-0.091939
0.43	15.106	-13646	4324.9	-0.96478	0.24244	-0.092525
0.432	15.074	-13648	4324.9	-0.96722	0.24224	-0.09311
0.434	15.043	-13646	4324.8	-0.96966	0.24205	-0.093696
0.436	15.035	-13643	4325	-0.96819	0.24088	-0.092915
0.438	15.036	-13639	4325.1	-0.96673	0.23971	-0.092134
0.44	14.966	-13635	4325.4	-0.96526	0.23853	-0.091354
0.442	14.857	-13634	4325.6	-0.9638	0.23736	-0.090573
0.444	14.79	-13633	4325.9	-0.96234	0.23619	-0.089792
0.446	14.773	-13638	4326.1	-0.96243	0.23639	-0.089597
0.448	14.783	-13643	4326.3	-0.96253	0.23658	-0.089402
0.45	14.81	-13641	4326.5	-0.96263	0.23678	-0.089206
0.452	14.82	-13639	4326.7	-0.96273	0.23697	-0.089011
0.454	14.803	-13643	4326.9	-0.96282	0.23717	-0.088816
0.456	14.775	-13646	4327	-0.96253	0.23727	-0.088133
0.458	14.785	-13644	4327.1	-0.96224	0.23736	-0.08745
0.46	14.8	-13642	4327.1	-0.96195	0.23746	-0.086766
0.462	14.784	-13643	4327	-0.96165	0.23756	-0.086083
0.464	14.748	-13643	4326.9	-0.96136	0.23766	-0.0854
0.466	14.694	-13638	4326.7	-0.96107	0.23727	-0.085986
0.468	14.654	-13633	4326.5	-0.96077	0.23688	-0.086571
0.47	14.62	-13634	4326.3	-0.96048	0.23648	-0.087157
0.472	14.601	-13635	4326.1	-0.96019	0.23609	-0.087742
0.474	14.622	-13638	4325.9	-0.9599	0.2357	-0.088328
0.476	14.614	-13642	4325.7	-0.95951	0.23658	-0.088328
0.478	14.598	-13639	4325.4	-0.95912	0.23746	-0.088328
0.48	14.603	-13637	4325.2	-0.95872	0.23834	-0.088328
0.482	14.613	-13636	4325.1	-0.95833	0.23922	-0.088328
0.484	14.612	-13636	4324.9	-0.95794	0.2401	-0.088328
0.486	14.616	-13639	4324.8	-0.95902	0.24068	-0.089109
0.488	14.658	-13642	4324.7	-0.96009	0.24127	-0.08989
0.49	14.733	-13643	4324.5	-0.96116	0.24185	-0.09067
0.492	14.798	-13643	4324.4	-0.96224	0.24244	-0.091451
0.494	14.866	-13645	4324.3	-0.96331	0.24302	-0.092232
0.496	14.928	-13647	4324.2	-0.96263	0.24293	-0.092427
0.498	14.975	-13646	4324.1	-0.96195	0.24283	-0.092622
0.5	15.023	-13645	4323.9	-0.96126	0.24273	-0.092818
0.502	15.073	-13646	4323.8	-0.96058	0.24263	-0.093013
0.504	15.122	-13647	4323.6	-0.9599	0.24254	-0.093208
0.506	15.162	-13641	4323.4	-0.96068	0.24156	-0.09272
0.508	15.194	-13636	4323.1	-0.96146	0.24058	-0.092232
0.51	15.219	-13640	4322.8	-0.96224	0.23961	-0.091744
0.512	15.234	-13643	4322.4	-0.96302	0.23863	-0.091256
0.514	15.251	-13642	4322	-0.9638	0.23766	-0.090768
0.516	15.261	-13641	4321.6	-0.9636	0.23785	-0.090085
0.518	15.236	-13644	4321.2	-0.96341	0.23805	-0.089402
0.52	15.194	-13647	4320.8	-0.96321	0.23824	-0.088718
0.522	15.194	-13643	4320.6	-0.96302	0.23844	-0.088035
0.524	15.228	-13640	4320.4	-0.96282	0.23863	-0.087352
0.526	15.242	-13643	4320.4	-0.96468	0.23941	-0.086669
0.528	15.239	-13647	4320.5	-0.96653	0.24019	-0.085986
0.53	15.25	-13644	4320.6	-0.96839	0.24097	-0.085302
0.532	15.263	-13641	4320.7	-0.97024	0.24176	-0.084619
0.534	15.298	-13638	4320.8	-0.9721	0.24254	-0.083936
0.536	15.339	-13635	4321	-0.97141	0.24176	-0.085302
0.538	15.327	-13641	4321.1	-0.97073	0.24097	-0.086669
0.54	15.314	-13646	4321.2	-0.97005	0.24019	-0.088035
0.542	15.299	-13644	4321.2	-0.96936	0.23941	-0.089402
0.544	15.305	-13642	4321.3	-0.96868	0.23863	-0.090768
0.546	15.298	-13645	4321.3	-0.9677	0.23795	-0.090475
0.548	15.279	-13648	4321.3	-0.96673	0.23727	-0.090182
0.55	15.276	-13645	4321.3	-0.96575	0.23658	-0.08989
0.552	15.268	-13643	4321.3	-0.96478	0.2359	-0.089597
0.554	15.266	-13644	4321.3	-0.9638	0.23522	-0.089304
0.556	15.276	-13646	4321.3	-0.964	0.23502	-0.088523
0.558	15.28	-13640	4321.3	-0.96419	0.23483	-0.087742
0.56	15.265	-13634	4321.4	-0.96439	0.23463	-0.086962
0.562	15.247	-13637	4321.4	-0.96458	0.23444	-0.086181
0.564	15.238	-13640	4321.5	-0.96478	0.23424	-0.0854
0.566	15.224	-13645	4321.6	-0.96439	0.23473	-0.085107
0.568	15.218	-13649	4321.7	-0.964	0.23522	-0.084814
0.57	15.226	-13645	4321.9	-0.9636	0.2357	-0.084522
0.572	15.211	-13641	4322	-0.96321	0.23619	-0.084229
0.574	15.225	-13645	4322.2	-0.96282	0.23668	-0.083936
0.576	15.253	-13649	4322.3	-0.96292	0.23658	-0.084229
0.578	15.253	-13647	4322.4	-0.96302	0.23648	-0.084522
0.58	15.256	-13645	4322.5	-0.96312	0.23639	-0.084814
0.582	15.272	-13645	4322.5	-0.96321	0.23629	-0.085107
0.584	15.263	-13644	4322.6	-0.96331	0.23619	-0.0854
0.586	15.238	-13645	4322.4	-0.96185	0.23688	-0.085888
0.588	15.235	-13646	4322.3	-0.96038	0.23756	-0.086376
0.59	15.249	-13640	4322.2	-0.95892	0.23824	-0.086864
0.592	15.248	-13634	4321.9	-0.95746	0.23892	-0.087352
0.594	15.244	-13633	4321.7	-0.95599	0.23961	-0.08784
0.596	15.244	-13632	4321.4	-0.95736	0.2398	-0.089011
0.598	15.231	-13639	4321.1	-0.95872	0.24	-0.090182
0.6	15.223	-13646	4320.8	-0.96009	0.24019	-0.091354
0.602	15.222	-13644	4320.4	-0.96146	0.24039	-0.092525
0.604	15.219	-13642	4320.1	-0.96282	0.24058	-0.093696
0.606	15.202	-13648	4319.7	-0.96273	0.23941	-0.093013
0.608	15.185	-13654	4319.4	-0.96263	0.23824	-0.09233
0.61	15.21	-13654	4319.1	-0.96253	0.23707	-0.091646
0.612	15.239	-13654	4318.8	-0.96243	0.2359	-0.090963
0.614	15.212	-13652	4318.6	-0.96234	0.23473	-0.09028
0.616	15.21	-13650	4318.5	-0.96282	0.23463	-0.089987
0.618	15.273	-13653	4318.5	-0.96331	0.23453	-0.089694
0.62	15.286	-13657	4318.4	-0.9638	0.23444	-0.089402
0.622	15.243	-13658	4318.3	-0.96429	0.23434	-0.089109
0.624	15.236	-13660	4318.3	-0.96478	0.23424	-0.088816
0.626	15.225	-13648	4318.3	-0.96458	0.23453	-0.088718
0.628	15.225	-13637	4318.3	-0.96439	0.23483	-0.088621
0.63	15.212	-13646	4318.3	-0.96419	0.23512	-0.088523
0.632	15.195	-13655	4318.4	-0.964	0.23541	-0.088426
0.634	15.255	-13648	4318.5	-0.9638	0.2357	-0.088328
0.636	15.251	-13640	4318.7	-0.96419	0.23551	-0.088426
0.638	15.228	-13639	4318.8	-0.96458	0.23531	-0.088523
0.64	15.211	-13638	4319	-0.96497	0.23512	-0.088621
0.642	15.206	-13635	4319.3	-0.96536	0.23492	-0.088718
0.644	15.204	-13632	4319.5	-0.96575	0.23473	-0.088816
0.646	15.194	-13633	4319.9	-0.96556	0.23551	-0.088133
0.648	15.228	-13634	4320.3	-0.96536	0.23629	-0.08745
0.65	15.287	-13637	4320.7	-0.96517	0.23707	-0.086766
0.652	15.298	-13640	4321.1	-0.96497	0.23785	-0.086083
0.654	15.288	-13641	4321.5	-0.96478	0.23863	-0.0854
0.656	15.282	-13641	4322	-0.9638	0.23873	-0.08579
0.658	15.266	-13644	4322.5	-0.96282	0.23883	-0.086181
0.66	15.253	-13646	4323	-0.96185	0.23892	-0.086571
0.662	15.24	-13650	4323.5	-0.96087	0.23902	-0.086962
0.664	15.235	-13653	4324	-0.9599	0.23912	-0.087352
0.666	15.239	-13649	4324.6	-0.9596	0.24019	-0.08784
0.668	15.255	-13645	4325.2	-0.95931	0.24127	-0.088328
0.67	15.255	-13644	4325.7	-0.95902	0.24234	-0.088816
0.672	15.248	-13644	4326.2	-0.95872	0.24341	-0.089304
0.674	15.247	-13644	4326.7	-0.95843	0.24449	-0.089792
0.676	15.235	-13644	4327.1	-0.95843	0.2439	-0.08989
0.678	15.23	-13644	4327.5	-0.95843	0.24332	-0.089987
0.68	15.245	-13644	4328	-0.95843	0.24273	-0.090085
0.682	15.249	-13641	4328.5	-0.95843	0.24215	-0.090182
0.684	15.232	-13638	4329	-0.95843	0.24156	-0.09028
0.686	15.201	-13640	4329.6	-0.95882	0.24146	-0.090475
0.688	15.183	-13642	4330.2	-0.95921	0.24136	-0.09067
0.69	15.217	-13643	4330.8	-0.9596	0.24127	-0.090866
0.692	15.255	-13644	4331.5	-0.95999	0.24117	-0.091061
0.694	15.247	-13644	4332.3	-0.96038	0.24107	-0.091256
0.696	15.215	-13644	4333	-0.96009	0.24107	-0.091256
0.698	15.198	-13648	4333.7	-0.9598	0.24107	-0.091256
0.7	15.19	-13652	4334.5	-0.95951	0.24107	-0.091256
0.702	15.171	-13652	4335.2	-0.95921	0.24107	-0.091256
0.704	15.152	-13653	4336	-0.95892	0.24107	-0.091256
0.706	15.128	-13650	4336.7	-0.95941	0.24078	-0.090866
0.708	15.151	-13647	4337.4	-0.9599	0.24049	-0.090475
0.71	15.177	-13647	4338.2	-0.96038	0.24019	-0.090085
0.712	15.133	-13648	4338.9	-0.96087	0.2399	-0.089694
0.714	15.132	-13654	4339.7	-0.96136	0.23961	-0.089304
0.716	15.18	-13660	4340.6	-0.96126	0.24019	-0.089499
0.718	15.185	-13656	4341.5	-0.96116	0.24078	-0.089694
0.72	15.166	-13652	4342.5	-0.96107	0.24136	-0.08989
0.722	15.149	-13650	4343.5	-0.96097	0.24195	-0.090085
0.724	15.154	-13647	4344.6	-0.96087	0.24254	-0.09028
0.726	15.146	-13646	4345.7	-0.96126	0.24136	-0.090378
0.728	15.115	-13645	4346.8	-0.96165	0.24019	-0.090475
0.73	15.114	-13649	4347.9	-0.96204	0.23902	-0.090573
0.732	15.116	-13653	4348.9	-0.96243	0.23785	-0.09067
0.734	15.113	-13651	4350	-0.96282	0.23668	-0.090768
0.736	15.13	-13648	4351	-0.96263	0.23785	-0.091549
0.738	15.16	-13643	4352.1	-0.96243	0.23902	-0.09233
0.74	15.174	-13638	4353.1	-0.96224	0.24019	-0.09311
0.742	15.158	-13636	4354	-0.96204	0.24136	-0.093891
0.744	15.133	-13635	4354.8	-0.96185	0.24254	-0.094672
0.746	15.121	-13639	4355.6	-0.96204	0.24185	-0.094184
0.748	15.128	-13642	4356.3	-0.96224	0.24117	-0.093696
0.75	15.154	-13639	4356.9	-0.96243	0.24049	-0.093208
0.752	15.195	-13635	4357.5	-0.96263	0.2398	-0.09272
0.754	15.223	-13638	4358.1	-0.96282	0.23912	-0.092232
0.756	15.209	-13641	4358.5	-0.96243	0.23922	-0.092134
0.758	15.173	-13645	4359	-0.96204	0.23932	-0.092037
0.76	15.161	-13649	4359.3	-0.96165	0.23941	-0.091939
0.762	15.175	-13650	4359.6	-0.96126	0.23951	-0.091842
0.764	15.186	-13650	4359.9	-0.96087	0.23961	-0.091744
0.766	15.197	-13643	4360.2	-0.96038	0.2399	-0.091256
0.768	15.203	-13636	4360.4	-0.9599	0.24019	-0.090768
0.77	15.192	-13636	4360.6	-0.95941	0.24049	-0.09028
0.772	15.172	-13637	4360.7	-0.95892	0.24078	-0.089792
0.774	15.179	-13634	4360.8	-0.95843	0.24107	-0.089304
0.776	15.211	-13632	4360.9	-0.95912	0.24078	-0.089304
0.778	15.231	-13632	4360.9	-0.9598	0.24049	-0.089304
0.78	15.238	-13632	4360.8	-0.96048	0.24019	-0.089304
0.782	15.243	-13638	4360.6	-0.96116	0.2399	-0.089304
0.784	15.232	-13644	4360.5	-0.96185	0.23961	-0.089304
0.786	15.206	-13641	4360.2	-0.96156	0.24	-0.089499
0.788	15.189	-13638	4360	-0.96126	0.24039	-0.089694
0.79	15.207	-13639	4359.7	-0.96097	0.24078	-0.08989
0.792	15.228	-13640	4359.3	-0.96068	0.24117	-0.090085
0.794	15.23	-13642	4359	-0.96038	0.24156	-0.09028
0.796	15.191	-13644	4358.7	-0.95941	0.24136	-0.090085
0.798	15.168	-13641	4358.4	-0.95843	0.24117	-0.08989
0.8	15.16	-13637	4358.1	-0.95746	0.24097	-0.089694
0.802	15.199	-13641	4358	-0.95648	0.24078	-0.089499
0.804	15.209	-13646	4357.8	-0.9555	0.24058	-0.089304
0.806	15.242	-13646	4357.8	-0.95746	0.24078	-0.089987
0.808	15.245	-13646	4357.7	-0.95941	0.24097	-0.09067
0.81	15.263	-13641	4357.8	-0.96136	0.24117	-0.091354
0.812	15.291	-13636	4357.8	-0.96331	0.24136	-0.092037
0.814	15.24	-13640	4357.8	-0.96526	0.24156	-0.09272
0.816	15.205	-13644	4357.8	-0.96565	0.24029	-0.092622
0.818	15.209	-13651	4357.7	-0.96604	0.23902	-0.092525
0.82	15.231	-13657	4357.5	-0.96644	0.23775	-0.092427
0.822	15.247	-13659	4357.3	-0.96683	0.23648	-0.09233
0.824	15.227	-13661	4357	-0.96722	0.23522	-0.092232
0.826	15.2	-13661	4356.7	-0.9679	0.23522	-0.092427
0.828	15.181	-13660	4356.4	-0.96858	0.23522	-0.092622
0.83	15.179	-13657	4356	-0.96927	0.23522	-0.092818
0.832	15.176	-13655	4355.7	-0.96995	0.23522	-0.093013
0.834	15.181	-13656	4355.4	-0.97063	0.23522	-0.093208
0.836	15.21	-13657	4355.1	-0.96936	0.23522	-0.09233
0.838	15.242	-13658	4354.8	-0.96809	0.23522	-0.091451
0.84	15.239	-13659	4354.4	-0.96683	0.23522	-0.090573
0.842	15.217	-13658	4354.1	-0.96556	0.23522	-0.089694
0.844	15.208	-13658	4353.7	-0.96429	0.23522	-0.088816
0.846	15.21	-13655	4353.3	-0.9639	0.23522	-0.088914
0.848	15.202	-13651	4353	-0.96351	0.23522	-0.089011
0.85	15.21	-13647	4352.6	-0.96312	0.23522	-0.089109
0.852	15.233	-13642	4352.2	-0.96273	0.23522	-0.089206
0.854	15.213	-13639	4351.9	-0.96234	0.23522	-0.089304
0.856	15.17	-13635	4351.5	-0.96253	0.2357	-0.089011
0.858	15.162	-13639	4351.2	-0.96273	0.23619	-0.088718
0.86	15.184	-13644	4350.8	-0.96292	0.23668	-0.088426
0.862	15.187	-13643	4350.5	-0.96312	0.23717	-0.088133
0.864	15.171	-13643	4350.1	-0.96331	0.23766	-0.08784
0.866	15.2	-13637	4349.8	-0.96234	0.23834	-0.087938
0.868	15.247	-13632	4349.4	-0.96136	0.23902	-0.088035
0.87	15.236	-13639	4349	-0.96038	0.23971	-0.088133
0.872	15.225	-13645	4348.6	-0.95941	0.24039	-0.08823
0.874	15.228	-13647	4348.1	-0.95843	0.24107	-0.088328
0.876	15.201	-13649	4347.7	-0.95853	0.24107	-0.088816
0.878	15.173	-13646	4347.2	-0.95863	0.24107	-0.089304
0.88	15.178	-13644	4346.7	-0.95872	0.24107	-0.089792
0.882	15.208	-13639	4346.3	-0.95882	0.24107	-0.09028
0.884	15.22	-13634	4345.9	-0.95892	0.24107	-0.090768
0.886	15.211	-13639	4345.5	-0.9597	0.24117	-0.089792
0.888	15.228	-13644	4345.1	-0.96048	0.24127	-0.088816
0.89	15.25	-13649	4344.7	-0.96126	0.24136	-0.08784
0.892	15.223	-13654	4344.3	-0.96204	0.24146	-0.086864
0.894	15.214	-13647	4343.9	-0.96282	0.24156	-0.085888
0.896	15.211	-13641	4343.6	-0.964	0.24176	-0.08579
0.898	15.215	-13644	4343.3	-0.96517	0.24195	-0.085693
0.9	15.224	-13647	4343	-0.96634	0.24215	-0.085595
0.902	15.209	-13648	4342.8	-0.96751	0.24234	-0.085498
0.904	15.211	-13649	4342.6	-0.96868	0.24254	-0.0854
0.906	15.194	-13643	4342.4	-0.9679	0.24127	-0.085302
0.908	15.207	-13637	4342.2	-0.96712	0.24	-0.085205
0.91	15.209	-13637	4342.1	-0.96634	0.23873	-0.085107
0.912	15.195	-13638	4341.9	-0.96556	0.23746	-0.08501
0.914	15.206	-13639	4341.8	-0.96478	0.23619	-0.084912
0.916	15.212	-13640	4341.6	-0.96458	0.23561	-0.08579
0.918	15.216	-13645	4341.4	-0.96439	0.23502	-0.086669
0.92	15.222	-13649	4341.3	-0.96419	0.23444	-0.087547
0.922	15.233	-13647	4341.1	-0.964	0.23385	-0.088426
0.924	15.217	-13645	4341	-0.9638	0.23326	-0.089304
0.926	15.167	-13644	4341	-0.96292	0.23492	-0.088718
0.928	15.158	-13644	4340.9	-0.96204	0.23658	-0.088133
0.93	15.19	-13647	4341	-0.96116	0.23824	-0.087547
0.932	15.196	-13650	4341.2	-0.96029	0.2399	-0.086962
0.934	15.19	-13644	4341.3	-0.95941	0.24156	-0.086376
0.936	15.206	-13637	4341.5	-0.96009	0.24146	-0.087645
0.938	15.211	-13637	4341.7	-0.96077	0.24136	-0.088914
0.94	15.188	-13638	4341.9	-0.96146	0.24127	-0.090182
0.942	15.167	-13635	4342.1	-0.96214	0.24117	-0.091451
0.944	15.159	-13633	4342.3	-0.96282	0.24107	-0.09272
0.946	15.139	-13632	4342.5	-0.96273	0.24029	-0.092622
0.948	15.106	-13632	4342.6	-0.96263	0.23951	-0.092525
0.95	15.102	-13634	4342.7	-0.96253	0.23873	-0.092427
0.952	15.113	-13636	4342.7	-0.96243	0.23795	-0.09233
0.954	15.086	-13635	4342.7	-0.96234	0.23717	-0.092232
0.956	15.073	-13633	4342.8	-0.96224	0.23697	-0.092037
0.958	15.106	-13633	4342.9	-0.96214	0.23678	-0.091842
0.96	15.111	-13633	4342.8	-0.96204	0.23658	-0.091646
0.962	15.107	-13642	4342.7	-0.96195	0.23639	-0.091451
0.964	15.112	-13651	4342.6	-0.96185	0.23619	-0.091256
0.966	15.114	-13649	4342.5	-0.96185	0.23688	-0.090182
0.968	15.124	-13647	4342.4	-0.96185	0.23756	-0.089109
0.97	15.127	-13643	4342.3	-0.96185	0.23824	-0.088035
0.972	15.142	-13640	4342.1	-0.96185	0.23892	-0.086962
0.974	15.101	-13642	4342	-0.96185	0.23961	-0.085888
0.976	15.073	-13644	4341.9	-0.96263	0.23844	-0.086766
0.978	15.059	-13641	4341.8	-0.96341	0.23727	-0.087645
0.98	15.112	-13639	4341.7	-0.96419	0.23609	-0.088523
0.982	15.123	-13637	4341.5	-0.96497	0.23492	-0.089402
0.984	15.095	-13634	4341.4	-0.96575	0.23375	-0.09028
0.986	15.092	-13635	4341.3	-0.96556	0.23404	-0.089597
0.988	15.113	-13637	4341.3	-0.96536	0.23434	-0.088914
0.99	15.087	-13639	4341.1	-0.96517	0.23463	-0.08823
0.992	15.099	-13641	4340.9	-0.96497	0.23492	-0.087547
0.994	15.179	-13643	4340.7	-0.96478	0.23522	-0.086864
0.996	15.205	-13644	4340.6	-0.96409	0.23561	-0.087059
0.998	15.205	-13641	4340.4	-0.96341	0.236	-0.087254
1	15.214	-13638	4340.2	-0.96273	0.23639	-0.08745
1.002	15.227	-13640	4340	-0.96204	0.23678	-0.087645
1.004	15.239	-13641	4339.8	-0.96136	0.23717	-0.08784
1.006	15.26	-13641	4339.6	-0.96126	0.23805	-0.088621
1.008	15.253	-13641	4339.5	-0.96116	0.23892	-0.089402
1.01	15.246	-13639	4339.4	-0.96107	0.2398	-0.090182
1.012	15.248	-13637	4339.3	-0.96097	0.24068	-0.090963
1.014	15.253	-13638	4339.2	-0.96087	0.24156	-0.091744
1.016	15.257	-13638	4339.1	-0.96146	0.24078	-0.090573
1.018	15.241	-13637	4339.1	-0.96204	0.24	-0.089402
1.02	15.227	-13637	4339.1	-0.96263	0.23922	-0.08823
1.022	15.243	-13632	4338.9	-0.96321	0.23844	-0.087059
1.024	15.252	-13628	4338.8	-0.9638	0.23766	-0.085888
1.026	15.24	-13629	4338.8	-0.96331	0.23766	-0.086278
1.028	15.244	-13631	4338.7	-0.96282	0.23766	-0.086669
1.03	15.255	-13629	4338.6	-0.96234	0.23766	-0.087059
1.032	15.254	-13628	4338.5	-0.96185	0.23766	-0.08745
1.034	15.264	-13634	4338.4	-0.96136	0.23766	-0.08784
1.036	15.278	-13640	4338.3	-0.96195	0.23775	-0.088523
1.038	15.271	-13636	4338.1	-0.96253	0.23785	-0.089206
1.04	15.246	-13631	4338	-0.96312	0.23795	-0.08989
1.042	15.235	-13632	4337.8	-0.9637	0.23805	-0.090573
1.044	15.228	-13632	4337.7	-0.96429	0.23814	-0.091256
1.046	15.22	-13629	4337.6	-0.96321	0.23873	-0.090866
1.048	15.221	-13627	4337.5	-0.96214	0.23932	-0.090475
1.05	15.237	-13629	4337.4	-0.96107	0.2399	-0.090085
1.052	15.247	-13632	4337.3	-0.95999	0.24049	-0.089694
1.054	15.228	-13635	4337.2	-0.95892	0.24107	-0.089304
1.056	15.225	-13639	4337.2	-0.95912	0.24117	-0.089792
1.058	15.216	-13641	4337.2	-0.95931	0.24127	-0.09028
1.06	15.259	-13643	4337.2	-0.95951	0.24136	-0.090768
1.062	15.261	-13637	4337.3	-0.9597	0.24146	-0.091256
1.064	15.239	-13631	4337.3	-0.9599	0.24156	-0.091744
1.066	15.24	-13629	4337.4	-0.95999	0.24205	-0.091939
1.068	15.254	-13628	4337.5	-0.96009	0.24254	-0.092134
1.07	15.264	-13632	4337.5	-0.96019	0.24302	-0.09233
1.072	15.268	-13637	4337.5	-0.96029	0.24351	-0.092525
1.074	15.256	-13637	4337.6	-0.96038	0.244	-0.09272
1.076	15.237	-13637	4337.6	-0.96009	0.24322	-0.091646
1.078	15.223	-13642	4337.6	-0.9598	0.24244	-0.090573
1.08	15.194	-13647	4337.6	-0.95951	0.24166	-0.089499
1.082	15.19	-13641	4337.5	-0.95921	0.24088	-0.088426
1.084	15.217	-13635	4337.4	-0.95892	0.2401	-0.087352
1.086	15.246	-13634	4337.2	-0.95902	0.24088	-0.08823
1.088	15.262	-13634	4337	-0.95912	0.24166	-0.089109
1.09	15.28	-13631	4336.8	-0.95921	0.24244	-0.089987
1.092	15.28	-13629	4336.4	-0.95931	0.24322	-0.090866
1.094	15.253	-13626	4336	-0.95941	0.244	-0.091744
1.096	15.214	-13624	4335.7	-0.95902	0.24371	-0.092037
1.098	15.183	-13628	4335.4	-0.95863	0.24341	-0.09233
1.1	15.172	-13632	4335.1	-0.95824	0.24312	-0.092622
1.102	15.161	-13632	4334.8	-0.95785	0.24283	-0.092915
1.104	15.148	-13632	4334.5	-0.95746	0.24254	-0.093208
1.106	15.165	-13640	4334.3	-0.95804	0.24254	-0.092818
1.108	15.198	-13648	4334.1	-0.95863	0.24254	-0.092427
1.11	15.19	-13645	4333.9	-0.95921	0.24254	-0.092037
1.112	15.153	-13641	4333.7	-0.9598	0.24254	-0.091646
1.114	15.128	-13637	4333.6	-0.96038	0.24254	-0.091256
1.116	15.119	-13634	4333.4	-0.96009	0.24205	-0.090573
1.118	15.13	-13640	4333.3	-0.9598	0.24156	-0.08989
1.12	15.13	-13647	4333.2	-0.95951	0.24107	-0.089206
1.122	15.113	-13646	4333	-0.95921	0.24058	-0.088523
1.124	15.09	-13646	4332.9	-0.95892	0.2401	-0.08784
1.126	15.043	-13641	4332.7	-0.95902	0.24029	-0.088523
1.128	14.987	-13637	4332.5	-0.95912	0.24049	-0.089206
1.13	14.951	-13634	4332.3	-0.95921	0.24068	-0.08989
1.132	14.881	-13631	4332.2	-0.95931	0.24088	-0.090573
1.134	14.8	-13635	4332	-0.95941	0.24107	-0.091256
1.136	14.769	-13638	4332	-0.95951	0.24127	-0.090963
1.138	14.756	-13638	4332	-0.9596	0.24146	-0.09067
1.14	14.741	-13638	4332	-0.9597	0.24166	-0.090378
1.142	14.751	-13641	4332.2	-0.9598	0.24185	-0.090085
1.144	14.749	-13644	4332.3	-0.9599	0.24205	-0.089792
1.146	14.786	-13640	4332.7	-0.96097	0.24039	-0.089499
1.148	14.773	-13635	4333.1	-0.96204	0.23873	-0.089206
1.15	14.741	-13634	4333.5	-0.96312	0.23707	-0.088914
1.152	14.719	-13632	4333.8	-0.96419	0.23541	-0.088621
1.154	14.736	-13634	4334.1	-0.96526	0.23375	-0.088328
1.156	14.76	-13636	4334.3	-0.96497	0.23463	-0.089011
1.158	14.727	-13640	4334.6	-0.96468	0.23551	-0.089694
1.16	14.679	-13645	4334.7	-0.96439	0.23639	-0.090378
1.162	14.594	-13645	4334.8	-0.96409	0.23727	-0.091061
1.164	14.579	-13645	4334.9	-0.9638	0.23814	-0.091744
1.166	14.603	-13644	4334.9	-0.96526	0.23863	-0.092134
1.168	14.59	-13643	4334.8	-0.96673	0.23912	-0.092525
1.17	14.566	-13645	4334.7	-0.96819	0.23961	-0.092915
1.172	14.561	-13647	4334.6	-0.96966	0.2401	-0.093306
1.174	14.575	-13639	4334.4	-0.97112	0.24058	-0.093696
1.176	14.594	-13631	4334.2	-0.9718	0.24146	-0.094379
1.178	14.616	-13635	4334	-0.97249	0.24234	-0.095062
1.18	14.632	-13638	4333.7	-0.97317	0.24322	-0.095746
1.182	14.657	-13642	4333.5	-0.97385	0.2441	-0.096429
1.184	14.697	-13646	4333.2	-0.97454	0.24498	-0.097112
1.186	14.753	-13643	4333.1	-0.97405	0.24478	-0.096917
1.188	14.836	-13640	4332.9	-0.97356	0.24459	-0.096722
1.19	14.919	-13632	4332.7	-0.97307	0.24439	-0.096526
1.192	14.989	-13624	4332.6	-0.97258	0.2442	-0.096331
1.194	15.054	-13631	4332.4	-0.9721	0.244	-0.096136
1.196	15.104	-13639	4332.3	-0.97112	0.24361	-0.095941
1.198	15.149	-13637	4332.2	-0.97014	0.24322	-0.095746
1.2	15.18	-13636	4332	-0.96917	0.24283	-0.09555
1.202	15.181	-13639	4331.8	-0.96819	0.24244	-0.095355
1.204	15.178	-13643	4331.6	-0.96722	0.24205	-0.09516
1.206	15.191	-13639	4331.5	-0.96595	0.24185	-0.093501
1.208	15.195	-13636	4331.3	-0.96468	0.24166	-0.091842
1.21	15.2	-13640	4331.2	-0.96341	0.24146	-0.090182
1.212	15.225	-13644	4331	-0.96214	0.24127	-0.088523
1.214	15.24	-13643	4330.9	-0.96087	0.24107	-0.086864
1.216	15.225	-13643	4330.9	-0.96116	0.24146	-0.087059
1.218	15.219	-13638	4330.9	-0.96146	0.24185	-0.087254
1.22	15.238	-13633	4330.9	-0.96175	0.24224	-0.08745
1.222	15.259	-13636	4331	-0.96204	0.24263	-0.087645
1.224	15.277	-13639	4331.1	-0.96234	0.24302	-0.08784
1.226	15.254	-13644	4331.2	-0.96214	0.24224	-0.088328
1.228	15.234	-13649	4331.3	-0.96195	0.24146	-0.088816
1.23	15.257	-13646	4331.4	-0.96175	0.24068	-0.089304
1.232	15.263	-13643	4331.6	-0.96156	0.2399	-0.089792
1.234	15.255	-13640	4331.7	-0.96136	0.23912	-0.09028
1.236	15.252	-13637	4331.9	-0.96204	0.23844	-0.090182
1.238	15.239	-13638	4332	-0.96273	0.23775	-0.090085
1.24	15.245	-13640	4332.1	-0.96341	0.23707	-0.089987
1.242	15.25	-13639	4332.3	-0.96409	0.23639	-0.08989
1.244	15.258	-13639	4332.4	-0.96478	0.2357	-0.089792
1.246	15.254	-13636	4332.5	-0.9636	0.23668	-0.089402
1.248	15.234	-13634	4332.7	-0.96243	0.23766	-0.089011
1.25	15.265	-13635	4332.7	-0.96126	0.23863	-0.088621
1.252	15.296	-13636	4332.7	-0.96009	0.23961	-0.08823
1.254	15.279	-13637	4332.7	-0.95892	0.24058	-0.08784
1.256	15.268	-13638	4332.7	-0.95882	0.24019	-0.088133
1.258	15.259	-13640	4332.6	-0.95872	0.2398	-0.088426
1.26	15.242	-13643	4332.6	-0.95863	0.23941	-0.088718
1.262	15.22	-13641	4332.4	-0.95853	0.23902	-0.089011
1.264	15.22	-13639	4332.3	-0.95843	0.23863	-0.089304
1.266	15.247	-13637	4332.2	-0.95902	0.23863	-0.088426
1.268	15.25	-13635	4332.1	-0.9596	0.23863	-0.087547
1.27	15.224	-13640	4331.9	-0.96019	0.23863	-0.086669
1.272	15.208	-13645	4331.8	-0.96077	0.23863	-0.08579
1.274	15.208	-13645	4331.6	-0.96136	0.23863	-0.084912
1.276	15.202	-13644	4331.4	-0.96136	0.23814	-0.085302
1.278	15.2	-13642	4331.2	-0.96136	0.23766	-0.085693
1.28	15.206	-13640	4330.9	-0.96136	0.23717	-0.086083
1.282	15.211	-13641	4330.7	-0.96136	0.23668	-0.086474
1.284	15.226	-13642	4330.5	-0.96136	0.23619	-0.086864
1.286	15.236	-13642	4330.3	-0.96077	0.23717	-0.087645
1.288	15.214	-13643	4330.1	-0.96019	0.23814	-0.088426
1.29	15.182	-13640	4329.9	-0.9596	0.23912	-0.089206
1.292	15.168	-13636	4329.7	-0.95902	0.2401	-0.089987
1.294	15.178	-13640	4329.6	-0.95843	0.24107	-0.090768
1.296	15.187	-13643	4329.6	-0.9598	0.24068	-0.091158
1.298	15.239	-13638	4329.6	-0.96116	0.24029	-0.091549
1.3	15.241	-13633	4329.7	-0.96253	0.2399	-0.091939
1.302	15.196	-13636	4329.9	-0.9639	0.23951	-0.09233
1.304	15.197	-13639	4330.2	-0.96526	0.23912	-0.09272
1.306	15.194	-13639	4330.4	-0.96546	0.23912	-0.092232
1.308	15.187	-13639	4330.6	-0.96565	0.23912	-0.091744
1.31	15.18	-13641	4330.9	-0.96585	0.23912	-0.091256
1.312	15.227	-13643	4331.2	-0.96604	0.23912	-0.090768
1.314	15.231	-13641	4331.5	-0.96624	0.23912	-0.09028
1.316	15.212	-13639	4331.9	-0.96585	0.23892	-0.090085
1.318	15.188	-13638	4332.2	-0.96546	0.23873	-0.08989
1.32	15.178	-13638	4332.6	-0.96507	0.23853	-0.089694
1.322	15.163	-13636	4333	-0.96468	0.23834	-0.089499
1.324	15.175	-13635	4333.4	-0.96429	0.23814	-0.089304
1.326	15.197	-13633	4333.9	-0.96478	0.23892	-0.08989
1.328	15.221	-13632	4334.3	-0.96526	0.23971	-0.090475
1.33	15.248	-13637	4334.7	-0.96575	0.24049	-0.091061
1.332	15.245	-13643	4334.9	-0.96624	0.24127	-0.091646
1.334	15.216	-13645	4335.2	-0.96673	0.24205	-0.092232
1.336	15.203	-13648	4335.5	-0.96634	0.24166	-0.091646
1.338	15.216	-13642	4335.8	-0.96595	0.24127	-0.091061
1.34	15.231	-13635	4336.1	-0.96556	0.24088	-0.090475
1.342	15.217	-13636	4336.4	-0.96517	0.24049	-0.08989
1.344	15.204	-13636	4336.6	-0.96478	0.2401	-0.089304
1.346	15.201	-13640	4337	-0.96448	0.24019	-0.089206
1.348	15.209	-13644	4337.3	-0.96419	0.24029	-0.089109
1.35	15.219	-13648	4337.7	-0.9639	0.24039	-0.089011
1.352	15.232	-13652	4338.1	-0.9636	0.24049	-0.088914
1.354	15.24	-13651	4338.4	-0.96331	0.24058	-0.088816
1.356	15.238	-13650	4338.9	-0.96273	0.24097	-0.089206
1.358	15.227	-13644	4339.3	-0.96214	0.24136	-0.089597
1.36	15.226	-13639	4339.8	-0.96156	0.24176	-0.089987
1.362	15.239	-13640	4340.3	-0.96097	0.24215	-0.090378
1.364	15.238	-13641	4340.8	-0.96038	0.24254	-0.090768
1.366	15.23	-13647	4341.3	-0.96048	0.24205	-0.091158
1.368	15.221	-13652	4341.7	-0.96058	0.24156	-0.091549
1.37	15.198	-13651	4342.1	-0.96068	0.24107	-0.091939
1.372	15.185	-13650	4342.6	-0.96077	0.24058	-0.09233
1.374	15.184	-13644	4343.1	-0.96087	0.2401	-0.09272
1.376	15.187	-13638	4343.6	-0.96068	0.24068	-0.092525
1.378	15.218	-13638	4344.2	-0.96048	0.24127	-0.09233
1.38	15.24	-13638	4344.8	-0.96029	0.24185	-0.092134
1.382	15.205	-13638	4345.5	-0.96009	0.24244	-0.091939
1.384	15.201	-13639	4346.3	-0.9599	0.24302	-0.091744
1.386	15.168	-13636	4347.2	-0.96009	0.24263	-0.091549
1.388	15.15	-13634	4348.1	-0.96029	0.24224	-0.091354
1.39	15.194	-13636	4349.1	-0.96048	0.24185	-0.091158
1.392	15.246	-13639	4350.1	-0.96068	0.24146	-0.090963
1.394	15.24	-13642	4351.1	-0.96087	0.24107	-0.090768
1.396	15.175	-13645	4352.4	-0.96156	0.2399	-0.089694
1.398	15.178	-13641	4353.6	-0.96224	0.23873	-0.088621
1.4	15.193	-13638	4354.8	-0.96292	0.23756	-0.087547
1.402	15.163	-13640	4356.1	-0.9636	0.23639	-0.086474
1.404	15.158	-13642	4357.4	-0.96429	0.23522	-0.0854
1.406	15.148	-13643	4358.7	-0.96429	0.23522	-0.086474
1.408	15.153	-13645	4359.9	-0.96429	0.23522	-0.087547
1.41	15.161	-13646	4361.2	-0.96429	0.23522	-0.088621
1.412	15.153	-13648	4362.3	-0.96429	0.23522	-0.089694
1.414	15.141	-13648	4363.5	-0.96429	0.23522	-0.090768
1.416	15.127	-13648	4364.5	-0.96331	0.23551	-0.089987
1.418	15.119	-13646	4365.6	-0.96234	0.2358	-0.089206
1.42	15.122	-13645	4366.6	-0.96136	0.23609	-0.088426
1.422	15.111	-13645	4367.5	-0.96038	0.23639	-0.087645
1.424	15.089	-13646	4368.5	-0.95941	0.23668	-0.086864
1.426	15.081	-13644	4369.4	-0.96019	0.23678	-0.086571
1.428	15.08	-13641	4370.3	-0.96097	0.23688	-0.086278
1.43	15.089	-13639	4371.1	-0.96175	0.23697	-0.085986
1.432	15.145	-13637	4371.8	-0.96253	0.23707	-0.085693
1.434	15.184	-13640	4372.5	-0.96331	0.23717	-0.0854
1.436	15.174	-13643	4373.3	-0.96253	0.23844	-0.086864
1.438	15.188	-13643	4374	-0.96175	0.23971	-0.088328
1.44	15.224	-13644	4374.8	-0.96097	0.24097	-0.089792
1.442	15.218	-13644	4375.5	-0.96019	0.24224	-0.091256
1.444	15.197	-13644	4376.2	-0.95941	0.24351	-0.09272
1.446	15.196	-13640	4377	-0.96234	0.2438	-0.093696
1.448	15.196	-13637	4377.8	-0.96526	0.2441	-0.094672
1.45	15.199	-13631	4378.5	-0.96819	0.24439	-0.095648
1.452	15.205	-13626	4379.3	-0.97112	0.24468	-0.096624
1.454	15.204	-13625	4380	-0.97405	0.24498	-0.0976
1.456	15.2	-13623	4380.7	-0.97376	0.24507	-0.097014
1.458	15.188	-13631	4381.3	-0.97346	0.24517	-0.096429
1.46	15.173	-13638	4381.9	-0.97317	0.24527	-0.095843
1.462	15.167	-13640	4382.5	-0.97288	0.24537	-0.095258
1.464	15.178	-13642	4383.1	-0.97258	0.24546	-0.094672
1.466	15.19	-13643	4383.5	-0.9718	0.24546	-0.095062
1.468	15.202	-13643	4383.9	-0.97102	0.24546	-0.095453
1.47	15.213	-13642	4384.3	-0.97024	0.24546	-0.095843
1.472	15.213	-13641	4384.6	-0.96946	0.24546	-0.096234
1.474	15.191	-13638	4384.9	-0.96868	0.24546	-0.096624
1.476	15.186	-13635	4385.2	-0.9679	0.24449	-0.095355
1.478	15.226	-13636	4385.5	-0.96712	0.24351	-0.094086
1.48	15.24	-13637	4385.8	-0.96634	0.24254	-0.092818
1.482	15.221	-13638	4386.1	-0.96556	0.24156	-0.091549
1.484	15.237	-13640	4386.4	-0.96478	0.24058	-0.09028
1.486	15.239	-13645	4386.7	-0.96526	0.24029	-0.089304
1.488	15.195	-13650	4386.9	-0.96575	0.24	-0.088328
1.49	15.174	-13641	4387.2	-0.96624	0.23971	-0.087352
1.492	15.195	-13632	4387.6	-0.96673	0.23941	-0.086376
1.494	15.227	-13634	4387.9	-0.96722	0.23912	-0.0854
1.496	15.232	-13636	4388.1	-0.96634	0.23912	-0.08579
1.498	15.229	-13635	4388.3	-0.96546	0.23912	-0.086181
1.5	15.235	-13635	4388.5	-0.96458	0.23912	-0.086571
1.502	15.229	-13635	4388.7	-0.9637	0.23912	-0.086962
1.504	15.251	-13636	4388.9	-0.96282	0.23912	-0.087352
1.506	15.254	-13637	4388.9	-0.96273	0.23912	-0.088133
1.508	15.244	-13639	4389	-0.96263	0.23912	-0.088914
1.51	15.218	-13644	4389	-0.96253	0.23912	-0.089694
1.512	15.203	-13649	4388.9	-0.96243	0.23912	-0.090475
1.514	15.218	-13646	4388.9	-0.96234	0.23912	-0.091256
1.516	15.224	-13643	4388.6	-0.96234	0.23892	-0.091451
1.518	15.202	-13641	4388.4	-0.96234	0.23873	-0.091646
1.52	15.185	-13638	4388.1	-0.96234	0.23853	-0.091842
1.522	15.173	-13635	4387.7	-0.96234	0.23834	-0.092037
1.524	15.178	-13631	4387.4	-0.96234	0.23814	-0.092232
1.526	15.216	-13626	4386.9	-0.96253	0.23775	-0.092134
1.528	15.234	-13622	4386.5	-0.96273	0.23736	-0.092037
1.53	15.22	-13626	4386	-0.96292	0.23697	-0.091939
1.532	15.215	-13630	4385.5	-0.96312	0.23658	-0.091842
1.534	15.228	-13633	4385	-0.96331	0.23619	-0.091744
1.536	15.241	-13637	4384.5	-0.96341	0.23697	-0.091354
1.538	15.248	-13636	4383.9	-0.96351	0.23775	-0.090963
1.54	15.264	-13634	4383.3	-0.9636	0.23853	-0.090573
1.542	15.269	-13634	4382.7	-0.9637	0.23932	-0.090182
1.544	15.254	-13633	4382.1	-0.9638	0.2401	-0.089792
1.546	15.227	-13634	4381.6	-0.96263	0.24039	-0.089987
1.548	15.217	-13635	4381.1	-0.96146	0.24068	-0.090182
1.55	15.245	-13636	4380.5	-0.96029	0.24097	-0.090378
1.552	15.27	-13636	4380	-0.95912	0.24127	-0.090573
1.554	15.253	-13628	4379.5	-0.95794	0.24156	-0.090768
1.556	15.225	-13621	4379	-0.95853	0.24176	-0.090573
1.558	15.2	-13623	4378.5	-0.95912	0.24195	-0.090378
1.56	15.182	-13625	4378.1	-0.9597	0.24215	-0.090182
1.562	15.169	-13624	4377.7	-0.96029	0.24234	-0.089987
1.564	15.15	-13622	4377.3	-0.96087	0.24254	-0.089792
1.566	15.157	-13622	4376.8	-0.95999	0.24302	-0.089987
1.568	15.183	-13622	4376.4	-0.95912	0.24351	-0.090182
1.57	15.213	-13625	4376	-0.95824	0.244	-0.090378
1.572	15.216	-13628	4375.6	-0.95736	0.24449	-0.090573
1.574	15.222	-13632	4375.1	-0.95648	0.24498	-0.090768
1.576	15.233	-13636	4374.8	-0.95814	0.24332	-0.089402
1.578	15.231	-13635	4374.4	-0.9598	0.24166	-0.088035
1.58	15.227	-13633	4374.1	-0.96146	0.24	-0.086669
1.582	15.205	-13635	4373.9	-0.96312	0.23834	-0.085302
1.584	15.185	-13636	4373.7	-0.96478	0.23668	-0.083936
1.586	15.211	-13630	4373.6	-0.96526	0.23678	-0.083546
1.588	15.213	-13625	4373.5	-0.96575	0.23688	-0.083155
1.59	15.206	-13629	4373.4	-0.96624	0.23697	-0.082765
1.592	15.187	-13633	4373.3	-0.96673	0.23707	-0.082374
1.594	15.197	-13632	4373.3	-0.96722	0.23717	-0.081984
1.596	15.234	-13632	4373.3	-0.96741	0.23727	-0.082472
1.598	15.254	-13633	4373.4	-0.96761	0.23736	-0.08296
1.6	15.248	-13635	4373.4	-0.9678	0.23746	-0.083448
1.602	15.225	-13633	4373.5	-0.968	0.23756	-0.083936
1.604	15.222	-13632	4373.6	-0.96819	0.23766	-0.084424
1.606	15.22	-13629	4373.7	-0.968	0.23795	-0.084717
1.608	15.202	-13626	4373.8	-0.9678	0.23824	-0.08501
1.61	15.184	-13623	4373.8	-0.96761	0.23853	-0.085302
1.612	15.197	-13621	4373.9	-0.96741	0.23883	-0.085595
1.614	15.209	-13626	4373.9	-0.96722	0.23912	-0.085888
1.616	15.181	-13631	4373.9	-0.96624	0.23883	-0.086766
1.618	15.165	-13630	4374	-0.96526	0.23853	-0.087645
1.62	15.178	-13629	4373.9	-0.96429	0.23824	-0.088523
1.622	15.176	-13629	4373.8	-0.96331	0.23795	-0.089402
1.624	15.159	-13629	4373.6	-0.96234	0.23766	-0.09028
1.626	15.161	-13630	4373.4	-0.96282	0.23824	-0.089499
1.628	15.188	-13631	4373.1	-0.96331	0.23883	-0.088718
1.63	15.188	-13635	4372.9	-0.9638	0.23941	-0.087938
1.632	15.163	-13639	4372.6	-0.96429	0.24	-0.087157
1.634	15.105	-13637	4372.4	-0.96478	0.24058	-0.086376
1.636	15.071	-13634	4372.1	-0.96536	0.24029	-0.086571
1.638	15.073	-13635	4371.8	-0.96595	0.24	-0.086766
1.64	15.089	-13636	4371.6	-0.96653	0.23971	-0.086962
1.642	15.116	-13629	4371.4	-0.96712	0.23941	-0.087157
1.644	15.151	-13623	4371.3	-0.9677	0.23912	-0.087352
1.646	15.167	-13629	4371.1	-0.96634	0.23971	-0.087742
1.648	15.156	-13636	4370.9	-0.96497	0.24029	-0.088133
1.65	15.14	-13635	4370.8	-0.9636	0.24088	-0.088523
1.652	15.14	-13633	4370.7	-0.96224	0.24146	-0.088914
1.654	15.127	-13634	4370.5	-0.96087	0.24205	-0.089304
1.656	15.107	-13634	4370.4	-0.96068	0.24146	-0.089109
1.658	15.113	-13632	4370.3	-0.96048	0.24088	-0.088914
1.66	15.148	-13630	4370.2	-0.96029	0.24029	-0.088718
1.662	15.146	-13630	4370.1	-0.96009	0.23971	-0.088523
1.664	15.119	-13630	4370	-0.9599	0.23912	-0.088328
1.666	15.096	-13634	4369.8	-0.9596	0.23932	-0.088426
1.668	15.093	-13639	4369.7	-0.95931	0.23951	-0.088523
1.67	15.096	-13635	4369.6	-0.95902	0.23971	-0.088621
1.672	15.093	-13631	4369.4	-0.95872	0.2399	-0.088718
1.674	15.101	-13635	4369.3	-0.95843	0.2401	-0.088816
1.676	15.138	-13639	4369.3	-0.95921	0.23961	-0.088914
1.678	15.207	-13636	4369.3	-0.95999	0.23912	-0.089011
1.68	15.245	-13632	4369.2	-0.96077	0.23863	-0.089109
1.682	15.253	-13637	4369.2	-0.96156	0.23814	-0.089206
1.684	15.256	-13642	4369.1	-0.96234	0.23766	-0.089304
1.686	15.258	-13637	4369	-0.96243	0.23814	-0.089304
1.688	15.245	-13632	4369	-0.96253	0.23863	-0.089304
1.69	15.231	-13629	4368.9	-0.96263	0.23912	-0.089304
1.692	15.222	-13625	4368.9	-0.96273	0.23961	-0.089304
1.694	15.22	-13630	4368.9	-0.96282	0.2401	-0.089304
1.696	15.225	-13636	4368.8	-0.96185	0.24078	-0.08989
1.698	15.243	-13635	4368.8	-0.96087	0.24146	-0.090475
1.7	15.277	-13635	4368.7	-0.9599	0.24215	-0.091061
1.702	15.269	-13629	4368.6	-0.95892	0.24283	-0.091646
1.704	15.227	-13624	4368.5	-0.95794	0.24351	-0.092232
1.706	15.217	-13631	4368.3	-0.95853	0.24312	-0.091744
1.708	15.235	-13637	4368.2	-0.95912	0.24273	-0.091256
1.71	15.258	-13632	4368	-0.9597	0.24234	-0.090768
1.712	15.26	-13628	4367.7	-0.96029	0.24195	-0.09028
1.714	15.252	-13628	4367.5	-0.96087	0.24156	-0.089792
1.716	15.252	-13629	4367.1	-0.96087	0.24205	-0.08989
1.718	15.257	-13633	4366.7	-0.96087	0.24254	-0.089987
1.72	15.246	-13637	4366.4	-0.96087	0.24302	-0.090085
1.722	15.209	-13636	4366	-0.96087	0.24351	-0.090182
1.724	15.185	-13636	4365.7	-0.96087	0.244	-0.09028
1.726	15.19	-13632	4365.4	-0.96077	0.24361	-0.089987
1.728	15.195	-13628	4365.2	-0.96068	0.24322	-0.089694
1.73	15.183	-13629	4364.9	-0.96058	0.24283	-0.089402
1.732	15.228	-13629	4364.7	-0.96048	0.24244	-0.089109
1.734	15.273	-13627	4364.5	-0.96038	0.24205	-0.088816
1.736	15.269	-13625	4364.3	-0.96058	0.24136	-0.088621
1.738	15.268	-13628	4364.2	-0.96077	0.24068	-0.088426
1.74	15.261	-13632	4364.1	-0.96097	0.24	-0.08823
1.742	15.269	-13632	4364	-0.96116	0.23932	-0.088035
1.744	15.265	-13632	4364	-0.96136	0.23863	-0.08784
1.746	15.267	-13631	4363.9	-0.96126	0.23922	-0.088718
1.748	15.285	-13629	4363.8	-0.96116	0.2398	-0.089597
1.75	15.274	-13632	4363.7	-0.96107	0.24039	-0.090475
1.752	15.296	-13635	4363.6	-0.96097	0.24097	-0.091354
1.754	15.29	-13629	4363.5	-0.96087	0.24156	-0.092232
1.756	15.274	-13622	4363.3	-0.96126	0.24068	-0.091646
1.758	15.263	-13624	4363.2	-0.96165	0.2398	-0.091061
1.76	15.234	-13626	4363.1	-0.96204	0.23892	-0.090475
1.762	15.224	-13626	4363.1	-0.96243	0.23805	-0.08989
1.764	15.25	-13626	4363.1	-0.96282	0.23717	-0.089304
1.766	15.271	-13627	4363.2	-0.96302	0.23814	-0.09028
1.768	15.28	-13629	4363.3	-0.96321	0.23912	-0.091256
1.77	15.27	-13629	4363.5	-0.96341	0.2401	-0.092232
1.772	15.254	-13629	4363.6	-0.9636	0.24107	-0.093208
1.774	15.214	-13630	4363.7	-0.9638	0.24205	-0.094184
1.776	15.186	-13632	4363.8	-0.96351	0.24176	-0.093891
1.778	15.225	-13635	4363.8	-0.96321	0.24146	-0.093598
1.78	15.239	-13638	4363.8	-0.96292	0.24117	-0.093306
1.782	15.212	-13632	4363.8	-0.96263	0.24088	-0.093013
1.784	15.2	-13626	4363.8	-0.96234	0.24058	-0.09272
1.786	15.204	-13635	4363.7	-0.96224	0.24078	-0.092525
1.788	15.197	-13644	4363.6	-0.96214	0.24097	-0.09233
1.79	15.179	-13641	4363.4	-0.96204	0.24117	-0.092134
1.792	15.161	-13639	4363.1	-0.96195	0.24136	-0.091939
1.794	15.157	-13639	4362.8	-0.96185	0.24156	-0.091744
1.796	15.16	-13638	4362.5	-0.96156	0.24136	-0.091061
1.798	15.14	-13631	4362.2	-0.96126	0.24117	-0.090378
1.8	15.113	-13624	4361.9	-0.96097	0.24097	-0.089694
1.802	15.104	-13628	4361.6	-0.96068	0.24078	-0.089011
1.804	15.104	-13633	4361.3	-0.96038	0.24058	-0.088328
1.806	15.066	-13633	4361	-0.95999	0.24107	-0.08823
1.808	15.035	-13633	4360.7	-0.9596	0.24156	-0.088133
1.81	15.042	-13632	4360.5	-0.95921	0.24205	-0.088035
1.812	15.009	-13631	4360.2	-0.95882	0.24254	-0.087938
1.814	14.953	-13631	4359.9	-0.95843	0.24302	-0.08784
1.816	14.9	-13630	4359.5	-0.95814	0.24302	-0.088426
1.818	14.821	-13631	4359.2	-0.95785	0.24302	-0.089011
1.82	14.782	-13632	4359	-0.95755	0.24302	-0.089597
1.822	14.777	-13633	4358.8	-0.95726	0.24302	-0.090182
1.824	14.766	-13635	4358.6	-0.95697	0.24302	-0.090768
1.826	14.773	-13634	4358.5	-0.95892	0.24293	-0.091451
1.828	14.786	-13634	4358.4	-0.96087	0.24283	-0.092134
1.83	14.77	-13633	4358.3	-0.96282	0.24273	-0.092818
1.832	14.772	-13633	4358.3	-0.96478	0.24263	-0.093501
1.834	14.784	-13629	4358.2	-0.96673	0.24254	-0.094184
1.836	14.789	-13626	4358.3	-0.96556	0.24254	-0.093403
1.838	14.765	-13629	4358.3	-0.96439	0.24254	-0.092622
1.84	14.737	-13631	4358.4	-0.96321	0.24254	-0.091842
1.842	14.678	-13627	4358.6	-0.96204	0.24254	-0.091061
1.844	14.626	-13623	4358.7	-0.96087	0.24254	-0.09028
1.846	14.617	-13626	4359	-0.96156	0.24205	-0.089987
1.848	14.598	-13630	4359.3	-0.96224	0.24156	-0.089694
1.85	14.571	-13633	4359.6	-0.96292	0.24107	-0.089402
1.852	14.547	-13637	4359.9	-0.9636	0.24058	-0.089109
1.854	14.559	-13635	4360.2	-0.96429	0.2401	-0.088816
1.856	14.62	-13634	4360.5	-0.9639	0.24058	-0.089402
1.858	14.647	-13635	4360.8	-0.96351	0.24107	-0.089987
1.86	14.639	-13636	4361	-0.96312	0.24156	-0.090573
1.862	14.664	-13634	4361.2	-0.96273	0.24205	-0.091158
1.864	14.711	-13632	4361.3	-0.96234	0.24254	-0.091744
1.866	14.766	-13633	4361.4	-0.96253	0.24234	-0.091354
1.868	14.826	-13634	4361.5	-0.96273	0.24215	-0.090963
1.87	14.893	-13634	4361.5	-0.96292	0.24195	-0.090573
1.872	14.948	-13633	4361.3	-0.96312	0.24176	-0.090182
1.874	14.988	-13631	4361.2	-0.96331	0.24156	-0.089792
1.876	15.035	-13630	4360.9	-0.96321	0.24156	-0.090378
1.878	15.079	-13627	4360.6	-0.96312	0.24156	-0.090963
1.88	15.111	-13625	4360.3	-0.96302	0.24156	-0.091549
1.882	15.139	-13626	4360.1	-0.96292	0.24156	-0.092134
1.884	15.155	-13628	4359.9	-0.96282	0.24156	-0.09272
1.886	15.172	-13632	4359.6	-0.96331	0.24215	-0.092525
1.888	15.179	-13636	4359.4	-0.9638	0.24273	-0.09233
1.89	15.186	-13638	4359.1	-0.96429	0.24332	-0.092134
1.892	15.221	-13640	4358.9	-0.96478	0.2439	-0.091939
1.894	15.249	-13646	4358.6	-0.96526	0.24449	-0.091744
1.896	15.267	-13652	4358.4	-0.96585	0.2441	-0.092818
1.898	15.266	-13655	4358.2	-0.96644	0.24371	-0.093891
1.9	15.261	-13657	4358	-0.96702	0.24332	-0.094965
1.902	15.24	-13652	4357.8	-0.96761	0.24293	-0.096038
1.904	15.241	-13648	4357.6	-0.96819	0.24254	-0.097112
1.906	15.24	-13646	4357.3	-0.96839	0.24312	-0.096917
1.908	15.242	-13645	4357.1	-0.96858	0.24371	-0.096722
1.91	15.256	-13644	4356.8	-0.96878	0.24429	-0.096526
1.912	15.217	-13644	4356.5	-0.96897	0.24488	-0.096331
1.914	15.22	-13645	4356.2	-0.96917	0.24546	-0.096136
1.916	15.27	-13647	4356.1	-0.96819	0.24576	-0.096136
1.918	15.321	-13649	4355.9	-0.96722	0.24605	-0.096136
1.92	15.311	-13650	4355.9	-0.96624	0.24634	-0.096136
1.922	15.283	-13648	4356	-0.96526	0.24664	-0.096136
1.924	15.259	-13647	4356	-0.96429	0.24693	-0.096136
1.926	15.256	-13649	4356.2	-0.96526	0.24644	-0.096526
1.928	15.251	-13651	4356.4	-0.96624	0.24595	-0.096917
1.93	15.257	-13648	4356.5	-0.96722	0.24546	-0.097307
1.932	15.27	-13646	4356.6	-0.96819	0.24498	-0.097698
1.934	15.282	-13642	4356.6	-0.96917	0.24449	-0.098088
1.936	15.269	-13639	4356.7	-0.96966	0.24459	-0.09799
1.938	15.262	-13642	4356.7	-0.97014	0.24468	-0.097893
1.94	15.244	-13645	4356.8	-0.97063	0.24478	-0.097795
1.942	15.199	-13644	4356.9	-0.97112	0.24488	-0.097698
1.944	15.195	-13643	4357	-0.97161	0.24498	-0.0976
1.946	15.237	-13639	4357.1	-0.97171	0.24507	-0.097307
1.948	15.271	-13636	4357.1	-0.9718	0.24517	-0.097014
1.95	15.299	-13632	4357.2	-0.9719	0.24527	-0.096722
1.952	15.292	-13627	4357.2	-0.972	0.24537	-0.096429
1.954	15.254	-13628	4357.1	-0.9721	0.24546	-0.096136
1.956	15.231	-13629	4357.1	-0.96985	0.24468	-0.095062
1.958	15.212	-13632	4357	-0.96761	0.2439	-0.093989
1.96	15.206	-13635	4357	-0.96536	0.24312	-0.092915
1.962	15.229	-13632	4356.9	-0.96312	0.24234	-0.091842
1.964	15.242	-13630	4356.8	-0.96087	0.24156	-0.090768
1.966	15.243	-13633	4356.8	-0.96087	0.24088	-0.089402
1.968	15.254	-13636	4356.8	-0.96087	0.24019	-0.088035
1.97	15.261	-13638	4356.7	-0.96087	0.23951	-0.086669
1.972	15.248	-13641	4356.7	-0.96087	0.23883	-0.085302
1.974	15.216	-13639	4356.6	-0.96087	0.23814	-0.083936
1.976	15.2	-13638	4356.4	-0.96068	0.23853	-0.084619
1.978	15.2	-13643	4356.3	-0.96048	0.23892	-0.085302
1.98	15.202	-13648	4356	-0.96029	0.23932	-0.085986
1.982	15.208	-13646	4355.8	-0.96009	0.23971	-0.086669
1.984	15.206	-13645	4355.5	-0.9599	0.2401	-0.087352
1.986	15.195	-13646	4355.1	-0.96038	0.24	-0.088133
1.988	15.199	-13647	4354.8	-0.96087	0.2399	-0.088914
1.99	15.195	-13642	4354.5	-0.96136	0.2398	-0.089694
1.992	15.191	-13638	4354.2	-0.96185	0.23971	-0.090475
1.994	15.147	-13641	4354	-0.96234	0.23961	-0.091256
1.996	15.134	-13643	4353.9	-0.96234	0.2401	-0.091646
1.998	15.167	-13639	4353.8	-0.96234	0.24058	-0.092037
2	15.196	-13635	4353.8	-0.96234	0.24107	-0.092427
2.002	15.179	-13638	4353.9	-0.96234	0.24156	-0.092818
2.004	15.243	-13641	4354	-0.96234	0.24205	-0.093208
2.006	15.294	-13640	4354.2	-0.96439	0.24371	-0.093501
2.008	15.276	-13638	4354.5	-0.96644	0.24537	-0.093794
2.01	15.245	-13643	4354.7	-0.96848	0.24703	-0.094086
2.012	15.251	-13648	4355	-0.97053	0.24868	-0.094379
2.014	15.249	-13643	4355.2	-0.97258	0.25034	-0.094672
2.016	15.233	-13638	4355.5	-0.97219	0.25015	-0.095941
2.018	15.225	-13638	4355.8	-0.9718	0.24995	-0.09721
2.02	15.221	-13637	4356.1	-0.97141	0.24976	-0.098478
2.022	15.216	-13638	4356.4	-0.97102	0.24956	-0.099747
2.024	15.213	-13639	4356.8	-0.97063	0.24937	-0.10102
2.026	15.191	-13639	4357.3	-0.9721	0.24888	-0.10053
2.028	15.192	-13638	4357.8	-0.97356	0.24839	-0.10004
2.03	15.217	-13641	4358.2	-0.97502	0.2479	-0.099552
2.032	15.246	-13644	4358.5	-0.97649	0.24742	-0.099064
2.034	15.266	-13641	4358.8	-0.97795	0.24693	-0.098576
2.036	15.25	-13638	4359.4	-0.9761	0.24683	-0.097112
2.038	15.238	-13641	4360.1	-0.97424	0.24673	-0.095648
2.04	15.244	-13645	4360.8	-0.97239	0.24664	-0.094184
2.042	15.241	-13638	4361.3	-0.97053	0.24654	-0.09272
2.044	15.238	-13631	4361.9	-0.96868	0.24644	-0.091256
2.046	15.24	-13635	4362.4	-0.9678	0.24498	-0.091256
2.048	15.238	-13639	4363	-0.96692	0.24351	-0.091256
2.05	15.23	-13635	4363.5	-0.96604	0.24205	-0.091256
2.052	15.218	-13632	4363.9	-0.96517	0.24058	-0.091256
2.054	15.209	-13636	4364.3	-0.96429	0.23912	-0.091256
2.056	15.201	-13640	4364.9	-0.964	0.23922	-0.090085
2.058	15.187	-13636	4365.4	-0.9637	0.23932	-0.088914
2.06	15.175	-13633	4366	-0.96341	0.23941	-0.087742
2.062	15.181	-13637	4366.6	-0.96312	0.23951	-0.086571
2.064	15.2	-13641	4367.1	-0.96282	0.23961	-0.0854
2.066	15.23	-13643	4367.7	-0.96136	0.24039	-0.085888
2.068	15.245	-13646	4368.3	-0.9599	0.24117	-0.086376
2.07	15.236	-13644	4368.9	-0.95843	0.24195	-0.086864
2.072	15.214	-13641	4369.5	-0.95697	0.24273	-0.087352
2.074	15.17	-13641	4370	-0.9555	0.24351	-0.08784
2.076	15.171	-13641	4370.6	-0.95668	0.24361	-0.088914
2.078	15.176	-13643	4371.2	-0.95785	0.24371	-0.089987
2.08	15.134	-13645	4371.8	-0.95902	0.2438	-0.091061
2.082	15.124	-13643	4372.6	-0.96019	0.2439	-0.092134
2.084	15.158	-13640	4373.4	-0.96136	0.244	-0.093208
2.086	15.193	-13639	4374.4	-0.96136	0.2439	-0.093306
2.088	15.193	-13637	4375.4	-0.96136	0.2438	-0.093403
2.09	15.154	-13635	4376.4	-0.96136	0.24371	-0.093501
2.092	15.123	-13632	4377.3	-0.96136	0.24361	-0.093598
2.094	15.126	-13635	4378.3	-0.96136	0.24351	-0.093696
2.096	15.144	-13638	4379.4	-0.96136	0.24254	-0.093501
2.098	15.111	-13640	4380.4	-0.96136	0.24156	-0.093306
2.1	15.095	-13641	4381.4	-0.96136	0.24058	-0.09311
2.102	15.103	-13638	4382.5	-0.96136	0.23961	-0.092915
2.104	15.136	-13635	4383.6	-0.96136	0.23863	-0.09272
2.106	15.139	-13636	4384.6	-0.96273	0.23912	-0.093403
2.108	15.128	-13637	4385.7	-0.96409	0.23961	-0.094086
2.11	15.113	-13634	4386.6	-0.96546	0.2401	-0.09477
2.112	15.12	-13631	4387.5	-0.96683	0.24058	-0.095453
2.114	15.141	-13631	4388.4	-0.96819	0.24107	-0.096136
2.116	15.173	-13631	4389.3	-0.96917	0.24244	-0.096429
2.118	15.198	-13624	4390.1	-0.97014	0.2438	-0.096722
2.12	15.184	-13616	4390.9	-0.97112	0.24517	-0.097014
2.122	15.168	-13626	4391.6	-0.9721	0.24654	-0.097307
2.124	15.166	-13635	4392.3	-0.97307	0.2479	-0.0976
2.126	15.146	-13635	4393	-0.9719	0.24761	-0.09721
2.128	15.128	-13634	4393.6	-0.97073	0.24732	-0.096819
2.13	15.145	-13632	4394.1	-0.96956	0.24703	-0.096429
2.132	15.178	-13629	4394.5	-0.96839	0.24673	-0.096038
2.134	15.201	-13629	4394.8	-0.96722	0.24644	-0.095648
2.136	15.214	-13630	4395.1	-0.9678	0.24644	-0.095648
2.138	15.21	-13633	4395.4	-0.96839	0.24644	-0.095648
2.14	15.205	-13636	4395.7	-0.96897	0.24644	-0.095648
2.142	15.233	-13632	4395.9	-0.96956	0.24644	-0.095648
2.144	15.247	-13628	4396.2	-0.97014	0.24644	-0.095648
2.146	15.219	-13628	4396.4	-0.96975	0.24595	-0.095453
2.148	15.187	-13628	4396.6	-0.96936	0.24546	-0.095258
2.15	15.178	-13624	4396.8	-0.96897	0.24498	-0.095062
2.152	15.196	-13619	4396.8	-0.96858	0.24449	-0.094867
2.154	15.221	-13621	4396.9	-0.96819	0.244	-0.094672
2.156	15.195	-13624	4396.8	-0.96839	0.244	-0.094867
2.158	15.2	-13622	4396.8	-0.96858	0.244	-0.095062
2.16	15.233	-13621	4396.8	-0.96878	0.244	-0.095258
2.162	15.239	-13618	4396.7	-0.96897	0.244	-0.095453
2.164	15.25	-13614	4396.6	-0.96917	0.244	-0.095648
2.166	15.231	-13618	4396.5	-0.9679	0.2438	-0.09516
2.168	15.239	-13621	4396.4	-0.96663	0.24361	-0.094672
2.17	15.212	-13631	4396.3	-0.96536	0.24341	-0.094184
2.172	15.192	-13640	4396.2	-0.96409	0.24322	-0.093696
2.174	15.151	-13641	4396.1	-0.96282	0.24302	-0.093208
2.176	15.144	-13641	4396.1	-0.96312	0.24302	-0.09311
2.178	15.166	-13632	4396	-0.96341	0.24302	-0.093013
2.18	15.204	-13622	4395.9	-0.9637	0.24302	-0.092915
2.182	15.226	-13624	4395.9	-0.964	0.24302	-0.092818
2.184	15.253	-13627	4395.8	-0.96429	0.24302	-0.09272
2.186	15.27	-13628	4395.8	-0.96409	0.24312	-0.093598
2.188	15.246	-13629	4395.8	-0.9639	0.24322	-0.094477
2.19	15.237	-13634	4395.8	-0.9637	0.24332	-0.095355
2.192	15.212	-13639	4395.8	-0.96351	0.24341	-0.096234
2.194	15.193	-13627	4395.8	-0.96331	0.24351	-0.097112
2.196	15.218	-13615	4395.7	-0.96468	0.24429	-0.09799
2.198	15.226	-13617	4395.6	-0.96604	0.24507	-0.098869
2.2	15.205	-13620	4395.6	-0.96741	0.24585	-0.099747
2.202	15.181	-13624	4395.4	-0.96878	0.24664	-0.10063
2.204	15.176	-13628	4395.3	-0.97014	0.24742	-0.1015
2.206	15.185	-13627	4395.2	-0.96897	0.24693	-0.10111
2.208	15.2	-13626	4395	-0.9678	0.24644	-0.10072
2.21	15.229	-13623	4394.9	-0.96663	0.24595	-0.10033
2.212	15.261	-13620	4394.7	-0.96546	0.24546	-0.099942
2.214	15.26	-13615	4394.6	-0.96429	0.24498	-0.099552
2.216	15.255	-13611	4394.4	-0.96595	0.24605	-0.098283
2.218	15.263	-13618	4394.2	-0.96761	0.24712	-0.097014
2.22	15.236	-13626	4394	-0.96927	0.2482	-0.095746
2.222	15.204	-13620	4393.6	-0.97092	0.24927	-0.094477
2.224	15.21	-13614	4393.2	-0.97258	0.25034	-0.093208
2.226	15.233	-13615	4392.5	-0.9718	0.24888	-0.093696
2.228	15.249	-13617	4391.8	-0.97102	0.24742	-0.094184
2.23	15.262	-13623	4391	-0.97024	0.24595	-0.094672
2.232	15.246	-13630	4390.2	-0.96946	0.24449	-0.09516
2.234	15.211	-13628	4389.3	-0.96868	0.24302	-0.095648
2.236	15.175	-13626	4388.6	-0.96731	0.24351	-0.09477
2.238	15.166	-13628	4387.9	-0.96595	0.244	-0.093891
2.24	15.207	-13630	4387.3	-0.96458	0.24449	-0.093013
2.242	15.239	-13622	4386.8	-0.96321	0.24498	-0.092134
2.244	15.23	-13615	4386.4	-0.96185	0.24546	-0.091256
2.246	15.221	-13616	4386.1	-0.96156	0.24576	-0.091061
2.248	15.208	-13618	4385.8	-0.96126	0.24605	-0.090866
2.25	15.249	-13620	4385.4	-0.96097	0.24634	-0.09067
2.252	15.284	-13622	4385.1	-0.96068	0.24664	-0.090475
2.254	15.246	-13617	4384.8	-0.96038	0.24693	-0.09028
2.256	15.206	-13613	4384.4	-0.96058	0.24654	-0.09067
2.258	15.227	-13618	4384	-0.96077	0.24615	-0.091061
2.26	15.219	-13624	4383.8	-0.96097	0.24576	-0.091451
2.262	15.209	-13621	4383.7	-0.96116	0.24537	-0.091842
2.264	15.209	-13618	4383.6	-0.96136	0.24498	-0.092232
2.266	15.18	-13622	4383.5	-0.96116	0.2441	-0.091256
2.268	15.187	-13626	4383.4	-0.96097	0.24322	-0.09028
2.27	15.199	-13623	4383.3	-0.96077	0.24234	-0.089304
2.272	15.19	-13621	4383.2	-0.96058	0.24146	-0.088328
2.274	15.193	-13619	4383.2	-0.96038	0.24058	-0.087352
2.276	15.224	-13617	4383.1	-0.96029	0.24176	-0.088133
2.278	15.248	-13614	4383	-0.96019	0.24293	-0.088914
2.28	15.248	-13611	4383	-0.96009	0.2441	-0.089694
2.282	15.254	-13617	4383	-0.95999	0.24527	-0.090475
2.284	15.26	-13623	4383	-0.9599	0.24644	-0.091256
2.286	15.259	-13621	4382.8	-0.96097	0.24605	-0.092134
2.288	15.249	-13619	4382.7	-0.96204	0.24566	-0.093013
2.29	15.241	-13618	4382.6	-0.96312	0.24527	-0.093891
2.292	15.249	-13618	4382.4	-0.96419	0.24488	-0.09477
2.294	15.244	-13615	4382.2	-0.96526	0.24449	-0.095648
2.296	15.21	-13611	4382	-0.96546	0.2441	-0.095648
2.298	15.189	-13612	4381.8	-0.96565	0.24371	-0.095648
2.3	15.197	-13612	4381.7	-0.96585	0.24332	-0.095648
2.302	15.213	-13615	4381.6	-0.96604	0.24293	-0.095648
2.304	15.218	-13618	4381.5	-0.96624	0.24254	-0.095648
2.306	15.204	-13618	4381.4	-0.96526	0.24244	-0.095062
2.308	15.194	-13618	4381.2	-0.96429	0.24234	-0.094477
2.31	15.187	-13613	4381.1	-0.96331	0.24224	-0.093891
2.312	15.178	-13609	4380.9	-0.96234	0.24215	-0.093306
2.314	15.174	-13612	4380.7	-0.96136	0.24205	-0.09272
2.316	15.168	-13615	4380.3	-0.96097	0.24293	-0.09233
2.318	15.163	-13612	4379.9	-0.96058	0.2438	-0.091939
2.32	15.185	-13610	4379.6	-0.96019	0.24468	-0.091549
2.322	15.171	-13615	4379.2	-0.9598	0.24556	-0.091158
2.324	15.131	-13620	4378.9	-0.95941	0.24644	-0.090768
2.326	15.126	-13618	4378.6	-0.95941	0.24664	-0.090866
2.328	15.126	-13617	4378.4	-0.95941	0.24683	-0.090963
2.33	15.126	-13612	4378.1	-0.95941	0.24703	-0.091061
2.332	15.125	-13608	4377.9	-0.95941	0.24722	-0.091158
2.334	15.126	-13607	4377.7	-0.95941	0.24742	-0.091256
2.336	15.15	-13606	4377.6	-0.95999	0.24683	-0.091451
2.338	15.129	-13611	4377.4	-0.96058	0.24624	-0.091646
2.34	15.123	-13616	4377.3	-0.96116	0.24566	-0.091842
2.342	15.111	-13615	4377.1	-0.96175	0.24507	-0.092037
2.344	15.116	-13615	4377	-0.96234	0.24449	-0.092232
2.346	15.101	-13616	4376.9	-0.96263	0.24371	-0.091256
2.348	15.061	-13617	4376.8	-0.96292	0.24293	-0.09028
2.35	15.091	-13612	4376.7	-0.96321	0.24215	-0.089304
2.352	15.146	-13608	4376.7	-0.96351	0.24136	-0.088328
2.354	15.104	-13615	4376.7	-0.9638	0.24058	-0.087352
2.356	15.107	-13623	4376.9	-0.96351	0.24117	-0.088426
2.358	15.139	-13617	4377.1	-0.96321	0.24176	-0.089499
2.36	15.159	-13612	4377.4	-0.96292	0.24234	-0.090573
2.362	15.178	-13614	4377.8	-0.96263	0.24293	-0.091646
2.364	15.218	-13616	4378.2	-0.96234	0.24351	-0.09272
2.366	15.232	-13618	4378.7	-0.96458	0.24478	-0.092915
2.368	15.231	-13619	4379.2	-0.96683	0.24605	-0.09311
2.37	15.228	-13617	4379.7	-0.96907	0.24732	-0.093306
2.372	15.23	-13614	4380	-0.97132	0.24859	-0.093501
2.374	15.265	-13610	4380.4	-0.97356	0.24986	-0.093696
2.376	15.28	-13605	4380.7	-0.972	0.24888	-0.093794
2.378	15.277	-13609	4380.9	-0.97044	0.2479	-0.093891
2.38	15.286	-13612	4381.2	-0.96888	0.24693	-0.093989
2.382	15.281	-13615	4381.5	-0.96731	0.24595	-0.094086
2.384	15.274	-13619	4381.7	-0.96575	0.24498	-0.094184
2.386	15.273	-13615	4381.7	-0.96507	0.24449	-0.093208
2.388	15.264	-13612	4381.7	-0.96439	0.244	-0.092232
2.39	15.25	-13614	4381.9	-0.9637	0.24351	-0.091256
2.392	15.228	-13616	4382.1	-0.96302	0.24302	-0.09028
2.394	15.222	-13613	4382.4	-0.96234	0.24254	-0.089304
2.396	15.24	-13610	4382.5	-0.96234	0.24293	-0.089792
2.398	15.251	-13611	4382.6	-0.96234	0.24332	-0.09028
2.4	15.252	-13612	4382.6	-0.96234	0.24371	-0.090768
2.402	15.257	-13614	4382.5	-0.96234	0.2441	-0.091256
2.404	15.266	-13616	4382.4	-0.96234	0.24449	-0.091744
2.406	15.275	-13615	4382.2	-0.96175	0.24429	-0.09067
2.408	15.265	-13613	4381.9	-0.96116	0.2441	-0.089597
2.41	15.245	-13616	4381.6	-0.96058	0.2439	-0.088523
2.412	15.244	-13620	4381.4	-0.95999	0.24371	-0.08745
2.414	15.236	-13623	4381.2	-0.95941	0.24351	-0.086376
2.416	15.223	-13626	4381	-0.96029	0.24312	-0.085888
2.418	15.218	-13619	4380.8	-0.96116	0.24273	-0.0854
2.42	15.209	-13611	4380.6	-0.96204	0.24234	-0.084912
2.422	15.199	-13611	4380.5	-0.96292	0.24195	-0.084424
2.424	15.271	-13611	4380.4	-0.9638	0.24156	-0.083936
2.426	15.299	-13612	4380.4	-0.96253	0.24273	-0.085205
2.428	15.266	-13613	4380.4	-0.96126	0.2439	-0.086474
2.43	15.26	-13613	4380.2	-0.95999	0.24507	-0.087742
2.432	15.25	-13613	4379.7	-0.95872	0.24624	-0.089011
2.434	15.24	-13613	4379.2	-0.95746	0.24742	-0.09028
2.436	15.256	-13613	4379.5	-0.95677	0.24576	-0.090378
2.438	15.269	-13612	4379.9	-0.95609	0.2441	-0.090475
2.44	15.26	-13611	4380.1	-0.95541	0.24244	-0.090573
2.442	15.265	-13606	4380.2	-0.95472	0.24078	-0.09067
2.444	15.221	-13601	4380.3	-0.95404	0.23912	-0.090768
2.446	15.2	-13600	4380.4	-0.95687	0.24	-0.092037
2.448	15.203	-13599	4380.4	-0.9597	0.24088	-0.093306
2.45	15.214	-13601	4380.4	-0.96253	0.24176	-0.094574
2.452	15.232	-13602	4380.4	-0.96536	0.24263	-0.095843
2.454	15.256	-13608	4380.3	-0.96819	0.24351	-0.097112
2.456	15.295	-13614	4380.2	-0.96839	0.24439	-0.097405
2.458	15.286	-13613	4380.1	-0.96858	0.24527	-0.097698
2.46	15.256	-13612	4380	-0.96878	0.24615	-0.09799
2.462	15.24	-13611	4379.9	-0.96897	0.24703	-0.098283
2.464	15.222	-13610	4379.7	-0.96917	0.2479	-0.098576
2.466	15.207	-13616	4379.8	-0.97024	0.24771	-0.098381
2.468	15.191	-13622	4379.8	-0.97132	0.24751	-0.098186
2.47	15.194	-13620	4379.9	-0.97239	0.24732	-0.09799
2.472	15.226	-13619	4379.9	-0.97346	0.24712	-0.097795
2.474	15.243	-13614	4380	-0.97454	0.24693	-0.0976
2.476	15.237	-13610	4380	-0.97356	0.24742	-0.096819
2.478	15.222	-13608	4380	-0.97258	0.2479	-0.096038
2.48	15.205	-13606	4380.1	-0.97161	0.24839	-0.095258
2.482	15.203	-13607	4380.2	-0.97063	0.24888	-0.094477
2.484	15.184	-13608	4380.2	-0.96966	0.24937	-0.093696
2.486	15.166	-13608	4380.2	-0.96927	0.24888	-0.093598
2.488	15.142	-13608	4380.1	-0.96888	0.24839	-0.093501
2.49	15.144	-13612	4380	-0.96848	0.2479	-0.093403
2.492	15.142	-13617	4379.8	-0.96809	0.24742	-0.093306
2.494	15.106	-13619	4379.6	-0.9677	0.24693	-0.093208
2.496	15.026	-13621	4379.3	-0.96614	0.24556	-0.092134
2.498	14.966	-13617	4378.9	-0.96458	0.2442	-0.091061
2.5	14.913	-13613	4378.7	-0.96302	0.24283	-0.089987
2.502	14.823	-13612	4378.5	-0.96146	0.24146	-0.088914
2.504	14.787	-13610	4378.4	-0.9599	0.2401	-0.08784
2.506	14.778	-13608	4378.2	-0.96126	0.24078	-0.088914
2.508	14.745	-13605	4378.1	-0.96263	0.24146	-0.089987
2.51	14.721	-13603	4378	-0.964	0.24215	-0.091061
2.512	14.725	-13601	4377.9	-0.96536	0.24283	-0.092134
2.514	14.745	-13606	4377.8	-0.96673	0.24351	-0.093208
2.516	14.784	-13610	4377.6	-0.96663	0.24351	-0.094477
2.518	14.796	-13612	4377.5	-0.96653	0.24351	-0.095746
2.52	14.757	-13613	4377.3	-0.96644	0.24351	-0.097014
2.522	14.757	-13614	4377.1	-0.96634	0.24351	-0.098283
2.524	14.761	-13614	4376.9	-0.96624	0.24351	-0.099552
2.526	14.756	-13611	4376.7	-0.96614	0.24341	-0.098576
2.528	14.741	-13607	4376.4	-0.96604	0.24332	-0.0976
2.53	14.689	-13608	4376.1	-0.96595	0.24322	-0.096624
2.532	14.625	-13608	4375.8	-0.96585	0.24312	-0.095648
2.534	14.591	-13609	4375.5	-0.96575	0.24302	-0.094672
2.536	14.585	-13609	4375.1	-0.96653	0.24341	-0.09477
2.538	14.599	-13606	4374.8	-0.96731	0.2438	-0.094867
2.54	14.601	-13602	4374.4	-0.96809	0.2442	-0.094965
2.542	14.617	-13602	4374	-0.96888	0.24459	-0.095062
2.544	14.654	-13601	4373.7	-0.96966	0.24498	-0.09516
2.546	14.668	-13604	4373.4	-0.96878	0.24507	-0.09477
2.548	14.69	-13606	4373.2	-0.9679	0.24517	-0.094379
2.55	14.77	-13604	4372.9	-0.96702	0.24527	-0.093989
2.552	14.851	-13602	4372.8	-0.96614	0.24537	-0.093598
2.554	14.885	-13601	4372.6	-0.96526	0.24546	-0.093208
2.556	14.923	-13601	4372.5	-0.96644	0.24634	-0.093306
2.558	14.981	-13604	4372.4	-0.96761	0.24722	-0.093403
2.56	15.028	-13607	4372.3	-0.96878	0.2481	-0.093501
2.562	15.073	-13607	4372.1	-0.96995	0.24898	-0.093598
2.564	15.114	-13607	4372	-0.97112	0.24986	-0.093696
2.566	15.13	-13607	4372.1	-0.96975	0.24868	-0.093989
2.568	15.141	-13607	4372.2	-0.96839	0.24751	-0.094282
2.57	15.158	-13603	4372.3	-0.96702	0.24634	-0.094574
2.572	15.196	-13599	4372.3	-0.96565	0.24517	-0.094867
2.574	15.233	-13599	4372.4	-0.96429	0.244	-0.09516
2.576	15.243	-13598	4372.4	-0.96439	0.24361	-0.09477
2.578	15.265	-13604	4372.4	-0.96448	0.24322	-0.094379
2.58	15.252	-13610	4372.5	-0.96458	0.24283	-0.093989
2.582	15.232	-13606	4372.6	-0.96468	0.24244	-0.093598
2.584	15.219	-13602	4372.7	-0.96478	0.24205	-0.093208
2.586	15.203	-13603	4372.7	-0.96497	0.24332	-0.092525
2.588	15.199	-13603	4372.6	-0.96517	0.24459	-0.091842
2.59	15.241	-13607	4372.5	-0.96536	0.24585	-0.091158
2.592	15.267	-13610	4372.2	-0.96556	0.24712	-0.090475
2.594	15.234	-13613	4372	-0.96575	0.24839	-0.089792
2.596	15.275	-13615	4371.9	-0.96458	0.24868	-0.089792
2.598	15.303	-13609	4371.8	-0.96341	0.24898	-0.089792
2.6	15.312	-13603	4371.6	-0.96224	0.24927	-0.089792
2.602	15.307	-13596	4371.4	-0.96107	0.24956	-0.089792
2.604	15.283	-13589	4371.2	-0.9599	0.24986	-0.089792
2.606	15.28	-13600	4370.9	-0.96058	0.24927	-0.09067
2.608	15.278	-13610	4370.6	-0.96126	0.24868	-0.091549
2.61	15.259	-13610	4370.4	-0.96195	0.2481	-0.092427
2.612	15.24	-13610	4370.1	-0.96263	0.24751	-0.093306
2.614	15.265	-13610	4369.8	-0.96331	0.24693	-0.094184
2.616	15.274	-13611	4369.5	-0.96419	0.24644	-0.094184
2.618	15.255	-13604	4369.2	-0.96507	0.24595	-0.094184
2.62	15.238	-13598	4368.9	-0.96595	0.24546	-0.094184
2.622	15.248	-13601	4368.7	-0.96683	0.24498	-0.094184
2.624	15.266	-13605	4368.4	-0.9677	0.24449	-0.094184
2.626	15.287	-13604	4368.3	-0.96712	0.24459	-0.094379
2.628	15.283	-13604	4368.2	-0.96653	0.24468	-0.094574
2.63	15.264	-13604	4368.1	-0.96595	0.24478	-0.09477
2.632	15.248	-13604	4367.8	-0.96536	0.24488	-0.094965
2.634	15.245	-13604	4367.6	-0.96478	0.24498	-0.09516
2.636	15.242	-13604	4367.6	-0.96341	0.24595	-0.094086
2.638	15.255	-13601	4367.5	-0.96204	0.24693	-0.093013
2.64	15.269	-13597	4367.5	-0.96068	0.2479	-0.091939
2.642	15.246	-13601	4367.4	-0.95931	0.24888	-0.090866
2.644	15.232	-13606	4367.3	-0.95794	0.24986	-0.089792
2.646	15.244	-13608	4367.4	-0.95765	0.24966	-0.089694
2.648	15.23	-13610	4367.5	-0.95736	0.24947	-0.089597
2.65	15.226	-13609	4367.6	-0.95707	0.24927	-0.089499
2.652	15.252	-13609	4367.8	-0.95677	0.24908	-0.089402
2.654	15.246	-13609	4367.9	-0.95648	0.24888	-0.089304
2.656	15.216	-13608	4368.1	-0.95648	0.2482	-0.089206
2.658	15.22	-13610	4368.3	-0.95648	0.24751	-0.089109
2.66	15.261	-13612	4368.5	-0.95648	0.24683	-0.089011
2.662	15.258	-13608	4368.9	-0.95648	0.24615	-0.088914
2.664	15.196	-13605	4369.2	-0.95648	0.24546	-0.088816
2.666	15.175	-13609	4369.5	-0.95726	0.24546	-0.089402
2.668	15.188	-13613	4369.8	-0.95804	0.24546	-0.089987
2.67	15.197	-13610	4370	-0.95882	0.24546	-0.090573
2.672	15.213	-13607	4370.1	-0.9596	0.24546	-0.091158
2.674	15.214	-13608	4370.2	-0.96038	0.24546	-0.091744
2.676	15.243	-13609	4370.2	-0.96048	0.24507	-0.091744
2.678	15.232	-13611	4370.2	-0.96058	0.24468	-0.091744
2.68	15.201	-13613	4370.1	-0.96068	0.24429	-0.091744
2.682	15.23	-13604	4370	-0.96077	0.2439	-0.091744
2.684	15.247	-13596	4369.9	-0.96087	0.24351	-0.091744
2.686	15.242	-13601	4369.9	-0.96185	0.24332	-0.092232
2.688	15.226	-13605	4369.8	-0.96282	0.24312	-0.09272
2.69	15.2	-13608	4369.7	-0.9638	0.24293	-0.093208
2.692	15.211	-13611	4369.7	-0.96478	0.24273	-0.093696
2.694	15.226	-13608	4369.7	-0.96575	0.24254	-0.094184
2.696	15.21	-13606	4369.8	-0.96556	0.24312	-0.093891
2.698	15.226	-13609	4369.9	-0.96536	0.24371	-0.093598
2.7	15.227	-13612	4370	-0.96517	0.24429	-0.093306
2.702	15.215	-13613	4370.1	-0.96497	0.24488	-0.093013
2.704	15.242	-13615	4370.2	-0.96478	0.24546	-0.09272
2.706	15.264	-13613	4370.5	-0.96565	0.24624	-0.09272
2.708	15.268	-13612	4370.8	-0.96653	0.24703	-0.09272
2.71	15.267	-13610	4371.2	-0.96741	0.24781	-0.09272
2.712	15.261	-13609	4371.5	-0.96829	0.24859	-0.09272
2.714	15.258	-13609	4371.9	-0.96917	0.24937	-0.09272
2.716	15.244	-13610	4372.3	-0.96907	0.24888	-0.093696
2.718	15.221	-13607	4372.7	-0.96897	0.24839	-0.094672
2.72	15.214	-13604	4373.2	-0.96888	0.2479	-0.095648
2.722	15.232	-13602	4373.6	-0.96878	0.24742	-0.096624
2.724	15.235	-13599	4374	-0.96868	0.24693	-0.0976
2.726	15.257	-13603	4374.6	-0.96819	0.24781	-0.096331
2.728	15.297	-13607	4375.1	-0.9677	0.24868	-0.095062
2.73	15.28	-13609	4375.6	-0.96722	0.24956	-0.093794
2.732	15.233	-13611	4376.1	-0.96673	0.25044	-0.092525
2.734	15.191	-13608	4376.5	-0.96624	0.25132	-0.091256
2.736	15.162	-13605	4377.4	-0.96565	0.25044	-0.091744
2.738	15.17	-13603	4378.3	-0.96507	0.24956	-0.092232
2.74	15.211	-13601	4379.3	-0.96448	0.24868	-0.09272
2.742	15.232	-13600	4380.4	-0.9639	0.24781	-0.093208
2.744	15.232	-13599	4381.5	-0.96331	0.24693	-0.093696
2.746	15.25	-13604	4382.7	-0.96321	0.24615	-0.093696
2.748	15.246	-13608	4383.8	-0.96312	0.24537	-0.093696
2.75	15.227	-13607	4385	-0.96302	0.24459	-0.093696
2.752	15.235	-13606	4386.2	-0.96292	0.2438	-0.093696
2.754	15.22	-13607	4387.4	-0.96282	0.24302	-0.093696
2.756	15.206	-13608	4388.4	-0.964	0.2438	-0.093696
2.758	15.215	-13608	4389.4	-0.96517	0.24459	-0.093696
2.76	15.198	-13609	4390.4	-0.96634	0.24537	-0.093696
2.762	15.171	-13605	4391.4	-0.96751	0.24615	-0.093696
2.764	15.153	-13602	4392.4	-0.96868	0.24693	-0.093696
2.766	15.144	-13607	4393.4	-0.96702	0.24585	-0.093013
2.768	15.155	-13612	4394.3	-0.96536	0.24478	-0.09233
2.77	15.158	-13607	4395.3	-0.9637	0.24371	-0.091646
2.772	15.135	-13602	4396.2	-0.96204	0.24263	-0.090963
2.774	15.141	-13605	4397.2	-0.96038	0.24156	-0.09028
2.776	15.149	-13608	4398.1	-0.96116	0.24263	-0.091256
2.778	15.125	-13603	4398.9	-0.96195	0.24371	-0.092232
2.78	15.124	-13599	4399.8	-0.96273	0.24478	-0.093208
2.782	15.144	-13600	4400.6	-0.96351	0.24585	-0.094184
2.784	15.144	-13602	4401.4	-0.96429	0.24693	-0.09516
2.786	15.144	-13605	4402.2	-0.96478	0.24595	-0.095648
2.788	15.152	-13608	4403.1	-0.96526	0.24498	-0.096136
2.79	15.155	-13604	4403.9	-0.96575	0.244	-0.096624
2.792	15.173	-13601	4404.6	-0.96624	0.24302	-0.097112
2.794	15.18	-13596	4405.4	-0.96673	0.24205	-0.0976
2.796	15.189	-13590	4406.1	-0.96702	0.24312	-0.097405
2.798	15.195	-13594	4406.7	-0.96731	0.2442	-0.09721
2.8	15.189	-13598	4407.4	-0.96761	0.24527	-0.097014
2.802	15.17	-13598	4408	-0.9679	0.24634	-0.096819
2.804	15.129	-13597	4408.7	-0.96819	0.24742	-0.096624
2.806	15.121	-13594	4409.4	-0.96751	0.24712	-0.096331
2.808	15.153	-13590	4410.1	-0.96683	0.24683	-0.096038
2.81	15.164	-13591	4410.8	-0.96614	0.24654	-0.095746
2.812	15.155	-13593	4411.5	-0.96546	0.24624	-0.095453
2.814	15.157	-13594	4412.3	-0.96478	0.24595	-0.09516
2.816	15.177	-13595	4413	-0.96507	0.24624	-0.094867
2.818	15.212	-13595	4413.8	-0.96536	0.24654	-0.094574
2.82	15.236	-13596	4414.6	-0.96565	0.24683	-0.094282
2.822	15.232	-13598	4415.3	-0.96595	0.24712	-0.093989
2.824	15.224	-13600	4416.1	-0.96624	0.24742	-0.093696
2.826	15.22	-13596	4416.9	-0.96683	0.2479	-0.093598
2.828	15.222	-13592	4417.7	-0.96741	0.24839	-0.093501
2.83	15.202	-13588	4418.5	-0.968	0.24888	-0.093403
2.832	15.187	-13583	4419.3	-0.96858	0.24937	-0.093306
2.834	15.192	-13590	4420	-0.96917	0.24986	-0.093208
2.836	15.177	-13597	4420.6	-0.96907	0.24956	-0.093403
2.838	15.167	-13598	4421.2	-0.96897	0.24927	-0.093598
2.84	15.205	-13600	4421.7	-0.96888	0.24898	-0.093794
2.842	15.239	-13597	4422.1	-0.96878	0.24868	-0.093989
2.844	15.243	-13595	4422.5	-0.96868	0.24839	-0.094184
2.846	15.264	-13595	4422.5	-0.96829	0.24859	-0.09311
2.848	15.272	-13595	4422.5	-0.9679	0.24878	-0.092037
2.85	15.229	-13594	4422.7	-0.96751	0.24898	-0.090963
2.852	15.227	-13594	4423	-0.96712	0.24917	-0.08989
2.854	15.258	-13592	4423.3	-0.96673	0.24937	-0.088816
2.856	15.255	-13591	4423.3	-0.96517	0.24995	-0.089109
2.858	15.215	-13589	4423.3	-0.9636	0.25054	-0.089402
2.86	15.203	-13587	4423.2	-0.96204	0.25112	-0.089694
2.862	15.213	-13587	4423.1	-0.96048	0.25171	-0.089987
2.864	15.229	-13587	4423	-0.95892	0.2523	-0.09028
2.866	15.222	-13585	4422.9	-0.95853	0.25308	-0.08989
2.868	15.217	-13582	4422.8	-0.95814	0.25386	-0.089499
2.87	15.211	-13583	4423	-0.95775	0.25464	-0.089109
2.872	15.192	-13583	4423.3	-0.95736	0.25542	-0.088718
2.874	15.177	-13586	4423.6	-0.95697	0.2562	-0.088328
2.876	15.177	-13589	4423.5	-0.9557	0.25522	-0.088718
2.878	15.199	-13601	4423.4	-0.95443	0.25425	-0.089109
2.88	15.195	-13612	4423.1	-0.95316	0.25327	-0.089499
2.882	15.197	-13609	4422.7	-0.95189	0.2523	-0.08989
2.884	15.207	-13607	4422.2	-0.95062	0.25132	-0.09028
2.886	15.197	-13603	4421.9	-0.95316	0.25093	-0.090963
2.888	15.206	-13600	4421.5	-0.9557	0.25054	-0.091646
2.89	15.235	-13597	4421.1	-0.95824	0.25015	-0.09233
2.892	15.271	-13594	4420.7	-0.96077	0.24976	-0.093013
2.894	15.276	-13595	4420.3	-0.96331	0.24937	-0.093696
2.896	15.237	-13596	4419.9	-0.9638	0.24859	-0.094965
2.898	15.218	-13596	4419.4	-0.96429	0.24781	-0.096234
2.9	15.217	-13596	4419	-0.96478	0.24703	-0.097502
2.902	15.196	-13584	4418.7	-0.96526	0.24624	-0.098771
2.904	15.187	-13573	4418.4	-0.96575	0.24546	-0.10004
2.906	15.194	-13579	4418.1	-0.96575	0.24595	-0.098674
2.908	15.216	-13584	4417.8	-0.96575	0.24644	-0.097307
2.91	15.259	-13584	4417.6	-0.96575	0.24693	-0.095941
2.912	15.28	-13584	4417.4	-0.96575	0.24742	-0.094574
2.914	15.273	-13584	4417.2	-0.96575	0.2479	-0.093208
2.916	15.242	-13585	4416.9	-0.96683	0.2479	-0.093891
2.918	15.232	-13583	4416.6	-0.9679	0.2479	-0.094574
2.92	15.219	-13582	4416.3	-0.96897	0.2479	-0.095258
2.922	15.21	-13582	4416	-0.97005	0.2479	-0.095941
2.924	15.22	-13583	4415.7	-0.97112	0.2479	-0.096624
2.926	15.226	-13583	4415.3	-0.97112	0.24829	-0.095843
2.928	15.214	-13582	4415	-0.97112	0.24868	-0.095062
2.93	15.191	-13581	4414.7	-0.97112	0.24908	-0.094282
2.932	15.194	-13579	4414.4	-0.97112	0.24947	-0.093501
2.934	15.224	-13578	4414.1	-0.97112	0.24986	-0.09272
2.936	15.24	-13576	4413.8	-0.97073	0.24986	-0.09311
2.938	15.243	-13573	4413.5	-0.97034	0.24986	-0.093501
2.94	15.241	-13571	4413.3	-0.96995	0.24986	-0.093891
2.942	15.258	-13571	4413	-0.96956	0.24986	-0.094282
2.944	15.234	-13572	4412.7	-0.96917	0.24986	-0.094672
2.946	15.208	-13578	4412.5	-0.96888	0.24908	-0.09516
2.948	15.186	-13584	4412.2	-0.96858	0.24829	-0.095648
2.95	15.181	-13586	4412	-0.96829	0.24751	-0.096136
2.952	15.214	-13587	4411.7	-0.968	0.24673	-0.096624
2.954	15.242	-13587	4411.5	-0.9677	0.24595	-0.097112
2.956	15.254	-13588	4411.2	-0.96751	0.24664	-0.096917
2.958	15.249	-13586	4411	-0.96731	0.24732	-0.096722
2.96	15.254	-13585	4410.7	-0.96712	0.248	-0.096526
2.962	15.25	-13580	4410.5	-0.96692	0.24868	-0.096331
2.964	15.242	-13576	4410.2	-0.96673	0.24937	-0.096136
2.966	15.225	-13574	4410.1	-0.96585	0.24966	-0.09555
2.968	15.195	-13572	4409.9	-0.96497	0.24995	-0.094965
2.97	15.194	-13573	4409.7	-0.96409	0.25025	-0.094379
2.972	15.178	-13574	4409.5	-0.96321	0.25054	-0.093794
2.974	15.161	-13574	4409.4	-0.96234	0.25083	-0.093208
2.976	15.192	-13574	4409.4	-0.96146	0.252	-0.092818
2.978	15.229	-13577	4409.4	-0.96058	0.25317	-0.092427
2.98	15.228	-13580	4409.4	-0.9597	0.25435	-0.092037
2.982	15.223	-13588	4409.4	-0.95882	0.25552	-0.091646
2.984	15.228	-13596	4409.5	-0.95794	0.25669	-0.091256
2.986	15.223	-13598	4409.5	-0.95804	0.25669	-0.091549
2.988	15.218	-13599	4409.5	-0.95814	0.25669	-0.091842
2.99	15.227	-13598	4409.6	-0.95824	0.25669	-0.092134
2.992	15.235	-13598	4409.8	-0.95833	0.25669	-0.092427
2.994	15.218	-13596	4409.9	-0.95843	0.25669	-0.09272
2.996	15.195	-13595	4410.1	-0.95951	0.25571	-0.092818
2.998	15.178	-13594	4410.3	-0.96058	0.25474	-0.092915
3	15.174	-13593	4410.4	-0.96165	0.25376	-0.093013
3.002	15.172	-13591	4410.5	-0.96273	0.25278	-0.09311
3.004	15.153	-13590	4410.6	-0.9638	0.25181	-0.093208
3.006	15.139	-13594	4410.6	-0.96282	0.2523	-0.09311
3.008	15.126	-13598	4410.7	-0.96185	0.25278	-0.093013
3.01	15.122	-13599	4410.7	-0.96087	0.25327	-0.092915
3.012	15.147	-13600	4410.6	-0.9599	0.25376	-0.092818
3.014	15.131	-13598	4410.6	-0.95892	0.25425	-0.09272
3.016	15.118	-13596	4410.6	-0.95872	0.25366	-0.092232
3.018	15.132	-13585	4410.6	-0.95853	0.25308	-0.091744
3.02	15.133	-13574	4410.6	-0.95833	0.25249	-0.091256
3.022	15.108	-13572	4410.6	-0.95814	0.25191	-0.090768
3.024	15.113	-13569	4410.6	-0.95794	0.25132	-0.09028
3.026	15.147	-13570	4410.7	-0.95814	0.25181	-0.090378
3.028	15.127	-13572	4410.8	-0.95833	0.2523	-0.090475
3.03	15.096	-13571	4410.9	-0.95853	0.25278	-0.090573
3.032	15.1	-13571	4411	-0.95872	0.25327	-0.09067
3.034	15.137	-13573	4411.1	-0.95892	0.25376	-0.090768
3.036	15.134	-13575	4411.1	-0.96048	0.25191	-0.091939
3.038	15.129	-13576	4411.2	-0.96204	0.25005	-0.09311
3.04	15.161	-13577	4411.2	-0.9636	0.2482	-0.094282
3.042	15.19	-13574	4411.3	-0.96517	0.24634	-0.095453
3.044	15.197	-13571	4411.4	-0.96673	0.24449	-0.096624
3.046	15.199	-13576	4411.5	-0.96653	0.24527	-0.096038
3.048	15.226	-13581	4411.6	-0.96634	0.24605	-0.095453
3.05	15.255	-13577	4411.7	-0.96614	0.24683	-0.094867
3.052	15.246	-13572	4411.8	-0.96595	0.24761	-0.094282
3.054	15.225	-13577	4411.9	-0.96575	0.24839	-0.093696
3.056	15.214	-13581	4412	-0.96653	0.24917	-0.093696
3.058	15.234	-13581	4412.2	-0.96731	0.24995	-0.093696
3.06	15.253	-13580	4412.2	-0.96809	0.25073	-0.093696
3.062	15.256	-13582	4412.3	-0.96888	0.25152	-0.093696
3.064	15.272	-13584	4412.3	-0.96966	0.2523	-0.093696
3.066	15.284	-13580	4412.4	-0.9677	0.25278	-0.09272
3.068	15.261	-13577	4412.6	-0.96575	0.25327	-0.091744
3.07	15.229	-13580	4412.7	-0.9638	0.25376	-0.090768
3.072	15.236	-13584	4412.7	-0.96185	0.25425	-0.089792
3.074	15.266	-13579	4412.8	-0.9599	0.25474	-0.088816
3.076	15.263	-13575	4412.7	-0.95902	0.25454	-0.089011
3.078	15.237	-13574	4412.7	-0.95814	0.25435	-0.089206
3.08	15.224	-13573	4412.6	-0.95726	0.25415	-0.089402
3.082	15.223	-13578	4412.5	-0.95638	0.25396	-0.089597
3.084	15.234	-13583	4412.4	-0.9555	0.25376	-0.089792
3.086	15.242	-13578	4412.2	-0.9556	0.25386	-0.090085
3.088	15.245	-13574	4412.1	-0.9557	0.25396	-0.090378
3.09	15.224	-13575	4412	-0.9558	0.25405	-0.09067
3.092	15.198	-13576	4411.8	-0.95589	0.25415	-0.090963
3.094	15.208	-13580	4411.7	-0.95599	0.25425	-0.091256
3.096	15.24	-13583	4411.7	-0.95677	0.25405	-0.091451
3.098	15.245	-13583	4411.6	-0.95755	0.25386	-0.091646
3.1	15.225	-13583	4411.5	-0.95833	0.25366	-0.091842
3.102	15.227	-13584	4411.5	-0.95912	0.25347	-0.092037
3.104	15.196	-13585	4411.4	-0.9599	0.25327	-0.092232
3.106	15.2	-13583	4411.4	-0.95951	0.25366	-0.091939
3.108	15.228	-13580	4411.4	-0.95912	0.25405	-0.091646
3.11	15.245	-13576	4411.3	-0.95872	0.25444	-0.091354
3.112	15.267	-13572	4411.3	-0.95833	0.25483	-0.091061
3.114	15.291	-13574	4411.2	-0.95794	0.25522	-0.090768
3.116	15.291	-13576	4411.2	-0.95951	0.25464	-0.091939
3.118	15.274	-13570	4411.3	-0.96107	0.25405	-0.09311
3.12	15.268	-13564	4411.3	-0.96263	0.25347	-0.094282
3.122	15.266	-13572	4411.3	-0.96419	0.25288	-0.095453
3.124	15.25	-13580	4411.3	-0.96575	0.2523	-0.096624
3.126	15.235	-13573	4411.4	-0.96604	0.25249	-0.096526
3.128	15.222	-13567	4411.4	-0.96634	0.25269	-0.096429
3.13	15.22	-13565	4411.4	-0.96663	0.25288	-0.096331
3.132	15.245	-13563	4411.4	-0.96692	0.25308	-0.096234
3.134	15.261	-13564	4411.3	-0.96722	0.25327	-0.096136
3.136	15.262	-13565	4411.3	-0.96604	0.25376	-0.09555
3.138	15.256	-13573	4411.2	-0.96487	0.25425	-0.094965
3.14	15.257	-13581	4411.1	-0.9637	0.25474	-0.094379
3.142	15.253	-13584	4411.1	-0.96253	0.25522	-0.093794
3.144	15.237	-13587	4411	-0.96136	0.25571	-0.093208
3.146	15.237	-13583	4411.1	-0.96146	0.25513	-0.093208
3.148	15.244	-13579	4411.1	-0.96156	0.25454	-0.093208
3.15	15.234	-13579	4411.2	-0.96165	0.25396	-0.093208
3.152	15.223	-13579	4411.3	-0.96175	0.25337	-0.093208
3.154	15.221	-13578	4411.4	-0.96185	0.25278	-0.093208
3.156	15.214	-13578	4411.4	-0.96077	0.25308	-0.092427
3.158	15.202	-13580	4411.5	-0.9597	0.25337	-0.091646
3.16	15.206	-13582	4411.5	-0.95863	0.25366	-0.090866
3.162	15.224	-13579	4411.5	-0.95755	0.25396	-0.090085
3.164	15.215	-13576	4411.5	-0.95648	0.25425	-0.089304
3.166	15.21	-13574	4411.3	-0.95726	0.25415	-0.089987
3.168	15.228	-13573	4411.1	-0.95804	0.25405	-0.09067
3.17	15.2	-13574	4410.9	-0.95882	0.25396	-0.091354
3.172	15.12	-13575	4410.7	-0.9596	0.25386	-0.092037
3.174	15.057	-13577	4410.5	-0.96038	0.25376	-0.09272
3.176	14.992	-13579	4410.3	-0.96029	0.25425	-0.092427
3.178	14.964	-13578	4410.1	-0.96019	0.25474	-0.092134
3.18	14.906	-13577	4410	-0.96009	0.25522	-0.091842
3.182	14.843	-13574	4409.9	-0.95999	0.25571	-0.091549
3.184	14.797	-13571	4409.9	-0.9599	0.2562	-0.091256
3.186	14.764	-13572	4409.9	-0.96068	0.25513	-0.092037
3.188	14.763	-13573	4409.9	-0.96146	0.25405	-0.092818
3.19	14.774	-13571	4409.8	-0.96224	0.25298	-0.093598
3.192	14.808	-13569	4409.7	-0.96302	0.25191	-0.094379
3.194	14.799	-13574	4409.7	-0.9638	0.25083	-0.09516
3.196	14.815	-13580	4409.5	-0.96458	0.25142	-0.095258
3.198	14.781	-13581	4409.4	-0.96536	0.252	-0.095355
3.2	14.756	-13582	4409.2	-0.96614	0.25259	-0.095453
3.202	14.789	-13576	4409	-0.96692	0.25317	-0.09555
3.204	14.752	-13571	4408.9	-0.9677	0.25376	-0.095648
3.206	14.71	-13570	4408.6	-0.96809	0.25386	-0.095648
3.208	14.666	-13570	4408.4	-0.96848	0.25396	-0.095648
3.21	14.65	-13573	4408.1	-0.96888	0.25405	-0.095648
3.212	14.678	-13575	4408	-0.96927	0.25415	-0.095648
3.214	14.719	-13569	4407.8	-0.96966	0.25425	-0.095648
3.216	14.715	-13562	4407.5	-0.96946	0.25522	-0.095648
3.218	14.687	-13568	4407.3	-0.96927	0.2562	-0.095648
3.22	14.663	-13575	4407.1	-0.96907	0.25718	-0.095648
3.222	14.695	-13574	4406.9	-0.96888	0.25815	-0.095648
3.224	14.76	-13573	4406.8	-0.96868	0.25913	-0.095648
3.226	14.811	-13573	4406.8	-0.96927	0.25942	-0.096136
3.228	14.832	-13573	4406.8	-0.96985	0.25971	-0.096624
3.23	14.848	-13574	4406.9	-0.97044	0.26001	-0.097112
3.232	14.876	-13574	4407	-0.97102	0.2603	-0.0976
3.234	14.938	-13570	4407.1	-0.97161	0.26059	-0.098088
3.236	15.005	-13567	4407.3	-0.9718	0.26069	-0.098186
3.238	15.037	-13573	4407.5	-0.972	0.26079	-0.098283
3.24	15.058	-13580	4407.7	-0.97219	0.26088	-0.098381
3.242	15.102	-13579	4408	-0.97239	0.26098	-0.098478
3.244	15.16	-13578	4408.3	-0.97258	0.26108	-0.098576
3.246	15.198	-13577	4408.5	-0.97229	0.26079	-0.098186
3.248	15.21	-13576	4408.8	-0.972	0.26049	-0.097795
3.25	15.187	-13576	4409	-0.97171	0.2602	-0.097405
3.252	15.176	-13575	4409.2	-0.97141	0.25991	-0.097014
3.254	15.184	-13573	4409.3	-0.97112	0.25962	-0.096624
3.256	15.2	-13572	4409.5	-0.96927	0.25874	-0.095843
3.258	15.198	-13576	4409.7	-0.96741	0.25786	-0.095062
3.26	15.224	-13579	4409.9	-0.96556	0.25698	-0.094282
3.262	15.262	-13574	4410	-0.9637	0.2561	-0.093501
3.264	15.26	-13568	4410.2	-0.96185	0.25522	-0.09272
3.266	15.269	-13573	4410.2	-0.96273	0.25464	-0.092525
3.268	15.268	-13579	4410.3	-0.9636	0.25405	-0.09233
3.27	15.259	-13578	4410.3	-0.96448	0.25347	-0.092134
3.272	15.27	-13578	4410.3	-0.96536	0.25288	-0.091939
3.274	15.254	-13576	4410.3	-0.96624	0.2523	-0.091744
3.276	15.242	-13574	4410.1	-0.96439	0.25356	-0.091549
3.278	15.257	-13574	4409.9	-0.96253	0.25483	-0.091354
3.28	15.296	-13575	4409.7	-0.96068	0.2561	-0.091158
3.282	15.301	-13578	4409.5	-0.95882	0.25737	-0.090963
3.284	15.269	-13581	4409.3	-0.95697	0.25864	-0.090768
3.286	15.268	-13574	4409.1	-0.95765	0.25796	-0.091158
3.288	15.282	-13566	4408.9	-0.95833	0.25727	-0.091549
3.29	15.252	-13571	4408.6	-0.95902	0.25659	-0.091939
3.292	15.241	-13575	4408.4	-0.9597	0.25591	-0.09233
3.294	15.239	-13576	4408.1	-0.96038	0.25522	-0.09272
3.296	15.229	-13578	4407.9	-0.9598	0.25552	-0.092622
3.298	15.232	-13576	4407.7	-0.95921	0.25581	-0.092525
3.3	15.233	-13574	4407.4	-0.95863	0.2561	-0.092427
3.302	15.212	-13571	4407.2	-0.95804	0.2564	-0.09233
3.304	15.206	-13569	4407	-0.95746	0.25669	-0.092232
3.306	15.207	-13567	4406.9	-0.95941	0.25571	-0.092525
3.308	15.21	-13564	4406.7	-0.96136	0.25474	-0.092818
3.31	15.245	-13571	4406.6	-0.96331	0.25376	-0.09311
3.312	15.268	-13577	4406.6	-0.96526	0.25278	-0.093403
3.314	15.262	-13572	4406.6	-0.96722	0.25181	-0.093696
3.316	15.25	-13567	4406.7	-0.96556	0.25278	-0.093306
3.318	15.268	-13572	4406.8	-0.9639	0.25376	-0.092915
3.32	15.278	-13577	4407	-0.96224	0.25474	-0.092525
3.322	15.255	-13572	4407.2	-0.96058	0.25571	-0.092134
3.324	15.236	-13566	4407.5	-0.95892	0.25669	-0.091744
3.326	15.24	-13565	4407.8	-0.96077	0.2563	-0.092525
3.328	15.248	-13564	4408.1	-0.96263	0.25591	-0.093306
3.33	15.246	-13567	4408.4	-0.96448	0.25552	-0.094086
3.332	15.247	-13570	4408.8	-0.96634	0.25513	-0.094867
3.334	15.247	-13563	4409.2	-0.96819	0.25474	-0.095648
3.336	15.235	-13557	4409.5	-0.96819	0.25435	-0.096136
3.338	15.221	-13562	4409.9	-0.96819	0.25396	-0.096624
3.34	15.245	-13567	4410.2	-0.96819	0.25356	-0.097112
3.342	15.261	-13569	4410.5	-0.96819	0.25317	-0.0976
3.344	15.237	-13571	4410.8	-0.96819	0.25278	-0.098088
3.346	15.202	-13567	4411.1	-0.96663	0.25288	-0.097307
3.348	15.189	-13563	4411.5	-0.96507	0.25298	-0.096526
3.35	15.183	-13564	4411.6	-0.96351	0.25308	-0.095746
3.352	15.176	-13565	4411.5	-0.96195	0.25317	-0.094965
3.354	15.21	-13568	4411.5	-0.96038	0.25327	-0.094184
3.356	15.227	-13570	4411.2	-0.96097	0.25298	-0.094379
3.358	15.217	-13568	4410.9	-0.96156	0.25269	-0.094574
3.36	15.193	-13566	4410.6	-0.96214	0.25239	-0.09477
3.362	15.195	-13565	4410.2	-0.96273	0.2521	-0.094965
3.364	15.206	-13563	4409.9	-0.96331	0.25181	-0.09516
3.366	15.209	-13569	4409.7	-0.96273	0.25171	-0.094574
3.368	15.2	-13575	4409.5	-0.96214	0.25161	-0.093989
3.37	15.205	-13571	4409.3	-0.96156	0.25152	-0.093403
3.372	15.212	-13567	4409.2	-0.96097	0.25142	-0.092818
3.374	15.229	-13565	4409	-0.96038	0.25132	-0.092232
3.376	15.228	-13563	4409	-0.96068	0.2523	-0.09272
3.378	15.212	-13567	4408.9	-0.96097	0.25327	-0.093208
3.38	15.202	-13572	4408.9	-0.96126	0.25425	-0.093696
3.382	15.197	-13566	4408.8	-0.96156	0.25522	-0.094184
3.384	15.23	-13560	4408.8	-0.96185	0.2562	-0.094672
3.386	15.235	-13561	4408.9	-0.96292	0.25581	-0.094282
3.388	15.248	-13563	4408.9	-0.964	0.25542	-0.093891
3.39	15.262	-13568	4409.1	-0.96507	0.25503	-0.093501
3.392	15.227	-13573	4409.3	-0.96614	0.25464	-0.09311
3.394	15.213	-13578	4409.5	-0.96722	0.25425	-0.09272
3.396	15.214	-13583	4409.8	-0.96634	0.25444	-0.093013
3.398	15.22	-13577	4410.2	-0.96546	0.25464	-0.093306
3.4	15.226	-13572	4410.7	-0.96458	0.25483	-0.093598
3.402	15.265	-13570	4411.3	-0.9637	0.25503	-0.093891
3.404	15.314	-13568	4411.9	-0.96282	0.25522	-0.094184
3.406	15.307	-13571	4412.6	-0.96273	0.25503	-0.094184
3.408	15.265	-13575	4413.2	-0.96263	0.25483	-0.094184
3.41	15.233	-13574	4414	-0.96253	0.25464	-0.094184
3.412	15.218	-13572	4414.8	-0.96243	0.25444	-0.094184
3.414	15.216	-13572	4415.6	-0.96234	0.25425	-0.094184
3.416	15.212	-13572	4416.3	-0.96321	0.25483	-0.09516
3.418	15.22	-13565	4417	-0.96409	0.25542	-0.096136
3.42	15.251	-13559	4417.7	-0.96497	0.256	-0.097112
3.422	15.261	-13563	4418.5	-0.96585	0.25659	-0.098088
3.424	15.235	-13566	4419.2	-0.96673	0.25718	-0.099064
3.426	15.198	-13565	4419.9	-0.96585	0.2562	-0.097795
3.428	15.19	-13563	4420.5	-0.96497	0.25522	-0.096526
3.43	15.188	-13565	4421.3	-0.96409	0.25425	-0.095258
3.432	15.17	-13567	4422.1	-0.96321	0.25327	-0.093989
3.434	15.196	-13571	4422.9	-0.96234	0.2523	-0.09272
3.436	15.175	-13575	4423.7	-0.96204	0.25386	-0.093403
3.438	15.16	-13574	4424.6	-0.96175	0.25542	-0.094086
3.44	15.166	-13573	4425.4	-0.96146	0.25698	-0.09477
3.442	15.141	-13567	4426.3	-0.96116	0.25854	-0.095453
3.444	15.135	-13562	4427.2	-0.96087	0.2601	-0.096136
3.446	15.149	-13566	4428.1	-0.95999	0.26049	-0.096136
3.448	15.179	-13569	4429.1	-0.95912	0.26088	-0.096136
3.45	15.172	-13568	4430	-0.95824	0.26128	-0.096136
3.452	15.186	-13566	4431	-0.95736	0.26167	-0.096136
3.454	15.17	-13564	4432	-0.95648	0.26206	-0.096136
3.456	15.161	-13562	4432.9	-0.95843	0.26108	-0.096331
3.458	15.17	-13558	4433.7	-0.96038	0.2601	-0.096526
3.46	15.177	-13554	4434.5	-0.96234	0.25913	-0.096722
3.462	15.17	-13557	4435.3	-0.96429	0.25815	-0.096917
3.464	15.201	-13561	4436	-0.96624	0.25718	-0.097112
3.466	15.177	-13561	4436.6	-0.96526	0.25757	-0.097795
3.468	15.144	-13561	4437.3	-0.96429	0.25796	-0.098478
3.47	15.135	-13559	4437.9	-0.96331	0.25835	-0.099162
3.472	15.148	-13558	4438.4	-0.96234	0.25874	-0.099845
3.474	15.155	-13557	4439	-0.96136	0.25913	-0.10053
3.476	15.176	-13556	4439.4	-0.96107	0.25991	-0.10063
3.478	15.192	-13557	4439.9	-0.96077	0.26069	-0.10072
3.48	15.175	-13558	4440.3	-0.96048	0.26147	-0.10082
3.482	15.155	-13559	4440.8	-0.96019	0.26225	-0.10092
3.484	15.141	-13560	4441.3	-0.9599	0.26303	-0.10102
3.486	15.134	-13560	4441.9	-0.9599	0.26284	-0.10111
3.488	15.18	-13560	4442.4	-0.9599	0.26264	-0.10121
3.49	15.213	-13562	4443	-0.9599	0.26245	-0.10131
3.492	15.185	-13565	4443.6	-0.9599	0.26225	-0.10141
3.494	15.153	-13564	4444.2	-0.9599	0.26206	-0.1015
3.496	15.168	-13563	4444.9	-0.9597	0.26245	-0.1018
3.498	15.207	-13557	4445.5	-0.95951	0.26284	-0.10209
3.5	15.223	-13550	4446.1	-0.95931	0.26323	-0.10238
3.502	15.24	-13552	4446.6	-0.95912	0.26362	-0.10268
3.504	15.25	-13553	4447.2	-0.95892	0.26401	-0.10297
3.506	15.23	-13559	4447.6	-0.95931	0.26372	-0.10316
3.508	15.204	-13564	4448	-0.9597	0.26342	-0.10336
3.51	15.187	-13562	4448.4	-0.96009	0.26313	-0.10355
3.512	15.184	-13559	4448.7	-0.96048	0.26284	-0.10375
3.514	15.21	-13558	4449	-0.96087	0.26254	-0.10394
3.516	15.216	-13557	4449.1	-0.96156	0.26157	-0.10219
3.518	15.2	-13558	4449.3	-0.96224	0.26059	-0.10043
3.52	15.212	-13560	4449.4	-0.96292	0.25962	-0.098674
3.522	15.217	-13559	4449.4	-0.9636	0.25864	-0.096917
3.524	15.207	-13559	4449.5	-0.96429	0.25766	-0.09516
3.526	15.194	-13559	4449.5	-0.9636	0.25805	-0.094867
3.528	15.176	-13559	4449.5	-0.96292	0.25844	-0.094574
3.53	15.227	-13558	4449.5	-0.96224	0.25884	-0.094282
3.532	15.288	-13557	4449.4	-0.96156	0.25923	-0.093989
3.534	15.286	-13553	4449.4	-0.96087	0.25962	-0.093696
3.536	15.291	-13548	4449.3	-0.96126	0.25893	-0.093501
3.538	15.273	-13548	4449.2	-0.96165	0.25825	-0.093306
3.54	15.226	-13548	4449.1	-0.96204	0.25757	-0.09311
3.542	15.21	-13551	4449	-0.96243	0.25688	-0.092915
3.544	15.234	-13554	4448.9	-0.96282	0.2562	-0.09272
3.546	15.228	-13554	4448.7	-0.96302	0.25591	-0.093306
3.548	15.248	-13554	4448.6	-0.96321	0.25561	-0.093891
3.55	15.257	-13553	4448.5	-0.96341	0.25532	-0.094477
3.552	15.237	-13552	4448.3	-0.9636	0.25503	-0.095062
3.554	15.228	-13551	4448.1	-0.9638	0.25474	-0.095648
3.556	15.241	-13550	4447.9	-0.96312	0.2562	-0.095941
3.558	15.232	-13554	4447.7	-0.96243	0.25766	-0.096234
3.56	15.198	-13558	4447.5	-0.96175	0.25913	-0.096526
3.562	15.211	-13555	4447.3	-0.96107	0.26059	-0.096819
3.564	15.207	-13552	4447.1	-0.96038	0.26206	-0.097112
3.566	15.208	-13549	4446.9	-0.96077	0.26088	-0.096624
3.568	15.239	-13545	4446.7	-0.96116	0.25971	-0.096136
3.57	15.281	-13545	4446.4	-0.96156	0.25854	-0.095648
3.572	15.289	-13546	4446.2	-0.96195	0.25737	-0.09516
3.574	15.261	-13548	4446	-0.96234	0.2562	-0.094672
3.576	15.221	-13550	4445.7	-0.96302	0.25649	-0.095258
3.578	15.203	-13551	4445.5	-0.9637	0.25679	-0.095843
3.58	15.223	-13553	4445.1	-0.96439	0.25708	-0.096429
3.582	15.25	-13546	4444.7	-0.96507	0.25737	-0.097014
3.584	15.257	-13540	4444.4	-0.96575	0.25766	-0.0976
3.586	15.238	-13541	4443.8	-0.96614	0.25766	-0.097014
3.588	15.213	-13543	4443.3	-0.96653	0.25766	-0.096429
3.59	15.225	-13544	4442.8	-0.96692	0.25766	-0.095843
3.592	15.243	-13546	4442.2	-0.96731	0.25766	-0.095258
3.594	15.236	-13546	4441.6	-0.9677	0.25766	-0.094672
3.596	15.241	-13546	4441	-0.96653	0.25747	-0.094282
3.598	15.212	-13546	4440.4	-0.96536	0.25727	-0.093891
3.6	15.169	-13546	4439.9	-0.96419	0.25708	-0.093501
3.602	15.183	-13544	4439.5	-0.96302	0.25688	-0.09311
3.604	15.227	-13542	4439	-0.96185	0.25669	-0.09272
3.606	15.28	-13540	4438.5	-0.96234	0.25669	-0.092622
3.608	15.296	-13538	4438.1	-0.96282	0.25669	-0.092525
3.61	15.288	-13532	4437.7	-0.96331	0.25669	-0.092427
3.612	15.279	-13526	4437.4	-0.9638	0.25669	-0.09233
3.614	15.3	-13538	4437.1	-0.96429	0.25669	-0.092232
3.616	15.28	-13550	4436.7	-0.96487	0.25718	-0.093403
3.618	15.222	-13547	4436.4	-0.96546	0.25766	-0.094574
3.62	15.194	-13543	4436	-0.96604	0.25815	-0.095746
3.622	15.183	-13544	4435.6	-0.96663	0.25864	-0.096917
3.624	15.207	-13545	4435.2	-0.96722	0.25913	-0.098088
3.626	15.232	-13547	4434.8	-0.96634	0.25893	-0.097307
3.628	15.246	-13548	4434.4	-0.96546	0.25874	-0.096526
3.63	15.255	-13544	4434	-0.96458	0.25854	-0.095746
3.632	15.253	-13540	4433.7	-0.9637	0.25835	-0.094965
3.634	15.277	-13538	4433.3	-0.96282	0.25815	-0.094184
3.636	15.277	-13535	4433	-0.96263	0.25893	-0.09516
3.638	15.262	-13543	4432.7	-0.96243	0.25971	-0.096136
3.64	15.264	-13552	4432.4	-0.96224	0.26049	-0.097112
3.642	15.26	-13551	4432.1	-0.96204	0.26128	-0.098088
3.644	15.245	-13551	4431.8	-0.96185	0.26206	-0.099064
3.646	15.213	-13546	4431.6	-0.96165	0.26274	-0.098088
3.648	15.187	-13542	4431.4	-0.96146	0.26342	-0.097112
3.65	15.179	-13542	4431.3	-0.96126	0.26411	-0.096136
3.652	15.193	-13542	4431.3	-0.96107	0.26479	-0.09516
3.654	15.208	-13542	4431.3	-0.96087	0.26547	-0.094184
3.656	15.206	-13542	4431.3	-0.96038	0.26489	-0.094672
3.658	15.186	-13544	4431.4	-0.9599	0.2643	-0.09516
3.66	15.168	-13546	4431.4	-0.95941	0.26372	-0.095648
3.662	15.166	-13540	4431.5	-0.95892	0.26313	-0.096136
3.664	15.174	-13534	4431.5	-0.95843	0.26254	-0.096624
3.666	15.176	-13535	4431.5	-0.95814	0.26245	-0.0976
3.668	15.176	-13535	4431.5	-0.95785	0.26235	-0.098576
3.67	15.188	-13540	4431.4	-0.95755	0.26225	-0.099552
3.672	15.205	-13546	4431.4	-0.95726	0.26215	-0.10053
3.674	15.216	-13540	4431.3	-0.95697	0.26206	-0.1015
3.676	15.205	-13533	4431.2	-0.95677	0.26245	-0.1016
3.678	15.176	-13539	4431	-0.95658	0.26284	-0.1017
3.68	15.151	-13545	4430.8	-0.95638	0.26323	-0.1018
3.682	15.157	-13546	4430.6	-0.95619	0.26362	-0.10189
3.684	15.155	-13547	4430.3	-0.95599	0.26401	-0.10199
3.686	15.145	-13541	4430	-0.95726	0.26313	-0.10189
3.688	15.145	-13535	4429.8	-0.95853	0.26225	-0.1018
3.69	15.143	-13535	4429.5	-0.9598	0.26137	-0.1017
3.692	15.126	-13536	4429.4	-0.96107	0.26049	-0.1016
3.694	15.12	-13539	4429.2	-0.96234	0.25962	-0.1015
3.696	15.119	-13543	4429	-0.96136	0.25991	-0.10141
3.698	15.123	-13540	4428.9	-0.96038	0.2602	-0.10131
3.7	15.124	-13536	4428.8	-0.95941	0.26049	-0.10121
3.702	15.166	-13536	4428.7	-0.95843	0.26079	-0.10111
3.704	15.177	-13535	4428.6	-0.95746	0.26108	-0.10102
3.706	15.182	-13532	4428.5	-0.95775	0.26167	-0.10082
3.708	15.214	-13529	4428.4	-0.95804	0.26225	-0.10063
3.71	15.201	-13533	4428.3	-0.95833	0.26284	-0.10043
3.712	15.21	-13536	4428	-0.95863	0.26342	-0.10024
3.714	15.25	-13540	4427.8	-0.95892	0.26401	-0.10004
3.716	15.264	-13543	4427.5	-0.95863	0.26372	-0.10033
3.718	15.271	-13543	4427.2	-0.95833	0.26342	-0.10063
3.72	15.263	-13544	4426.9	-0.95804	0.26313	-0.10092
3.722	15.246	-13536	4426.6	-0.95775	0.26284	-0.10121
3.724	15.252	-13529	4426.3	-0.95746	0.26254	-0.1015
3.726	15.24	-13527	4426	-0.95892	0.26137	-0.10082
3.728	15.239	-13525	4425.6	-0.96038	0.2602	-0.10014
3.73	15.239	-13533	4425.4	-0.96185	0.25903	-0.099454
3.732	15.227	-13541	4425.1	-0.96331	0.25786	-0.098771
3.734	15.228	-13534	4424.8	-0.96478	0.25669	-0.098088
3.736	15.247	-13527	4424.6	-0.96458	0.25718	-0.098381
3.738	15.273	-13526	4424.3	-0.96439	0.25766	-0.098674
3.74	15.283	-13525	4424	-0.96419	0.25815	-0.098966
3.742	15.271	-13523	4423.6	-0.964	0.25864	-0.099259
3.744	15.261	-13522	4423.3	-0.9638	0.25913	-0.099552
3.746	15.256	-13526	4423	-0.96341	0.25981	-0.099259
3.748	15.243	-13529	4422.6	-0.96302	0.26049	-0.098966
3.75	15.237	-13531	4422.3	-0.96263	0.26118	-0.098674
3.752	15.232	-13532	4422	-0.96224	0.26186	-0.098381
3.754	15.215	-13535	4421.7	-0.96185	0.26254	-0.098088
3.756	15.206	-13537	4421.5	-0.96146	0.26303	-0.098674
3.758	15.206	-13535	4421.3	-0.96107	0.26352	-0.099259
3.76	15.221	-13534	4421.2	-0.96068	0.26401	-0.099845
3.762	15.25	-13534	4421.1	-0.96029	0.2645	-0.10043
3.764	15.264	-13534	4421	-0.9599	0.26498	-0.10102
3.766	15.26	-13532	4420.8	-0.96087	0.2645	-0.099747
3.768	15.28	-13530	4420.7	-0.96185	0.26401	-0.098478
3.77	15.311	-13530	4420.5	-0.96282	0.26352	-0.09721
3.772	15.318	-13530	4420.4	-0.9638	0.26303	-0.095941
3.774	15.31	-13540	4420.3	-0.96478	0.26254	-0.094672
3.776	15.303	-13550	4420.3	-0.96536	0.26264	-0.09555
3.778	15.278	-13539	4420.2	-0.96595	0.26274	-0.096429
3.78	15.26	-13527	4420.1	-0.96653	0.26284	-0.097307
3.782	15.262	-13528	4419.9	-0.96712	0.26293	-0.098186
3.784	15.255	-13529	4419.7	-0.9677	0.26303	-0.099064
3.786	15.255	-13534	4419.6	-0.9679	0.26323	-0.098674
3.788	15.261	-13539	4419.4	-0.96809	0.26342	-0.098283
3.79	15.268	-13543	4419.3	-0.96829	0.26362	-0.097893
3.792	15.27	-13547	4419.1	-0.96848	0.26381	-0.097502
3.794	15.295	-13538	4418.9	-0.96868	0.26401	-0.097112
3.796	15.285	-13529	4418.5	-0.96868	0.26362	-0.0976
3.798	15.262	-13530	4418.2	-0.96868	0.26323	-0.098088
3.8	15.252	-13532	4417.9	-0.96868	0.26284	-0.098576
3.802	15.255	-13532	4417.5	-0.96868	0.26245	-0.099064
3.804	15.257	-13533	4417.2	-0.96868	0.26206	-0.099552
3.806	15.265	-13533	4416.8	-0.96829	0.26137	-0.098869
3.808	15.236	-13533	4416.4	-0.9679	0.26069	-0.098186
3.81	15.24	-13533	4416.1	-0.96751	0.26001	-0.097502
3.812	15.251	-13534	4415.8	-0.96712	0.25932	-0.096819
3.814	15.235	-13535	4415.4	-0.96673	0.25864	-0.096136
3.816	15.239	-13536	4415.1	-0.96653	0.25854	-0.096331
3.818	15.235	-13531	4414.7	-0.96634	0.25844	-0.096526
3.82	15.231	-13525	4414.3	-0.96614	0.25835	-0.096722
3.822	15.245	-13526	4413.9	-0.96595	0.25825	-0.096917
3.824	15.261	-13527	4413.5	-0.96575	0.25815	-0.097112
3.826	15.252	-13519	4413	-0.96536	0.25766	-0.096624
3.828	15.238	-13511	4412.5	-0.96497	0.25718	-0.096136
3.83	15.232	-13521	4412	-0.96458	0.25669	-0.095648
3.832	15.21	-13530	4411.6	-0.96419	0.2562	-0.09516
3.834	15.193	-13525	4411.1	-0.9638	0.25571	-0.094672
3.836	15.191	-13521	4410.6	-0.96331	0.25649	-0.09516
3.838	15.162	-13529	4410.2	-0.96282	0.25727	-0.095648
3.84	15.105	-13537	4409.7	-0.96234	0.25805	-0.096136
3.842	15.062	-13533	4409.2	-0.96185	0.25884	-0.096624
3.844	15.027	-13528	4408.8	-0.96136	0.25962	-0.097112
3.846	14.963	-13529	4408.3	-0.96087	0.25971	-0.096722
3.848	14.882	-13530	4407.9	-0.96038	0.25981	-0.096331
3.85	14.833	-13534	4407.5	-0.9599	0.25991	-0.095941
3.852	14.801	-13538	4407.1	-0.95941	0.26001	-0.09555
3.854	14.751	-13533	4406.7	-0.95892	0.2601	-0.09516
3.856	14.737	-13529	4406.4	-0.9597	0.25932	-0.094965
3.858	14.8	-13532	4406.1	-0.96048	0.25854	-0.09477
3.86	14.819	-13534	4405.9	-0.96126	0.25776	-0.094574
3.862	14.822	-13525	4405.7	-0.96204	0.25698	-0.094379
3.864	14.826	-13516	4405.5	-0.96282	0.2562	-0.094184
3.866	14.81	-13524	4405.3	-0.96312	0.2562	-0.094184
3.868	14.809	-13532	4405.2	-0.96341	0.2562	-0.094184
3.87	14.781	-13534	4405.1	-0.9637	0.2562	-0.094184
3.872	14.748	-13536	4405.2	-0.964	0.2562	-0.094184
3.874	14.736	-13534	4405.2	-0.96429	0.2562	-0.094184
3.876	14.701	-13532	4405.4	-0.96507	0.25698	-0.095258
3.878	14.669	-13533	4405.6	-0.96585	0.25776	-0.096331
3.88	14.675	-13533	4405.7	-0.96663	0.25854	-0.097405
3.882	14.713	-13532	4405.7	-0.96741	0.25932	-0.098478
3.884	14.733	-13530	4405.7	-0.96819	0.2601	-0.099552
3.886	14.72	-13534	4405.6	-0.9677	0.25952	-0.098771
3.888	14.747	-13537	4405.5	-0.96722	0.25893	-0.09799
3.89	14.754	-13537	4405.3	-0.96673	0.25835	-0.09721
3.892	14.757	-13537	4405.2	-0.96624	0.25776	-0.096429
3.894	14.781	-13535	4405	-0.96575	0.25718	-0.095648
3.896	14.816	-13533	4404.8	-0.96595	0.25698	-0.096429
3.898	14.854	-13533	4404.6	-0.96614	0.25679	-0.09721
3.9	14.872	-13532	4404.4	-0.96634	0.25659	-0.09799
3.902	14.92	-13530	4404.2	-0.96653	0.2564	-0.098771
3.904	14.997	-13528	4403.9	-0.96673	0.2562	-0.099552
3.906	15.075	-13533	4403.6	-0.96653	0.25708	-0.09965
3.908	15.103	-13539	4403.3	-0.96634	0.25796	-0.099747
3.91	15.103	-13535	4403	-0.96614	0.25884	-0.099845
3.912	15.128	-13531	4402.6	-0.96595	0.25971	-0.099942
3.914	15.153	-13530	4402.2	-0.96575	0.26059	-0.10004
3.916	15.154	-13529	4401.9	-0.96497	0.26137	-0.099845
3.918	15.161	-13532	4401.6	-0.96419	0.26215	-0.09965
3.92	15.193	-13534	4401.3	-0.96341	0.26293	-0.099454
3.922	15.238	-13528	4400.9	-0.96263	0.26372	-0.099259
3.924	15.264	-13521	4400.6	-0.96185	0.2645	-0.099064
3.926	15.25	-13527	4400.2	-0.96156	0.26469	-0.099454
3.928	15.235	-13533	4399.8	-0.96126	0.26489	-0.099845
3.93	15.257	-13532	4399.4	-0.96097	0.26508	-0.10024
3.932	15.265	-13532	4399	-0.96068	0.26528	-0.10063
3.934	15.262	-13532	4398.7	-0.96038	0.26547	-0.10102
3.936	15.298	-13533	4398.4	-0.96077	0.26469	-0.10111
3.938	15.31	-13534	4398.1	-0.96116	0.26391	-0.10121
3.94	15.292	-13535	4397.9	-0.96156	0.26313	-0.10131
3.942	15.279	-13534	4397.7	-0.96195	0.26235	-0.10141
3.944	15.258	-13534	4397.5	-0.96234	0.26157	-0.1015
3.946	15.258	-13530	4397.4	-0.96136	0.26176	-0.1016
3.948	15.268	-13526	4397.2	-0.96038	0.26196	-0.1017
3.95	15.237	-13529	4397.2	-0.95941	0.26215	-0.1018
3.952	15.241	-13532	4397.1	-0.95843	0.26235	-0.10189
3.954	15.225	-13534	4397	-0.95746	0.26254	-0.10199
3.956	15.235	-13536	4397	-0.95833	0.26167	-0.1018
3.958	15.25	-13536	4396.9	-0.95921	0.26079	-0.1016
3.96	15.267	-13537	4396.9	-0.96009	0.25991	-0.10141
3.962	15.289	-13538	4396.9	-0.96097	0.25903	-0.10121
3.964	15.258	-13539	4396.9	-0.96185	0.25815	-0.10102
3.966	15.255	-13537	4397	-0.96292	0.25796	-0.10053
3.968	15.264	-13535	4397.1	-0.964	0.25776	-0.10004
3.97	15.275	-13532	4397.1	-0.96507	0.25757	-0.099552
3.972	15.287	-13529	4397.1	-0.96614	0.25737	-0.099064
3.974	15.284	-13532	4397.1	-0.96722	0.25718	-0.098576
3.976	15.268	-13535	4396.9	-0.96722	0.2564	-0.097893
3.978	15.256	-13530	4396.8	-0.96722	0.25561	-0.09721
3.98	15.245	-13524	4396.7	-0.96722	0.25483	-0.096526
3.982	15.257	-13524	4396.5	-0.96722	0.25405	-0.095843
3.984	15.269	-13523	4396.4	-0.96722	0.25327	-0.09516
3.986	15.25	-13528	4396.3	-0.96644	0.25259	-0.09516
3.988	15.225	-13533	4396.1	-0.96565	0.25191	-0.09516
3.99	15.217	-13537	4396	-0.96487	0.25122	-0.09516
3.992	15.196	-13542	4395.8	-0.96409	0.25054	-0.09516
3.994	15.182	-13541	4395.6	-0.96331	0.24986	-0.09516
3.996	15.207	-13540	4395.3	-0.96263	0.25054	-0.094477
3.998	15.232	-13540	4395	-0.96195	0.25122	-0.093794
4	15.223	-13539	4394.6	-0.96126	0.25191	-0.09311
4.002	15.218	-13538	4394.2	-0.96058	0.25259	-0.092427
4.004	15.23	-13536	4393.8	-0.9599	0.25327	-0.091744
4.006	15.237	-13533	4393.3	-0.96058	0.25366	-0.092525
4.008	15.227	-13530	4392.8	-0.96126	0.25405	-0.093306
4.01	15.202	-13529	4392.3	-0.96195	0.25444	-0.094086
4.012	15.197	-13527	4391.9	-0.96263	0.25483	-0.094867
4.014	15.231	-13529	4391.4	-0.96331	0.25522	-0.095648
4.016	15.271	-13532	4391.1	-0.96321	0.25483	-0.095746
4.018	15.27	-13532	4390.7	-0.96312	0.25444	-0.095843
4.02	15.246	-13532	4390.5	-0.96302	0.25405	-0.095941
4.022	15.221	-13529	4390.3	-0.96292	0.25366	-0.096038
4.024	15.205	-13525	4390.1	-0.96282	0.25327	-0.096136
4.026	15.212	-13527	4389.8	-0.96234	0.25415	-0.095746
4.028	15.21	-13529	4389.6	-0.96185	0.25503	-0.095355
4.03	15.201	-13530	4389.5	-0.96136	0.25591	-0.094965
4.032	15.209	-13532	4389.4	-0.96087	0.25679	-0.094574
4.034	15.207	-13533	4389.4	-0.96038	0.25766	-0.094184
4.036	15.194	-13534	4389.3	-0.96136	0.25747	-0.094184
4.038	15.192	-13533	4389.2	-0.96234	0.25727	-0.094184
4.04	15.224	-13533	4389.2	-0.96331	0.25708	-0.094184
4.042	15.252	-13529	4389.1	-0.96429	0.25688	-0.094184
4.044	15.201	-13525	4389.1	-0.96526	0.25669	-0.094184
4.046	15.182	-13525	4389.1	-0.96517	0.25679	-0.094477
4.048	15.22	-13526	4389.1	-0.96507	0.25688	-0.09477
4.05	15.221	-13531	4389.2	-0.96497	0.25698	-0.095062
4.052	15.233	-13536	4389.4	-0.96487	0.25708	-0.095355
4.054	15.241	-13535	4389.6	-0.96478	0.25718	-0.095648
4.056	15.238	-13534	4390	-0.96517	0.25698	-0.095355
4.058	15.233	-13533	4390.5	-0.96556	0.25679	-0.095062
4.06	15.247	-13532	4390.9	-0.96595	0.25659	-0.09477
4.062	15.234	-13531	4391.3	-0.96634	0.2564	-0.094477
4.064	15.237	-13530	4391.6	-0.96673	0.2562	-0.094184
4.066	15.262	-13534	4392	-0.96634	0.25688	-0.09477
4.068	15.263	-13537	4392.4	-0.96595	0.25757	-0.095355
4.07	15.238	-13540	4392.8	-0.96556	0.25825	-0.095941
4.072	15.205	-13543	4393.3	-0.96517	0.25893	-0.096526
4.074	15.196	-13539	4393.7	-0.96478	0.25962	-0.097112
4.076	15.19	-13536	4394.3	-0.96497	0.25923	-0.097307
4.078	15.189	-13532	4394.8	-0.96517	0.25884	-0.097502
4.08	15.211	-13529	4395.3	-0.96536	0.25844	-0.097698
4.082	15.257	-13533	4395.8	-0.96556	0.25805	-0.097893
4.084	15.304	-13536	4396.2	-0.96575	0.25766	-0.098088
4.086	15.312	-13548	4396.8	-0.96585	0.25776	-0.097795
4.088	15.292	-13561	4397.3	-0.96595	0.25786	-0.097502
4.09	15.275	-13559	4397.9	-0.96604	0.25796	-0.09721
4.092	15.267	-13558	4398.4	-0.96614	0.25805	-0.096917
4.094	15.26	-13557	4399	-0.96624	0.25815	-0.096624
4.096	15.244	-13556	4399.5	-0.96634	0.25776	-0.097014
4.098	15.221	-13553	4400	-0.96644	0.25737	-0.097405
4.1	15.192	-13551	4400.5	-0.96653	0.25698	-0.097795
4.102	15.177	-13547	4401	-0.96663	0.25659	-0.098186
4.104	15.179	-13542	4401.5	-0.96673	0.2562	-0.098576
4.106	15.2	-13542	4402	-0.96556	0.256	-0.098381
4.108	15.198	-13543	4402.5	-0.96439	0.25581	-0.098186
4.11	15.193	-13546	4402.9	-0.96321	0.25561	-0.09799
4.112	15.198	-13549	4403.4	-0.96204	0.25542	-0.097795
4.114	15.19	-13550	4403.8	-0.96087	0.25522	-0.0976
4.116	15.164	-13550	4404.3	-0.96175	0.25483	-0.097502
4.118	15.137	-13546	4404.7	-0.96263	0.25444	-0.097405
4.12	15.096	-13541	4405.3	-0.96351	0.25405	-0.097307
4.122	15.084	-13537	4405.9	-0.96439	0.25366	-0.09721
4.124	15.084	-13534	4406.5	-0.96526	0.25327	-0.097112
4.126	15.057	-13526	4407.2	-0.96565	0.25386	-0.096917
4.128	15.116	-13519	4407.9	-0.96604	0.25444	-0.096722
4.13	15.174	-13529	4408.7	-0.96644	0.25503	-0.096526
4.132	15.165	-13538	4409.5	-0.96683	0.25561	-0.096331
4.134	15.164	-13532	4410.3	-0.96722	0.2562	-0.096136
4.136	15.2	-13526	4411.2	-0.96673	0.256	-0.096722
4.138	15.177	-13531	4412.1	-0.96624	0.25581	-0.097307
4.14	15.19	-13537	4412.9	-0.96575	0.25561	-0.097893
4.142	15.186	-13535	4413.8	-0.96526	0.25542	-0.098478
4.144	15.176	-13533	4414.6	-0.96478	0.25522	-0.099064
4.146	15.145	-13532	4415.4	-0.96468	0.25591	-0.09965
4.148	15.135	-13531	4416.1	-0.96458	0.25659	-0.10024
4.15	15.152	-13531	4416.9	-0.96448	0.25727	-0.10082
4.152	15.19	-13532	4417.6	-0.96439	0.25796	-0.10141
4.154	15.213	-13531	4418.4	-0.96429	0.25864	-0.10199
4.156	15.18	-13530	4419	-0.96331	0.25971	-0.10209
4.158	15.159	-13531	4419.6	-0.96234	0.26079	-0.10219
4.16	15.196	-13533	4420.1	-0.96136	0.26186	-0.10228
4.162	15.21	-13538	4420.6	-0.96038	0.26293	-0.10238
4.164	15.212	-13543	4421.1	-0.95941	0.26401	-0.10248
4.166	15.237	-13536	4421.5	-0.9598	0.26284	-0.10141
4.168	15.233	-13529	4421.9	-0.96019	0.26167	-0.10033
4.17	15.219	-13532	4422.3	-0.96058	0.26049	-0.099259
4.172	15.197	-13534	4422.6	-0.96097	0.25932	-0.098186
4.174	15.183	-13536	4423	-0.96136	0.25815	-0.097112
4.176	15.198	-13539	4423.3	-0.96214	0.25766	-0.097014
4.178	15.205	-13536	4423.6	-0.96292	0.25718	-0.096917
4.18	15.198	-13532	4423.9	-0.9637	0.25669	-0.096819
4.182	15.197	-13537	4424.1	-0.96448	0.2562	-0.096722
4.184	15.203	-13542	4424.3	-0.96526	0.25571	-0.096624
4.186	15.218	-13538	4424.4	-0.96604	0.25659	-0.09721
4.188	15.239	-13534	4424.5	-0.96683	0.25747	-0.097795
4.19	15.242	-13532	4424.5	-0.96761	0.25835	-0.098381
4.192	15.248	-13531	4424.5	-0.96839	0.25923	-0.098966
4.194	15.244	-13535	4424.5	-0.96917	0.2601	-0.099552
4.196	15.232	-13539	4424.3	-0.96829	0.25913	-0.098283
4.198	15.213	-13543	4424.1	-0.96741	0.25815	-0.097014
4.2	15.179	-13547	4423.8	-0.96653	0.25718	-0.095746
4.202	15.184	-13539	4423.5	-0.96565	0.2562	-0.094477
4.204	15.21	-13532	4423.1	-0.96478	0.25522	-0.093208
4.206	15.213	-13532	4422.7	-0.9638	0.2561	-0.093794
4.208	15.204	-13532	4422.3	-0.96282	0.25698	-0.094379
4.21	15.194	-13526	4421.9	-0.96185	0.25786	-0.094965
4.212	15.217	-13520	4421.4	-0.96087	0.25874	-0.09555
4.214	15.204	-13520	4420.9	-0.9599	0.25962	-0.096136
4.216	15.161	-13520	4420.4	-0.96038	0.25913	-0.096331
4.218	15.172	-13518	4419.9	-0.96087	0.25864	-0.096526
4.22	15.246	-13515	4419.5	-0.96136	0.25815	-0.096722
4.222	15.253	-13517	4419.1	-0.96185	0.25766	-0.096917
4.224	15.246	-13518	4418.8	-0.96234	0.25718	-0.097112
4.226	15.226	-13521	4418.4	-0.96292	0.25688	-0.096722
4.228	15.199	-13524	4418	-0.96351	0.25659	-0.096331
4.23	15.197	-13524	4417.7	-0.96409	0.2563	-0.095941
4.232	15.235	-13524	4417.4	-0.96468	0.256	-0.09555
4.234	15.243	-13523	4417.1	-0.96526	0.25571	-0.09516
4.236	15.246	-13523	4416.8	-0.96507	0.25522	-0.095062
4.238	15.255	-13527	4416.4	-0.96487	0.25474	-0.094965
4.24	15.237	-13532	4416.1	-0.96468	0.25425	-0.094867
4.242	15.212	-13532	4415.7	-0.96448	0.25376	-0.09477
4.244	15.21	-13531	4415.4	-0.96429	0.25327	-0.094672
4.246	15.209	-13528	4415	-0.96429	0.25298	-0.094379
4.248	15.227	-13524	4414.5	-0.96429	0.25269	-0.094086
4.25	15.22	-13535	4414.1	-0.96429	0.25239	-0.093794
4.252	15.218	-13546	4413.6	-0.96429	0.2521	-0.093501
4.254	15.221	-13544	4413.2	-0.96429	0.25181	-0.093208
4.256	15.222	-13542	4412.7	-0.9638	0.25181	-0.093013
4.258	15.217	-13533	4412.3	-0.96331	0.25181	-0.092818
4.26	15.209	-13523	4411.8	-0.96282	0.25181	-0.092622
4.262	15.214	-13528	4411.4	-0.96234	0.25181	-0.092427
4.264	15.242	-13533	4411	-0.96185	0.25181	-0.092232
4.266	15.256	-13531	4410.6	-0.96234	0.2522	-0.092525
4.268	15.225	-13529	4410.3	-0.96282	0.25259	-0.092818
4.27	15.184	-13523	4409.9	-0.96331	0.25298	-0.09311
4.272	15.175	-13516	4409.6	-0.9638	0.25337	-0.093403
4.274	15.208	-13522	4409.2	-0.96429	0.25376	-0.093696
4.276	15.246	-13527	4408.8	-0.964	0.25356	-0.093501
4.278	15.248	-13527	4408.4	-0.9637	0.25337	-0.093306
4.28	15.237	-13527	4408	-0.96341	0.25317	-0.09311
4.282	15.237	-13525	4407.5	-0.96312	0.25298	-0.092915
4.284	15.223	-13523	4407	-0.96282	0.25278	-0.09272
4.286	15.209	-13522	4406.5	-0.96351	0.25278	-0.09272
4.288	15.185	-13521	4406	-0.96419	0.25278	-0.09272
4.29	15.166	-13523	4405.6	-0.96487	0.25278	-0.09272
4.292	15.193	-13526	4405.1	-0.96556	0.25278	-0.09272
4.294	15.2	-13523	4404.7	-0.96624	0.25278	-0.09272
4.296	15.205	-13520	4404.3	-0.96624	0.25327	-0.093208
4.298	15.253	-13522	4403.9	-0.96624	0.25376	-0.093696
4.3	15.269	-13524	4403.5	-0.96624	0.25425	-0.094184
4.302	15.257	-13523	4403.2	-0.96624	0.25474	-0.094672
4.304	15.212	-13522	4402.9	-0.96624	0.25522	-0.09516
4.306	15.197	-13520	4402.7	-0.96565	0.25513	-0.095258
4.308	15.199	-13518	4402.5	-0.96507	0.25503	-0.095355
4.31	15.189	-13523	4402.4	-0.96448	0.25493	-0.095453
4.312	15.163	-13529	4402.3	-0.9639	0.25483	-0.09555
4.314	15.154	-13530	4402.2	-0.96331	0.25474	-0.095648
4.316	15.171	-13530	4402.1	-0.96429	0.25571	-0.096234
4.318	15.197	-13533	4402	-0.96526	0.25669	-0.096819
4.32	15.213	-13535	4402	-0.96624	0.25766	-0.097405
4.322	15.194	-13532	4402	-0.96722	0.25864	-0.09799
4.324	15.199	-13530	4402	-0.96819	0.25962	-0.098576
4.326	15.226	-13527	4402.1	-0.9679	0.25952	-0.099064
4.328	15.223	-13524	4402.1	-0.96761	0.25942	-0.099552
4.33	15.215	-13525	4402.1	-0.96731	0.25932	-0.10004
4.332	15.217	-13525	4402.2	-0.96702	0.25923	-0.10053
4.334	15.214	-13526	4402.2	-0.96673	0.25913	-0.10102
4.336	15.199	-13526	4402.2	-0.96575	0.25835	-0.099454
4.338	15.188	-13527	4402.3	-0.96478	0.25757	-0.097893
4.34	15.178	-13528	4402.3	-0.9638	0.25679	-0.096331
4.342	15.173	-13530	4402.3	-0.96282	0.256	-0.09477
4.344	15.169	-13532	4402.3	-0.96185	0.25522	-0.093208
4.346	15.162	-13527	4402.2	-0.96126	0.25542	-0.093403
4.348	15.154	-13522	4402.1	-0.96068	0.25561	-0.093598
4.35	15.137	-13523	4402.1	-0.96009	0.25581	-0.093794
4.352	15.106	-13524	4402	-0.95951	0.256	-0.093989
4.354	15.086	-13523	4401.9	-0.95892	0.2562	-0.094184
4.356	15.096	-13522	4401.8	-0.95902	0.2564	-0.093403
4.358	15.111	-13521	4401.7	-0.95912	0.25659	-0.092622
4.36	15.12	-13521	4401.6	-0.95921	0.25679	-0.091842
4.362	15.13	-13525	4401.5	-0.95931	0.25698	-0.091061
4.364	15.133	-13528	4401.4	-0.95941	0.25718	-0.09028
4.366	15.132	-13528	4401.2	-0.95999	0.25649	-0.091744
4.368	15.135	-13527	4400.9	-0.96058	0.25581	-0.093208
4.37	15.13	-13526	4400.7	-0.96116	0.25513	-0.094672
4.372	15.126	-13525	4400.5	-0.96175	0.25444	-0.096136
4.374	15.129	-13524	4400.2	-0.96234	0.25376	-0.0976
4.376	15.117	-13524	4399.9	-0.96234	0.25444	-0.097307
4.378	15.136	-13526	4399.7	-0.96234	0.25513	-0.097014
4.38	15.149	-13528	4399.4	-0.96234	0.25581	-0.096722
4.382	15.176	-13520	4399.2	-0.96234	0.25649	-0.096429
4.384	15.204	-13513	4398.9	-0.96234	0.25718	-0.096136
4.386	15.2	-13519	4398.7	-0.96341	0.25659	-0.095941
4.388	15.185	-13524	4398.5	-0.96448	0.256	-0.095746
4.39	15.24	-13524	4398.4	-0.96556	0.25542	-0.09555
4.392	15.276	-13524	4398.2	-0.96663	0.25483	-0.095355
4.394	15.252	-13524	4398	-0.9677	0.25425	-0.09516
4.396	15.235	-13524	4397.9	-0.96673	0.25444	-0.094867
4.398	15.223	-13525	4397.7	-0.96575	0.25464	-0.094574
4.4	15.198	-13527	4397.6	-0.96478	0.25483	-0.094282
4.402	15.194	-13524	4397.5	-0.9638	0.25503	-0.093989
4.404	15.232	-13522	4397.4	-0.96282	0.25522	-0.093696
4.406	15.256	-13523	4397.6	-0.96302	0.25444	-0.093989
4.408	15.256	-13523	4397.7	-0.96321	0.25366	-0.094282
4.41	15.221	-13524	4397.9	-0.96341	0.25288	-0.094574
4.412	15.182	-13525	4398	-0.9636	0.2521	-0.094867
4.414	15.189	-13531	4398.2	-0.9638	0.25132	-0.09516
4.416	15.242	-13537	4398.4	-0.96448	0.25249	-0.095941
4.418	15.268	-13531	4398.5	-0.96517	0.25366	-0.096722
4.42	15.265	-13524	4398.7	-0.96585	0.25483	-0.097502
4.422	15.246	-13527	4398.7	-0.96653	0.256	-0.098283
4.424	15.253	-13530	4398.8	-0.96722	0.25718	-0.099064
4.426	15.269	-13530	4398.8	-0.96731	0.25708	-0.098283
4.428	15.269	-13530	4398.8	-0.96741	0.25698	-0.097502
4.43	15.277	-13526	4398.8	-0.96751	0.25688	-0.096722
4.432	15.274	-13523	4398.8	-0.96761	0.25679	-0.095941
4.434	15.258	-13524	4398.8	-0.9677	0.25669	-0.09516
4.436	15.249	-13524	4398.7	-0.96624	0.25698	-0.095062
4.438	15.242	-13526	4398.5	-0.96478	0.25727	-0.094965
4.44	15.242	-13528	4398.4	-0.96331	0.25757	-0.094867
4.442	15.227	-13527	4398.4	-0.96185	0.25786	-0.09477
4.444	15.212	-13527	4398.3	-0.96038	0.25815	-0.094672
4.446	15.239	-13523	4398.1	-0.96068	0.25747	-0.094867
4.448	15.272	-13520	4397.9	-0.96097	0.25679	-0.095062
4.45	15.27	-13528	4397.7	-0.96126	0.2561	-0.095258
4.452	15.251	-13537	4397.5	-0.96156	0.25542	-0.095453
4.454	15.232	-13533	4397.2	-0.96185	0.25474	-0.095648
4.456	15.239	-13529	4396.9	-0.96243	0.25483	-0.096038
4.458	15.241	-13527	4396.6	-0.96302	0.25493	-0.096429
4.46	15.238	-13525	4396.3	-0.9636	0.25503	-0.096819
4.462	15.249	-13527	4396.1	-0.96419	0.25513	-0.09721
4.464	15.238	-13528	4395.9	-0.96478	0.25522	-0.0976
4.466	15.242	-13529	4395.6	-0.9638	0.25649	-0.0976
4.468	15.245	-13531	4395.3	-0.96282	0.25776	-0.0976
4.47	15.23	-13528	4395	-0.96185	0.25903	-0.0976
4.472	15.214	-13526	4394.6	-0.96087	0.2603	-0.0976
4.474	15.247	-13530	4394.2	-0.9599	0.26157	-0.0976
4.476	15.291	-13534	4393.9	-0.9597	0.26235	-0.098381
4.478	15.264	-13533	4393.5	-0.95951	0.26313	-0.099162
4.48	15.225	-13532	4393.2	-0.95931	0.26391	-0.099942
4.482	15.212	-13530	4392.9	-0.95912	0.26469	-0.10072
4.484	15.212	-13528	4392.6	-0.95892	0.26547	-0.1015
4.486	15.223	-13531	4392.4	-0.9597	0.2642	-0.10131
4.488	15.216	-13534	4392.1	-0.96048	0.26293	-0.10111
4.49	15.176	-13534	4392	-0.96126	0.26167	-0.10092
4.492	15.16	-13534	4391.9	-0.96204	0.2604	-0.10072
4.494	15.156	-13531	4391.8	-0.96282	0.25913	-0.10053
4.496	15.21	-13528	4391.9	-0.96273	0.25893	-0.10082
4.498	15.261	-13531	4392	-0.96263	0.25874	-0.10111
4.5	15.235	-13534	4392.1	-0.96253	0.25854	-0.10141
4.502	15.187	-13533	4392.2	-0.96243	0.25835	-0.1017
4.504	15.161	-13532	4392.3	-0.96234	0.25815	-0.10199
4.506	15.135	-13530	4392.3	-0.96341	0.25805	-0.1017
4.508	15.121	-13528	4392.3	-0.96448	0.25796	-0.10141
4.51	15.077	-13527	4392.4	-0.96556	0.25786	-0.10111
4.512	15.009	-13526	4392.4	-0.96663	0.25776	-0.10082
4.514	14.928	-13529	4392.5	-0.9677	0.25766	-0.10053
4.516	14.844	-13531	4392.7	-0.96712	0.25766	-0.099942
4.518	14.788	-13532	4392.8	-0.96653	0.25766	-0.099357
4.52	14.745	-13532	4392.9	-0.96595	0.25766	-0.098771
4.522	14.709	-13529	4393.1	-0.96536	0.25766	-0.098186
