t	ekg	optical	pressure	accel_x	accel_y	accel_z
0	15.131	-19068	3497.3	-0.0976	0.97112	0.18154
0.002	15.117	-19068	3495.6	-0.097795	0.97122	0.18271
0.004	15.114	-19069	3493.9	-0.09799	0.97132	0.18388
0.006	15.115	-19063	3492.2	-0.098186	0.97141	0.18505
0.008	15.1	-19056	3490.3	-0.098381	0.97151	0.18622
0.01	15.078	-19058	3488.5	-0.098576	0.97161	0.18739
0.012	15.085	-19059	3486.7	-0.097502	0.97132	0.1872
0.014	15.128	-19062	3484.9	-0.096429	0.97102	0.187
0.016	15.152	-19066	3483.1	-0.095355	0.97073	0.18681
0.018	15.136	-19058	3481.2	-0.094282	0.97044	0.18661
0.02	15.107	-19049	3479.3	-0.093208	0.97014	0.18642
0.022	15.085	-19056	3477.4	-0.093989	0.96956	0.1871
0.024	15.091	-19062	3475.5	-0.09477	0.96897	0.18778
0.026	15.11	-19064	3473.5	-0.09555	0.96839	0.18847
0.028	15.124	-19066	3471.5	-0.096331	0.9678	0.18915
0.03	15.14	-19064	3469.5	-0.097112	0.96722	0.18983
0.032	15.147	-19062	3467.5	-0.097893	0.96741	0.19032
0.034	15.139	-19062	3465.5	-0.098674	0.96761	0.19081
0.036	15.122	-19062	3463.5	-0.099454	0.9678	0.1913
0.038	15.097	-19063	3461.3	-0.10024	0.968	0.19178
0.04	15.075	-19064	3459.2	-0.10102	0.96819	0.19227
0.042	15.1	-19063	3457	-0.10189	0.9678	0.19305
0.044	15.136	-19062	3454.8	-0.10277	0.96741	0.19383
0.046	15.138	-19059	3452.6	-0.10365	0.96702	0.19461
0.048	15.102	-19057	3450.4	-0.10453	0.96663	0.1954
0.05	15.104	-19047	3448.2	-0.10541	0.96624	0.19618
0.052	15.116	-19037	3445.8	-0.1058	0.96741	0.19793
0.054	15.148	-19038	3443.5	-0.10619	0.96858	0.19969
0.056	15.131	-19038	3441.2	-0.10658	0.96975	0.20145
0.058	15.176	-19046	3438.8	-0.10697	0.97092	0.2032
0.06	15.194	-19053	3436.4	-0.10736	0.9721	0.20496
0.062	15.153	-19053	3433.9	-0.10668	0.97102	0.20379
0.064	15.119	-19053	3431.5	-0.10599	0.96995	0.20262
0.066	15.102	-19053	3429.1	-0.10531	0.96888	0.20145
0.068	15.114	-19054	3426.8	-0.10463	0.9678	0.20028
0.07	15.108	-19055	3424.5	-0.10394	0.96673	0.1991
0.072	15.124	-19056	3422	-0.10453	0.96751	0.20047
0.074	15.164	-19050	3419.5	-0.10512	0.96829	0.20184
0.076	15.128	-19045	3417	-0.1057	0.96907	0.2032
0.078	15.125	-19043	3414.7	-0.10629	0.96985	0.20457
0.08	15.128	-19041	3412.3	-0.10687	0.97063	0.20594
0.082	15.102	-19046	3410	-0.10697	0.97092	0.20672
0.084	15.053	-19050	3407.6	-0.10707	0.97122	0.2075
0.086	15.097	-19050	3405.3	-0.10716	0.97151	0.20828
0.088	15.166	-19050	3403.1	-0.10726	0.9718	0.20906
0.09	15.116	-19047	3400.9	-0.10736	0.9721	0.20984
0.092	15.096	-19044	3398.7	-0.10726	0.97297	0.20877
0.094	15.149	-19048	3396.5	-0.10716	0.97385	0.20769
0.096	15.168	-19053	3394.4	-0.10707	0.97473	0.20662
0.098	15.151	-19051	3392.4	-0.10697	0.97561	0.20555
0.1	15.152	-19049	3390.3	-0.10687	0.97649	0.20447
0.102	15.154	-19047	3388.5	-0.10668	0.97561	0.20428
0.104	15.141	-19046	3386.7	-0.10648	0.97473	0.20408
0.106	15.154	-19045	3385	-0.10629	0.97385	0.20389
0.108	15.145	-19044	3383.4	-0.10609	0.97297	0.20369
0.11	15.12	-19046	3381.7	-0.1059	0.9721	0.2035
0.112	15.132	-19049	3380.4	-0.10736	0.97307	0.20203
0.114	15.131	-19043	3379	-0.10882	0.97405	0.20057
0.116	15.12	-19036	3377.7	-0.11029	0.97502	0.1991
0.118	15.142	-19041	3376.6	-0.11175	0.976	0.19764
0.12	15.16	-19045	3375.5	-0.11322	0.97698	0.19618
0.122	15.137	-19046	3374.6	-0.11283	0.97688	0.19579
0.124	15.111	-19047	3373.6	-0.11244	0.97678	0.1954
0.126	15.121	-19044	3372.8	-0.11204	0.97668	0.195
0.128	15.137	-19040	3372.1	-0.11165	0.97659	0.19461
0.13	15.171	-19041	3371.5	-0.11126	0.97649	0.19422
0.132	15.17	-19042	3371	-0.11068	0.97541	0.19364
0.134	15.167	-19042	3370.5	-0.11009	0.97434	0.19305
0.136	15.172	-19042	3370.1	-0.10951	0.97327	0.19247
0.138	15.145	-19038	3369.8	-0.10892	0.97219	0.19188
0.14	15.151	-19034	3369.5	-0.10834	0.97112	0.1913
0.142	15.17	-19038	3369.4	-0.10951	0.97083	0.19003
0.144	15.156	-19043	3369.3	-0.11068	0.97053	0.18876
0.146	15.139	-19045	3369.3	-0.11185	0.97024	0.18749
0.148	15.132	-19047	3369.3	-0.11302	0.96995	0.18622
0.15	15.12	-19047	3369.4	-0.11419	0.96966	0.18495
0.152	15.134	-19047	3369.5	-0.1137	0.96936	0.18534
0.154	15.101	-19044	3369.7	-0.11322	0.96907	0.18573
0.156	15.081	-19041	3369.8	-0.11273	0.96878	0.18612
0.158	15.152	-19035	3370	-0.11224	0.96848	0.18651
0.16	15.115	-19028	3370.2	-0.11175	0.96819	0.1869
0.162	15.077	-19034	3370.5	-0.11224	0.96858	0.1869
0.164	15.144	-19041	3370.7	-0.11273	0.96897	0.1869
0.166	15.118	-19035	3370.9	-0.11322	0.96936	0.1869
0.168	15.102	-19029	3371.2	-0.1137	0.96975	0.1869
0.17	15.144	-19037	3371.4	-0.11419	0.97014	0.1869
0.172	15.098	-19045	3371.8	-0.1138	0.96897	0.18573
0.174	15.097	-19047	3372.1	-0.11341	0.9678	0.18456
0.176	15.099	-19048	3372.3	-0.11302	0.96663	0.18339
0.178	15.106	-19040	3372.4	-0.11263	0.96546	0.18222
0.18	15.129	-19033	3372.6	-0.11224	0.96429	0.18105
0.182	15.187	-19036	3372.6	-0.11283	0.96321	0.18134
0.184	15.15	-19040	3372.7	-0.11341	0.96214	0.18163
0.186	15.1	-19041	3372.8	-0.114	0.96107	0.18193
0.188	15.103	-19042	3372.9	-0.11458	0.95999	0.18222
0.19	15.1	-19039	3373.1	-0.11517	0.95892	0.18251
0.192	15.096	-19036	3373.1	-0.11546	0.95843	0.1831
0.194	15.093	-19035	3373.1	-0.11575	0.95794	0.18368
0.196	15.086	-19035	3373	-0.11605	0.95746	0.18427
0.198	15.078	-19032	3373	-0.11634	0.95697	0.18485
0.2	15.085	-19029	3372.9	-0.11663	0.95648	0.18544
0.202	15.109	-19037	3372.8	-0.11673	0.95619	0.18505
0.204	15.116	-19044	3372.7	-0.11683	0.95589	0.18466
0.206	15.109	-19038	3372.6	-0.11692	0.9556	0.18427
0.208	15.1	-19031	3372.5	-0.11702	0.95531	0.18388
0.21	15.103	-19031	3372.4	-0.11712	0.95502	0.18349
0.212	15.097	-19030	3372.3	-0.11683	0.95502	0.1829
0.214	15.103	-19036	3372.1	-0.11653	0.95502	0.18232
0.216	15.135	-19041	3372	-0.11624	0.95502	0.18173
0.218	15.158	-19040	3371.8	-0.11595	0.95502	0.18115
0.22	15.16	-19038	3371.7	-0.11566	0.95502	0.18056
0.222	15.17	-19032	3371.4	-0.11497	0.95511	0.18046
0.224	15.178	-19026	3371.2	-0.11429	0.95521	0.18036
0.226	15.151	-19030	3370.9	-0.11361	0.95531	0.18027
0.228	15.16	-19034	3370.6	-0.11292	0.95541	0.18017
0.23	15.167	-19033	3370.4	-0.11224	0.9555	0.18007
0.232	15.14	-19032	3370.1	-0.11195	0.95502	0.17988
0.234	15.124	-19028	3369.8	-0.11165	0.95453	0.17968
0.236	15.15	-19025	3369.4	-0.11136	0.95404	0.17949
0.238	15.163	-19036	3369.1	-0.11107	0.95355	0.17929
0.24	15.151	-19047	3368.8	-0.11078	0.95306	0.1791
0.242	15.165	-19041	3368.4	-0.10892	0.95306	0.17812
0.244	15.213	-19034	3368.1	-0.10707	0.95306	0.17714
0.246	15.203	-19037	3367.7	-0.10521	0.95306	0.17617
0.248	15.184	-19040	3367.2	-0.10336	0.95306	0.17519
0.25	15.161	-19038	3366.8	-0.1015	0.95306	0.17422
0.252	15.112	-19037	3366.3	-0.10082	0.95472	0.17461
0.254	15.087	-19035	3365.9	-0.10014	0.95638	0.175
0.256	15.115	-19033	3365.4	-0.099454	0.95804	0.17539
0.258	15.251	-19035	3364.8	-0.098771	0.9597	0.17578
0.26	15.259	-19038	3364.3	-0.098088	0.96136	0.17617
0.262	15.208	-19040	3363.8	-0.098381	0.96175	0.1748
0.264	15.184	-19041	3363.2	-0.098674	0.96214	0.17344
0.266	15.179	-19040	3362.7	-0.098966	0.96253	0.17207
0.268	15.186	-19038	3362.2	-0.099259	0.96292	0.1707
0.27	15.19	-19036	3361.8	-0.099552	0.96331	0.16934
0.272	15.171	-19033	3361.2	-0.099162	0.9636	0.17021
0.274	15.16	-19035	3360.6	-0.098771	0.9639	0.17109
0.276	15.179	-19037	3360	-0.098381	0.96419	0.17197
0.278	15.197	-19036	3359.4	-0.09799	0.96448	0.17285
0.28	15.183	-19034	3358.8	-0.0976	0.96478	0.17373
0.282	15.148	-19028	3358.2	-0.098088	0.96487	0.1748
0.284	15.134	-19023	3357.6	-0.098576	0.96497	0.17588
0.286	15.162	-19025	3357	-0.099064	0.96507	0.17695
0.288	15.183	-19028	3356.5	-0.099552	0.96517	0.17802
0.29	15.156	-19028	3355.9	-0.10004	0.96526	0.1791
0.292	15.145	-19029	3355.3	-0.097014	0.96507	0.179
0.294	15.189	-19029	3354.6	-0.093989	0.96487	0.1789
0.296	15.211	-19028	3354	-0.090963	0.96468	0.1788
0.298	15.153	-19029	3353.5	-0.087938	0.96448	0.17871
0.3	15.129	-19031	3352.9	-0.084912	0.96429	0.17861
0.302	15.144	-19030	3352.5	-0.0854	0.964	0.17812
0.304	15.149	-19030	3352.1	-0.085888	0.9637	0.17763
0.306	15.158	-19030	3351.6	-0.086376	0.96341	0.17714
0.308	15.148	-19030	3351.2	-0.086864	0.96312	0.17666
0.31	15.157	-19032	3350.8	-0.087352	0.96282	0.17617
0.312	15.15	-19035	3350.5	-0.089206	0.96351	0.17792
0.314	15.137	-19035	3350.1	-0.091061	0.96419	0.17968
0.316	15.15	-19036	3349.8	-0.092915	0.96487	0.18144
0.318	15.194	-19033	3349.4	-0.09477	0.96556	0.1832
0.32	15.237	-19030	3349.1	-0.096624	0.96624	0.18495
0.322	15.224	-19030	3348.7	-0.094965	0.96604	0.18524
0.324	15.173	-19029	3348.4	-0.093306	0.96585	0.18554
0.326	15.187	-19029	3348.1	-0.091646	0.96565	0.18583
0.328	15.16	-19029	3347.9	-0.089987	0.96546	0.18612
0.33	15.161	-19032	3347.6	-0.088328	0.96526	0.18642
0.332	15.174	-19035	3347.3	-0.089206	0.96595	0.1869
0.334	15.192	-19033	3347.1	-0.090085	0.96663	0.18739
0.336	15.183	-19031	3346.9	-0.090963	0.96731	0.18788
0.338	15.166	-19028	3346.7	-0.091842	0.968	0.18837
0.34	15.148	-19025	3346.5	-0.09272	0.96868	0.18886
0.342	15.13	-19030	3346.3	-0.090866	0.97024	0.18944
0.344	15.094	-19036	3346.2	-0.089011	0.9718	0.19003
0.346	15.079	-19036	3346.1	-0.087157	0.97336	0.19061
0.348	15.033	-19037	3345.9	-0.085302	0.97493	0.1912
0.35	14.965	-19036	3345.7	-0.083448	0.97649	0.19178
0.352	14.915	-19034	3345.6	-0.083838	0.97688	0.19139
0.354	14.921	-19036	3345.5	-0.084229	0.97727	0.191
0.356	14.901	-19038	3345.4	-0.084619	0.97766	0.19061
0.358	14.882	-19035	3345.2	-0.08501	0.97805	0.19022
0.36	14.887	-19031	3345	-0.0854	0.97844	0.18983
0.362	14.9	-19027	3345	-0.085693	0.97795	0.19003
0.364	14.916	-19022	3344.9	-0.085986	0.97746	0.19022
0.366	14.931	-19033	3344.8	-0.086278	0.97698	0.19042
0.368	14.935	-19043	3344.7	-0.086571	0.97649	0.19061
0.37	14.939	-19039	3344.6	-0.086864	0.976	0.19081
0.372	14.944	-19035	3344.5	-0.088035	0.97629	0.19139
0.374	14.937	-19031	3344.3	-0.089206	0.97659	0.19198
0.376	14.927	-19027	3344.2	-0.090378	0.97688	0.19256
0.378	14.912	-19030	3344	-0.091549	0.97717	0.19315
0.38	14.885	-19033	3343.8	-0.09272	0.97746	0.19374
0.382	14.847	-19032	3343.6	-0.093501	0.97824	0.19237
0.384	14.846	-19030	3343.4	-0.094282	0.97903	0.191
0.386	14.855	-19030	3343.2	-0.095062	0.97981	0.18964
0.388	14.933	-19030	3342.9	-0.095843	0.98059	0.18827
0.39	15.051	-19026	3342.7	-0.096624	0.98137	0.1869
0.392	15.027	-19023	3342.4	-0.096624	0.98176	0.1872
0.394	14.953	-19024	3342.1	-0.096624	0.98215	0.18749
0.396	14.964	-19025	3341.9	-0.096624	0.98254	0.18778
0.398	14.969	-19027	3341.7	-0.096624	0.98293	0.18808
0.4	14.963	-19029	3341.6	-0.096624	0.98332	0.18837
0.402	14.974	-19028	3341.3	-0.09721	0.98312	0.18876
0.404	14.988	-19026	3341.1	-0.097795	0.98293	0.18915
0.406	14.996	-19028	3340.8	-0.098381	0.98273	0.18954
0.408	15.07	-19031	3340.6	-0.098966	0.98254	0.18993
0.41	15.072	-19027	3340.4	-0.099552	0.98234	0.19032
0.412	15.11	-19024	3340.1	-0.10053	0.98147	0.191
0.414	15.139	-19024	3339.8	-0.1015	0.98059	0.19169
0.416	15.119	-19025	3339.5	-0.10248	0.97971	0.19237
0.418	15.149	-19030	3339.2	-0.10346	0.97883	0.19305
0.42	15.164	-19035	3338.9	-0.10443	0.97795	0.19374
0.422	15.155	-19033	3338.6	-0.10677	0.97668	0.19422
0.424	15.133	-19030	3338.2	-0.10912	0.97541	0.19471
0.426	15.171	-19026	3337.9	-0.11146	0.97415	0.1952
0.428	15.182	-19022	3337.6	-0.1138	0.97288	0.19569
0.43	15.192	-19017	3337.3	-0.11614	0.97161	0.19618
0.432	15.201	-19011	3337	-0.11517	0.9719	0.19608
0.434	15.191	-19019	3336.6	-0.11419	0.97219	0.19598
0.436	15.174	-19027	3336.3	-0.11322	0.97249	0.19588
0.438	15.166	-19027	3336	-0.11224	0.97278	0.19579
0.44	15.157	-19027	3335.7	-0.11126	0.97307	0.19569
0.442	15.144	-19027	3335.3	-0.11351	0.9718	0.19588
0.444	15.168	-19028	3335	-0.11575	0.97053	0.19608
0.446	15.188	-19026	3334.6	-0.118	0.96927	0.19627
0.448	15.209	-19024	3334.3	-0.12024	0.968	0.19647
0.45	15.215	-19024	3333.9	-0.12249	0.96673	0.19666
0.452	15.179	-19024	3333.6	-0.1219	0.96722	0.19676
0.454	15.158	-19027	3333.4	-0.12132	0.9677	0.19686
0.456	15.176	-19031	3333.1	-0.12073	0.96819	0.19696
0.458	15.182	-19026	3332.7	-0.12015	0.96868	0.19705
0.46	15.173	-19021	3332.4	-0.11956	0.96917	0.19715
0.462	15.186	-19023	3332.2	-0.12073	0.97005	0.19754
0.464	15.177	-19024	3332	-0.1219	0.97092	0.19793
0.466	15.153	-19024	3331.8	-0.12307	0.9718	0.19832
0.468	15.148	-19024	3331.5	-0.12424	0.97268	0.19871
0.47	15.15	-19026	3331.3	-0.12542	0.97356	0.1991
0.472	15.146	-19028	3331.1	-0.12512	0.97395	0.19852
0.474	15.146	-19027	3331	-0.12483	0.97434	0.19793
0.476	15.15	-19026	3330.8	-0.12454	0.97473	0.19735
0.478	15.168	-19029	3330.6	-0.12424	0.97512	0.19676
0.48	15.159	-19032	3330.4	-0.12395	0.97551	0.19618
0.482	15.163	-19028	3330.3	-0.12307	0.97463	0.19666
0.484	15.197	-19023	3330.2	-0.1222	0.97376	0.19715
0.486	15.196	-19024	3330.2	-0.12132	0.97288	0.19764
0.488	15.179	-19026	3330.4	-0.12044	0.972	0.19813
0.49	15.14	-19024	3330.5	-0.11956	0.97112	0.19862
0.492	15.098	-19022	3330.8	-0.12044	0.97073	0.1991
0.494	15.114	-19015	3331.1	-0.12132	0.97034	0.19959
0.496	15.091	-19009	3331.5	-0.1222	0.96995	0.20008
0.498	15.114	-19013	3332.1	-0.12307	0.96956	0.20057
0.5	15.171	-19017	3332.7	-0.12395	0.96917	0.20106
0.502	15.149	-19016	3333.7	-0.12337	0.96888	0.20145
0.504	15.094	-19016	3334.6	-0.12278	0.96858	0.20184
0.506	15.131	-19018	3335.9	-0.1222	0.96829	0.20223
0.508	15.151	-19021	3337.4	-0.12161	0.968	0.20262
0.51	15.138	-19017	3339	-0.12102	0.9677	0.20301
0.512	15.1	-19013	3341.3	-0.12141	0.96702	0.20193
0.514	15.095	-19017	3343.6	-0.1218	0.96634	0.20086
0.516	15.142	-19020	3346.3	-0.1222	0.96565	0.19979
0.518	15.137	-19019	3349.4	-0.12259	0.96497	0.19871
0.52	15.122	-19017	3352.5	-0.12298	0.96429	0.19764
0.522	15.126	-19015	3356.5	-0.12317	0.96312	0.19764
0.524	15.129	-19012	3360.4	-0.12337	0.96195	0.19764
0.526	15.142	-19017	3364.8	-0.12356	0.96077	0.19764
0.528	15.13	-19022	3369.6	-0.12376	0.9596	0.19764
0.53	15.086	-19017	3374.3	-0.12395	0.95843	0.19764
0.532	15.102	-19012	3380	-0.12288	0.95794	0.19784
0.534	15.148	-19019	3385.6	-0.1218	0.95746	0.19803
0.536	15.137	-19027	3391.6	-0.12073	0.95697	0.19823
0.538	15.121	-19026	3398	-0.11966	0.95648	0.19842
0.54	15.127	-19025	3404.4	-0.11858	0.95599	0.19862
0.542	15.132	-19016	3411.3	-0.11771	0.95726	0.19764
0.544	15.142	-19006	3418.2	-0.11683	0.95853	0.19666
0.546	15.137	-19012	3425.2	-0.11595	0.9598	0.19569
0.548	15.145	-19019	3432.4	-0.11507	0.96107	0.19471
0.55	15.174	-19017	3439.6	-0.11419	0.96234	0.19374
0.552	15.143	-19016	3446.7	-0.11361	0.96165	0.19452
0.554	15.136	-19016	3453.8	-0.11302	0.96097	0.1953
0.556	15.137	-19017	3460.7	-0.11244	0.96029	0.19608
0.558	15.155	-19015	3467.3	-0.11185	0.9596	0.19686
0.56	15.152	-19014	3473.9	-0.11126	0.95892	0.19764
0.562	15.14	-19011	3479.8	-0.11039	0.95941	0.19647
0.564	15.145	-19007	3485.7	-0.10951	0.9599	0.1953
0.566	15.156	-19011	3491.1	-0.10863	0.96038	0.19413
0.568	15.137	-19016	3496.1	-0.10775	0.96087	0.19296
0.57	15.139	-19014	3501.1	-0.10687	0.96136	0.19178
0.572	15.126	-19011	3505.2	-0.10716	0.96077	0.19305
0.574	15.121	-19012	3509.2	-0.10746	0.96019	0.19432
0.576	15.092	-19012	3512.7	-0.10775	0.9596	0.19559
0.578	15.082	-19011	3515.7	-0.10804	0.95902	0.19686
0.58	15.092	-19010	3518.7	-0.10834	0.95843	0.19813
0.582	15.171	-19010	3520.9	-0.10853	0.95951	0.19813
0.584	15.205	-19010	3523	-0.10873	0.96058	0.19813
0.586	15.19	-19010	3524.7	-0.10892	0.96165	0.19813
0.588	15.121	-19010	3526	-0.10912	0.96273	0.19813
0.59	15.11	-19009	3527.3	-0.10931	0.9638	0.19813
0.592	15.13	-19008	3527.8	-0.1098	0.96439	0.19852
0.594	15.135	-19006	3528.3	-0.11029	0.96497	0.19891
0.596	15.13	-19004	3528.6	-0.11078	0.96556	0.1993
0.598	15.125	-19005	3528.5	-0.11126	0.96614	0.19969
0.6	15.108	-19006	3528.4	-0.11175	0.96673	0.20008
0.602	15.097	-19009	3527.8	-0.11117	0.96761	0.20125
0.604	15.093	-19012	3527.2	-0.11058	0.96848	0.20242
0.606	15.08	-19012	3526.4	-0.11	0.96936	0.20359
0.608	15.069	-19013	3525.3	-0.10941	0.97024	0.20476
0.61	15.112	-19013	3524.2	-0.10882	0.97112	0.20594
0.612	15.182	-19013	3522.7	-0.10863	0.97024	0.20603
0.614	15.166	-19011	3521.3	-0.10843	0.96936	0.20613
0.616	15.112	-19009	3519.7	-0.10824	0.96848	0.20623
0.618	15.111	-19014	3518.1	-0.10804	0.96761	0.20633
0.62	15.142	-19020	3516.4	-0.10785	0.96673	0.20642
0.622	15.125	-19013	3514.6	-0.10892	0.9677	0.20662
0.624	15.085	-19006	3512.7	-0.11	0.96868	0.20681
0.626	15.091	-19006	3510.8	-0.11107	0.96966	0.20701
0.628	15.123	-19005	3508.8	-0.11214	0.97063	0.2072
0.63	15.133	-19003	3506.8	-0.11322	0.97161	0.2074
0.632	15.125	-19000	3504.7	-0.1138	0.9718	0.20789
0.634	15.15	-18999	3502.6	-0.11439	0.972	0.20838
0.636	15.177	-18999	3500.4	-0.11497	0.97219	0.20886
0.638	15.157	-18999	3498.2	-0.11556	0.97239	0.20935
0.64	15.142	-19000	3495.9	-0.11614	0.97258	0.20984
0.642	15.143	-18997	3493.5	-0.11644	0.97219	0.20964
0.644	15.157	-18995	3491.1	-0.11673	0.9718	0.20945
0.646	15.133	-18993	3488.7	-0.11702	0.97141	0.20925
0.648	15.097	-18991	3486.2	-0.11732	0.97102	0.20906
0.65	15.106	-19000	3483.8	-0.11761	0.97063	0.20886
0.652	15.129	-19009	3481.3	-0.11771	0.96936	0.20847
0.654	15.17	-19005	3478.8	-0.1178	0.96809	0.20808
0.656	15.231	-19001	3476.2	-0.1179	0.96683	0.20769
0.658	15.179	-18998	3473.7	-0.118	0.96556	0.2073
0.66	15.187	-18996	3471.1	-0.1181	0.96429	0.20691
0.662	15.162	-18993	3468.6	-0.11732	0.96478	0.20623
0.664	15.142	-18990	3466	-0.11653	0.96526	0.20555
0.666	15.182	-18995	3463.3	-0.11575	0.96575	0.20486
0.668	15.191	-19001	3460.6	-0.11497	0.96624	0.20418
0.67	15.171	-18998	3458	-0.11419	0.96673	0.2035
0.672	15.193	-18994	3455.2	-0.11361	0.96683	0.2033
0.674	15.173	-18999	3452.4	-0.11302	0.96692	0.20311
0.676	15.171	-19004	3449.6	-0.11244	0.96702	0.20291
0.678	15.178	-19001	3446.9	-0.11185	0.96712	0.20272
0.68	15.18	-18997	3444.1	-0.11126	0.96722	0.20252
0.682	15.184	-18992	3441.3	-0.11263	0.96731	0.20125
0.684	15.183	-18986	3438.5	-0.114	0.96741	0.19998
0.686	15.154	-18987	3435.7	-0.11536	0.96751	0.19871
0.688	15.134	-18988	3432.8	-0.11673	0.96761	0.19744
0.69	15.152	-18991	3429.9	-0.1181	0.9677	0.19618
0.692	15.165	-18993	3427.1	-0.11771	0.96878	0.19725
0.694	15.2	-18992	3424.2	-0.11732	0.96985	0.19832
0.696	15.216	-18990	3421.4	-0.11692	0.97092	0.1994
0.698	15.202	-18990	3418.6	-0.11653	0.972	0.20047
0.7	15.195	-18989	3415.9	-0.11614	0.97307	0.20154
0.702	15.194	-18986	3413.2	-0.11497	0.97249	0.20311
0.704	15.188	-18982	3410.5	-0.1138	0.9719	0.20467
0.706	15.179	-18989	3407.9	-0.11263	0.97132	0.20623
0.708	15.175	-18995	3405.3	-0.11146	0.97073	0.20779
0.71	15.18	-18999	3402.7	-0.11029	0.97014	0.20935
0.712	15.176	-19003	3400.3	-0.11009	0.96995	0.20935
0.714	15.169	-18997	3397.8	-0.1099	0.96975	0.20935
0.716	15.157	-18991	3395.5	-0.1097	0.96956	0.20935
0.718	15.142	-18992	3393.2	-0.10951	0.96936	0.20935
0.72	15.159	-18992	3390.9	-0.10931	0.96917	0.20935
0.722	15.181	-18993	3388.7	-0.10834	0.96946	0.20945
0.724	15.196	-18993	3386.6	-0.10736	0.96975	0.20955
0.726	15.182	-18995	3384.5	-0.10638	0.97005	0.20964
0.728	15.105	-18997	3382.6	-0.10541	0.97034	0.20974
0.73	15.133	-18988	3380.6	-0.10443	0.97063	0.20984
0.732	15.191	-18978	3378.8	-0.10424	0.96927	0.20935
0.734	15.213	-18978	3377.1	-0.10404	0.9679	0.20886
0.736	15.234	-18978	3375.5	-0.10385	0.96653	0.20838
0.738	15.188	-18983	3374	-0.10365	0.96517	0.20789
0.74	15.172	-18987	3372.5	-0.10346	0.9638	0.2074
0.742	15.173	-18981	3371.2	-0.10375	0.96331	0.2073
0.744	15.18	-18975	3370	-0.10404	0.96282	0.2072
0.746	15.184	-18978	3368.9	-0.10433	0.96234	0.20711
0.748	15.175	-18981	3367.9	-0.10463	0.96185	0.20701
0.75	15.122	-18984	3366.9	-0.10492	0.96136	0.20691
0.752	15.153	-18986	3366	-0.10531	0.96175	0.20691
0.754	15.216	-18983	3365	-0.1057	0.96214	0.20691
0.756	15.196	-18979	3364.2	-0.10609	0.96253	0.20691
0.758	15.184	-18981	3363.5	-0.10648	0.96292	0.20691
0.76	15.169	-18983	3362.9	-0.10687	0.96331	0.20691
0.762	15.165	-18987	3362.4	-0.10668	0.96253	0.2073
0.764	15.184	-18992	3361.8	-0.10648	0.96175	0.20769
0.766	15.198	-18996	3361.4	-0.10629	0.96097	0.20808
0.768	15.204	-19000	3361.1	-0.10609	0.96019	0.20847
0.77	15.163	-18995	3360.8	-0.1059	0.95941	0.20886
0.772	15.156	-18990	3360.6	-0.10619	0.9598	0.20818
0.774	15.178	-18988	3360.4	-0.10648	0.96019	0.2075
0.776	15.195	-18985	3360.3	-0.10677	0.96058	0.20681
0.778	15.187	-18989	3360.2	-0.10707	0.96097	0.20613
0.78	15.18	-18993	3360.1	-0.10736	0.96136	0.20545
0.782	15.177	-18990	3360.1	-0.10804	0.96068	0.20603
0.784	15.154	-18988	3360	-0.10873	0.95999	0.20662
0.786	15.154	-18987	3360.1	-0.10941	0.95931	0.2072
0.788	15.159	-18986	3360.2	-0.11009	0.95863	0.20779
0.79	15.155	-18987	3360.2	-0.11078	0.95794	0.20838
0.792	15.172	-18988	3360.4	-0.11244	0.95912	0.20574
0.794	15.183	-18988	3360.5	-0.11409	0.96029	0.20311
0.796	15.17	-18988	3360.6	-0.11575	0.96146	0.20047
0.798	15.167	-18984	3360.8	-0.11741	0.96263	0.19784
0.8	15.173	-18979	3360.9	-0.11907	0.9638	0.1952
0.802	15.173	-18981	3361	-0.11878	0.9639	0.19549
0.804	15.171	-18982	3361.1	-0.11849	0.964	0.19579
0.806	15.192	-18983	3361.2	-0.11819	0.96409	0.19608
0.808	15.223	-18983	3361.3	-0.1179	0.96419	0.19637
0.81	15.183	-18983	3361.4	-0.11761	0.96429	0.19666
0.812	15.162	-18982	3361.5	-0.11663	0.96497	0.19637
0.814	15.177	-18981	3361.6	-0.11566	0.96565	0.19608
0.816	15.175	-18979	3361.7	-0.11468	0.96634	0.19579
0.818	15.156	-18977	3361.8	-0.1137	0.96702	0.19549
0.82	15.168	-18976	3361.9	-0.11273	0.9677	0.1952
0.822	15.186	-18979	3361.9	-0.11175	0.96722	0.19452
0.824	15.16	-18982	3362	-0.11078	0.96673	0.19383
0.826	15.141	-18982	3362	-0.1098	0.96624	0.19315
0.828	15.219	-18982	3362	-0.10882	0.96575	0.19247
0.83	15.21	-18983	3361.9	-0.10785	0.96526	0.19178
0.832	15.16	-18984	3361.9	-0.10736	0.96419	0.19149
0.834	15.182	-18977	3361.9	-0.10687	0.96312	0.1912
0.836	15.143	-18970	3361.8	-0.10638	0.96204	0.19091
0.838	15.163	-18970	3361.6	-0.1059	0.96097	0.19061
0.84	15.189	-18970	3361.5	-0.10541	0.9599	0.19032
0.842	15.182	-18971	3361.3	-0.10638	0.95941	0.1912
0.844	15.117	-18973	3361.2	-0.10736	0.95892	0.19208
0.846	15.088	-18975	3361	-0.10834	0.95843	0.19296
0.848	15.136	-18978	3360.7	-0.10931	0.95794	0.19383
0.85	15.181	-18982	3360.5	-0.11029	0.95746	0.19471
0.852	15.168	-18985	3360.3	-0.1099	0.95755	0.195
0.854	15.136	-18983	3360.1	-0.10951	0.95765	0.1953
0.856	15.142	-18981	3359.9	-0.10912	0.95775	0.19559
0.858	15.16	-18982	3359.6	-0.10873	0.95785	0.19588
0.86	15.161	-18982	3359.4	-0.10834	0.95794	0.19618
0.862	15.13	-18982	3359.1	-0.10736	0.95843	0.19471
0.864	15.104	-18982	3358.8	-0.10638	0.95892	0.19325
0.866	15.103	-18977	3358.5	-0.10541	0.95941	0.19178
0.868	15.1	-18972	3358.2	-0.10443	0.9599	0.19032
0.87	15.097	-18975	3357.8	-0.10346	0.96038	0.18886
0.872	15.133	-18979	3357.5	-0.10307	0.96068	0.18876
0.874	15.181	-18980	3357.1	-0.10268	0.96097	0.18866
0.876	15.179	-18981	3356.8	-0.10228	0.96126	0.18856
0.878	15.152	-18979	3356.4	-0.10189	0.96156	0.18847
0.88	15.141	-18976	3356	-0.1015	0.96185	0.18837
0.882	15.13	-18984	3355.6	-0.10082	0.96341	0.18905
0.884	15.134	-18991	3355.2	-0.10014	0.96497	0.18973
0.886	15.166	-18995	3354.8	-0.099454	0.96653	0.19042
0.888	15.2	-18998	3354.4	-0.098771	0.96809	0.1911
0.89	15.21	-19000	3354	-0.098088	0.96966	0.19178
0.892	15.183	-19001	3353.6	-0.099162	0.96917	0.19276
0.894	15.218	-18997	3353.3	-0.10024	0.96868	0.19374
0.896	15.224	-18992	3352.9	-0.10131	0.96819	0.19471
0.898	15.183	-18989	3352.6	-0.10238	0.9677	0.19569
0.9	15.194	-18987	3352.2	-0.10346	0.96722	0.19666
0.902	15.228	-18986	3351.8	-0.10316	0.9679	0.19764
0.904	15.209	-18986	3351.5	-0.10287	0.96858	0.19862
0.906	15.222	-18989	3351.1	-0.10258	0.96927	0.19959
0.908	15.213	-18991	3350.7	-0.10228	0.96995	0.20057
0.91	15.202	-18992	3350.3	-0.10199	0.97063	0.20154
0.912	15.21	-18994	3350	-0.10053	0.97102	0.20223
0.914	15.213	-18994	3349.7	-0.099064	0.97141	0.20291
0.916	15.206	-18993	3349.4	-0.0976	0.9718	0.20359
0.918	15.214	-18994	3349.1	-0.096136	0.97219	0.20428
0.92	15.241	-18994	3348.8	-0.094672	0.97258	0.20496
0.922	15.243	-18996	3348.4	-0.09477	0.97161	0.20467
0.924	15.209	-18998	3348.1	-0.094867	0.97063	0.20437
0.926	15.171	-18984	3347.8	-0.094965	0.96966	0.20408
0.928	15.163	-18970	3347.5	-0.095062	0.96868	0.20379
0.93	15.116	-18972	3347.3	-0.09516	0.9677	0.2035
0.932	15.158	-18974	3346.9	-0.095941	0.9679	0.2032
0.934	15.225	-18976	3346.6	-0.096722	0.96809	0.20291
0.936	15.245	-18977	3346.3	-0.097502	0.96829	0.20262
0.938	15.261	-18977	3346	-0.098283	0.96848	0.20232
0.94	15.227	-18977	3345.8	-0.099064	0.96868	0.20203
0.942	15.201	-18976	3345.6	-0.097698	0.96897	0.20311
0.944	15.191	-18975	3345.3	-0.096331	0.96927	0.20418
0.946	15.185	-18975	3345.1	-0.094965	0.96956	0.20525
0.948	15.193	-18974	3344.8	-0.093598	0.96985	0.20633
0.95	15.184	-18977	3344.6	-0.092232	0.97014	0.2074
0.952	15.186	-18981	3344.3	-0.093306	0.97014	0.2073
0.954	15.247	-18981	3344	-0.094379	0.97014	0.2072
0.956	15.247	-18980	3343.7	-0.095453	0.97014	0.20711
0.958	15.192	-18978	3343.4	-0.096526	0.97014	0.20701
0.96	15.18	-18975	3343.1	-0.0976	0.97014	0.20691
0.962	15.187	-18972	3342.8	-0.097405	0.97122	0.20652
0.964	15.188	-18968	3342.6	-0.09721	0.97229	0.20613
0.966	15.204	-18969	3342.3	-0.097014	0.97336	0.20574
0.968	15.206	-18970	3342	-0.096819	0.97444	0.20535
0.97	15.194	-18970	3341.7	-0.096624	0.97551	0.20496
0.972	15.21	-18971	3341.5	-0.096331	0.97444	0.20564
0.974	15.22	-18975	3341.2	-0.096038	0.97336	0.20633
0.976	15.209	-18980	3341	-0.095746	0.97229	0.20701
0.978	15.204	-18980	3340.8	-0.095453	0.97122	0.20769
0.98	15.18	-18981	3340.6	-0.09516	0.97014	0.20838
0.982	15.185	-18984	3340.4	-0.095941	0.97073	0.20789
0.984	15.209	-18987	3340.2	-0.096722	0.97132	0.2074
0.986	15.203	-18977	3339.9	-0.097502	0.9719	0.20691
0.988	15.194	-18967	3339.7	-0.098283	0.97249	0.20642
0.99	15.16	-18967	3339.5	-0.099064	0.97307	0.20594
0.992	15.215	-18968	3339.3	-0.099942	0.9721	0.20486
0.994	15.273	-18968	3339.1	-0.10082	0.97112	0.20379
0.996	15.235	-18968	3338.9	-0.1017	0.97014	0.20272
0.998	15.189	-18974	3338.7	-0.10258	0.96917	0.20164
1	15.205	-18980	3338.5	-0.10346	0.96819	0.20057
1.002	15.223	-18975	3338.3	-0.10482	0.96858	0.20047
1.004	15.2	-18970	3338.1	-0.10619	0.96897	0.20037
1.006	15.2	-18970	3338	-0.10756	0.96936	0.20028
1.008	15.196	-18969	3337.7	-0.10892	0.96975	0.20018
1.01	15.18	-18972	3337.5	-0.11029	0.97014	0.20008
1.012	15.151	-18975	3337.3	-0.11029	0.97014	0.20067
1.014	15.105	-18980	3337.1	-0.11029	0.97014	0.20125
1.016	15.052	-18985	3336.9	-0.11029	0.97014	0.20184
1.018	15.009	-18983	3336.7	-0.11029	0.97014	0.20242
1.02	14.984	-18980	3336.5	-0.11029	0.97014	0.20301
1.022	14.91	-18976	3336.2	-0.1099	0.96946	0.20301
1.024	14.9	-18971	3336	-0.10951	0.96878	0.20301
1.026	14.901	-18969	3335.7	-0.10912	0.96809	0.20301
1.028	14.911	-18967	3335.5	-0.10873	0.96741	0.20301
1.03	14.909	-18965	3335.3	-0.10834	0.96673	0.20301
1.032	14.897	-18963	3335.1	-0.10853	0.96663	0.20232
1.034	14.875	-18965	3334.9	-0.10873	0.96653	0.20164
1.036	14.871	-18967	3334.7	-0.10892	0.96644	0.20096
1.038	14.902	-18968	3334.5	-0.10912	0.96634	0.20028
1.04	14.916	-18968	3334.2	-0.10931	0.96624	0.19959
1.042	14.874	-18967	3334	-0.11	0.96702	0.20018
1.044	14.838	-18965	3333.8	-0.11068	0.9678	0.20076
1.046	14.92	-18965	3333.5	-0.11136	0.96858	0.20135
1.048	14.999	-18964	3333.2	-0.11204	0.96936	0.20193
1.05	14.945	-18970	3332.9	-0.11273	0.97014	0.20252
1.052	14.886	-18977	3332.6	-0.11263	0.96888	0.20164
1.054	14.885	-18977	3332.3	-0.11253	0.96761	0.20076
1.056	14.902	-18977	3332	-0.11244	0.96634	0.19988
1.058	14.925	-18970	3331.7	-0.11234	0.96507	0.19901
1.06	14.909	-18962	3331.5	-0.11224	0.9638	0.19813
1.062	14.907	-18968	3331.2	-0.11029	0.9638	0.19647
1.064	14.959	-18973	3330.9	-0.10834	0.9638	0.19481
1.066	14.972	-18970	3330.7	-0.10638	0.9638	0.19315
1.068	14.956	-18966	3330.4	-0.10443	0.9638	0.19149
1.07	14.973	-18965	3330.1	-0.10248	0.9638	0.18983
1.072	14.984	-18964	3329.8	-0.10228	0.9637	0.19022
1.074	15.023	-18966	3329.5	-0.10209	0.9636	0.19061
1.076	15.068	-18968	3329.1	-0.10189	0.96351	0.191
1.078	15.116	-18963	3328.8	-0.1017	0.96341	0.19139
1.08	15.156	-18959	3328.5	-0.1015	0.96331	0.19178
1.082	15.132	-18959	3328.2	-0.10258	0.9636	0.19217
1.084	15.146	-18959	3327.9	-0.10365	0.9639	0.19256
1.086	15.166	-18960	3327.6	-0.10472	0.96419	0.19296
1.088	15.175	-18961	3327.3	-0.1058	0.96448	0.19335
1.09	15.196	-18966	3327	-0.10687	0.96478	0.19374
1.092	15.218	-18971	3326.7	-0.10482	0.96556	0.19393
1.094	15.216	-18967	3326.4	-0.10277	0.96634	0.19413
1.096	15.223	-18963	3326.2	-0.10072	0.96712	0.19432
1.098	15.212	-18959	3326	-0.098674	0.9679	0.19452
1.1	15.208	-18955	3325.7	-0.096624	0.96868	0.19471
1.102	15.201	-18964	3325.5	-0.098674	0.9677	0.19286
1.104	15.213	-18972	3325.2	-0.10072	0.96673	0.191
1.106	15.222	-18969	3325	-0.10277	0.96575	0.18915
1.108	15.225	-18967	3324.8	-0.10482	0.96478	0.18729
1.11	15.207	-18970	3324.7	-0.10687	0.9638	0.18544
1.112	15.192	-18974	3324.5	-0.10609	0.96292	0.18729
1.114	15.223	-18967	3324.4	-0.10531	0.96204	0.18915
1.116	15.218	-18959	3324.2	-0.10453	0.96116	0.191
1.118	15.184	-18963	3324	-0.10375	0.96029	0.19286
1.12	15.21	-18967	3323.8	-0.10297	0.95941	0.19471
1.122	15.249	-18965	3323.6	-0.10209	0.96077	0.19422
1.124	15.257	-18963	3323.5	-0.10121	0.96214	0.19374
1.126	15.232	-18958	3323.4	-0.10033	0.96351	0.19325
1.128	15.219	-18952	3323.3	-0.099454	0.96487	0.19276
1.13	15.223	-18959	3323.2	-0.098576	0.96624	0.19227
1.132	15.22	-18966	3323.1	-0.099942	0.96692	0.19374
1.134	15.208	-18966	3323.1	-0.10131	0.96761	0.1952
1.136	15.189	-18965	3323	-0.10268	0.96829	0.19666
1.138	15.168	-18960	3322.9	-0.10404	0.96897	0.19813
1.14	15.171	-18955	3322.8	-0.10541	0.96966	0.19959
1.142	15.194	-18956	3322.7	-0.10512	0.96946	0.19901
1.144	15.208	-18956	3322.7	-0.10482	0.96927	0.19842
1.146	15.238	-18957	3322.6	-0.10453	0.96907	0.19784
1.148	15.265	-18958	3322.6	-0.10424	0.96888	0.19725
1.15	15.258	-18956	3322.6	-0.10394	0.96868	0.19666
1.152	15.242	-18954	3322.5	-0.10472	0.96946	0.19754
1.154	15.225	-18951	3322.5	-0.10551	0.97024	0.19842
1.156	15.219	-18948	3322.5	-0.10629	0.97102	0.1993
1.158	15.191	-18957	3322.5	-0.10707	0.9718	0.20018
1.16	15.185	-18966	3322.5	-0.10785	0.97258	0.20106
1.162	15.181	-18958	3322.6	-0.10697	0.97239	0.20184
1.164	15.194	-18951	3322.7	-0.10609	0.97219	0.20262
1.166	15.208	-18956	3322.8	-0.10521	0.972	0.2034
1.168	15.188	-18961	3323	-0.10433	0.9718	0.20418
1.17	15.18	-18962	3323.2	-0.10346	0.97161	0.20496
1.172	15.18	-18964	3323.8	-0.10307	0.9718	0.20574
1.174	15.209	-18963	3324.4	-0.10268	0.972	0.20652
1.176	15.245	-18962	3325.2	-0.10228	0.97219	0.2073
1.178	15.184	-18961	3326.3	-0.10189	0.97239	0.20808
1.18	15.16	-18959	3327.3	-0.1015	0.97258	0.20886
1.182	15.197	-18961	3328.9	-0.10209	0.97239	0.20935
1.184	15.228	-18963	3330.5	-0.10268	0.97219	0.20984
1.186	15.205	-18965	3332.5	-0.10326	0.972	0.21033
1.188	15.209	-18968	3335	-0.10385	0.9718	0.21082
1.19	15.188	-18960	3337.4	-0.10443	0.97161	0.2113
1.192	15.179	-18952	3340.6	-0.10531	0.97083	0.21101
1.194	15.17	-18953	3343.8	-0.10619	0.97005	0.21072
1.196	15.181	-18954	3347.4	-0.10707	0.96927	0.21043
1.198	15.201	-18953	3351.3	-0.10795	0.96848	0.21013
1.2	15.221	-18953	3355.2	-0.10882	0.9677	0.20984
1.202	15.238	-18961	3360	-0.11	0.96848	0.20906
1.204	15.227	-18968	3364.8	-0.11117	0.96927	0.20828
1.206	15.209	-18959	3369.9	-0.11234	0.97005	0.2075
1.208	15.206	-18949	3375.4	-0.11351	0.97083	0.20672
1.21	15.205	-18955	3380.8	-0.11468	0.97161	0.20594
1.212	15.202	-18961	3386.9	-0.1139	0.97102	0.20535
1.214	15.188	-18960	3392.9	-0.11312	0.97044	0.20476
1.216	15.192	-18958	3399.2	-0.11234	0.96985	0.20418
1.218	15.206	-18955	3405.8	-0.11156	0.96927	0.20359
1.22	15.199	-18951	3412.3	-0.11078	0.96868	0.20301
1.222	15.202	-18952	3419	-0.11165	0.96839	0.20232
1.224	15.224	-18953	3425.6	-0.11253	0.96809	0.20164
1.226	15.241	-18952	3432.1	-0.11341	0.9678	0.20096
1.228	15.251	-18951	3438.5	-0.11429	0.96751	0.20028
1.23	15.239	-18950	3444.9	-0.11517	0.96722	0.19959
1.232	15.239	-18948	3450.7	-0.11429	0.96751	0.1994
1.234	15.27	-18946	3456.6	-0.11341	0.9678	0.1992
1.236	15.254	-18944	3462.1	-0.11253	0.96809	0.19901
1.238	15.209	-18943	3467.3	-0.11165	0.96839	0.19881
1.24	15.227	-18942	3472.5	-0.11078	0.96868	0.19862
1.242	15.254	-18946	3476.8	-0.11009	0.96761	0.19803
1.244	15.221	-18950	3481	-0.10941	0.96653	0.19744
1.246	15.235	-18956	3484.8	-0.10873	0.96546	0.19686
1.248	15.256	-18961	3488	-0.10804	0.96439	0.19627
1.25	15.203	-18956	3491.3	-0.10736	0.96331	0.19569
1.252	15.207	-18951	3493.7	-0.10707	0.9639	0.19657
1.254	15.216	-18950	3496.1	-0.10677	0.96448	0.19744
1.256	15.226	-18949	3498.1	-0.10648	0.96507	0.19832
1.258	15.247	-18949	3499.7	-0.10619	0.96565	0.1992
1.26	15.201	-18949	3501.2	-0.1059	0.96624	0.20008
1.262	15.209	-18950	3501.9	-0.10541	0.96575	0.19813
1.264	15.231	-18950	3502.6	-0.10492	0.96526	0.19618
1.266	15.151	-18948	3503	-0.10443	0.96478	0.19422
1.268	15.161	-18946	3502.9	-0.10394	0.96429	0.19227
1.27	15.208	-18945	3502.9	-0.10346	0.9638	0.19032
1.272	15.149	-18943	3502.4	-0.10336	0.96517	0.19237
1.274	15.164	-18947	3501.9	-0.10326	0.96653	0.19442
1.276	15.178	-18951	3501.3	-0.10316	0.9679	0.19647
1.278	15.152	-18950	3500.5	-0.10307	0.96927	0.19852
1.28	15.164	-18949	3499.8	-0.10297	0.97063	0.20057
1.282	15.18	-18947	3498.7	-0.10541	0.97083	0.20086
1.284	15.168	-18944	3497.5	-0.10785	0.97102	0.20115
1.286	15.153	-18945	3496.2	-0.11029	0.97122	0.20145
1.288	15.164	-18946	3494.8	-0.11273	0.97141	0.20174
1.29	15.193	-18944	3493.3	-0.11517	0.97161	0.20203
1.292	15.203	-18941	3491.6	-0.11283	0.97122	0.19988
1.294	15.195	-18948	3489.8	-0.11048	0.97083	0.19774
1.296	15.181	-18955	3488	-0.10814	0.97044	0.19559
1.298	15.146	-18955	3486.1	-0.1058	0.97005	0.19344
1.3	15.118	-18955	3484.1	-0.10346	0.96966	0.1913
1.302	15.14	-18954	3482.3	-0.10677	0.96985	0.19413
1.304	15.167	-18953	3480.5	-0.11009	0.97005	0.19696
1.306	15.181	-18944	3478.6	-0.11341	0.97024	0.19979
1.308	15.187	-18936	3476.6	-0.11673	0.97044	0.20262
1.31	15.187	-18936	3474.6	-0.12005	0.97063	0.20545
1.312	15.191	-18937	3472.5	-0.1178	0.97132	0.20555
1.314	15.18	-18935	3470.4	-0.11556	0.972	0.20564
1.316	15.175	-18933	3468.2	-0.11331	0.97268	0.20574
1.318	15.207	-18940	3466	-0.11107	0.97336	0.20584
1.32	15.234	-18948	3463.7	-0.10882	0.97405	0.20594
1.322	15.213	-18948	3461.3	-0.10912	0.97317	0.20603
1.324	15.205	-18949	3459	-0.10941	0.97229	0.20613
1.326	15.162	-18948	3456.5	-0.1097	0.97141	0.20623
1.328	15.121	-18948	3454	-0.11	0.97053	0.20633
1.33	15.124	-18939	3451.5	-0.11029	0.96966	0.20642
1.332	15.217	-18929	3448.8	-0.11126	0.96858	0.20398
1.334	15.23	-18936	3446.1	-0.11224	0.96751	0.20154
1.336	15.215	-18943	3443.4	-0.11322	0.96644	0.1991
1.338	15.228	-18945	3440.6	-0.11419	0.96536	0.19666
1.34	15.236	-18948	3437.9	-0.11517	0.96429	0.19422
1.342	15.213	-18943	3435.2	-0.11429	0.96478	0.19657
1.344	15.178	-18939	3432.5	-0.11341	0.96526	0.19891
1.346	15.191	-18936	3429.9	-0.11253	0.96575	0.20125
1.348	15.208	-18933	3427.4	-0.11165	0.96624	0.20359
1.35	15.201	-18934	3424.8	-0.11078	0.96673	0.20594
1.352	15.183	-18936	3422.1	-0.10951	0.96692	0.20603
1.354	15.186	-18936	3419.5	-0.10824	0.96712	0.20613
1.356	15.209	-18936	3416.8	-0.10697	0.96731	0.20623
1.358	15.23	-18937	3414.1	-0.1057	0.96751	0.20633
1.36	15.229	-18938	3411.4	-0.10443	0.9677	0.20642
1.362	15.237	-18933	3408.8	-0.10492	0.9678	0.20516
1.364	15.217	-18929	3406.1	-0.10541	0.9679	0.20389
1.366	15.197	-18929	3403.6	-0.1059	0.968	0.20262
1.368	15.213	-18930	3401.1	-0.10638	0.96809	0.20135
1.37	15.211	-18931	3398.6	-0.10687	0.96819	0.20008
1.372	15.208	-18932	3396.4	-0.1058	0.96897	0.20067
1.374	15.228	-18932	3394.1	-0.10472	0.96975	0.20125
1.376	15.206	-18931	3391.9	-0.10365	0.97053	0.20184
1.378	15.179	-18932	3389.8	-0.10258	0.97132	0.20242
1.38	15.187	-18933	3387.6	-0.1015	0.9721	0.20301
1.382	15.194	-18931	3385.6	-0.10287	0.97161	0.20252
1.384	15.195	-18929	3383.7	-0.10424	0.97112	0.20203
1.386	15.203	-18932	3381.7	-0.1056	0.97063	0.20154
1.388	15.21	-18934	3379.8	-0.10697	0.97014	0.20106
1.39	15.218	-18936	3377.8	-0.10834	0.96966	0.20057
1.392	15.227	-18937	3376.1	-0.1056	0.97024	0.19949
1.394	15.224	-18937	3374.3	-0.10287	0.97083	0.19842
1.396	15.198	-18938	3372.7	-0.10014	0.97141	0.19735
1.398	15.161	-18936	3371.2	-0.097405	0.972	0.19627
1.4	15.152	-18934	3369.8	-0.094672	0.97258	0.1952
1.402	15.165	-18936	3368.7	-0.097014	0.9718	0.19754
1.404	15.181	-18937	3367.5	-0.099357	0.97102	0.19988
1.406	15.218	-18941	3366.5	-0.1017	0.97024	0.20223
1.408	15.266	-18945	3365.5	-0.10404	0.96946	0.20457
1.41	15.237	-18939	3364.6	-0.10638	0.96868	0.20691
1.412	15.223	-18933	3363.9	-0.1056	0.96868	0.20691
1.414	15.213	-18931	3363.1	-0.10482	0.96868	0.20691
1.416	15.198	-18930	3362.4	-0.10404	0.96868	0.20691
1.418	15.205	-18929	3361.8	-0.10326	0.96868	0.20691
1.42	15.208	-18928	3361.1	-0.10248	0.96868	0.20691
1.422	15.197	-18929	3360.7	-0.10268	0.96966	0.20633
1.424	15.207	-18930	3360.3	-0.10287	0.97063	0.20574
1.426	15.168	-18931	3360	-0.10307	0.97161	0.20516
1.428	15.182	-18933	3359.7	-0.10326	0.97258	0.20457
1.43	15.232	-18933	3359.5	-0.10346	0.97356	0.20398
1.432	15.187	-18934	3359.4	-0.10414	0.972	0.20193
1.434	15.252	-18931	3359.2	-0.10482	0.97044	0.19988
1.436	15.252	-18929	3359.1	-0.10551	0.96888	0.19784
1.438	15.203	-18928	3359.1	-0.10619	0.96731	0.19579
1.44	15.201	-18927	3359.1	-0.10687	0.96575	0.19374
1.442	15.21	-18927	3359	-0.10785	0.96439	0.19256
1.444	15.216	-18927	3358.9	-0.10882	0.96302	0.19139
1.446	15.224	-18927	3358.9	-0.1098	0.96165	0.19022
1.448	15.217	-18927	3358.9	-0.11078	0.96029	0.18905
1.45	15.204	-18926	3358.8	-0.11175	0.95892	0.18788
1.452	15.201	-18926	3359	-0.11029	0.96077	0.1911
1.454	15.206	-18926	3359.2	-0.10882	0.96263	0.19432
1.456	15.215	-18926	3359.6	-0.10736	0.96448	0.19754
1.458	15.22	-18928	3360	-0.1059	0.96634	0.20076
1.46	15.204	-18931	3360.4	-0.10443	0.96819	0.20398
1.462	15.204	-18932	3360.8	-0.10609	0.9679	0.20398
1.464	15.173	-18933	3361.2	-0.10775	0.96761	0.20398
1.466	15.141	-18933	3361.6	-0.10941	0.96731	0.20398
1.468	15.161	-18934	3362	-0.11107	0.96702	0.20398
1.47	15.233	-18937	3362.4	-0.11273	0.96673	0.20398
1.472	15.265	-18939	3362.6	-0.11234	0.96565	0.20067
1.474	15.244	-18939	3362.7	-0.11195	0.96458	0.19735
1.476	15.211	-18939	3362.9	-0.11156	0.96351	0.19403
1.478	15.188	-18935	3363.1	-0.11117	0.96243	0.19071
1.48	15.189	-18932	3363.3	-0.11078	0.96136	0.18739
1.482	15.199	-18928	3363.5	-0.10912	0.96351	0.19012
1.484	15.207	-18924	3363.7	-0.10746	0.96565	0.19286
1.486	15.22	-18922	3363.9	-0.1058	0.9678	0.19559
1.488	15.234	-18920	3364.3	-0.10414	0.96995	0.19832
1.49	15.191	-18921	3364.7	-0.10248	0.9721	0.20106
1.492	15.176	-18922	3365	-0.10502	0.97171	0.20164
1.494	15.198	-18924	3365.4	-0.10756	0.97132	0.20223
1.496	15.224	-18927	3365.7	-0.11009	0.97092	0.20281
1.498	15.209	-18927	3365.9	-0.11263	0.97053	0.2034
1.5	15.219	-18927	3366.2	-0.11517	0.97014	0.20398
1.502	15.246	-18929	3366.3	-0.1139	0.97102	0.2033
1.504	15.223	-18930	3366.3	-0.11263	0.9719	0.20262
1.506	15.22	-18928	3366.4	-0.11136	0.97278	0.20193
1.508	15.214	-18926	3366.4	-0.11009	0.97366	0.20125
1.51	15.216	-18926	3366.5	-0.10882	0.97454	0.20057
1.512	15.192	-18925	3366.5	-0.11087	0.97473	0.19979
1.514	15.181	-18925	3366.5	-0.11292	0.97493	0.19901
1.516	15.181	-18925	3366.5	-0.11497	0.97512	0.19823
1.518	15.2	-18928	3366.3	-0.11702	0.97532	0.19744
1.52	15.2	-18931	3366.1	-0.11907	0.97551	0.19666
1.522	15.278	-18923	3365.8	-0.11819	0.97307	0.19237
1.524	15.261	-18914	3365.4	-0.11732	0.97063	0.18808
1.526	15.196	-18917	3365	-0.11644	0.96819	0.18378
1.528	15.181	-18920	3364.5	-0.11556	0.96575	0.17949
1.53	15.212	-18918	3364	-0.11468	0.96331	0.17519
1.532	15.229	-18916	3363.9	-0.1137	0.96507	0.18154
1.534	15.235	-18915	3363.8	-0.11273	0.96683	0.18788
1.536	15.236	-18913	3363.7	-0.11175	0.96858	0.19422
1.538	15.248	-18921	3363.6	-0.11078	0.97034	0.20057
1.54	15.236	-18930	3363.5	-0.1098	0.9721	0.20691
1.542	15.228	-18928	3363.4	-0.11078	0.97268	0.20633
1.544	15.227	-18926	3363.3	-0.11175	0.97327	0.20574
1.546	15.201	-18928	3363.2	-0.11273	0.97385	0.20516
1.548	15.155	-18930	3363	-0.1137	0.97444	0.20457
1.55	15.112	-18926	3362.8	-0.11468	0.97502	0.20398
1.552	15.121	-18923	3362.5	-0.11331	0.97385	0.20311
1.554	15.244	-18925	3362.2	-0.11195	0.97268	0.20223
1.556	15.299	-18927	3361.8	-0.11058	0.97151	0.20135
1.558	15.249	-18928	3361.4	-0.10921	0.97034	0.20047
1.56	15.232	-18928	3360.9	-0.10785	0.96917	0.19959
1.562	15.244	-18927	3360.3	-0.1056	0.97005	0.19979
1.564	15.226	-18925	3359.7	-0.10336	0.97092	0.19998
1.566	15.2	-18925	3359.2	-0.10111	0.9718	0.20018
1.568	15.198	-18924	3359	-0.098869	0.97268	0.20037
1.57	15.196	-18923	3358.7	-0.096624	0.97356	0.20057
1.572	15.2	-18922	3358.5	-0.099845	0.97346	0.20203
1.574	15.212	-18920	3358.2	-0.10307	0.97336	0.2035
1.576	15.216	-18919	3358.1	-0.10629	0.97327	0.20496
1.578	15.204	-18917	3357.9	-0.10951	0.97317	0.20642
1.58	15.189	-18915	3357.7	-0.11273	0.97307	0.20789
1.582	15.179	-18916	3357.6	-0.11058	0.97278	0.20799
1.584	15.177	-18917	3357.4	-0.10843	0.97249	0.20808
1.586	15.168	-18914	3357.2	-0.10629	0.97219	0.20818
1.588	15.199	-18910	3356.9	-0.10414	0.9719	0.20828
1.59	15.225	-18914	3356.6	-0.10199	0.97161	0.20838
1.592	15.222	-18917	3356.3	-0.10209	0.97249	0.20613
1.594	15.192	-18923	3356	-0.10219	0.97336	0.20389
1.596	15.159	-18928	3355.7	-0.10228	0.97424	0.20164
1.598	15.166	-18926	3355.3	-0.10238	0.97512	0.1994
1.6	15.157	-18925	3354.9	-0.10248	0.976	0.19715
1.602	15.157	-18923	3354.5	-0.10404	0.97454	0.19784
1.604	15.122	-18922	3354.1	-0.1056	0.97307	0.19852
1.606	15.116	-18924	3353.7	-0.10716	0.97161	0.1992
1.608	15.134	-18927	3353.3	-0.10873	0.97014	0.19988
1.61	15.169	-18923	3352.8	-0.11029	0.96868	0.20057
1.612	15.167	-18920	3352.5	-0.11019	0.97005	0.20115
1.614	15.141	-18923	3352.1	-0.11009	0.97141	0.20174
1.616	15.121	-18927	3351.7	-0.11	0.97278	0.20232
1.618	15.115	-18921	3351.2	-0.1099	0.97415	0.20291
1.62	15.128	-18914	3350.7	-0.1098	0.97551	0.2035
1.622	15.152	-18914	3350.2	-0.10902	0.97463	0.20311
1.624	15.173	-18914	3349.8	-0.10824	0.97376	0.20272
1.626	15.151	-18919	3349.3	-0.10746	0.97288	0.20232
1.628	15.136	-18925	3348.7	-0.10668	0.972	0.20193
1.63	15.13	-18921	3348.1	-0.1059	0.97112	0.20154
1.632	15.144	-18916	3347.3	-0.10404	0.97122	0.19998
1.634	15.174	-18917	3346.5	-0.10219	0.97132	0.19842
1.636	15.2	-18919	3345.9	-0.10033	0.97141	0.19686
1.638	15.236	-18917	3345.3	-0.098478	0.97151	0.1953
1.64	15.232	-18915	3344.7	-0.096624	0.97161	0.19374
1.642	15.228	-18905	3344.5	-0.10053	0.97219	0.19774
1.644	15.243	-18894	3344.2	-0.10443	0.97278	0.20174
1.646	15.217	-18907	3344	-0.10834	0.97336	0.20574
1.648	15.197	-18920	3343.7	-0.11224	0.97395	0.20974
1.65	15.224	-18920	3343.5	-0.11614	0.97454	0.21374
1.652	15.246	-18921	3343.3	-0.11527	0.97346	0.21296
1.654	15.235	-18919	3343.1	-0.11439	0.97239	0.21218
1.656	15.204	-18917	3342.8	-0.11351	0.97132	0.2114
1.658	15.21	-18917	3342.5	-0.11263	0.97024	0.21062
1.66	15.264	-18918	3342.1	-0.11175	0.96917	0.20984
1.662	15.279	-18916	3341.8	-0.11048	0.96966	0.20818
1.664	15.241	-18914	3341.5	-0.10921	0.97014	0.20652
1.666	15.231	-18919	3341.1	-0.10795	0.97063	0.20486
1.668	15.253	-18924	3340.8	-0.10668	0.97112	0.2032
1.67	15.239	-18920	3340.5	-0.10541	0.97161	0.20154
1.672	15.229	-18917	3340.1	-0.10756	0.97219	0.20096
1.674	15.218	-18912	3339.8	-0.1097	0.97278	0.20037
1.676	15.224	-18908	3339.4	-0.11185	0.97336	0.19979
1.678	15.208	-18918	3339.1	-0.114	0.97395	0.1992
1.68	15.211	-18928	3338.8	-0.11614	0.97454	0.19862
1.682	15.273	-18921	3338.5	-0.11409	0.97366	0.19705
1.684	15.241	-18913	3338.1	-0.11204	0.97278	0.19549
1.686	15.214	-18911	3337.8	-0.11	0.9719	0.19393
1.688	15.227	-18909	3337.3	-0.10795	0.97102	0.19237
1.69	15.208	-18906	3336.8	-0.1059	0.97014	0.19081
1.692	15.2	-18902	3336.3	-0.10326	0.96956	0.19042
1.694	15.25	-18907	3335.7	-0.10063	0.96897	0.19003
1.696	15.25	-18912	3335.3	-0.09799	0.96839	0.18964
1.698	15.241	-18915	3334.9	-0.095355	0.9678	0.18925
1.7	15.247	-18919	3334.5	-0.09272	0.96722	0.18886
1.702	15.245	-18919	3334.4	-0.09721	0.96848	0.19305
1.704	15.217	-18919	3334.3	-0.1017	0.96975	0.19725
1.706	15.203	-18919	3334.2	-0.10619	0.97102	0.20145
1.708	15.238	-18918	3334.1	-0.11068	0.97229	0.20564
1.71	15.241	-18915	3334	-0.11517	0.97356	0.20984
1.712	15.202	-18911	3334	-0.11273	0.97336	0.20945
1.714	15.225	-18914	3334	-0.11029	0.97317	0.20906
1.716	15.236	-18918	3333.9	-0.10785	0.97297	0.20867
1.718	15.237	-18916	3333.8	-0.10541	0.97278	0.20828
1.72	15.235	-18915	3333.6	-0.10297	0.97258	0.20789
1.722	15.239	-18914	3333.5	-0.10336	0.97336	0.20652
1.724	15.235	-18914	3333.4	-0.10375	0.97415	0.20516
1.726	15.221	-18918	3333.3	-0.10414	0.97493	0.20379
1.728	15.214	-18921	3333.2	-0.10453	0.97571	0.20242
1.73	15.206	-18918	3333	-0.10492	0.97649	0.20106
1.732	15.199	-18914	3332.9	-0.10677	0.97649	0.20008
1.734	15.215	-18914	3332.7	-0.10863	0.97649	0.1991
1.736	15.23	-18915	3332.6	-0.11048	0.97649	0.19813
1.738	15.217	-18909	3332.4	-0.11234	0.97649	0.19715
1.74	15.21	-18903	3332.2	-0.11419	0.97649	0.19618
1.742	15.226	-18910	3332	-0.11302	0.97532	0.19647
1.744	15.224	-18918	3331.7	-0.11185	0.97415	0.19676
1.746	15.223	-18916	3331.5	-0.11068	0.97297	0.19705
1.748	15.232	-18913	3331.2	-0.10951	0.9718	0.19735
1.75	15.224	-18920	3330.9	-0.10834	0.97063	0.19764
1.752	15.197	-18927	3330.6	-0.10863	0.96936	0.19432
1.754	15.173	-18921	3330.3	-0.10892	0.96809	0.191
1.756	15.166	-18914	3329.8	-0.10921	0.96683	0.18768
1.758	15.178	-18911	3329.2	-0.10951	0.96556	0.18437
1.76	15.162	-18908	3328.6	-0.1098	0.96429	0.18105
1.762	15.152	-18906	3328.3	-0.10824	0.96614	0.18593
1.764	15.071	-18903	3327.9	-0.10668	0.968	0.19081
1.766	15.008	-18911	3327.7	-0.10512	0.96985	0.19569
1.768	15.019	-18919	3327.5	-0.10355	0.97171	0.20057
1.77	14.995	-18919	3327.4	-0.10199	0.97356	0.20545
1.772	14.905	-18920	3327.3	-0.10219	0.972	0.20506
1.774	14.87	-18914	3327.2	-0.10238	0.97044	0.20467
1.776	14.868	-18908	3327	-0.10258	0.96888	0.20428
1.778	14.846	-18907	3326.9	-0.10277	0.96731	0.20389
1.78	14.839	-18905	3326.7	-0.10297	0.96575	0.2035
1.782	14.841	-18906	3326.5	-0.1018	0.96751	0.20242
1.784	14.785	-18907	3326.3	-0.10063	0.96927	0.20135
1.786	14.783	-18910	3326.1	-0.099454	0.97102	0.20028
1.788	14.826	-18914	3325.9	-0.098283	0.97278	0.1992
1.79	14.816	-18912	3325.6	-0.097112	0.97454	0.19813
1.792	14.804	-18910	3325.3	-0.098283	0.97258	0.19647
1.794	14.831	-18914	3325	-0.099454	0.97063	0.19481
1.796	14.804	-18918	3324.7	-0.10063	0.96868	0.19315
1.798	14.74	-18917	3324.5	-0.1018	0.96673	0.19149
1.8	14.725	-18916	3324.2	-0.10297	0.96478	0.18983
1.802	14.733	-18914	3324.1	-0.1016	0.96546	0.18993
1.804	14.733	-18913	3323.9	-0.10024	0.96614	0.19003
1.806	14.733	-18912	3323.8	-0.098869	0.96683	0.19012
1.808	14.74	-18911	3323.6	-0.097502	0.96751	0.19022
1.81	14.761	-18911	3323.5	-0.096136	0.96819	0.19032
1.812	14.775	-18911	3323.4	-0.095062	0.96751	0.19032
1.814	14.768	-18906	3323.4	-0.093989	0.96683	0.19032
1.816	14.773	-18901	3323.2	-0.092915	0.96614	0.19032
1.818	14.838	-18901	3323	-0.091842	0.96546	0.19032
1.82	14.933	-18901	3322.8	-0.090768	0.96478	0.19032
1.822	14.978	-18906	3322.6	-0.093794	0.964	0.18827
1.824	14.981	-18910	3322.4	-0.096819	0.96321	0.18622
1.826	15.016	-18910	3322.1	-0.099845	0.96243	0.18417
1.828	15.074	-18909	3321.8	-0.10287	0.96165	0.18212
1.83	15.104	-18913	3321.5	-0.1059	0.96087	0.18007
1.832	15.12	-18916	3320.9	-0.10141	0.96263	0.18212
1.834	15.122	-18911	3320.3	-0.096917	0.96439	0.18417
1.836	15.138	-18906	3320	-0.092427	0.96614	0.18622
1.838	15.176	-18909	3319.8	-0.087938	0.9679	0.18827
1.84	15.21	-18912	3319.7	-0.083448	0.96966	0.19032
1.842	15.2	-18911	3319.7	-0.089206	0.96956	0.19208
1.844	15.176	-18911	3319.6	-0.094965	0.96946	0.19383
1.846	15.19	-18914	3319.6	-0.10072	0.96936	0.19559
1.848	15.218	-18916	3319.6	-0.10648	0.96927	0.19735
1.85	15.216	-18917	3319.7	-0.11224	0.96917	0.1991
1.852	15.239	-18918	3319.6	-0.1099	0.96897	0.19784
1.854	15.223	-18915	3319.5	-0.10756	0.96878	0.19657
1.856	15.247	-18912	3319.3	-0.10521	0.96858	0.1953
1.858	15.259	-18912	3319	-0.10287	0.96839	0.19403
1.86	15.221	-18912	3318.8	-0.10053	0.96819	0.19276
1.862	15.219	-18908	3318.4	-0.10024	0.96897	0.1911
1.864	15.187	-18903	3318	-0.099942	0.96975	0.18944
1.866	15.207	-18907	3317.5	-0.09965	0.97053	0.18778
1.868	15.244	-18911	3317.1	-0.099357	0.97132	0.18612
1.87	15.253	-18911	3316.6	-0.099064	0.9721	0.18446
1.872	15.246	-18910	3316.5	-0.10268	0.972	0.18934
1.874	15.262	-18907	3316.3	-0.10629	0.9719	0.19422
1.876	15.229	-18903	3316.3	-0.1099	0.9718	0.1991
1.878	15.215	-18904	3316.3	-0.11351	0.97171	0.20398
1.88	15.21	-18905	3316.3	-0.11712	0.97161	0.20886
1.882	15.244	-18907	3316.3	-0.11536	0.97151	0.20701
1.884	15.297	-18909	3316.2	-0.11361	0.97141	0.20516
1.886	15.246	-18912	3316.1	-0.11185	0.97132	0.2033
1.888	15.182	-18914	3315.9	-0.11009	0.97122	0.20145
1.89	15.204	-18915	3315.7	-0.10834	0.97112	0.19959
1.892	15.229	-18917	3315.2	-0.10472	0.97132	0.19637
1.894	15.226	-18915	3314.8	-0.10111	0.97151	0.19315
1.896	15.236	-18914	3314.4	-0.097502	0.97171	0.18993
1.898	15.241	-18913	3314	-0.093891	0.9719	0.18671
1.9	15.234	-18913	3313.6	-0.09028	0.9721	0.18349
1.902	15.234	-18916	3313.5	-0.09721	0.97317	0.18671
1.904	15.233	-18919	3313.5	-0.10414	0.97424	0.18993
1.906	15.222	-18917	3313.6	-0.11107	0.97532	0.19315
1.908	15.213	-18916	3313.7	-0.118	0.97639	0.19637
1.91	15.201	-18914	3313.8	-0.12493	0.97746	0.19959
1.912	15.185	-18913	3314	-0.12239	0.97737	0.1991
1.914	15.171	-18913	3314.2	-0.11985	0.97727	0.19862
1.916	15.135	-18913	3314.3	-0.11732	0.97717	0.19813
1.918	15.15	-18915	3314.4	-0.11478	0.97707	0.19764
1.92	15.239	-18917	3314.6	-0.11224	0.97698	0.19715
1.922	15.248	-18920	3314.9	-0.11078	0.97639	0.19588
1.924	15.212	-18922	3315.3	-0.10931	0.9758	0.19461
1.926	15.197	-18918	3315.9	-0.10785	0.97522	0.19335
1.928	15.209	-18915	3316.7	-0.10638	0.97463	0.19208
1.93	15.218	-18917	3317.5	-0.10492	0.97405	0.19081
1.932	15.222	-18918	3318.8	-0.10414	0.97424	0.19159
1.934	15.208	-18918	3320.1	-0.10336	0.97444	0.19237
1.936	15.188	-18917	3321.9	-0.10258	0.97463	0.19315
1.938	15.199	-18914	3324.3	-0.1018	0.97483	0.19393
1.94	15.198	-18911	3326.7	-0.10102	0.97502	0.19471
1.942	15.19	-18915	3329.9	-0.10375	0.97405	0.19666
1.944	15.196	-18918	3333.2	-0.10648	0.97307	0.19862
1.946	15.167	-18917	3336.9	-0.10921	0.9721	0.20057
1.948	15.191	-18917	3340.9	-0.11195	0.97112	0.20252
1.95	15.242	-18914	3344.9	-0.11468	0.97014	0.20447
1.952	15.199	-18911	3349.6	-0.11195	0.96936	0.2033
1.954	15.208	-18912	3354.3	-0.10921	0.96858	0.20213
1.956	15.224	-18912	3359.2	-0.10648	0.9678	0.20096
1.958	15.211	-18913	3364.4	-0.10375	0.96702	0.19979
1.96	15.212	-18914	3369.7	-0.10102	0.96624	0.19862
1.962	15.193	-18914	3375.3	-0.10385	0.96526	0.19559
1.964	15.211	-18913	3380.9	-0.10668	0.96429	0.19256
1.966	15.251	-18908	3386.8	-0.10951	0.96331	0.18954
1.968	15.253	-18902	3392.8	-0.11234	0.96234	0.18651
1.97	15.217	-18900	3398.9	-0.11517	0.96136	0.18349
1.972	15.213	-18898	3405.2	-0.11273	0.96136	0.18456
1.974	15.228	-18901	3411.4	-0.11029	0.96136	0.18564
1.976	15.245	-18905	3417.8	-0.10785	0.96136	0.18671
1.978	15.253	-18905	3424.4	-0.10541	0.96136	0.18778
1.98	15.242	-18906	3431	-0.10297	0.96136	0.18886
1.982	15.235	-18906	3437.1	-0.10219	0.96253	0.18886
1.984	15.265	-18906	3443.2	-0.10141	0.9637	0.18886
1.986	15.255	-18908	3448.9	-0.10063	0.96487	0.18886
1.988	15.231	-18910	3454.3	-0.099845	0.96604	0.18886
1.99	15.247	-18910	3459.6	-0.099064	0.96722	0.18886
1.992	15.252	-18910	3464	-0.095258	0.96722	0.18603
1.994	15.253	-18909	3468.4	-0.091451	0.96722	0.1832
1.996	15.252	-18908	3472.2	-0.087645	0.96722	0.18036
1.998	15.237	-18908	3475.6	-0.083838	0.96722	0.17753
2	15.239	-18907	3479	-0.080032	0.96722	0.1747
2.002	15.245	-18904	3481.8	-0.083058	0.96858	0.17773
2.004	15.197	-18900	3484.6	-0.086083	0.96995	0.18076
2.006	15.199	-18900	3487	-0.089109	0.97132	0.18378
2.008	15.275	-18900	3489	-0.092134	0.97268	0.18681
2.01	15.298	-18901	3491	-0.09516	0.97405	0.18983
2.012	15.239	-18901	3492.2	-0.094574	0.97356	0.19003
2.014	15.215	-18905	3493.4	-0.093989	0.97307	0.19022
2.016	15.216	-18908	3494.3	-0.093403	0.97258	0.19042
2.018	15.228	-18901	3494.8	-0.092818	0.9721	0.19061
2.02	15.253	-18894	3495.3	-0.092232	0.97161	0.19081
2.022	15.281	-18897	3495.1	-0.091354	0.97151	0.18768
2.024	15.199	-18900	3494.9	-0.090475	0.97141	0.18456
2.026	15.18	-18904	3494.4	-0.089597	0.97132	0.18144
2.028	15.176	-18908	3493.7	-0.088718	0.97122	0.17832
2.03	15.17	-18908	3492.9	-0.08784	0.97112	0.17519
2.032	15.178	-18907	3492.1	-0.091061	0.97249	0.17919
2.034	15.163	-18906	3491.3	-0.094282	0.97385	0.1832
2.036	15.162	-18904	3490.4	-0.097502	0.97522	0.1872
2.038	15.178	-18904	3489.3	-0.10072	0.97659	0.1912
2.04	15.16	-18903	3488.3	-0.10394	0.97795	0.1952
2.042	15.146	-18914	3487	-0.10414	0.9762	0.19569
2.044	15.171	-18926	3485.7	-0.10433	0.97444	0.19618
2.046	15.16	-18921	3484.3	-0.10453	0.97268	0.19666
2.048	15.139	-18917	3482.7	-0.10472	0.97092	0.19715
2.05	15.116	-18919	3481.1	-0.10492	0.96917	0.19764
2.052	15.119	-18920	3479.4	-0.10385	0.97151	0.19676
2.054	15.161	-18916	3477.7	-0.10277	0.97385	0.19588
2.056	15.229	-18912	3475.9	-0.1017	0.9762	0.195
2.058	15.225	-18912	3474	-0.10063	0.97854	0.19413
2.06	15.193	-18912	3472.1	-0.099552	0.98088	0.19325
2.062	15.186	-18910	3470.1	-0.10199	0.97961	0.19188
2.064	15.197	-18908	3468.1	-0.10443	0.97834	0.19052
2.066	15.182	-18913	3465.9	-0.10687	0.97707	0.18915
2.068	15.161	-18918	3463.5	-0.10931	0.9758	0.18778
2.07	15.19	-18908	3461.2	-0.11175	0.97454	0.18642
2.072	15.223	-18898	3458.5	-0.10814	0.97395	0.18905
2.074	15.193	-18896	3455.9	-0.10453	0.97336	0.19169
2.076	15.162	-18893	3453.5	-0.10092	0.97278	0.19432
2.078	15.19	-18899	3451.2	-0.097307	0.97219	0.19696
2.08	15.231	-18905	3448.9	-0.093696	0.97161	0.19959
2.082	15.22	-18905	3446.6	-0.095843	0.9719	0.20164
2.084	15.2	-18904	3444.3	-0.09799	0.97219	0.20369
2.086	15.205	-18903	3441.9	-0.10014	0.97249	0.20574
2.088	15.164	-18902	3439.5	-0.10228	0.97278	0.20779
2.09	15.164	-18900	3437.1	-0.10443	0.97307	0.20984
2.092	15.209	-18899	3434.6	-0.10238	0.97327	0.20867
2.094	15.216	-18898	3432	-0.10033	0.97346	0.2075
2.096	15.2	-18898	3429.4	-0.098283	0.97366	0.20633
2.098	15.19	-18900	3426.7	-0.096234	0.97385	0.20516
2.1	15.151	-18903	3424	-0.094184	0.97405	0.20398
2.102	15.159	-18899	3421.4	-0.095453	0.97463	0.20223
2.104	15.166	-18894	3418.8	-0.096722	0.97522	0.20047
2.106	15.163	-18893	3416.1	-0.09799	0.9758	0.19871
2.108	15.192	-18892	3413.5	-0.099259	0.97639	0.19696
2.11	15.248	-18891	3410.9	-0.10053	0.97698	0.1952
2.112	15.207	-18890	3408.3	-0.1015	0.97512	0.19569
2.114	15.188	-18894	3405.7	-0.10248	0.97327	0.19618
2.116	15.206	-18899	3403.1	-0.10346	0.97141	0.19666
2.118	15.195	-18902	3400.6	-0.10443	0.96956	0.19715
2.12	15.184	-18905	3398.1	-0.10541	0.9677	0.19764
2.122	15.197	-18904	3395.7	-0.10326	0.96936	0.19657
2.124	15.211	-18902	3393.3	-0.10111	0.97102	0.19549
2.126	15.206	-18902	3391	-0.098966	0.97268	0.19442
2.128	15.188	-18901	3388.9	-0.096819	0.97434	0.19335
2.13	15.182	-18904	3386.7	-0.094672	0.976	0.19227
2.132	15.185	-18908	3384.7	-0.096331	0.97512	0.19403
2.134	15.189	-18904	3382.6	-0.09799	0.97424	0.19579
2.136	15.188	-18901	3380.7	-0.09965	0.97336	0.19754
2.138	15.192	-18903	3378.9	-0.10131	0.97249	0.1993
2.14	15.189	-18904	3377.1	-0.10297	0.97161	0.20106
2.142	15.195	-18900	3375.4	-0.10375	0.97132	0.20037
2.144	15.204	-18896	3373.8	-0.10453	0.97102	0.19969
2.146	15.191	-18903	3372.2	-0.10531	0.97073	0.19901
2.148	15.162	-18911	3370.7	-0.10609	0.97044	0.19832
2.15	15.18	-18905	3369.2	-0.10687	0.97014	0.19764
2.152	15.204	-18898	3368	-0.10629	0.97024	0.19793
2.154	15.214	-18899	3366.7	-0.1057	0.97034	0.19823
2.156	15.216	-18900	3365.5	-0.10512	0.97044	0.19852
2.158	15.211	-18899	3364.4	-0.10453	0.97053	0.19881
2.16	15.213	-18898	3363.3	-0.10394	0.97063	0.1991
2.162	15.215	-18900	3362.5	-0.10404	0.97034	0.19881
2.164	15.199	-18901	3361.6	-0.10414	0.97005	0.19852
2.166	15.17	-18897	3360.9	-0.10424	0.96975	0.19823
2.168	15.178	-18892	3360.2	-0.10433	0.96946	0.19793
2.17	15.202	-18894	3359.5	-0.10443	0.96917	0.19764
2.172	15.21	-18896	3358.9	-0.10521	0.96897	0.19735
2.174	15.219	-18905	3358.3	-0.10599	0.96878	0.19705
2.176	15.169	-18914	3357.8	-0.10677	0.96858	0.19676
2.178	15.135	-18911	3357.3	-0.10756	0.96839	0.19647
2.18	15.148	-18909	3356.9	-0.10834	0.96819	0.19618
2.182	15.267	-18902	3356.5	-0.10619	0.96917	0.19618
2.184	15.303	-18896	3356.2	-0.10404	0.97014	0.19618
2.186	15.165	-18894	3356	-0.10189	0.97112	0.19618
2.188	15.183	-18892	3355.7	-0.099747	0.9721	0.19618
2.19	15.203	-18891	3355.5	-0.0976	0.97307	0.19618
2.192	15.197	-18889	3355.3	-0.098869	0.96966	0.19266
2.194	15.19	-18896	3355.1	-0.10014	0.96624	0.18915
2.196	15.194	-18903	3354.9	-0.10141	0.96282	0.18564
2.198	15.2	-18895	3354.6	-0.10268	0.95941	0.18212
2.2	15.188	-18887	3354.3	-0.10394	0.95599	0.17861
2.202	15.189	-18886	3354.1	-0.10346	0.95765	0.1828
2.204	15.183	-18886	3354	-0.10297	0.95931	0.187
2.206	15.173	-18888	3354.1	-0.10248	0.96097	0.1912
2.208	15.186	-18890	3354.4	-0.10199	0.96263	0.1954
2.21	15.241	-18895	3354.7	-0.1015	0.96429	0.19959
2.212	15.203	-18900	3355.1	-0.10346	0.96439	0.19998
2.214	15.185	-18904	3355.4	-0.10541	0.96448	0.20037
2.216	15.199	-18908	3355.7	-0.10736	0.96458	0.20076
2.218	15.229	-18905	3356	-0.10931	0.96468	0.20115
2.22	15.23	-18902	3356.3	-0.11126	0.96478	0.20154
2.222	15.215	-18896	3356.5	-0.10814	0.96478	0.20047
2.224	15.206	-18889	3356.7	-0.10502	0.96478	0.1994
2.226	15.211	-18890	3356.9	-0.10189	0.96478	0.19832
2.228	15.254	-18892	3357.2	-0.098771	0.96478	0.19725
2.23	15.232	-18891	3357.4	-0.095648	0.96478	0.19618
2.232	15.168	-18891	3357.6	-0.097502	0.96331	0.19452
2.234	15.176	-18893	3357.8	-0.099357	0.96185	0.19286
2.236	15.187	-18896	3357.9	-0.10121	0.96038	0.1912
2.238	15.213	-18897	3357.8	-0.10307	0.95892	0.18954
2.24	15.244	-18898	3357.7	-0.10492	0.95746	0.18788
2.242	15.248	-18895	3357.5	-0.10307	0.95843	0.1871
2.244	15.238	-18893	3357.3	-0.10121	0.95941	0.18632
2.246	15.213	-18895	3357.2	-0.099357	0.96038	0.18554
2.248	15.202	-18898	3357.2	-0.097502	0.96136	0.18476
2.25	15.208	-18894	3357.1	-0.095648	0.96234	0.18398
2.252	15.208	-18891	3357.3	-0.098088	0.96409	0.18583
2.254	15.207	-18886	3357.5	-0.10053	0.96585	0.18768
2.256	15.202	-18882	3357.7	-0.10297	0.96761	0.18954
2.258	15.21	-18885	3357.9	-0.10541	0.96936	0.19139
2.26	15.204	-18888	3358.1	-0.10785	0.97112	0.19325
2.262	15.175	-18892	3358	-0.10697	0.97024	0.19188
2.264	15.166	-18896	3357.9	-0.10609	0.96936	0.19052
2.266	15.216	-18891	3357.7	-0.10521	0.96848	0.18915
2.268	15.232	-18886	3357.4	-0.10433	0.96761	0.18778
2.27	15.244	-18886	3357.1	-0.10346	0.96673	0.18642
2.272	15.267	-18886	3356.7	-0.10072	0.96878	0.18622
2.274	15.248	-18894	3356.3	-0.09799	0.97083	0.18603
2.276	15.214	-18903	3356.1	-0.095258	0.97288	0.18583
2.278	15.216	-18895	3356.1	-0.092525	0.97493	0.18564
2.28	15.216	-18887	3356	-0.089792	0.97698	0.18544
2.282	15.22	-18887	3356.2	-0.093989	0.97756	0.18798
2.284	15.201	-18888	3356.3	-0.098186	0.97815	0.19052
2.286	15.191	-18892	3356.4	-0.10238	0.97873	0.19305
2.288	15.199	-18897	3356.5	-0.10658	0.97932	0.19559
2.29	15.241	-18892	3356.7	-0.11078	0.9799	0.19813
2.292	15.209	-18887	3356.6	-0.10638	0.98	0.19686
2.294	15.151	-18888	3356.5	-0.10199	0.9801	0.19559
2.296	15.195	-18889	3356.4	-0.0976	0.9802	0.19432
2.298	15.21	-18895	3356.3	-0.093208	0.98029	0.19305
2.3	15.227	-18901	3356.2	-0.088816	0.98039	0.19178
2.302	15.232	-18897	3355.8	-0.090182	0.98068	0.19022
2.304	15.235	-18893	3355.5	-0.091549	0.98098	0.18866
2.306	15.236	-18889	3355.1	-0.092915	0.98127	0.1871
2.308	15.217	-18885	3354.6	-0.094282	0.98156	0.18554
2.31	15.212	-18888	3354.2	-0.095648	0.98186	0.18398
2.312	15.222	-18891	3354.1	-0.097502	0.98176	0.1871
2.314	15.216	-18896	3354	-0.099357	0.98166	0.19022
2.316	15.205	-18901	3353.8	-0.10121	0.98156	0.19335
2.318	15.191	-18898	3353.7	-0.10307	0.98147	0.19647
2.32	15.185	-18895	3353.5	-0.10492	0.98137	0.19959
2.322	15.188	-18893	3353.3	-0.10365	0.98108	0.19988
2.324	15.204	-18890	3353.1	-0.10238	0.98078	0.20018
2.326	15.199	-18892	3352.9	-0.10111	0.98049	0.20047
2.328	15.203	-18894	3352.5	-0.099845	0.9802	0.20076
2.33	15.228	-18892	3352.2	-0.098576	0.9799	0.20106
2.332	15.223	-18890	3351.8	-0.098576	0.98029	0.20086
2.334	15.189	-18887	3351.5	-0.098576	0.98068	0.20067
2.336	15.16	-18885	3351.1	-0.098576	0.98108	0.20047
2.338	15.18	-18886	3350.8	-0.098576	0.98147	0.20028
2.34	15.214	-18886	3350.5	-0.098576	0.98186	0.20008
2.342	15.184	-18889	3350.1	-0.099552	0.97942	0.20125
2.344	15.148	-18891	3349.7	-0.10053	0.97698	0.20242
2.346	15.135	-18889	3349.3	-0.1015	0.97454	0.20359
2.348	15.136	-18887	3348.9	-0.10248	0.9721	0.20476
2.35	15.157	-18891	3348.5	-0.10346	0.96966	0.20594
2.352	15.172	-18894	3348	-0.10297	0.97024	0.20594
2.354	15.143	-18891	3347.6	-0.10248	0.97083	0.20594
2.356	15.134	-18889	3347.1	-0.10199	0.97141	0.20594
2.358	15.138	-18890	3346.6	-0.1015	0.972	0.20594
2.36	15.138	-18891	3346.1	-0.10102	0.97258	0.20594
2.362	15.129	-18889	3345.6	-0.10082	0.97278	0.20545
2.364	15.122	-18887	3345.1	-0.10063	0.97297	0.20496
2.366	15.13	-18891	3344.5	-0.10043	0.97317	0.20447
2.368	15.094	-18894	3343.9	-0.10024	0.97336	0.20398
2.37	15.122	-18893	3343.2	-0.10004	0.97356	0.2035
2.372	15.172	-18893	3342.6	-0.10063	0.972	0.20301
2.374	15.182	-18899	3342	-0.10121	0.97044	0.20252
2.376	15.13	-18905	3341.4	-0.1018	0.96888	0.20203
2.378	15.107	-18898	3340.7	-0.10238	0.96731	0.20154
2.38	15.119	-18891	3340.1	-0.10297	0.96575	0.20106
2.382	15.132	-18890	3339.4	-0.10365	0.96429	0.20115
2.384	15.172	-18889	3338.7	-0.10433	0.96282	0.20125
2.386	15.207	-18887	3338.1	-0.10502	0.96136	0.20135
2.388	15.16	-18885	3337.4	-0.1057	0.9599	0.20145
2.39	15.133	-18885	3336.8	-0.10638	0.95843	0.20154
2.392	15.148	-18886	3336.2	-0.10638	0.95765	0.20223
2.394	15.191	-18889	3335.6	-0.10638	0.95687	0.20291
2.396	15.213	-18892	3335	-0.10638	0.95609	0.20359
2.398	15.213	-18886	3334.4	-0.10638	0.95531	0.20428
2.4	15.223	-18881	3333.8	-0.10638	0.95453	0.20496
2.402	15.221	-18886	3333	-0.10648	0.95414	0.19979
2.404	15.197	-18891	3332.2	-0.10658	0.95375	0.19461
2.406	15.201	-18892	3331.3	-0.10668	0.95336	0.18944
2.408	15.227	-18893	3330.3	-0.10677	0.95297	0.18427
2.41	15.226	-18893	3329.3	-0.10687	0.95258	0.1791
2.412	15.216	-18894	3328.7	-0.10677	0.95365	0.18232
2.414	15.219	-18896	3328	-0.10668	0.95472	0.18554
2.416	15.2	-18899	3327.4	-0.10658	0.9558	0.18876
2.418	15.17	-18893	3326.9	-0.10648	0.95687	0.19198
2.42	15.188	-18888	3326.4	-0.10638	0.95794	0.1952
2.422	15.232	-18886	3325.9	-0.10648	0.95785	0.19481
2.424	15.228	-18885	3325.5	-0.10658	0.95775	0.19442
2.426	15.197	-18888	3325	-0.10668	0.95765	0.19403
2.428	15.222	-18890	3324.4	-0.10677	0.95755	0.19364
2.43	15.262	-18892	3323.9	-0.10687	0.95746	0.19325
2.432	15.226	-18894	3323.4	-0.10492	0.95912	0.19217
2.434	15.218	-18889	3323	-0.10297	0.96077	0.1911
2.436	15.223	-18885	3322.6	-0.10102	0.96243	0.19003
2.438	15.226	-18885	3322.2	-0.099064	0.96409	0.18895
2.44	15.234	-18885	3321.9	-0.097112	0.96575	0.18788
2.442	15.22	-18884	3321.6	-0.099747	0.96546	0.187
2.444	15.202	-18884	3321.3	-0.10238	0.96517	0.18612
2.446	15.198	-18885	3321.1	-0.10502	0.96487	0.18524
2.448	15.192	-18885	3320.8	-0.10765	0.96458	0.18437
2.45	15.183	-18888	3320.5	-0.11029	0.96429	0.18349
2.452	15.223	-18890	3320.1	-0.1097	0.96497	0.18388
2.454	15.229	-18887	3319.8	-0.10912	0.96565	0.18427
2.456	15.265	-18883	3319.6	-0.10853	0.96634	0.18466
2.458	15.244	-18884	3319.3	-0.10795	0.96702	0.18505
2.46	15.248	-18885	3319.1	-0.10736	0.9677	0.18544
2.462	15.271	-18887	3319	-0.10687	0.9677	0.18554
2.464	15.218	-18889	3318.9	-0.10638	0.9677	0.18564
2.466	15.216	-18889	3318.8	-0.1059	0.9677	0.18573
2.468	15.221	-18888	3318.7	-0.10541	0.9677	0.18583
2.47	15.22	-18887	3318.7	-0.10492	0.9677	0.18593
2.472	15.214	-18886	3318.6	-0.10355	0.97053	0.18632
2.474	15.2	-18885	3318.6	-0.10219	0.97336	0.18671
2.476	15.206	-18885	3318.6	-0.10082	0.9762	0.1871
2.478	15.251	-18887	3318.6	-0.099454	0.97903	0.18749
2.48	15.259	-18889	3318.7	-0.098088	0.98186	0.18788
2.482	15.224	-18888	3318.8	-0.096917	0.98117	0.18856
2.484	15.208	-18888	3318.9	-0.095746	0.98049	0.18925
2.486	15.203	-18888	3319	-0.094574	0.97981	0.18993
2.488	15.21	-18889	3319.1	-0.093403	0.97912	0.19061
2.49	15.224	-18891	3319.3	-0.092232	0.97844	0.1913
2.492	15.235	-18892	3319.4	-0.091158	0.97854	0.19178
2.494	15.238	-18890	3319.4	-0.090085	0.97864	0.19227
2.496	15.238	-18887	3319.5	-0.089011	0.97873	0.19276
2.498	15.228	-18887	3319.6	-0.087938	0.97883	0.19325
2.5	15.198	-18887	3319.6	-0.086864	0.97893	0.19374
2.502	15.181	-18891	3319.6	-0.08579	0.97766	0.19296
2.504	15.192	-18895	3319.6	-0.084717	0.97639	0.19217
2.506	15.18	-18891	3319.5	-0.083643	0.97512	0.19139
2.508	15.159	-18887	3319.3	-0.08257	0.97385	0.19061
2.51	15.166	-18886	3319	-0.081496	0.97258	0.18983
2.512	15.182	-18886	3319.1	-0.083838	0.97297	0.19276
2.514	15.162	-18895	3319.1	-0.086181	0.97336	0.19569
2.516	15.079	-18903	3319.2	-0.088523	0.97376	0.19862
2.518	15.041	-18904	3319.4	-0.090866	0.97415	0.20154
2.52	14.983	-18904	3319.5	-0.093208	0.97454	0.20447
2.522	14.899	-18902	3319.6	-0.092134	0.97356	0.20467
2.524	14.838	-18900	3319.7	-0.091061	0.97258	0.20486
2.526	14.79	-18891	3319.8	-0.089987	0.97161	0.20506
2.528	14.752	-18882	3319.8	-0.088914	0.97063	0.20525
2.53	14.734	-18885	3319.9	-0.08784	0.96966	0.20545
2.532	14.743	-18888	3319.8	-0.086474	0.96927	0.20476
2.534	14.871	-18891	3319.6	-0.085107	0.96888	0.20408
2.536	14.81	-18894	3319.5	-0.083741	0.96848	0.2034
2.538	14.741	-18891	3319.3	-0.082374	0.96809	0.20272
2.54	14.716	-18888	3319.2	-0.081008	0.9677	0.20203
2.542	14.728	-18889	3318.9	-0.083448	0.96663	0.20008
2.544	14.787	-18891	3318.7	-0.085888	0.96556	0.19813
2.546	14.772	-18892	3318.4	-0.088328	0.96448	0.19618
2.548	14.732	-18894	3318	-0.090768	0.96341	0.19422
2.55	14.715	-18891	3317.6	-0.093208	0.96234	0.19227
2.552	14.699	-18888	3317.4	-0.093598	0.96312	0.19471
2.554	14.666	-18887	3317.1	-0.093989	0.9639	0.19715
2.556	14.643	-18885	3317	-0.094379	0.96468	0.19959
2.558	14.642	-18884	3317	-0.09477	0.96546	0.20203
2.56	14.634	-18883	3317.1	-0.09516	0.96624	0.20447
2.562	14.64	-18884	3317	-0.095648	0.96673	0.20584
2.564	14.66	-18884	3316.8	-0.096136	0.96722	0.2072
2.566	14.665	-18891	3316.7	-0.096624	0.9677	0.20857
2.568	14.679	-18898	3316.6	-0.097112	0.96819	0.20994
2.57	14.725	-18892	3316.4	-0.0976	0.96868	0.2113
2.572	14.768	-18886	3316	-0.097014	0.96702	0.20633
2.574	14.816	-18886	3315.5	-0.096429	0.96536	0.20135
2.576	14.865	-18887	3315	-0.095843	0.9637	0.19637
2.578	14.931	-18885	3314.3	-0.095258	0.96204	0.19139
2.58	14.992	-18884	3313.7	-0.094672	0.96038	0.18642
2.582	15.013	-18891	3313.2	-0.096819	0.96097	0.18798
2.584	15.04	-18897	3312.7	-0.098966	0.96156	0.18954
2.586	15.082	-18894	3312.3	-0.10111	0.96214	0.1911
2.588	15.112	-18891	3312	-0.10326	0.96273	0.19266
2.59	15.133	-18890	3311.7	-0.10541	0.96331	0.19422
2.592	15.152	-18890	3311.5	-0.1059	0.9637	0.19403
2.594	15.172	-18890	3311.2	-0.10638	0.96409	0.19383
2.596	15.179	-18889	3311	-0.10687	0.96448	0.19364
2.598	15.179	-18890	3310.7	-0.10736	0.96487	0.19344
2.6	15.193	-18891	3310.5	-0.10785	0.96526	0.19325
2.602	15.225	-18889	3310.1	-0.10687	0.96585	0.19247
2.604	15.244	-18887	3309.7	-0.1059	0.96644	0.19169
2.606	15.237	-18891	3309.4	-0.10492	0.96702	0.19091
2.608	15.236	-18896	3309.1	-0.10394	0.96761	0.19012
2.61	15.235	-18894	3308.9	-0.10297	0.96819	0.18934
2.612	15.227	-18892	3308.7	-0.10307	0.9679	0.19042
2.614	15.213	-18888	3308.5	-0.10316	0.96761	0.19149
2.616	15.229	-18884	3308.2	-0.10326	0.96731	0.19256
2.618	15.265	-18892	3308	-0.10336	0.96702	0.19364
2.62	15.225	-18899	3307.7	-0.10346	0.96673	0.19471
2.622	15.214	-18898	3307.5	-0.10248	0.96731	0.19491
2.624	15.293	-18896	3307.3	-0.1015	0.9679	0.1951
2.626	15.28	-18898	3307.2	-0.10053	0.96848	0.1953
2.628	15.222	-18901	3307.2	-0.099552	0.96907	0.19549
2.63	15.213	-18900	3307.2	-0.098576	0.96966	0.19569
2.632	15.227	-18899	3307.4	-0.099259	0.97102	0.19754
2.634	15.261	-18898	3307.6	-0.099942	0.97239	0.1994
2.636	15.238	-18897	3307.7	-0.10063	0.97376	0.20125
2.638	15.23	-18897	3307.8	-0.10131	0.97512	0.20311
2.64	15.238	-18896	3307.9	-0.10199	0.97649	0.20496
2.642	15.262	-18895	3308	-0.10277	0.97629	0.20398
2.644	15.276	-18895	3308.2	-0.10355	0.9761	0.20301
2.646	15.246	-18893	3308.3	-0.10433	0.9759	0.20203
2.648	15.236	-18892	3308.4	-0.10512	0.97571	0.20106
2.65	15.25	-18891	3308.4	-0.1059	0.97551	0.20008
2.652	15.241	-18889	3308.3	-0.10463	0.97541	0.19754
2.654	15.226	-18895	3308.2	-0.10336	0.97532	0.195
2.656	15.215	-18902	3308	-0.10209	0.97522	0.19247
2.658	15.22	-18895	3307.7	-0.10082	0.97512	0.18993
2.66	15.207	-18889	3307.4	-0.099552	0.97502	0.18739
2.662	15.182	-18885	3307.2	-0.098088	0.97512	0.1912
2.664	15.199	-18882	3307.1	-0.096624	0.97522	0.195
2.666	15.22	-18886	3307.1	-0.09516	0.97532	0.19881
2.668	15.217	-18890	3307.4	-0.093696	0.97541	0.20262
2.67	15.213	-18892	3307.6	-0.092232	0.97551	0.20642
2.672	15.204	-18893	3308.1	-0.09477	0.9759	0.20691
2.674	15.199	-18894	3308.6	-0.097307	0.97629	0.2074
2.676	15.204	-18896	3309.2	-0.099845	0.97668	0.20789
2.678	15.204	-18889	3309.9	-0.10238	0.97707	0.20838
2.68	15.197	-18882	3310.6	-0.10492	0.97746	0.20886
2.682	15.18	-18884	3311.7	-0.10355	0.97844	0.20877
2.684	15.178	-18886	3312.9	-0.10219	0.97942	0.20867
2.686	15.189	-18887	3314.3	-0.10082	0.98039	0.20857
2.688	15.193	-18889	3316.1	-0.099454	0.98137	0.20847
2.69	15.186	-18890	3317.9	-0.098088	0.98234	0.20838
2.692	15.188	-18892	3320.4	-0.10063	0.98068	0.20925
2.694	15.222	-18889	3322.9	-0.10316	0.97903	0.21013
2.696	15.214	-18886	3325.8	-0.1057	0.97737	0.21101
2.698	15.196	-18885	3329.1	-0.10824	0.97571	0.21189
2.7	15.227	-18883	3332.4	-0.11078	0.97405	0.21277
2.702	15.21	-18889	3336.2	-0.11117	0.97219	0.20896
2.704	15.204	-18896	3340	-0.11156	0.97034	0.20516
2.706	15.212	-18896	3344.2	-0.11195	0.96848	0.20135
2.708	15.245	-18895	3348.7	-0.11234	0.96663	0.19754
2.71	15.23	-18897	3353.1	-0.11273	0.96478	0.19374
2.712	15.216	-18899	3358.1	-0.11068	0.96526	0.19559
2.714	15.208	-18894	3363.1	-0.10863	0.96575	0.19744
2.716	15.211	-18888	3368.5	-0.10658	0.96624	0.1993
2.718	15.216	-18889	3374.2	-0.10453	0.96673	0.20115
2.72	15.239	-18890	3380	-0.10248	0.96722	0.20301
2.722	15.266	-18890	3386.1	-0.1059	0.96692	0.20467
2.724	15.238	-18890	3392.3	-0.10931	0.96663	0.20633
2.726	15.219	-18892	3398.5	-0.11273	0.96634	0.20799
2.728	15.196	-18894	3404.8	-0.11614	0.96604	0.20964
2.73	15.236	-18893	3411	-0.11956	0.96575	0.2113
2.732	15.314	-18891	3417	-0.11468	0.96585	0.20925
2.734	15.295	-18898	3423	-0.1098	0.96595	0.2072
2.736	15.252	-18904	3428.7	-0.10492	0.96604	0.20516
2.738	15.247	-18903	3434	-0.10004	0.96614	0.20311
2.74	15.243	-18902	3439.4	-0.09516	0.96624	0.20106
2.742	15.245	-18900	3444.4	-0.096331	0.96458	0.19842
2.744	15.251	-18898	3449.3	-0.097502	0.96292	0.19579
2.746	15.24	-18896	3453.5	-0.098674	0.96126	0.19315
2.748	15.245	-18894	3457.1	-0.099845	0.9596	0.19052
2.75	15.304	-18887	3460.6	-0.10102	0.95794	0.18788
2.752	15.306	-18880	3464.2	-0.10336	0.95921	0.18954
2.754	15.252	-18888	3467.8	-0.1057	0.96048	0.1912
2.756	15.242	-18896	3470.9	-0.10804	0.96175	0.19286
2.758	15.254	-18894	3473.5	-0.11039	0.96302	0.19452
2.76	15.248	-18892	3476.2	-0.11273	0.96429	0.19618
2.762	15.242	-18895	3478.2	-0.11419	0.96341	0.19676
2.764	15.255	-18898	3480.1	-0.11566	0.96253	0.19735
2.766	15.251	-18897	3481.7	-0.11712	0.96165	0.19793
2.768	15.245	-18897	3482.9	-0.11858	0.96077	0.19852
2.77	15.243	-18892	3484	-0.12005	0.9599	0.1991
2.772	15.206	-18887	3484.3	-0.11673	0.9596	0.19637
2.774	15.194	-18897	3484.5	-0.11341	0.95931	0.19364
2.776	15.194	-18907	3484.5	-0.11009	0.95902	0.19091
2.778	15.189	-18899	3484.1	-0.10677	0.95872	0.18817
2.78	15.182	-18891	3483.7	-0.10346	0.95843	0.18544
2.782	15.165	-18891	3482.8	-0.10355	0.95951	0.18554
2.784	15.151	-18891	3481.8	-0.10365	0.96058	0.18564
2.786	15.179	-18886	3480.9	-0.10375	0.96165	0.18573
2.788	15.183	-18881	3480	-0.10385	0.96273	0.18583
2.79	15.16	-18884	3479.1	-0.10394	0.9638	0.18593
2.792	15.142	-18886	3478.1	-0.10746	0.96419	0.18768
2.794	15.172	-18892	3477	-0.11097	0.96458	0.18944
2.796	15.203	-18897	3475.9	-0.11448	0.96497	0.1912
2.798	15.14	-18891	3474.6	-0.118	0.96536	0.19296
2.8	15.113	-18886	3473.3	-0.12151	0.96575	0.19471
2.802	15.134	-18884	3471.7	-0.11751	0.96683	0.19471
2.804	15.173	-18882	3470.2	-0.11351	0.9679	0.19471
2.806	15.164	-18885	3468.5	-0.10951	0.96897	0.19471
2.808	15.147	-18888	3466.8	-0.10551	0.97005	0.19471
2.81	15.138	-18885	3465	-0.1015	0.97112	0.19471
2.812	15.124	-18883	3463.2	-0.10316	0.97122	0.19725
2.814	15.145	-18886	3461.5	-0.10482	0.97132	0.19979
2.816	15.181	-18890	3459.7	-0.10648	0.97141	0.20232
2.818	15.188	-18891	3458	-0.10814	0.97151	0.20486
2.82	15.171	-18891	3456.3	-0.1098	0.97161	0.2074
2.822	15.144	-18884	3454.5	-0.11204	0.97122	0.20828
2.824	15.16	-18878	3452.8	-0.11429	0.97083	0.20916
2.826	15.202	-18881	3451	-0.11653	0.97044	0.21004
2.828	15.183	-18885	3449.1	-0.11878	0.97005	0.21091
2.83	15.179	-18886	3447.3	-0.12102	0.96966	0.21179
2.832	15.219	-18888	3445.3	-0.11751	0.96995	0.21111
2.834	15.214	-18887	3443.4	-0.114	0.97024	0.21043
2.836	15.191	-18887	3441.4	-0.11048	0.97053	0.20974
2.838	15.194	-18883	3439.4	-0.10697	0.97083	0.20906
2.84	15.191	-18879	3437.4	-0.10346	0.97112	0.20838
2.842	15.185	-18879	3435.3	-0.10512	0.97141	0.20867
2.844	15.186	-18879	3433.1	-0.10677	0.97171	0.20896
2.846	15.178	-18881	3431	-0.10843	0.972	0.20925
2.848	15.165	-18882	3428.8	-0.11009	0.97229	0.20955
2.85	15.175	-18882	3426.5	-0.11175	0.97258	0.20984
2.852	15.202	-18882	3424.1	-0.11204	0.97249	0.20964
2.854	15.211	-18879	3421.7	-0.11234	0.97239	0.20945
2.856	15.201	-18877	3419.2	-0.11263	0.97229	0.20925
2.858	15.204	-18877	3416.6	-0.11292	0.97219	0.20906
2.86	15.211	-18877	3414	-0.11322	0.9721	0.20886
2.862	15.161	-18878	3411.2	-0.11029	0.97288	0.2073
2.864	15.113	-18879	3408.5	-0.10736	0.97366	0.20574
2.866	15.162	-18880	3405.8	-0.10443	0.97444	0.20418
2.868	15.303	-18880	3403.1	-0.1015	0.97522	0.20262
2.87	15.26	-18884	3400.5	-0.098576	0.976	0.20106
2.872	15.186	-18889	3398.3	-0.10248	0.97532	0.20545
2.874	15.184	-18893	3396.1	-0.10638	0.97463	0.20984
2.876	15.185	-18898	3394	-0.11029	0.97395	0.21423
2.878	15.192	-18890	3391.9	-0.11419	0.97327	0.21862
2.88	15.203	-18882	3389.9	-0.1181	0.97258	0.22302
2.882	15.185	-18879	3387.9	-0.11673	0.97258	0.22184
2.884	15.198	-18877	3385.9	-0.11536	0.97258	0.22067
2.886	15.221	-18878	3383.9	-0.114	0.97258	0.2195
2.888	15.187	-18879	3381.8	-0.11263	0.97258	0.21833
2.89	15.163	-18882	3379.8	-0.11126	0.97258	0.21716
2.892	15.159	-18886	3378	-0.11019	0.97268	0.21579
2.894	15.199	-18885	3376.2	-0.10912	0.97278	0.21443
2.896	15.227	-18885	3374.5	-0.10804	0.97288	0.21306
2.898	15.196	-18884	3372.9	-0.10697	0.97297	0.21169
2.9	15.167	-18883	3371.2	-0.1059	0.97307	0.21033
2.902	15.176	-18880	3369.9	-0.10765	0.97346	0.20955
2.904	15.23	-18877	3368.5	-0.10941	0.97385	0.20877
2.906	15.24	-18880	3367.2	-0.11117	0.97424	0.20799
2.908	15.209	-18884	3366	-0.11292	0.97463	0.2072
2.91	15.196	-18883	3364.8	-0.11468	0.97502	0.20642
2.912	15.187	-18883	3363.8	-0.11536	0.97415	0.20584
2.914	15.187	-18880	3362.7	-0.11605	0.97327	0.20525
2.916	15.196	-18877	3361.7	-0.11673	0.97239	0.20467
2.918	15.197	-18876	3360.7	-0.11741	0.97151	0.20408
2.92	15.2	-18874	3359.7	-0.1181	0.97063	0.2035
2.922	15.2	-18877	3358.8	-0.11624	0.96956	0.19949
2.924	15.193	-18879	3357.8	-0.11439	0.96848	0.19549
2.926	15.169	-18883	3356.8	-0.11253	0.96741	0.19149
2.928	15.159	-18887	3355.7	-0.11068	0.96634	0.18749
2.93	15.189	-18883	3354.6	-0.10882	0.96526	0.18349
2.932	15.208	-18880	3354	-0.11185	0.96673	0.18944
2.934	15.193	-18881	3353.4	-0.11488	0.96819	0.1954
2.936	15.189	-18883	3353	-0.1179	0.96966	0.20135
2.938	15.206	-18886	3352.9	-0.12093	0.97112	0.2073
2.94	15.201	-18888	3352.8	-0.12395	0.97258	0.21326
2.942	15.177	-18884	3352.8	-0.12298	0.97258	0.21218
2.944	15.165	-18879	3352.8	-0.122	0.97258	0.21111
2.946	15.199	-18879	3352.8	-0.12102	0.97258	0.21004
2.948	15.236	-18878	3352.8	-0.12005	0.97258	0.20896
2.95	15.237	-18878	3352.7	-0.11907	0.97258	0.20789
2.952	15.21	-18878	3352.7	-0.11536	0.97297	0.2074
2.954	15.173	-18876	3352.7	-0.11165	0.97336	0.20691
2.956	15.181	-18875	3352.7	-0.10795	0.97376	0.20642
2.958	15.213	-18881	3352.8	-0.10424	0.97415	0.20594
2.96	15.215	-18888	3352.8	-0.10053	0.97454	0.20545
2.962	15.21	-18887	3353.1	-0.10365	0.97356	0.20476
2.964	15.197	-18887	3353.3	-0.10677	0.97258	0.20408
2.966	15.177	-18882	3353.5	-0.1099	0.97161	0.2034
2.968	15.123	-18878	3353.7	-0.11302	0.97063	0.20272
2.97	15.109	-18887	3353.9	-0.11614	0.96966	0.20203
2.972	15.253	-18896	3354.1	-0.11517	0.96927	0.20076
2.974	15.319	-18895	3354.4	-0.11419	0.96888	0.19949
2.976	15.244	-18894	3354.6	-0.11322	0.96848	0.19823
2.978	15.232	-18890	3354.9	-0.11224	0.96809	0.19696
2.98	15.226	-18885	3355.2	-0.11126	0.9677	0.19569
2.982	15.229	-18886	3355.4	-0.11019	0.96624	0.19637
2.984	15.222	-18887	3355.7	-0.10912	0.96478	0.19705
2.986	15.22	-18887	3356	-0.10804	0.96331	0.19774
2.988	15.214	-18886	3356.2	-0.10697	0.96185	0.19842
2.99	15.203	-18885	3356.4	-0.1059	0.96038	0.1991
2.992	15.201	-18885	3356.6	-0.10668	0.96185	0.19969
2.994	15.2	-18880	3356.8	-0.10746	0.96331	0.20028
2.996	15.181	-18876	3357	-0.10824	0.96478	0.20086
2.998	15.176	-18877	3357	-0.10902	0.96624	0.20145
3	15.197	-18877	3357.1	-0.1098	0.9677	0.20203
3.002	15.234	-18878	3357.1	-0.1098	0.96692	0.20096
3.004	15.238	-18879	3357.1	-0.1098	0.96614	0.19988
3.006	15.235	-18880	3357.1	-0.1098	0.96536	0.19881
3.008	15.248	-18881	3357.1	-0.1098	0.96458	0.19774
3.01	15.214	-18879	3357.1	-0.1098	0.9638	0.19666
3.012	15.176	-18878	3357	-0.10843	0.964	0.19598
3.014	15.205	-18876	3356.9	-0.10707	0.96419	0.1953
3.016	15.228	-18875	3356.8	-0.1057	0.96439	0.19461
3.018	15.207	-18883	3356.8	-0.10433	0.96458	0.19393
3.02	15.2	-18891	3356.7	-0.10297	0.96478	0.19325
3.022	15.202	-18890	3356.5	-0.10365	0.96546	0.19266
3.024	15.196	-18889	3356.4	-0.10433	0.96614	0.19208
3.026	15.202	-18885	3356.1	-0.10502	0.96683	0.19149
3.028	15.204	-18881	3355.8	-0.1057	0.96751	0.19091
3.03	15.199	-18881	3355.4	-0.10638	0.96819	0.19032
3.032	15.205	-18881	3354.9	-0.10433	0.96819	0.18895
3.034	15.232	-18881	3354.5	-0.10228	0.96819	0.18759
3.036	15.21	-18882	3353.9	-0.10024	0.96819	0.18622
3.038	15.184	-18882	3353.3	-0.098186	0.96819	0.18485
3.04	15.194	-18882	3352.7	-0.096136	0.96819	0.18349
3.042	15.189	-18884	3352.7	-0.10063	0.96907	0.18915
3.044	15.191	-18886	3352.6	-0.10512	0.96995	0.19481
3.046	15.231	-18883	3352.5	-0.1096	0.97083	0.20047
3.048	15.241	-18880	3352.5	-0.11409	0.97171	0.20613
3.05	15.184	-18877	3352.5	-0.11858	0.97258	0.21179
3.052	15.181	-18873	3352.3	-0.11556	0.972	0.21043
3.054	15.246	-18872	3352.2	-0.11253	0.97141	0.20906
3.056	15.21	-18872	3352	-0.10951	0.97083	0.20769
3.058	15.173	-18878	3351.8	-0.10648	0.97024	0.20633
3.06	15.182	-18883	3351.5	-0.10346	0.96966	0.20496
3.062	15.127	-18885	3351.3	-0.10424	0.96975	0.20447
3.064	15.131	-18886	3351	-0.10502	0.96985	0.20398
3.066	15.162	-18886	3350.8	-0.1058	0.96995	0.2035
3.068	15.164	-18886	3350.6	-0.10658	0.97005	0.20301
3.07	15.125	-18884	3350.4	-0.10736	0.97014	0.20252
3.072	15.121	-18881	3350.2	-0.10921	0.96975	0.20242
3.074	15.132	-18879	3350	-0.11107	0.96936	0.20232
3.076	15.128	-18877	3349.8	-0.11292	0.96897	0.20223
3.078	15.137	-18880	3349.7	-0.11478	0.96858	0.20213
3.08	15.146	-18884	3349.5	-0.11663	0.96819	0.20203
3.082	15.142	-18881	3349.3	-0.11497	0.96702	0.19959
3.084	15.125	-18879	3349.1	-0.11331	0.96585	0.19715
3.086	15.106	-18878	3348.7	-0.11165	0.96468	0.19471
3.088	15.099	-18876	3348.3	-0.11	0.96351	0.19227
3.09	15.141	-18875	3347.9	-0.10834	0.96234	0.18983
3.092	15.189	-18874	3347.2	-0.10512	0.96273	0.19091
3.094	15.146	-18869	3346.6	-0.10189	0.96312	0.19198
3.096	15.098	-18864	3346.1	-0.098674	0.96351	0.19305
3.098	15.13	-18872	3345.8	-0.095453	0.9639	0.19413
3.1	15.157	-18881	3345.5	-0.092232	0.96429	0.1952
3.102	15.144	-18881	3345.5	-0.098478	0.96546	0.19901
3.104	15.136	-18882	3345.4	-0.10472	0.96663	0.20281
3.106	15.172	-18879	3345.3	-0.11097	0.9678	0.20662
3.108	15.215	-18876	3345.2	-0.11722	0.96897	0.21043
3.11	15.205	-18877	3345.1	-0.12346	0.97014	0.21423
3.112	15.225	-18878	3344.8	-0.11839	0.97034	0.21335
3.114	15.24	-18883	3344.5	-0.11331	0.97053	0.21248
3.116	15.202	-18889	3344.2	-0.10824	0.97073	0.2116
3.118	15.206	-18889	3343.9	-0.10316	0.97092	0.21072
3.12	15.254	-18889	3343.6	-0.098088	0.97112	0.20984
3.122	15.265	-18878	3343.3	-0.099162	0.97141	0.20994
3.124	15.223	-18868	3343.1	-0.10024	0.97171	0.21004
3.126	15.227	-18873	3342.8	-0.10131	0.972	0.21013
3.128	15.259	-18878	3342.6	-0.10238	0.97229	0.21023
3.13	15.262	-18879	3342.4	-0.10346	0.97258	0.21033
3.132	15.246	-18880	3342.2	-0.1056	0.97249	0.20867
3.134	15.246	-18881	3341.9	-0.10775	0.97239	0.20701
3.136	15.242	-18883	3341.5	-0.1099	0.97229	0.20535
3.138	15.228	-18878	3340.8	-0.11204	0.97219	0.20369
3.14	15.216	-18873	3340.2	-0.11419	0.9721	0.20203
3.142	15.241	-18874	3339.4	-0.11117	0.97132	0.20028
3.144	15.235	-18875	3338.6	-0.10814	0.97053	0.19852
3.146	15.252	-18879	3337.9	-0.10512	0.96975	0.19676
3.148	15.239	-18883	3337.3	-0.10209	0.96897	0.195
3.15	15.23	-18879	3336.6	-0.099064	0.96819	0.19325
3.152	15.237	-18876	3336.6	-0.10463	0.96936	0.19901
3.154	15.24	-18879	3336.5	-0.11019	0.97053	0.20476
3.156	15.226	-18882	3336.5	-0.11575	0.97171	0.21052
3.158	15.238	-18876	3336.5	-0.12132	0.97288	0.21628
3.16	15.209	-18870	3336.6	-0.12688	0.97405	0.22204
3.162	15.22	-18869	3336.4	-0.12415	0.97336	0.22019
3.164	15.251	-18867	3336.2	-0.12141	0.97268	0.21833
3.166	15.252	-18869	3335.9	-0.11868	0.972	0.21648
3.168	15.25	-18870	3335.6	-0.11595	0.97132	0.21462
3.17	15.246	-18873	3335.3	-0.11322	0.97063	0.21277
3.172	15.244	-18875	3335	-0.11312	0.97141	0.21199
3.174	15.254	-18870	3334.7	-0.11302	0.97219	0.21121
3.176	15.243	-18865	3334.5	-0.11292	0.97297	0.21043
3.178	15.229	-18865	3334.3	-0.11283	0.97376	0.20964
3.18	15.226	-18866	3334.2	-0.11273	0.97454	0.20886
3.182	15.223	-18865	3334	-0.11409	0.97307	0.20779
3.184	15.222	-18863	3333.9	-0.11546	0.97161	0.20672
3.186	15.242	-18864	3333.8	-0.11683	0.97014	0.20564
3.188	15.257	-18864	3333.7	-0.11819	0.96868	0.20457
3.19	15.232	-18870	3333.6	-0.11956	0.96722	0.2035
3.192	15.226	-18876	3333	-0.11751	0.96575	0.19901
3.194	15.251	-18874	3332.5	-0.11546	0.96429	0.19452
3.196	15.264	-18872	3331.9	-0.11341	0.96282	0.19003
3.198	15.238	-18878	3331.1	-0.11136	0.96136	0.18554
3.2	15.216	-18885	3330.4	-0.10931	0.9599	0.18105
3.202	15.211	-18879	3329.9	-0.11068	0.96165	0.1869
3.204	15.23	-18872	3329.4	-0.11204	0.96341	0.19276
3.206	15.236	-18869	3329.2	-0.11341	0.96517	0.19862
3.208	15.224	-18867	3329.2	-0.11478	0.96692	0.20447
3.21	15.222	-18876	3329.3	-0.11614	0.96868	0.21033
3.212	15.232	-18885	3329.4	-0.11849	0.96956	0.21111
3.214	15.275	-18890	3329.5	-0.12083	0.97044	0.21189
3.216	15.293	-18894	3329.5	-0.12317	0.97132	0.21267
3.218	15.266	-18892	3329.4	-0.12551	0.97219	0.21345
3.22	15.22	-18890	3329.3	-0.12786	0.97307	0.21423
3.222	15.246	-18889	3329	-0.12376	0.97336	0.21306
3.224	15.188	-18889	3328.7	-0.11966	0.97366	0.21189
3.226	15.169	-18887	3328.5	-0.11556	0.97395	0.21072
3.228	15.164	-18886	3328.4	-0.11146	0.97424	0.20955
3.23	15.15	-18894	3328.3	-0.10736	0.97454	0.20838
3.232	15.104	-18902	3328.2	-0.10931	0.97454	0.20779
3.234	15.06	-18896	3328.2	-0.11126	0.97454	0.2072
3.236	15.01	-18890	3328.2	-0.11322	0.97454	0.20662
3.238	14.955	-18891	3328.1	-0.11517	0.97454	0.20603
3.24	14.909	-18891	3328.1	-0.11712	0.97454	0.20545
3.242	14.821	-18887	3328	-0.1178	0.97288	0.20418
3.244	14.723	-18882	3328	-0.11849	0.97122	0.20291
3.246	14.709	-18883	3327.9	-0.11917	0.96956	0.20164
3.248	14.748	-18885	3327.8	-0.11985	0.9679	0.20037
3.25	14.766	-18881	3327.7	-0.12054	0.96624	0.1991
3.252	14.73	-18877	3327.5	-0.11966	0.96653	0.19901
3.254	14.729	-18883	3327.3	-0.11878	0.96683	0.19891
3.256	14.747	-18889	3327.1	-0.1179	0.96712	0.19881
3.258	14.727	-18878	3326.9	-0.11702	0.96741	0.19871
3.26	14.712	-18866	3326.8	-0.11614	0.9677	0.19862
3.262	14.71	-18875	3326.6	-0.11497	0.9678	0.19959
3.264	14.708	-18884	3326.3	-0.1138	0.9679	0.20057
3.266	14.707	-18879	3326.1	-0.11263	0.968	0.20154
3.268	14.695	-18875	3325.9	-0.11146	0.96809	0.20252
3.27	14.644	-18874	3325.7	-0.11029	0.96819	0.2035
3.272	14.585	-18872	3325.4	-0.11156	0.96751	0.2033
3.274	14.58	-18879	3325	-0.11283	0.96683	0.20311
3.276	14.614	-18885	3324.7	-0.11409	0.96614	0.20291
3.278	14.634	-18879	3324.3	-0.11536	0.96546	0.20272
3.28	14.633	-18872	3324	-0.11663	0.96478	0.20252
3.282	14.668	-18872	3323.8	-0.11448	0.96526	0.20291
3.284	14.699	-18873	3323.6	-0.11234	0.96575	0.2033
3.286	14.69	-18880	3323.4	-0.11019	0.96624	0.20369
3.288	14.729	-18887	3323.2	-0.10804	0.96673	0.20408
3.29	14.768	-18887	3322.9	-0.1059	0.96722	0.20447
3.292	14.813	-18888	3322.6	-0.10746	0.96663	0.20184
3.294	14.866	-18885	3322.3	-0.10902	0.96604	0.1992
3.296	14.926	-18882	3321.8	-0.11058	0.96546	0.19657
3.298	14.983	-18878	3321.1	-0.11214	0.96487	0.19393
3.3	15.031	-18875	3320.4	-0.1137	0.96429	0.1913
3.302	15.069	-18876	3319.4	-0.11039	0.96497	0.1913
3.304	15.106	-18877	3318.5	-0.10707	0.96565	0.1913
3.306	15.135	-18883	3317.8	-0.10375	0.96634	0.1913
3.308	15.18	-18888	3317.2	-0.10043	0.96702	0.1913
3.31	15.2	-18889	3316.7	-0.097112	0.9677	0.1913
3.312	15.182	-18889	3316.7	-0.10472	0.9679	0.19579
3.314	15.179	-18890	3316.8	-0.11234	0.96809	0.20028
3.316	15.188	-18891	3316.8	-0.11995	0.96829	0.20476
3.318	15.246	-18886	3316.9	-0.12756	0.96848	0.20925
3.32	15.296	-18880	3317	-0.13518	0.96868	0.21374
3.322	15.27	-18881	3316.9	-0.13088	0.96848	0.21101
3.324	15.259	-18882	3316.7	-0.12659	0.96829	0.20828
3.326	15.256	-18881	3316.5	-0.12229	0.96809	0.20555
3.328	15.244	-18880	3316.2	-0.118	0.9679	0.20281
3.33	15.242	-18878	3315.8	-0.1137	0.9677	0.20008
3.332	15.248	-18876	3315.6	-0.11468	0.96722	0.19949
3.334	15.294	-18880	3315.4	-0.11566	0.96673	0.19891
3.336	15.309	-18884	3315.2	-0.11663	0.96624	0.19832
3.338	15.281	-18883	3315.1	-0.11761	0.96575	0.19774
3.34	15.27	-18883	3315	-0.11858	0.96526	0.19715
3.342	15.275	-18882	3315	-0.12024	0.96448	0.19686
3.344	15.278	-18882	3315	-0.1219	0.9637	0.19657
3.346	15.275	-18884	3315	-0.12356	0.96292	0.19627
3.348	15.264	-18885	3314.9	-0.12522	0.96214	0.19598
3.35	15.263	-18882	3314.9	-0.12688	0.96136	0.19569
3.352	15.274	-18880	3314.7	-0.12415	0.96038	0.19315
3.354	15.277	-18878	3314.6	-0.12141	0.95941	0.19061
3.356	15.264	-18876	3314.3	-0.11868	0.95843	0.18808
3.358	15.253	-18874	3313.9	-0.11595	0.95746	0.18554
3.36	15.248	-18873	3313.6	-0.11322	0.95648	0.183
3.362	15.24	-18876	3313.1	-0.11146	0.95833	0.18632
3.364	15.248	-18880	3312.5	-0.1097	0.96019	0.18964
3.366	15.258	-18876	3312.3	-0.10795	0.96204	0.19296
3.368	15.261	-18872	3312.3	-0.10619	0.9639	0.19627
3.37	15.253	-18881	3312.2	-0.10443	0.96575	0.19959
3.372	15.212	-18889	3312.3	-0.10765	0.96517	0.20125
3.374	15.225	-18882	3312.4	-0.11087	0.96458	0.20291
3.376	15.244	-18874	3312.5	-0.11409	0.964	0.20457
3.378	15.258	-18877	3312.6	-0.11732	0.96341	0.20623
3.38	15.29	-18879	3312.6	-0.12054	0.96282	0.20789
3.382	15.283	-18881	3312.6	-0.11653	0.96419	0.2073
3.384	15.26	-18882	3312.6	-0.11253	0.96556	0.20672
3.386	15.268	-18880	3312.7	-0.10853	0.96692	0.20613
3.388	15.249	-18879	3312.9	-0.10453	0.96829	0.20555
3.39	15.245	-18874	3313	-0.10053	0.96966	0.20496
3.392	15.241	-18869	3313.5	-0.10258	0.96946	0.20535
3.394	15.234	-18874	3314	-0.10463	0.96927	0.20574
3.396	15.239	-18879	3314.8	-0.10668	0.96907	0.20613
3.398	15.251	-18877	3315.8	-0.10873	0.96888	0.20652
3.4	15.237	-18876	3316.8	-0.11078	0.96868	0.20691
3.402	15.225	-18872	3318.3	-0.11195	0.96946	0.20623
3.404	15.216	-18868	3319.8	-0.11312	0.97024	0.20555
3.406	15.217	-18869	3321.5	-0.11429	0.97102	0.20486
3.408	15.27	-18870	3323.4	-0.11546	0.9718	0.20418
3.41	15.28	-18876	3325.3	-0.11663	0.97258	0.2035
3.412	15.228	-18882	3327.8	-0.11185	0.97053	0.20135
3.414	15.232	-18880	3330.4	-0.10707	0.96848	0.1992
3.416	15.243	-18877	3333.3	-0.10228	0.96644	0.19705
3.418	15.249	-18867	3336.6	-0.097502	0.96439	0.19491
3.42	15.219	-18856	3340	-0.09272	0.96234	0.19276
3.422	15.225	-18864	3344.4	-0.097795	0.96341	0.19647
3.424	15.262	-18871	3348.9	-0.10287	0.96448	0.20018
3.426	15.245	-18874	3353.7	-0.10795	0.96556	0.20389
3.428	15.198	-18878	3358.8	-0.11302	0.96663	0.2076
3.43	15.208	-18872	3363.9	-0.1181	0.9677	0.2113
3.432	15.284	-18867	3369.4	-0.11546	0.96634	0.20945
3.434	15.326	-18874	3374.8	-0.11283	0.96497	0.2076
3.436	15.324	-18881	3380.4	-0.11019	0.9636	0.20574
3.438	15.303	-18878	3385.9	-0.10756	0.96224	0.20389
3.44	15.278	-18875	3391.5	-0.10492	0.96087	0.20203
3.442	15.279	-18876	3397.3	-0.10228	0.96136	0.19735
3.444	15.284	-18877	3403	-0.09965	0.96185	0.19266
3.446	15.29	-18876	3408.7	-0.097014	0.96234	0.18798
3.448	15.301	-18875	3414.3	-0.094379	0.96282	0.18329
3.45	15.298	-18874	3419.9	-0.091744	0.96331	0.17861
3.452	15.288	-18872	3425.7	-0.095941	0.96419	0.18202
3.454	15.291	-18875	3431.5	-0.10014	0.96507	0.18544
3.456	15.29	-18877	3437.2	-0.10433	0.96595	0.18886
3.458	15.296	-18879	3442.7	-0.10853	0.96683	0.19227
3.46	15.318	-18880	3448.2	-0.11273	0.9677	0.19569
3.462	15.308	-18878	3453.1	-0.11302	0.9679	0.19608
3.464	15.301	-18877	3458	-0.11331	0.96809	0.19647
3.466	15.293	-18881	3462.3	-0.11361	0.96829	0.19686
3.468	15.315	-18886	3466.1	-0.1139	0.96848	0.19725
3.47	15.305	-18881	3469.8	-0.11419	0.96868	0.19764
3.472	15.285	-18876	3472.6	-0.10629	0.96878	0.19413
3.474	15.321	-18877	3475.4	-0.098381	0.96888	0.19061
3.476	15.307	-18877	3477.7	-0.090475	0.96897	0.1871
3.478	15.312	-18877	3479.6	-0.08257	0.96907	0.18359
3.48	15.281	-18876	3481.4	-0.074664	0.96917	0.18007
3.482	15.263	-18874	3483	-0.083253	0.96966	0.18476
3.484	15.266	-18872	3484.6	-0.091842	0.97014	0.18944
3.486	15.275	-18868	3485.8	-0.10043	0.97063	0.19413
3.488	15.27	-18865	3486.7	-0.10902	0.97112	0.19881
3.49	15.257	-18869	3487.6	-0.11761	0.97161	0.2035
3.492	15.239	-18874	3488	-0.11507	0.97053	0.20106
3.494	15.228	-18873	3488.3	-0.11253	0.96946	0.19862
3.496	15.244	-18872	3488.3	-0.11	0.96839	0.19618
3.498	15.259	-18871	3488	-0.10746	0.96731	0.19374
3.5	15.191	-18869	3487.7	-0.10492	0.96624	0.1913
3.502	15.157	-18869	3487.1	-0.10472	0.96751	0.19266
3.504	15.204	-18869	3486.5	-0.10453	0.96878	0.19403
3.506	15.257	-18869	3485.7	-0.10433	0.97005	0.1954
3.508	15.24	-18868	3484.9	-0.10414	0.97132	0.19676
3.51	15.203	-18872	3484	-0.10394	0.97258	0.19813
3.512	15.175	-18876	3483	-0.10785	0.97327	0.19949
3.514	15.162	-18876	3482	-0.11175	0.97395	0.20086
3.516	15.161	-18876	3481	-0.11566	0.97463	0.20223
3.518	15.161	-18873	3479.9	-0.11956	0.97532	0.20359
3.52	15.173	-18871	3478.8	-0.12346	0.976	0.20496
3.522	15.193	-18866	3477.5	-0.1222	0.97639	0.20408
3.524	15.196	-18861	3476.1	-0.12093	0.97678	0.2032
3.526	15.188	-18860	3474.8	-0.11966	0.97717	0.20232
3.528	15.202	-18859	3473.3	-0.11839	0.97756	0.20145
3.53	15.224	-18859	3471.8	-0.11712	0.97795	0.20057
3.532	15.226	-18859	3470.1	-0.11653	0.97854	0.20028
3.534	15.221	-18863	3468.5	-0.11595	0.97912	0.19998
3.536	15.205	-18867	3466.8	-0.11536	0.97971	0.19969
3.538	15.197	-18864	3465	-0.11478	0.98029	0.1994
3.54	15.21	-18861	3463.3	-0.11419	0.98088	0.1991
3.542	15.212	-18857	3461.5	-0.11478	0.98078	0.19959
3.544	15.205	-18854	3459.6	-0.11536	0.98068	0.20008
3.546	15.186	-18858	3457.7	-0.11595	0.98059	0.20057
3.548	15.177	-18863	3455.7	-0.11653	0.98049	0.20106
3.55	15.218	-18863	3453.7	-0.11712	0.98039	0.20154
3.552	15.261	-18862	3451.5	-0.11546	0.97971	0.20223
3.554	15.252	-18863	3449.4	-0.1138	0.97903	0.20291
3.556	15.263	-18863	3447.1	-0.11214	0.97834	0.20359
3.558	15.244	-18858	3444.7	-0.11048	0.97766	0.20428
3.56	15.216	-18853	3442.4	-0.10882	0.97698	0.20496
3.562	15.216	-18852	3439.7	-0.10668	0.97551	0.20125
3.564	15.253	-18852	3437	-0.10453	0.97405	0.19754
3.566	15.248	-18854	3434.2	-0.10238	0.97258	0.19383
3.568	15.224	-18856	3431.3	-0.10024	0.97112	0.19012
3.57	15.227	-18858	3428.4	-0.098088	0.96966	0.18642
3.572	15.203	-18861	3425.7	-0.10053	0.97053	0.1912
3.574	15.282	-18863	3423	-0.10297	0.97141	0.19598
3.576	15.265	-18865	3420.5	-0.10541	0.97229	0.20076
3.578	15.196	-18868	3418.4	-0.10785	0.97317	0.20555
3.58	15.254	-18870	3416.2	-0.11029	0.97405	0.21033
3.582	15.232	-18869	3414	-0.11029	0.97395	0.21013
3.584	15.226	-18869	3411.7	-0.11029	0.97385	0.20994
3.586	15.258	-18867	3409.4	-0.11029	0.97376	0.20974
3.588	15.225	-18865	3407	-0.11029	0.97366	0.20955
3.59	15.222	-18863	3404.6	-0.11029	0.97356	0.20935
3.592	15.25	-18860	3402.2	-0.10931	0.97366	0.20789
3.594	15.277	-18861	3399.9	-0.10834	0.97376	0.20642
3.596	15.271	-18863	3397.7	-0.10736	0.97385	0.20496
3.598	15.257	-18864	3395.5	-0.10638	0.97395	0.2035
3.6	15.246	-18865	3393.4	-0.10541	0.97405	0.20203
3.602	15.24	-18865	3391.4	-0.10931	0.97278	0.20076
3.604	15.243	-18865	3389.5	-0.11322	0.97151	0.19949
3.606	15.243	-18858	3387.6	-0.11712	0.97024	0.19823
3.608	15.243	-18850	3385.8	-0.12102	0.96897	0.19696
3.61	15.246	-18850	3384.1	-0.12493	0.9677	0.19569
3.612	15.249	-18849	3382.4	-0.1219	0.9677	0.19452
3.614	15.248	-18854	3380.8	-0.11888	0.9677	0.19335
3.616	15.241	-18858	3379.2	-0.11585	0.9677	0.19217
3.618	15.243	-18861	3377.8	-0.11283	0.9677	0.191
3.62	15.248	-18864	3376.3	-0.1098	0.9677	0.18983
3.622	15.248	-18863	3375	-0.1097	0.96702	0.18964
3.624	15.244	-18862	3373.7	-0.1096	0.96634	0.18944
3.626	15.241	-18861	3372.5	-0.10951	0.96565	0.18925
3.628	15.24	-18859	3371.3	-0.10941	0.96497	0.18905
3.63	15.239	-18860	3370.2	-0.10931	0.96429	0.18886
3.632	15.248	-18860	3369.2	-0.11097	0.96487	0.19022
3.634	15.25	-18861	3368.2	-0.11263	0.96546	0.19159
3.636	15.255	-18862	3367.3	-0.11429	0.96604	0.19296
3.638	15.251	-18862	3366.5	-0.11595	0.96663	0.19432
3.64	15.243	-18863	3365.7	-0.11761	0.96722	0.19569
3.642	15.238	-18862	3365	-0.11761	0.96614	0.195
3.644	15.244	-18862	3364.4	-0.11761	0.96507	0.19432
3.646	15.298	-18858	3363.8	-0.11761	0.964	0.19364
3.648	15.29	-18854	3363.3	-0.11761	0.96292	0.19296
3.65	15.218	-18858	3362.8	-0.11761	0.96185	0.19227
3.652	15.181	-18862	3362.4	-0.11702	0.96448	0.19315
3.654	15.279	-18861	3362	-0.11644	0.96712	0.19403
3.656	15.295	-18860	3361.7	-0.11585	0.96975	0.19491
3.658	15.263	-18862	3361.5	-0.11527	0.97239	0.19579
3.66	15.252	-18865	3361.3	-0.11468	0.97502	0.19666
3.662	15.256	-18859	3361.2	-0.11527	0.97444	0.19823
3.664	15.257	-18853	3361	-0.11585	0.97385	0.19979
3.666	15.243	-18861	3361	-0.11644	0.97327	0.20135
3.668	15.248	-18869	3360.9	-0.11702	0.97268	0.20291
3.67	15.268	-18864	3360.9	-0.11761	0.9721	0.20447
3.672	15.297	-18859	3361	-0.11732	0.97288	0.20389
3.674	15.253	-18857	3361	-0.11702	0.97366	0.2033
3.676	15.233	-18855	3361.1	-0.11673	0.97444	0.20272
3.678	15.268	-18856	3361.2	-0.11644	0.97522	0.20213
3.68	15.257	-18856	3361.3	-0.11614	0.976	0.20154
3.682	15.26	-18856	3361.5	-0.11546	0.9758	0.20135
3.684	15.275	-18856	3361.7	-0.11478	0.97561	0.20115
3.686	15.277	-18862	3361.8	-0.11409	0.97541	0.20096
3.688	15.278	-18868	3362.1	-0.11341	0.97522	0.20076
3.69	15.254	-18859	3362.3	-0.11273	0.97502	0.20057
3.692	15.234	-18851	3362.5	-0.11156	0.97415	0.20096
3.694	15.266	-18849	3362.7	-0.11039	0.97327	0.20135
3.696	15.304	-18848	3362.9	-0.10921	0.97239	0.20174
3.698	15.295	-18853	3363.1	-0.10804	0.97151	0.20213
3.7	15.273	-18858	3363.4	-0.10687	0.97063	0.20252
3.702	15.27	-18861	3363.6	-0.10853	0.97102	0.20232
3.704	15.269	-18864	3363.8	-0.11019	0.97141	0.20213
3.706	15.263	-18865	3364	-0.11185	0.9718	0.20193
3.708	15.264	-18866	3364.2	-0.11351	0.97219	0.20174
3.71	15.27	-18865	3364.4	-0.11517	0.97258	0.20154
3.712	15.276	-18865	3364.6	-0.11517	0.97239	0.20174
3.714	15.28	-18862	3364.7	-0.11517	0.97219	0.20193
3.716	15.272	-18860	3364.9	-0.11517	0.972	0.20213
3.718	15.266	-18862	3365.1	-0.11517	0.9718	0.20232
3.72	15.274	-18864	3365.3	-0.11517	0.97161	0.20252
3.722	15.286	-18859	3365.4	-0.11546	0.9719	0.20232
3.724	15.293	-18854	3365.5	-0.11575	0.97219	0.20213
3.726	15.27	-18847	3365.6	-0.11605	0.97249	0.20193
3.728	15.243	-18841	3365.6	-0.11634	0.97278	0.20174
3.73	15.226	-18846	3365.6	-0.11663	0.97307	0.20154
3.732	15.27	-18851	3365.6	-0.11653	0.97376	0.20145
3.734	15.342	-18857	3365.7	-0.11644	0.97444	0.20135
3.736	15.292	-18863	3365.7	-0.11634	0.97512	0.20125
3.738	15.235	-18861	3365.6	-0.11624	0.9758	0.20115
3.74	15.205	-18860	3365.4	-0.11614	0.97649	0.20106
3.742	15.254	-18860	3365.3	-0.11614	0.9759	0.20135
3.744	15.325	-18859	3365.2	-0.11614	0.97532	0.20164
3.746	15.294	-18856	3365.1	-0.11614	0.97473	0.20193
3.748	15.251	-18853	3365	-0.11614	0.97415	0.20223
3.75	15.261	-18854	3364.9	-0.11614	0.97356	0.20252
3.752	15.282	-18856	3364.8	-0.11507	0.97434	0.20272
3.754	15.284	-18852	3364.7	-0.114	0.97512	0.20291
3.756	15.271	-18849	3364.6	-0.11292	0.9759	0.20311
3.758	15.255	-18854	3364.4	-0.11185	0.97668	0.2033
3.76	15.242	-18859	3364.2	-0.11078	0.97746	0.2035
3.762	15.23	-18859	3364	-0.11175	0.97756	0.20311
3.764	15.211	-18859	3363.7	-0.11273	0.97766	0.20272
3.766	15.192	-18854	3363.4	-0.1137	0.97776	0.20232
3.768	15.186	-18848	3363.1	-0.11468	0.97785	0.20193
3.77	15.198	-18852	3362.8	-0.11566	0.97795	0.20154
3.772	15.203	-18857	3362.5	-0.11556	0.97766	0.20184
3.774	15.195	-18856	3362.2	-0.11546	0.97737	0.20213
3.776	15.193	-18855	3361.8	-0.11536	0.97707	0.20242
3.778	15.187	-18863	3361.5	-0.11527	0.97678	0.20272
3.78	15.176	-18870	3361.1	-0.11517	0.97649	0.20301
3.782	15.171	-18865	3360.7	-0.11458	0.9759	0.2033
3.784	15.172	-18860	3360.3	-0.114	0.97532	0.20359
3.786	15.177	-18858	3359.8	-0.11341	0.97473	0.20389
3.788	15.194	-18856	3359.4	-0.11283	0.97415	0.20418
3.79	15.2	-18857	3359	-0.11224	0.97356	0.20447
3.792	15.176	-18858	3358.6	-0.11253	0.97366	0.20516
3.794	15.2	-18857	3358.1	-0.11283	0.97376	0.20584
3.796	15.223	-18856	3357.7	-0.11312	0.97385	0.20652
3.798	15.201	-18852	3357.3	-0.11341	0.97395	0.2072
3.8	15.204	-18849	3356.9	-0.1137	0.97405	0.20789
3.802	15.213	-18857	3356.5	-0.11419	0.97376	0.2076
3.804	15.217	-18866	3356.1	-0.11468	0.97346	0.2073
3.806	15.228	-18858	3355.6	-0.11517	0.97317	0.20701
3.808	15.242	-18851	3355.2	-0.11566	0.97288	0.20672
3.81	15.263	-18849	3354.7	-0.11614	0.97258	0.20642
3.812	15.291	-18848	3354.3	-0.11575	0.97239	0.20603
3.814	15.273	-18856	3353.8	-0.11536	0.97219	0.20564
3.816	15.295	-18864	3353.3	-0.11497	0.972	0.20525
3.818	15.296	-18859	3352.8	-0.11458	0.9718	0.20486
3.82	15.289	-18854	3352.3	-0.11419	0.97161	0.20447
3.822	15.247	-18852	3351.7	-0.1139	0.97112	0.20486
3.824	15.229	-18850	3351.1	-0.11361	0.97063	0.20525
3.826	15.321	-18861	3350.6	-0.11331	0.97014	0.20564
3.828	15.363	-18871	3350.1	-0.11302	0.96966	0.20603
3.83	15.328	-18858	3349.7	-0.11273	0.96917	0.20642
3.832	15.311	-18845	3349.2	-0.11322	0.96975	0.20623
3.834	15.298	-18839	3348.7	-0.1137	0.97034	0.20603
3.836	15.285	-18834	3348.2	-0.11419	0.97092	0.20584
3.838	15.309	-18845	3347.7	-0.11468	0.97151	0.20564
3.84	15.329	-18857	3347.2	-0.11517	0.9721	0.20545
3.842	15.307	-18851	3346.8	-0.11507	0.9721	0.20584
3.844	15.306	-18844	3346.3	-0.11497	0.9721	0.20623
3.846	15.304	-18845	3345.8	-0.11488	0.9721	0.20662
3.848	15.295	-18845	3345.4	-0.11478	0.9721	0.20701
3.85	15.307	-18851	3345	-0.11468	0.9721	0.2074
3.852	15.319	-18856	3344.5	-0.11458	0.97171	0.2075
3.854	15.289	-18856	3344.1	-0.11448	0.97132	0.2076
3.856	15.288	-18855	3343.6	-0.11439	0.97092	0.20769
3.858	15.284	-18852	3343.2	-0.11429	0.97053	0.20779
3.86	15.275	-18849	3342.8	-0.11419	0.97014	0.20789
3.862	15.316	-18849	3342.4	-0.11341	0.96956	0.2075
3.864	15.339	-18849	3341.9	-0.11263	0.96897	0.20711
3.866	15.301	-18856	3341.5	-0.11185	0.96839	0.20672
3.868	15.277	-18863	3341.1	-0.11107	0.9678	0.20633
3.87	15.295	-18860	3340.6	-0.11029	0.96722	0.20594
3.872	15.316	-18858	3340.2	-0.11068	0.96722	0.20564
3.874	15.316	-18856	3339.8	-0.11107	0.96722	0.20535
3.876	15.319	-18855	3339.4	-0.11146	0.96722	0.20506
3.878	15.329	-18858	3339	-0.11185	0.96722	0.20476
3.88	15.324	-18861	3338.7	-0.11224	0.96722	0.20447
3.882	15.31	-18855	3338.3	-0.11429	0.96644	0.20369
3.884	15.304	-18849	3338	-0.11634	0.96565	0.20291
3.886	15.311	-18849	3337.7	-0.11839	0.96487	0.20213
3.888	15.308	-18849	3337.3	-0.12044	0.96409	0.20135
3.89	15.323	-18859	3336.9	-0.12249	0.96331	0.20057
3.892	15.323	-18869	3336.6	-0.1222	0.96341	0.20018
3.894	15.305	-18861	3336.3	-0.1219	0.96351	0.19979
3.896	15.286	-18853	3335.9	-0.12161	0.9636	0.1994
3.898	15.284	-18856	3335.6	-0.12132	0.9637	0.19901
3.9	15.297	-18859	3335.3	-0.12102	0.9638	0.19862
3.902	15.339	-18855	3335	-0.12093	0.96302	0.19832
3.904	15.294	-18851	3334.6	-0.12083	0.96224	0.19803
3.906	15.306	-18852	3334.3	-0.12073	0.96146	0.19774
3.908	15.308	-18854	3334.1	-0.12063	0.96068	0.19744
3.91	15.3	-18853	3333.8	-0.12054	0.9599	0.19715
3.912	15.306	-18853	3333.5	-0.12083	0.9599	0.19735
3.914	15.305	-18851	3333.3	-0.12112	0.9599	0.19754
3.916	15.312	-18848	3333	-0.12141	0.9599	0.19774
3.918	15.323	-18850	3332.8	-0.12171	0.9599	0.19793
3.92	15.356	-18851	3332.5	-0.122	0.9599	0.19813
3.922	15.309	-18850	3332.2	-0.12151	0.96068	0.19793
3.924	15.3	-18850	3331.9	-0.12102	0.96146	0.19774
3.926	15.269	-18847	3331.6	-0.12054	0.96224	0.19754
3.928	15.23	-18844	3331.3	-0.12005	0.96302	0.19735
3.93	15.218	-18849	3331	-0.11956	0.9638	0.19715
3.932	15.195	-18855	3330.7	-0.11976	0.96429	0.19774
3.934	15.153	-18853	3330.5	-0.11995	0.96478	0.19832
3.936	15.099	-18852	3330.2	-0.12015	0.96526	0.19891
3.938	15.052	-18857	3330	-0.12034	0.96575	0.19949
3.94	14.989	-18862	3329.7	-0.12054	0.96624	0.20008
3.942	14.936	-18854	3329.5	-0.11976	0.96663	0.19988
3.944	14.891	-18846	3329.2	-0.11897	0.96702	0.19969
3.946	14.846	-18850	3329	-0.11819	0.96741	0.19949
3.948	14.833	-18854	3328.7	-0.11741	0.9678	0.1993
3.95	14.839	-18852	3328.4	-0.11663	0.96819	0.1991
3.952	14.839	-18851	3328.2	-0.11634	0.96858	0.19988
3.954	14.833	-18847	3328	-0.11605	0.96897	0.20067
3.956	14.822	-18843	3327.8	-0.11575	0.96936	0.20145
3.958	14.827	-18846	3327.6	-0.11546	0.96975	0.20223
3.96	14.832	-18849	3327.4	-0.11517	0.97014	0.20301
3.962	14.812	-18848	3327.2	-0.11458	0.96995	0.20311
3.964	14.8	-18846	3327	-0.114	0.96975	0.2032
3.966	14.796	-18848	3326.8	-0.11341	0.96956	0.2033
3.968	14.779	-18850	3326.6	-0.11283	0.96936	0.2034
3.97	14.752	-18851	3326.5	-0.11224	0.96917	0.2035
3.972	14.722	-18852	3326.3	-0.11185	0.96897	0.20369
3.974	14.702	-18853	3326.1	-0.11146	0.96878	0.20389
3.976	14.683	-18855	3325.9	-0.11107	0.96858	0.20408
3.978	14.673	-18853	3325.7	-0.11068	0.96839	0.20428
3.98	14.683	-18852	3325.4	-0.11029	0.96819	0.20447
3.982	14.758	-18858	3325.2	-0.1099	0.9679	0.20476
3.984	14.851	-18864	3324.9	-0.10951	0.96761	0.20506
3.986	14.81	-18857	3324.7	-0.10912	0.96731	0.20535
3.988	14.811	-18850	3324.4	-0.10873	0.96702	0.20564
3.99	14.858	-18851	3324.1	-0.10834	0.96673	0.20594
3.992	14.898	-18852	3323.9	-0.10882	0.968	0.20613
3.994	14.969	-18858	3323.7	-0.10931	0.96927	0.20633
3.996	15.033	-18865	3323.5	-0.1098	0.97053	0.20652
3.998	15.068	-18863	3323.3	-0.11029	0.9718	0.20672
4	15.108	-18862	3323.1	-0.11078	0.97307	0.20691
4.002	15.149	-18854	3322.9	-0.11214	0.97385	0.20633
4.004	15.182	-18846	3322.7	-0.11351	0.97463	0.20574
4.006	15.209	-18849	3322.5	-0.11488	0.97541	0.20516
4.008	15.239	-18853	3322.3	-0.11624	0.9762	0.20457
4.01	15.256	-18854	3322.1	-0.11761	0.97698	0.20398
4.012	15.277	-18854	3321.9	-0.11722	0.9761	0.20428
4.014	15.28	-18857	3321.6	-0.11683	0.97522	0.20457
4.016	15.294	-18860	3321.4	-0.11644	0.97434	0.20486
4.018	15.321	-18858	3321.2	-0.11605	0.97346	0.20516
4.02	15.336	-18857	3321	-0.11566	0.97258	0.20545
4.022	15.328	-18858	3320.8	-0.11507	0.97258	0.20564
4.024	15.333	-18858	3320.5	-0.11448	0.97258	0.20584
4.026	15.348	-18855	3320.3	-0.1139	0.97258	0.20603
4.028	15.354	-18852	3320	-0.11331	0.97258	0.20623
4.03	15.352	-18850	3319.8	-0.11273	0.97258	0.20642
4.032	15.347	-18847	3319.6	-0.11253	0.97297	0.20662
4.034	15.344	-18853	3319.3	-0.11234	0.97336	0.20681
4.036	15.343	-18858	3319.1	-0.11214	0.97376	0.20701
4.038	15.347	-18856	3318.9	-0.11195	0.97415	0.2072
4.04	15.352	-18853	3318.6	-0.11175	0.97454	0.2074
4.042	15.352	-18854	3318.4	-0.11253	0.97376	0.2076
4.044	15.359	-18854	3318.3	-0.11331	0.97297	0.20779
4.046	15.354	-18856	3318.1	-0.11409	0.97219	0.20799
4.048	15.312	-18858	3317.9	-0.11488	0.97141	0.20818
4.05	15.298	-18853	3317.6	-0.11566	0.97063	0.20838
4.052	15.322	-18849	3317.5	-0.11478	0.97073	0.20867
4.054	15.349	-18847	3317.3	-0.1139	0.97083	0.20896
4.056	15.33	-18845	3317.1	-0.11302	0.97092	0.20925
4.058	15.305	-18847	3316.9	-0.11214	0.97102	0.20955
4.06	15.321	-18849	3316.8	-0.11126	0.97112	0.20984
4.062	15.365	-18851	3316.6	-0.11078	0.97024	0.20886
4.064	15.349	-18853	3316.4	-0.11029	0.96936	0.20789
4.066	15.283	-18855	3316.2	-0.1098	0.96848	0.20691
4.068	15.311	-18857	3316	-0.10931	0.96761	0.20594
4.07	15.333	-18858	3315.9	-0.10882	0.96673	0.20496
4.072	15.32	-18859	3315.7	-0.10834	0.96673	0.20535
4.074	15.322	-18856	3315.6	-0.10785	0.96673	0.20574
4.076	15.339	-18853	3315.5	-0.10736	0.96673	0.20613
4.078	15.311	-18853	3315.3	-0.10687	0.96673	0.20652
4.08	15.316	-18852	3315.2	-0.10638	0.96673	0.20691
4.082	15.307	-18850	3315.2	-0.10707	0.96809	0.20701
4.084	15.273	-18849	3315.1	-0.10775	0.96946	0.20711
4.086	15.299	-18851	3315.1	-0.10843	0.97083	0.2072
4.088	15.251	-18853	3315.1	-0.10912	0.97219	0.2073
4.09	15.218	-18854	3315.1	-0.1098	0.97356	0.2074
4.092	15.322	-18854	3315.3	-0.11058	0.97424	0.20828
4.094	15.347	-18854	3315.6	-0.11136	0.97493	0.20916
4.096	15.306	-18853	3316.1	-0.11214	0.97561	0.21004
4.098	15.29	-18852	3316.7	-0.11292	0.97629	0.21091
4.1	15.294	-18851	3317.4	-0.1137	0.97698	0.21179
4.102	15.295	-18850	3318.8	-0.11331	0.97649	0.21111
4.104	15.285	-18848	3320.1	-0.11292	0.976	0.21043
4.106	15.274	-18846	3321.8	-0.11253	0.97551	0.20974
4.108	15.275	-18843	3323.8	-0.11214	0.97502	0.20906
4.11	15.279	-18852	3325.9	-0.11175	0.97454	0.20838
4.112	15.283	-18860	3328.6	-0.11224	0.97395	0.20808
4.114	15.279	-18858	3331.4	-0.11273	0.97336	0.20779
4.116	15.29	-18857	3334.4	-0.11322	0.97278	0.2075
4.118	15.301	-18854	3337.8	-0.1137	0.97219	0.2072
4.12	15.306	-18852	3341.2	-0.11419	0.97161	0.20691
4.122	15.308	-18852	3345.3	-0.11439	0.97141	0.20662
4.124	15.301	-18852	3349.4	-0.11458	0.97122	0.20633
4.126	15.298	-18854	3353.8	-0.11478	0.97102	0.20603
4.128	15.296	-18855	3358.6	-0.11497	0.97083	0.20574
4.13	15.29	-18855	3363.3	-0.11517	0.97063	0.20545
4.132	15.291	-18855	3368.6	-0.11527	0.97073	0.20564
4.134	15.297	-18849	3373.8	-0.11536	0.97083	0.20584
4.136	15.311	-18843	3379.2	-0.11546	0.97092	0.20603
4.138	15.314	-18845	3384.9	-0.11556	0.97102	0.20623
4.14	15.314	-18848	3390.6	-0.11566	0.97112	0.20642
4.142	15.31	-18848	3396.5	-0.11644	0.96985	0.20516
4.144	15.292	-18848	3402.4	-0.11722	0.96858	0.20389
4.146	15.297	-18851	3408.4	-0.118	0.96731	0.20262
4.148	15.349	-18853	3414.4	-0.11878	0.96604	0.20135
4.15	15.344	-18855	3420.4	-0.11956	0.96478	0.20008
4.152	15.324	-18856	3426.2	-0.11868	0.96507	0.20047
4.154	15.325	-18855	3431.9	-0.1178	0.96536	0.20086
4.156	15.302	-18853	3437.4	-0.11692	0.96565	0.20125
4.158	15.325	-18854	3442.6	-0.11605	0.96595	0.20164
4.16	15.397	-18856	3447.8	-0.11517	0.96624	0.20203
4.162	15.378	-18854	3452.3	-0.11468	0.96595	0.20135
4.164	15.333	-18853	3456.8	-0.11419	0.96565	0.20067
4.166	15.325	-18846	3461	-0.1137	0.96536	0.19998
4.168	15.333	-18839	3464.8	-0.11322	0.96507	0.1993
4.17	15.334	-18840	3468.6	-0.11273	0.96478	0.19862
4.172	15.327	-18841	3471.6	-0.11029	0.9636	0.19793
4.174	15.337	-18849	3474.5	-0.10785	0.96243	0.19725
4.176	15.337	-18857	3477.1	-0.10541	0.96126	0.19657
4.178	15.331	-18859	3479.2	-0.10297	0.96009	0.19588
4.18	15.323	-18860	3481.4	-0.10053	0.95892	0.1952
4.182	15.32	-18856	3482.8	-0.10199	0.95931	0.1954
4.184	15.291	-18852	3484.2	-0.10346	0.9597	0.19559
4.186	15.266	-18854	3485.3	-0.10492	0.96009	0.19579
4.188	15.289	-18856	3486.1	-0.10638	0.96048	0.19598
4.19	15.318	-18856	3486.8	-0.10785	0.96087	0.19618
4.192	15.296	-18856	3487	-0.10863	0.96136	0.19598
4.194	15.269	-18857	3487.2	-0.10941	0.96185	0.19579
4.196	15.266	-18858	3487.2	-0.11019	0.96234	0.19559
4.198	15.265	-18850	3487	-0.11097	0.96282	0.1954
4.2	15.255	-18842	3486.7	-0.11175	0.96331	0.1952
4.202	15.247	-18847	3486.1	-0.11146	0.9637	0.19461
4.204	15.261	-18852	3485.5	-0.11117	0.96409	0.19403
4.206	15.266	-18849	3484.7	-0.11087	0.96448	0.19344
4.208	15.244	-18847	3483.9	-0.11058	0.96487	0.19286
4.21	15.23	-18845	3483	-0.11029	0.96526	0.19227
4.212	15.231	-18844	3481.9	-0.11146	0.96683	0.19383
4.214	15.24	-18849	3480.8	-0.11263	0.96839	0.1954
4.216	15.244	-18855	3479.7	-0.1138	0.96995	0.19696
4.218	15.242	-18852	3478.4	-0.11497	0.97151	0.19852
4.22	15.243	-18849	3477.2	-0.11614	0.97307	0.20008
4.222	15.243	-18848	3475.8	-0.11556	0.97317	0.20184
4.224	15.249	-18848	3474.5	-0.11497	0.97327	0.20359
4.226	15.265	-18851	3473.1	-0.11439	0.97336	0.20535
4.228	15.272	-18855	3471.6	-0.1138	0.97346	0.20711
4.23	15.265	-18854	3470.2	-0.11322	0.97356	0.20886
4.232	15.263	-18852	3468.6	-0.11331	0.97385	0.20925
4.234	15.274	-18851	3467	-0.11341	0.97415	0.20964
4.236	15.285	-18849	3465.4	-0.11351	0.97444	0.21004
4.238	15.26	-18851	3463.8	-0.11361	0.97473	0.21043
4.24	15.269	-18852	3462.1	-0.1137	0.97502	0.21082
4.242	15.294	-18850	3460.4	-0.11458	0.97444	0.2116
4.244	15.305	-18848	3458.6	-0.11546	0.97385	0.21238
4.246	15.294	-18848	3456.8	-0.11634	0.97327	0.21316
4.248	15.294	-18847	3455	-0.11722	0.97268	0.21394
4.25	15.315	-18847	3453.3	-0.1181	0.9721	0.21472
4.252	15.296	-18847	3451.3	-0.11839	0.97122	0.21413
4.254	15.286	-18847	3449.4	-0.11868	0.97034	0.21355
4.256	15.284	-18847	3447.4	-0.11897	0.96946	0.21296
4.258	15.281	-18845	3445.4	-0.11927	0.96858	0.21238
4.26	15.269	-18844	3443.3	-0.11956	0.9677	0.21179
4.262	15.276	-18852	3441.2	-0.11839	0.96819	0.21101
4.264	15.321	-18860	3439.1	-0.11722	0.96868	0.21023
4.266	15.304	-18853	3436.9	-0.11605	0.96917	0.20945
4.268	15.302	-18845	3434.7	-0.11488	0.96966	0.20867
4.27	15.317	-18847	3432.4	-0.1137	0.97014	0.20789
4.272	15.302	-18849	3430.2	-0.11497	0.97034	0.20886
4.274	15.265	-18845	3428	-0.11624	0.97053	0.20984
4.276	15.273	-18842	3425.8	-0.11751	0.97073	0.21082
4.278	15.319	-18839	3423.5	-0.11878	0.97092	0.21179
4.28	15.32	-18836	3421.2	-0.12005	0.97112	0.21277
4.282	15.325	-18837	3418.9	-0.11946	0.97053	0.2113
4.284	15.311	-18838	3416.6	-0.11888	0.96995	0.20984
4.286	15.287	-18837	3414.3	-0.11829	0.96936	0.20838
4.288	15.294	-18837	3411.8	-0.11771	0.96878	0.20691
4.29	15.312	-18841	3409.4	-0.11712	0.96819	0.20545
4.292	15.316	-18844	3407.1	-0.1179	0.96761	0.20652
4.294	15.311	-18842	3404.8	-0.11868	0.96702	0.2076
4.296	15.308	-18840	3402.6	-0.11946	0.96644	0.20867
4.298	15.306	-18837	3400.5	-0.12024	0.96585	0.20974
4.3	15.3	-18834	3398.3	-0.12102	0.96526	0.21082
4.302	15.296	-18831	3396.2	-0.12044	0.96614	0.21072
4.304	15.299	-18829	3394	-0.11985	0.96702	0.21062
4.306	15.293	-18832	3391.9	-0.11927	0.9679	0.21052
4.308	15.292	-18834	3389.9	-0.11868	0.96878	0.21043
4.31	15.31	-18837	3387.9	-0.1181	0.96966	0.21033
4.312	15.322	-18840	3386	-0.11761	0.96927	0.20984
4.314	15.325	-18842	3384.1	-0.11712	0.96888	0.20935
4.316	15.327	-18844	3382.4	-0.11663	0.96848	0.20886
4.318	15.314	-18841	3380.7	-0.11614	0.96809	0.20838
4.32	15.301	-18839	3379	-0.11566	0.9677	0.20789
4.322	15.304	-18841	3377.5	-0.11624	0.96741	0.20789
4.324	15.305	-18843	3376.1	-0.11683	0.96712	0.20789
4.326	15.312	-18840	3374.7	-0.11741	0.96683	0.20789
4.328	15.283	-18837	3373.3	-0.118	0.96653	0.20789
4.33	15.275	-18836	3372	-0.11858	0.96624	0.20789
4.332	15.37	-18834	3370.8	-0.11712	0.96692	0.20857
4.334	15.405	-18838	3369.7	-0.11566	0.96761	0.20925
4.336	15.33	-18842	3368.6	-0.11419	0.96829	0.20994
4.338	15.32	-18841	3367.6	-0.11273	0.96897	0.21062
4.34	15.315	-18839	3366.7	-0.11126	0.96966	0.2113
4.342	15.31	-18841	3365.9	-0.11126	0.96966	0.20984
4.344	15.304	-18842	3365.2	-0.11126	0.96966	0.20838
4.346	15.334	-18843	3364.5	-0.11126	0.96966	0.20691
4.348	15.314	-18843	3363.8	-0.11126	0.96966	0.20545
4.35	15.295	-18845	3363.2	-0.11126	0.96966	0.20398
4.352	15.289	-18846	3362.8	-0.11165	0.96946	0.20398
4.354	15.311	-18841	3362.3	-0.11204	0.96927	0.20398
4.356	15.324	-18837	3361.9	-0.11244	0.96907	0.20398
4.358	15.319	-18843	3361.6	-0.11283	0.96888	0.20398
4.36	15.32	-18849	3361.2	-0.11322	0.96868	0.20398
4.362	15.323	-18850	3361	-0.11195	0.96761	0.20447
4.364	15.318	-18851	3360.8	-0.11068	0.96653	0.20496
4.366	15.301	-18854	3360.6	-0.10941	0.96546	0.20545
4.368	15.276	-18857	3360.5	-0.10814	0.96439	0.20594
4.37	15.284	-18856	3360.4	-0.10687	0.96331	0.20642
4.372	15.318	-18856	3360.3	-0.10765	0.9638	0.20545
4.374	15.337	-18864	3360.2	-0.10843	0.96429	0.20447
4.376	15.348	-18873	3360.2	-0.10921	0.96478	0.2035
4.378	15.372	-18864	3360.1	-0.11	0.96526	0.20252
4.38	15.362	-18854	3360.1	-0.11078	0.96575	0.20154
4.382	15.329	-18849	3360.2	-0.11068	0.96575	0.20184
4.384	15.324	-18844	3360.3	-0.11058	0.96575	0.20213
4.386	15.321	-18852	3360.5	-0.11048	0.96575	0.20242
4.388	15.312	-18859	3360.6	-0.11039	0.96575	0.20272
4.39	15.304	-18861	3360.8	-0.11029	0.96575	0.20301
4.392	15.314	-18863	3361	-0.11204	0.96526	0.20203
4.394	15.333	-18847	3361.2	-0.1138	0.96478	0.20106
4.396	15.346	-18831	3361.4	-0.11556	0.96429	0.20008
4.398	15.327	-18834	3361.6	-0.11732	0.9638	0.1991
4.4	15.323	-18836	3361.8	-0.11907	0.96331	0.19813
4.402	15.317	-18841	3361.9	-0.11976	0.96331	0.19813
4.404	15.299	-18845	3362	-0.12044	0.96331	0.19813
4.406	15.308	-18845	3362	-0.12112	0.96331	0.19813
4.408	15.313	-18846	3362.1	-0.1218	0.96331	0.19813
4.41	15.301	-18844	3362.1	-0.12249	0.96331	0.19813
4.412	15.297	-18843	3362.1	-0.1219	0.96273	0.19852
4.414	15.273	-18839	3362.1	-0.12132	0.96214	0.19891
4.416	15.272	-18835	3362.1	-0.12073	0.96156	0.1993
4.418	15.308	-18835	3362	-0.12015	0.96097	0.19969
4.42	15.351	-18834	3362	-0.11956	0.96038	0.20008
4.422	15.403	-18837	3361.9	-0.11897	0.96146	0.1991
4.424	15.333	-18839	3361.8	-0.11839	0.96253	0.19813
4.426	15.298	-18845	3361.8	-0.1178	0.9636	0.19715
4.428	15.299	-18850	3361.8	-0.11722	0.96468	0.19618
4.43	15.296	-18845	3361.7	-0.11663	0.96575	0.1952
4.432	15.305	-18840	3361.6	-0.11819	0.96585	0.19588
4.434	15.312	-18840	3361.4	-0.11976	0.96595	0.19657
4.436	15.307	-18840	3361.3	-0.12132	0.96604	0.19725
4.438	15.289	-18844	3361.2	-0.12288	0.96614	0.19793
4.44	15.277	-18848	3361.1	-0.12444	0.96624	0.19862
4.442	15.268	-18847	3361	-0.12346	0.96653	0.19842
4.444	15.261	-18845	3361	-0.12249	0.96683	0.19823
4.446	15.248	-18844	3360.9	-0.12151	0.96712	0.19803
4.448	15.238	-18843	3360.7	-0.12054	0.96741	0.19784
4.45	15.251	-18841	3360.6	-0.11956	0.9677	0.19764
4.452	15.258	-18838	3360.4	-0.1181	0.96839	0.1992
4.454	15.255	-18840	3360.3	-0.11663	0.96907	0.20076
4.456	15.251	-18842	3360.1	-0.11517	0.96975	0.20232
4.458	15.251	-18839	3360	-0.1137	0.97044	0.20389
4.46	15.252	-18837	3359.8	-0.11224	0.97112	0.20545
4.462	15.242	-18844	3359.6	-0.11068	0.97053	0.20525
4.464	15.24	-18851	3359.4	-0.10912	0.96995	0.20506
4.466	15.238	-18847	3359.1	-0.10756	0.96936	0.20486
4.468	15.231	-18844	3358.8	-0.10599	0.96878	0.20467
4.47	15.238	-18842	3358.5	-0.10443	0.96819	0.20447
4.472	15.26	-18841	3358.2	-0.10609	0.96848	0.2033
4.474	15.278	-18849	3357.9	-0.10775	0.96878	0.20213
4.476	15.251	-18857	3357.6	-0.10941	0.96907	0.20096
4.478	15.231	-18851	3357.3	-0.11107	0.96936	0.19979
4.48	15.252	-18845	3357.1	-0.11273	0.96966	0.19862
4.482	15.261	-18845	3356.7	-0.11204	0.96907	0.1994
4.484	15.274	-18844	3356.4	-0.11136	0.96848	0.20018
4.486	15.274	-18842	3356	-0.11068	0.9679	0.20096
4.488	15.271	-18840	3355.6	-0.11	0.96731	0.20174
4.49	15.294	-18835	3355.2	-0.10931	0.96673	0.20252
4.492	15.348	-18830	3354.9	-0.10902	0.96692	0.20291
4.494	15.374	-18832	3354.5	-0.10873	0.96712	0.2033
4.496	15.373	-18834	3354	-0.10843	0.96731	0.20369
4.498	15.36	-18842	3353.6	-0.10814	0.96751	0.20408
4.5	15.351	-18849	3353.2	-0.10785	0.9677	0.20447
4.502	15.335	-18845	3352.7	-0.10795	0.9677	0.20486
4.504	15.324	-18840	3352.3	-0.10804	0.9677	0.20525
4.506	15.327	-18840	3351.9	-0.10814	0.9677	0.20564
4.508	15.318	-18839	3351.4	-0.10824	0.9677	0.20603
4.51	15.319	-18840	3351	-0.10834	0.9677	0.20642
4.512	15.424	-18841	3350.6	-0.10863	0.96722	0.20506
4.514	15.422	-18843	3350.1	-0.10892	0.96673	0.20369
4.516	15.34	-18844	3349.6	-0.10921	0.96624	0.20232
4.518	15.339	-18843	3349.2	-0.10951	0.96575	0.20096
4.52	15.334	-18841	3348.8	-0.1098	0.96526	0.19959
4.522	15.357	-18839	3348.4	-0.1097	0.96556	0.19998
4.524	15.364	-18836	3348	-0.1096	0.96585	0.20037
4.526	15.35	-18839	3347.6	-0.10951	0.96614	0.20076
4.528	15.344	-18842	3347.3	-0.10941	0.96644	0.20115
4.53	15.338	-18843	3346.9	-0.10931	0.96673	0.20154
4.532	15.347	-18844	3346.5	-0.10912	0.96683	0.20193
4.534	15.356	-18840	3346.2	-0.10892	0.96692	0.20232
4.536	15.357	-18835	3345.8	-0.10873	0.96702	0.20272
4.538	15.349	-18836	3345.5	-0.10853	0.96712	0.20311
4.54	15.333	-18838	3345.2	-0.10834	0.96722	0.2035
4.542	15.331	-18838	3344.9	-0.10853	0.96722	0.2035
4.544	15.361	-18838	3344.5	-0.10873	0.96722	0.2035
4.546	15.368	-18842	3344.2	-0.10892	0.96722	0.2035
4.548	15.347	-18845	3343.7	-0.10912	0.96722	0.2035
4.55	15.355	-18841	3343.3	-0.10931	0.96722	0.2035
4.552	15.352	-18838	3343	-0.11078	0.96663	0.20252
4.554	15.336	-18836	3342.6	-0.11224	0.96604	0.20154
4.556	15.354	-18835	3342.3	-0.1137	0.96546	0.20057
4.558	15.361	-18837	3342	-0.11517	0.96487	0.19959
4.56	15.356	-18839	3341.7	-0.11663	0.96429	0.19862
4.562	15.36	-18835	3341.4	-0.11751	0.96409	0.19862
4.564	15.361	-18832	3341	-0.11839	0.9639	0.19862
4.566	15.35	-18834	3340.7	-0.11927	0.9637	0.19862
4.568	15.345	-18837	3340.5	-0.12015	0.96351	0.19862
4.57	15.349	-18844	3340.2	-0.12102	0.96331	0.19862
4.572	15.337	-18851	3339.9	-0.12024	0.9639	0.19862
4.574	15.322	-18846	3339.6	-0.11946	0.96448	0.19862
4.576	15.302	-18842	3339.3	-0.11868	0.96507	0.19862
4.578	15.307	-18838	3339	-0.1179	0.96565	0.19862
4.58	15.34	-18834	3338.7	-0.11712	0.96624	0.19862
4.582	15.353	-18837	3338.4	-0.11722	0.96673	0.19949
4.584	15.371	-18840	3338.1	-0.11732	0.96722	0.20037
4.586	15.366	-18842	3337.8	-0.11741	0.9677	0.20125
4.588	15.355	-18843	3337.6	-0.11751	0.96819	0.20213
4.59	15.356	-18839	3337.4	-0.11761	0.96868	0.20301
4.592	15.373	-18835	3337.1	-0.11653	0.96985	0.2034
4.594	15.364	-18836	3336.8	-0.11546	0.97102	0.20379
4.596	15.358	-18836	3336.6	-0.11439	0.97219	0.20418
4.598	15.335	-18836	3336.4	-0.11331	0.97336	0.20457
4.6	15.329	-18836	3336.2	-0.11224	0.97454	0.20496
4.602	15.322	-18842	3336	-0.11156	0.97385	0.20516
4.604	15.313	-18847	3335.7	-0.11087	0.97317	0.20535
4.606	15.341	-18845	3335.5	-0.11019	0.97249	0.20555
4.608	15.396	-18843	3335.2	-0.10951	0.9718	0.20574
4.61	15.37	-18839	3334.9	-0.10882	0.97112	0.20594
4.612	15.298	-18835	3334.7	-0.10804	0.97014	0.20564
4.614	15.253	-18837	3334.5	-0.10726	0.96917	0.20535
4.616	15.221	-18840	3334.3	-0.10648	0.96819	0.20506
4.618	15.167	-18838	3334	-0.1057	0.96722	0.20476
4.62	15.107	-18836	3333.7	-0.10492	0.96624	0.20447
4.622	15.053	-18833	3333.5	-0.10541	0.96712	0.20467
4.624	15.003	-18831	3333.3	-0.1059	0.968	0.20486
4.626	14.963	-18833	3333.1	-0.10638	0.96888	0.20506
4.628	14.937	-18835	3332.9	-0.10687	0.96975	0.20525
4.63	14.921	-18834	3332.6	-0.10736	0.97063	0.20545
4.632	14.915	-18832	3332.3	-0.10716	0.96946	0.20496
4.634	14.95	-18831	3332	-0.10697	0.96829	0.20447
4.636	14.985	-18830	3331.7	-0.10677	0.96712	0.20398
4.638	14.977	-18832	3331.4	-0.10658	0.96595	0.2035
4.64	14.966	-18834	3331.2	-0.10638	0.96478	0.20301
4.642	14.946	-18835	3330.9	-0.10716	0.96507	0.20262
4.644	14.915	-18835	3330.6	-0.10795	0.96536	0.20223
4.646	14.908	-18837	3330.3	-0.10873	0.96565	0.20184
4.648	14.914	-18838	3330	-0.10951	0.96595	0.20145
4.65	14.901	-18838	3329.7	-0.11029	0.96624	0.20106
4.652	14.854	-18837	3329.4	-0.11097	0.96653	0.20145
4.654	14.846	-18834	3329.1	-0.11165	0.96683	0.20184
4.656	14.855	-18830	3328.8	-0.11234	0.96712	0.20223
4.658	14.852	-18832	3328.6	-0.11302	0.96741	0.20262
4.66	14.862	-18833	3328.4	-0.1137	0.9677	0.20301
4.662	14.889	-18836	3328	-0.11351	0.96751	0.20145
4.664	14.929	-18839	3327.7	-0.11331	0.96731	0.19988
4.666	14.966	-18836	3327.4	-0.11312	0.96712	0.19832
4.668	15.02	-18834	3327.1	-0.11292	0.96692	0.19676
4.67	15.033	-18834	3326.8	-0.11273	0.96673	0.1952
4.672	15.067	-18835	3326.5	-0.11253	0.96683	0.19618
4.674	15.104	-18834	3326.2	-0.11234	0.96692	0.19715
4.676	15.133	-18833	3325.9	-0.11214	0.96702	0.19813
4.678	15.18	-18832	3325.6	-0.11195	0.96712	0.1991
4.68	15.231	-18832	3325.3	-0.11175	0.96722	0.20008
