t	ekg	optical	pressure	accel_x	accel_y	accel_z
0	19.977	-26467	3548.2	0.10063	0.11468	1.0062
0.002	19.992	-26473	3549.3	0.099845	0.11419	1.0065
0.004	20.012	-26479	3550.4	0.099064	0.1137	1.0067
0.006	19.994	-26485	3551.5	0.098283	0.11322	1.007
0.008	20.009	-26499	3552.6	0.097502	0.11273	1.0073
0.01	20.004	-26513	3553.8	0.096722	0.11224	1.0076
0.012	20.005	-26511	3554.9	0.095941	0.11175	1.0079
0.014	19.885	-26508	3556.1	0.09516	0.11126	1.0082
0.016	19.823	-26514	3557.1	0.096917	0.11126	1.007
0.018	19.935	-26520	3558.2	0.098674	0.11126	1.0059
0.02	20.047	-26511	3559.1	0.10043	0.11126	1.0047
0.022	20.047	-26502	3560.1	0.10219	0.11126	1.0035
0.024	20.041	-26512	3561	0.10394	0.11126	1.0024
0.026	20.054	-26522	3562	0.10502	0.11117	1.0028
0.028	20.015	-26521	3562.9	0.10609	0.11107	1.0033
0.03	19.989	-26519	3563.9	0.10716	0.11097	1.0038
0.032	19.982	-26519	3565	0.10824	0.11087	1.0043
0.034	19.949	-26519	3566	0.10931	0.11078	1.0048
0.036	19.933	-26523	3567.2	0.10882	0.11097	1.0027
0.038	20.017	-26527	3568.4	0.10834	0.11117	1.0007
0.04	20.068	-26517	3569.7	0.10785	0.11136	0.99864
0.042	20.045	-26507	3571.1	0.10736	0.11156	0.99659
0.044	20.023	-26507	3572.6	0.10687	0.11175	0.99454
0.046	19.961	-26507	3573.9	0.10677	0.11195	0.99562
0.048	19.929	-26507	3575.3	0.10668	0.11214	0.99669
0.05	19.973	-26507	3576.5	0.10658	0.11234	0.99776
0.052	20	-26501	3577.6	0.10648	0.11253	0.99884
0.054	19.999	-26496	3578.6	0.10638	0.11273	0.99991
0.056	19.975	-26500	3579.6	0.10697	0.11253	1.0015
0.058	19.947	-26504	3580.6	0.10756	0.11234	1.003
0.06	19.969	-26505	3581.5	0.10814	0.11214	1.0046
0.062	19.982	-26506	3582.4	0.10873	0.11195	1.0062
0.064	19.945	-26509	3583.3	0.10931	0.11175	1.0077
0.066	19.899	-26512	3584.3	0.10736	0.11214	1.0089
0.068	19.847	-26504	3585.3	0.10541	0.11253	1.0101
0.07	19.878	-26497	3586.2	0.10346	0.11292	1.0112
0.072	19.982	-26494	3587.2	0.1015	0.11331	1.0124
0.074	19.978	-26490	3588.1	0.099552	0.1137	1.0136
0.076	19.862	-26497	3589.1	0.098088	0.11204	1.0124
0.078	19.776	-26504	3590	0.096624	0.11039	1.0112
0.08	19.768	-26504	3591	0.09516	0.10873	1.0101
0.082	19.847	-26504	3592	0.093696	0.10707	1.0089
0.084	19.943	-26502	3593.1	0.092232	0.10541	1.0077
0.086	19.942	-26500	3594.1	0.094184	0.10609	1.0065
0.088	19.963	-26503	3595.1	0.096136	0.10677	1.0054
0.09	19.968	-26506	3596.1	0.098088	0.10746	1.0042
0.092	19.951	-26506	3597	0.10004	0.10814	1.003
0.094	19.963	-26506	3597.9	0.10199	0.10882	1.0019
0.096	19.819	-26506	3598.6	0.10121	0.10736	1.0021
0.098	19.826	-26506	3599.3	0.10043	0.1059	1.0023
0.1	19.894	-26503	3599.9	0.09965	0.10443	1.0024
0.102	19.923	-26500	3600.5	0.098869	0.10297	1.0026
0.104	19.963	-26505	3601	0.098088	0.1015	1.0028
0.106	19.98	-26510	3601.4	0.096234	0.10326	1.0049
0.108	19.988	-26508	3601.8	0.094379	0.10502	1.0069
0.11	20.009	-26506	3602	0.092525	0.10677	1.009
0.112	20	-26504	3602.2	0.09067	0.10853	1.011
0.114	19.961	-26502	3602.3	0.088816	0.11029	1.0131
0.116	19.996	-26502	3602.5	0.089987	0.10941	1.0138
0.118	20.033	-26502	3602.6	0.091158	0.10853	1.0145
0.12	19.998	-26504	3602.6	0.09233	0.10765	1.0151
0.122	19.963	-26505	3602.5	0.093501	0.10677	1.0158
0.124	19.946	-26501	3602.4	0.094672	0.1059	1.0165
0.126	19.933	-26498	3602.3	0.093891	0.10658	1.0158
0.128	19.921	-26498	3602.1	0.09311	0.10726	1.0151
0.13	19.898	-26497	3602.1	0.09233	0.10795	1.0145
0.132	19.885	-26498	3602	0.091549	0.10863	1.0138
0.134	19.908	-26499	3601.9	0.090768	0.10931	1.0131
0.136	19.957	-26496	3601.8	0.089206	0.10951	1.013
0.138	20.006	-26493	3601.6	0.087645	0.1097	1.0129
0.14	20.061	-26494	3601.4	0.086083	0.1099	1.0128
0.142	20.124	-26496	3601.2	0.084522	0.11009	1.0127
0.144	20.1	-26496	3601	0.08296	0.11029	1.0126
0.146	20.015	-26496	3600.5	0.083058	0.1099	1.0113
0.148	19.957	-26498	3599.9	0.083155	0.10951	1.0101
0.15	19.892	-26500	3599.4	0.083253	0.10912	1.0088
0.152	19.88	-26498	3598.7	0.08335	0.10873	1.0075
0.154	19.9	-26496	3598	0.083448	0.10834	1.0063
0.156	19.889	-26499	3597	0.08335	0.10775	1.0056
0.158	19.977	-26502	3596.1	0.083253	0.10716	1.0049
0.16	19.998	-26496	3595	0.083155	0.10658	1.0042
0.162	19.964	-26490	3594	0.083058	0.10599	1.0035
0.164	19.996	-26492	3592.9	0.08296	0.10541	1.0028
0.166	19.945	-26493	3591.8	0.083741	0.10531	1.0026
0.168	19.882	-26497	3590.7	0.084522	0.10521	1.0024
0.17	20.021	-26501	3589.6	0.085302	0.10512	1.0023
0.172	20.025	-26498	3588.5	0.086083	0.10502	1.0021
0.174	20.046	-26495	3587.4	0.086864	0.10492	1.0019
0.176	20.109	-26492	3586.4	0.088718	0.10492	1.0019
0.178	20.082	-26490	3585.3	0.090573	0.10492	1.0019
0.18	19.962	-26492	3584.3	0.092427	0.10492	1.0019
0.182	19.959	-26494	3583.3	0.094282	0.10492	1.0019
0.184	20.023	-26495	3582.3	0.096136	0.10492	1.0019
0.186	20.033	-26496	3581.3	0.094477	0.1057	1.0023
0.188	20.006	-26497	3580.3	0.092818	0.10648	1.0026
0.19	19.986	-26497	3579.3	0.091158	0.10726	1.003
0.192	20.01	-26493	3578.4	0.089499	0.10804	1.0034
0.194	20.027	-26488	3577.5	0.08784	0.10882	1.0038
0.196	20.01	-26489	3576.7	0.086571	0.10814	1.0024
0.198	20.04	-26489	3576	0.085302	0.10746	1.0011
0.2	20.014	-26491	3575.3	0.084034	0.10677	0.99972
0.202	19.945	-26493	3574.6	0.082765	0.10609	0.99835
0.204	19.927	-26496	3573.9	0.081496	0.10541	0.99698
0.206	19.928	-26498	3573.4	0.083741	0.10551	0.99572
0.208	19.915	-26499	3572.9	0.085986	0.1056	0.99445
0.21	19.93	-26500	3572.5	0.08823	0.1057	0.99318
0.212	19.945	-26500	3572.2	0.090475	0.1058	0.99191
0.214	20.006	-26500	3571.9	0.09272	0.1059	0.99064
0.216	20.087	-26490	3571.7	0.093403	0.10492	0.99093
0.218	20.069	-26481	3571.5	0.094086	0.10394	0.99123
0.22	20.002	-26480	3571.2	0.09477	0.10297	0.99152
0.222	19.933	-26479	3571	0.095453	0.10199	0.99181
0.224	19.916	-26482	3570.8	0.096136	0.10102	0.9921
0.226	19.954	-26484	3570.8	0.096136	0.10111	0.99376
0.228	20.018	-26488	3570.7	0.096136	0.10121	0.99542
0.23	20.072	-26491	3570.6	0.096136	0.10131	0.99708
0.232	20.021	-26490	3570.5	0.096136	0.10141	0.99874
0.234	19.941	-26489	3570.3	0.096136	0.1015	1.0004
0.236	19.965	-26488	3570.4	0.096526	0.10141	1
0.238	20.003	-26486	3570.4	0.096917	0.10131	0.99962
0.24	19.937	-26491	3570.4	0.097307	0.10121	0.99923
0.242	19.883	-26496	3570.5	0.097698	0.10111	0.99884
0.244	19.977	-26498	3570.5	0.098088	0.10102	0.99845
0.246	20.098	-26499	3570.6	0.096526	0.10131	0.99757
0.248	20.093	-26500	3570.7	0.094965	0.1016	0.99669
0.25	19.996	-26500	3570.8	0.093403	0.10189	0.99581
0.252	19.967	-26495	3570.8	0.091842	0.10219	0.99493
0.254	19.995	-26491	3570.8	0.09028	0.10248	0.99406
0.256	20.055	-26490	3570.8	0.091061	0.10258	0.99347
0.258	20.084	-26489	3570.8	0.091842	0.10268	0.99288
0.26	20.038	-26488	3570.7	0.092622	0.10277	0.9923
0.262	19.954	-26488	3570.5	0.093403	0.10287	0.99171
0.264	19.932	-26489	3570.3	0.094184	0.10297	0.99113
0.266	19.937	-26489	3570	0.094477	0.10375	0.99084
0.268	19.952	-26492	3569.7	0.09477	0.10453	0.99054
0.27	19.997	-26495	3569.4	0.095062	0.10531	0.99025
0.272	19.983	-26495	3569	0.095355	0.10609	0.98996
0.274	19.981	-26495	3568.7	0.095648	0.10687	0.98966
0.276	19.956	-26488	3568.3	0.096038	0.10677	0.99113
0.278	19.97	-26481	3567.9	0.096429	0.10668	0.99259
0.28	19.957	-26480	3567.6	0.096819	0.10658	0.99406
0.282	19.938	-26479	3567.3	0.09721	0.10648	0.99552
0.284	19.953	-26481	3567	0.0976	0.10638	0.99698
0.286	20.011	-26483	3566.7	0.097795	0.10804	0.99981
0.288	20.016	-26489	3566.4	0.09799	0.1097	1.0026
0.29	20.002	-26495	3566.1	0.098186	0.11136	1.0055
0.292	19.994	-26495	3565.8	0.098381	0.11302	1.0083
0.294	19.959	-26496	3565.5	0.098576	0.11468	1.0111
0.296	19.912	-26492	3565.1	0.096136	0.11488	1.0115
0.298	19.89	-26487	3564.8	0.093696	0.11507	1.0119
0.3	19.912	-26488	3564.4	0.091256	0.11527	1.0123
0.302	19.942	-26489	3563.9	0.088816	0.11546	1.0127
0.304	19.905	-26491	3563.5	0.086376	0.11566	1.0131
0.306	19.823	-26493	3563.2	0.086962	0.11458	1.0119
0.308	19.809	-26492	3562.8	0.087547	0.11351	1.0107
0.31	19.88	-26491	3562.5	0.088133	0.11244	1.0096
0.312	19.951	-26488	3562.3	0.088718	0.11136	1.0084
0.314	19.986	-26484	3562.1	0.089304	0.11029	1.0072
0.316	19.987	-26483	3561.9	0.088718	0.1098	1.005
0.318	19.959	-26482	3561.7	0.088133	0.10931	1.0027
0.32	19.931	-26486	3561.4	0.087547	0.10882	1.0005
0.322	19.955	-26490	3561.1	0.086962	0.10834	0.99825
0.324	19.925	-26492	3560.7	0.086376	0.10785	0.99601
0.326	19.899	-26494	3560.2	0.087742	0.10892	0.99796
0.328	19.887	-26497	3559.7	0.089109	0.11	0.99991
0.33	19.884	-26500	3559.2	0.090475	0.11107	1.0019
0.332	19.899	-26499	3558.6	0.091842	0.11214	1.0038
0.334	19.905	-26499	3558	0.093208	0.11322	1.0058
0.336	19.899	-26498	3557.4	0.093208	0.11273	1.0075
0.338	19.917	-26497	3556.9	0.093208	0.11224	1.0093
0.34	19.834	-26498	3556.4	0.093208	0.11175	1.011
0.342	19.85	-26499	3556	0.093208	0.11126	1.0128
0.344	19.914	-26499	3555.6	0.093208	0.11078	1.0146
0.346	19.924	-26499	3555.3	0.095062	0.11117	1.0149
0.348	19.935	-26497	3555	0.096917	0.11156	1.0153
0.35	19.983	-26495	3554.8	0.098771	0.11195	1.0157
0.352	20.078	-26491	3554.6	0.10063	0.11234	1.0161
0.354	20.021	-26488	3554.5	0.10248	0.11273	1.0165
0.356	19.999	-26491	3554.4	0.1016	0.11244	1.0153
0.358	19.993	-26493	3554.3	0.10072	0.11214	1.0142
0.36	20.058	-26497	3554.3	0.099845	0.11185	1.013
0.362	20.069	-26501	3554.4	0.098966	0.11156	1.0118
0.364	20.006	-26496	3554.5	0.098088	0.11126	1.0106
0.366	19.965	-26491	3554.6	0.099259	0.11204	1.0097
0.368	19.942	-26492	3554.7	0.10043	0.11283	1.0087
0.37	19.96	-26493	3554.9	0.1016	0.11361	1.0077
0.372	20.036	-26499	3555	0.10277	0.11439	1.0067
0.374	20.108	-26505	3555.2	0.10394	0.11517	1.0058
0.376	20.133	-26507	3555.3	0.10316	0.1138	1.0054
0.378	20.037	-26510	3555.3	0.10238	0.11244	1.005
0.38	19.924	-26504	3555.4	0.1016	0.11107	1.0046
0.382	19.925	-26499	3555.4	0.10082	0.1097	1.0042
0.384	19.975	-26499	3555.4	0.10004	0.10834	1.0038
0.386	20.018	-26499	3555.3	0.098869	0.10824	1.0031
0.388	20.053	-26493	3555.3	0.097698	0.10814	1.0024
0.39	20.066	-26487	3555.1	0.096526	0.10804	1.0018
0.392	20.042	-26491	3554.9	0.095355	0.10795	1.0011
0.394	19.996	-26495	3554.7	0.094184	0.10785	1.0004
0.396	19.977	-26497	3554.4	0.09477	0.10687	0.99981
0.398	19.974	-26498	3554.1	0.095355	0.1059	0.99923
0.4	19.999	-26505	3553.7	0.095941	0.10492	0.99864
0.402	20.043	-26511	3553.4	0.096526	0.10394	0.99806
0.404	20.068	-26508	3553	0.097112	0.10297	0.99747
0.406	20.05	-26504	3552.7	0.099357	0.10414	0.99806
0.408	20	-26502	3552.4	0.1016	0.10531	0.99864
0.41	20.015	-26501	3552.2	0.10385	0.10648	0.99923
0.412	20.043	-26504	3552	0.10609	0.10765	0.99981
0.414	19.982	-26507	3551.7	0.10834	0.10882	1.0004
0.416	20	-26508	3551.5	0.10834	0.10853	1.0002
0.418	19.978	-26509	3551.3	0.10834	0.10824	1
0.42	20.033	-26509	3551.1	0.10834	0.10795	0.99981
0.422	20.022	-26509	3550.9	0.10834	0.10765	0.99962
0.424	20.02	-26507	3550.7	0.10834	0.10736	0.99942
0.426	20.005	-26505	3550.5	0.10707	0.10775	0.99942
0.428	20.002	-26507	3550.3	0.1058	0.10814	0.99942
0.43	20.043	-26509	3550	0.10453	0.10853	0.99942
0.432	20.013	-26510	3549.7	0.10326	0.10892	0.99942
0.434	20.01	-26510	3549.5	0.10199	0.10931	0.99942
0.436	20.008	-26511	3549.2	0.10238	0.1099	0.99942
0.438	19.992	-26511	3549	0.10277	0.11048	0.99942
0.44	19.982	-26512	3548.9	0.10316	0.11107	0.99942
0.442	19.98	-26512	3548.9	0.10355	0.11165	0.99942
0.444	19.961	-26508	3548.8	0.10394	0.11224	0.99942
0.446	19.981	-26505	3548.9	0.10189	0.11185	0.99845
0.448	20.028	-26507	3549	0.099845	0.11146	0.99747
0.45	20.037	-26509	3549.1	0.097795	0.11107	0.9965
0.452	20.002	-26509	3549.1	0.095746	0.11068	0.99552
0.454	19.988	-26510	3549.1	0.093696	0.11029	0.99454
0.456	19.998	-26509	3549.1	0.092134	0.11126	0.99484
0.458	19.996	-26509	3549.2	0.090573	0.11224	0.99513
0.46	19.956	-26509	3549.2	0.089011	0.11322	0.99542
0.462	19.902	-26509	3549.2	0.08745	0.11419	0.99572
0.464	19.893	-26516	3549.2	0.085888	0.11517	0.99601
0.466	19.934	-26523	3549.2	0.085302	0.11458	0.9962
0.468	19.95	-26517	3549.3	0.084717	0.114	0.9964
0.47	19.921	-26511	3549.3	0.084131	0.11341	0.99659
0.472	19.872	-26517	3549.3	0.083546	0.11283	0.99679
0.474	19.833	-26523	3549.3	0.08296	0.11224	0.99698
0.476	19.818	-26520	3549.2	0.085205	0.11204	0.9963
0.478	19.803	-26516	3549	0.08745	0.11185	0.99562
0.48	19.799	-26516	3548.9	0.089694	0.11165	0.99493
0.482	19.703	-26517	3548.7	0.091939	0.11146	0.99425
0.484	19.554	-26520	3548.6	0.094184	0.11126	0.99357
0.486	19.548	-26523	3548.4	0.093794	0.11204	0.99415
0.488	19.607	-26520	3548.2	0.093403	0.11283	0.99474
0.49	19.604	-26517	3548.1	0.093013	0.11361	0.99532
0.492	19.548	-26515	3547.9	0.092622	0.11439	0.99591
0.494	19.516	-26513	3547.8	0.092232	0.11517	0.9965
0.496	19.489	-26518	3547.6	0.093013	0.11429	0.99679
0.498	19.484	-26522	3547.3	0.093794	0.11341	0.99708
0.5	19.527	-26520	3547.1	0.094574	0.11253	0.99737
0.502	19.542	-26518	3546.8	0.095355	0.11165	0.99767
0.504	19.528	-26527	3546.5	0.096136	0.11078	0.99796
0.506	19.491	-26536	3546.1	0.095843	0.10951	0.99698
0.508	19.464	-26529	3545.8	0.09555	0.10824	0.99601
0.51	19.445	-26521	3545.4	0.095258	0.10697	0.99503
0.512	19.338	-26523	3545.1	0.094965	0.1057	0.99406
0.514	19.318	-26525	3544.8	0.094672	0.10443	0.99308
0.516	19.369	-26522	3544.6	0.095453	0.10492	0.9922
0.518	19.417	-26520	3544.4	0.096234	0.10541	0.99132
0.52	19.457	-26526	3544.2	0.097014	0.1059	0.99044
0.522	19.405	-26531	3544	0.097795	0.10638	0.98957
0.524	19.369	-26526	3543.8	0.098576	0.10687	0.98869
0.526	19.36	-26521	3543.5	0.097405	0.10677	0.9883
0.528	19.401	-26525	3543.1	0.096234	0.10668	0.98791
0.53	19.471	-26530	3542.8	0.095062	0.10658	0.98752
0.532	19.523	-26523	3542.4	0.093891	0.10648	0.98713
0.534	19.549	-26515	3542	0.09272	0.10638	0.98674
0.536	19.579	-26521	3541.6	0.091646	0.10697	0.9881
0.538	19.608	-26527	3541.1	0.090573	0.10756	0.98947
0.54	19.637	-26528	3540.6	0.089499	0.10814	0.99084
0.542	19.65	-26528	3540.2	0.088426	0.10873	0.9922
0.544	19.726	-26533	3539.7	0.087352	0.10931	0.99357
0.546	19.834	-26538	3539.3	0.088816	0.10902	0.99484
0.548	19.863	-26534	3538.9	0.09028	0.10873	0.99611
0.55	19.873	-26530	3538.7	0.091744	0.10843	0.99737
0.552	19.945	-26531	3538.5	0.093208	0.10814	0.99864
0.554	20.022	-26532	3538.3	0.094672	0.10785	0.99991
0.556	19.997	-26536	3538.4	0.094184	0.10775	0.99835
0.558	19.94	-26539	3538.5	0.093696	0.10765	0.99679
0.56	19.975	-26537	3538.6	0.093208	0.10756	0.99523
0.562	20.033	-26536	3538.8	0.09272	0.10746	0.99367
0.564	20.05	-26540	3539	0.092232	0.10736	0.9921
0.566	20.003	-26544	3539.1	0.091256	0.10804	0.99357
0.568	19.974	-26544	3539.3	0.09028	0.10873	0.99503
0.57	20.034	-26543	3539.4	0.089304	0.10941	0.9965
0.572	20.017	-26537	3539.5	0.088328	0.11009	0.99796
0.574	19.997	-26531	3539.6	0.087352	0.11078	0.99942
0.576	19.997	-26536	3539.5	0.08501	0.11078	1.002
0.578	20.001	-26541	3539.5	0.082667	0.11078	1.0045
0.58	19.976	-26540	3539.4	0.080325	0.11078	1.007
0.582	19.993	-26538	3539.4	0.077982	0.11078	1.0096
0.584	20.039	-26539	3539.4	0.07564	0.11078	1.0121
0.586	20.012	-26540	3539.2	0.077202	0.11078	1.0128
0.588	19.964	-26546	3539	0.078763	0.11078	1.0135
0.59	20.035	-26552	3538.7	0.080325	0.11078	1.0142
0.592	20.136	-26548	3538.4	0.081886	0.11078	1.0148
0.594	20.116	-26545	3538.2	0.083448	0.11078	1.0155
0.596	20.047	-26550	3537.8	0.084912	0.11244	1.016
0.598	20.015	-26555	3537.5	0.086376	0.11409	1.0165
0.6	19.943	-26551	3537.1	0.08784	0.11575	1.017
0.602	19.987	-26548	3536.8	0.089304	0.11741	1.0175
0.604	19.978	-26547	3536.4	0.090768	0.11907	1.018
0.606	19.96	-26546	3536.1	0.090378	0.11966	1.0187
0.608	19.997	-26546	3535.8	0.089987	0.12024	1.0193
0.61	20.013	-26546	3535.5	0.089597	0.12083	1.02
0.612	20.006	-26544	3535.1	0.089206	0.12141	1.0207
0.614	20.009	-26543	3534.8	0.088816	0.122	1.0214
0.616	20.011	-26551	3534.3	0.086766	0.1218	1.0226
0.618	20	-26559	3533.9	0.084717	0.12161	1.0237
0.62	19.98	-26557	3533.5	0.082667	0.12141	1.0249
0.622	19.982	-26555	3533	0.080618	0.12122	1.0261
0.624	19.975	-26556	3532.6	0.078568	0.12102	1.0272
0.626	19.971	-26557	3532.2	0.078666	0.12005	1.0264
0.628	19.998	-26553	3531.8	0.078763	0.11907	1.0255
0.63	20.058	-26548	3531.3	0.078861	0.1181	1.0246
0.632	20.053	-26551	3530.8	0.078958	0.11712	1.0237
0.634	20.005	-26553	3530.2	0.079056	0.11614	1.0228
0.636	19.959	-26552	3529.7	0.079446	0.11556	1.0235
0.638	19.897	-26551	3529.2	0.079837	0.11497	1.0242
0.64	19.882	-26555	3528.7	0.080227	0.11439	1.0249
0.642	19.922	-26559	3528.3	0.080618	0.1138	1.0256
0.644	19.96	-26559	3527.9	0.081008	0.11322	1.0263
0.646	19.976	-26558	3527.6	0.08257	0.11331	1.0251
0.648	19.958	-26558	3527.3	0.084131	0.11341	1.0239
0.65	19.937	-26557	3526.9	0.085693	0.11351	1.0228
0.652	19.924	-26563	3526.6	0.087254	0.11361	1.0216
0.654	19.912	-26568	3526.2	0.088816	0.1137	1.0204
0.656	19.931	-26568	3526.1	0.089987	0.11292	1.0199
0.658	19.91	-26568	3526	0.091158	0.11214	1.0194
0.66	19.884	-26566	3526	0.09233	0.11136	1.0189
0.662	19.957	-26565	3526.1	0.093501	0.11058	1.0185
0.664	20.039	-26562	3526.1	0.094672	0.1098	1.018
0.666	20.019	-26558	3526.3	0.09516	0.10951	1.0177
0.668	20.043	-26562	3526.5	0.095648	0.10921	1.0174
0.67	20.039	-26566	3526.7	0.096136	0.10892	1.0171
0.672	19.954	-26568	3527	0.096624	0.10863	1.0168
0.674	19.925	-26570	3527.3	0.097112	0.10834	1.0165
0.676	19.964	-26570	3527.6	0.098478	0.11029	1.0164
0.678	19.956	-26571	3527.9	0.099845	0.11224	1.0163
0.68	19.968	-26575	3528.3	0.10121	0.11419	1.0162
0.682	19.981	-26579	3528.8	0.10258	0.11614	1.0161
0.684	19.935	-26579	3529.3	0.10394	0.1181	1.016
0.686	19.901	-26578	3530.1	0.10277	0.11741	1.0153
0.688	19.853	-26574	3530.8	0.1016	0.11673	1.0146
0.69	19.909	-26570	3531.7	0.10043	0.11605	1.014
0.692	20.013	-26567	3532.8	0.099259	0.11536	1.0133
0.694	20.024	-26563	3533.9	0.098088	0.11468	1.0126
0.696	20.045	-26564	3535.2	0.10004	0.11478	1.0113
0.698	20.005	-26565	3536.4	0.10199	0.11488	1.0101
0.7	19.887	-26567	3537.7	0.10394	0.11497	1.0088
0.702	19.805	-26568	3539.1	0.1059	0.11507	1.0075
0.704	19.925	-26571	3540.6	0.10785	0.11517	1.0063
0.706	20.065	-26575	3542.2	0.10746	0.11575	1.0053
0.708	20.053	-26576	3543.8	0.10707	0.11634	1.0043
0.71	19.984	-26576	3545.5	0.10668	0.11692	1.0033
0.712	20.002	-26578	3547.3	0.10629	0.11751	1.0024
0.714	20.048	-26580	3549.1	0.1059	0.1181	1.0014
0.716	20.032	-26581	3550.9	0.10492	0.11819	1.0017
0.718	20.003	-26582	3552.8	0.10394	0.11829	1.002
0.72	20.004	-26579	3554.6	0.10297	0.11839	1.0023
0.722	19.992	-26577	3556.3	0.10199	0.11849	1.0025
0.724	19.959	-26578	3558	0.10102	0.11858	1.0028
0.726	19.929	-26579	3559.5	0.10111	0.11722	1.0035
0.728	19.91	-26579	3561	0.10121	0.11585	1.0042
0.73	19.89	-26580	3562.4	0.10131	0.11448	1.0049
0.732	19.894	-26573	3563.7	0.10141	0.11312	1.0056
0.734	19.931	-26566	3565.1	0.1015	0.11175	1.0063
0.736	19.925	-26569	3566.3	0.10297	0.11253	1.0063
0.738	19.956	-26571	3567.6	0.10443	0.11331	1.0063
0.74	19.934	-26577	3568.8	0.1059	0.11409	1.0063
0.742	19.887	-26584	3569.9	0.10736	0.11488	1.0063
0.744	19.921	-26582	3571.1	0.10882	0.11566	1.0063
0.746	19.961	-26581	3572.2	0.10902	0.11595	1.0056
0.748	19.964	-26582	3573.4	0.10921	0.11624	1.0049
0.75	19.923	-26584	3574.5	0.10941	0.11653	1.0042
0.752	19.915	-26588	3575.5	0.1096	0.11683	1.0035
0.754	19.896	-26592	3576.6	0.1098	0.11712	1.0028
0.756	19.868	-26593	3577.4	0.10834	0.11634	1.0035
0.758	19.904	-26593	3578.3	0.10687	0.11556	1.0042
0.76	19.91	-26589	3579	0.10541	0.11478	1.0049
0.762	19.871	-26584	3579.6	0.10394	0.114	1.0056
0.764	19.862	-26581	3580.2	0.10248	0.11322	1.0063
0.766	19.872	-26579	3580.7	0.10307	0.11361	1.0061
0.768	19.967	-26578	3581.1	0.10365	0.114	1.0059
0.77	19.906	-26577	3581.4	0.10424	0.11439	1.0057
0.772	19.798	-26576	3581.6	0.10482	0.11478	1.0055
0.774	19.819	-26575	3581.9	0.10541	0.11517	1.0053
0.776	19.872	-26575	3581.9	0.10453	0.11527	1.0038
0.778	19.928	-26576	3582	0.10365	0.11536	1.0024
0.78	19.908	-26573	3582.1	0.10277	0.11546	1.0009
0.782	19.867	-26570	3582.2	0.10189	0.11556	0.99942
0.784	19.913	-26572	3582.3	0.10102	0.11566	0.99796
0.786	19.922	-26573	3582.3	0.099357	0.11448	0.99835
0.788	19.956	-26576	3582.4	0.097698	0.11331	0.99874
0.79	19.979	-26579	3582.5	0.096038	0.11214	0.99913
0.792	19.988	-26575	3582.4	0.094379	0.11097	0.99952
0.794	19.964	-26570	3582.4	0.09272	0.1098	0.99991
0.796	19.971	-26572	3582.2	0.093013	0.11068	0.99962
0.798	19.939	-26573	3582	0.093306	0.11156	0.99933
0.8	19.911	-26577	3581.8	0.093598	0.11244	0.99903
0.802	19.933	-26580	3581.5	0.093891	0.11331	0.99874
0.804	19.951	-26576	3581.2	0.094184	0.11419	0.99845
0.806	19.949	-26571	3581	0.094672	0.1138	0.99952
0.808	19.947	-26565	3580.7	0.09516	0.11341	1.0006
0.81	19.963	-26560	3580.6	0.095648	0.11302	1.0017
0.812	19.963	-26559	3580.6	0.096136	0.11263	1.0027
0.814	19.945	-26559	3580.6	0.096624	0.11224	1.0038
0.816	19.958	-26564	3580.6	0.097405	0.11175	1.0036
0.818	19.965	-26569	3580.7	0.098186	0.11126	1.0034
0.82	19.953	-26568	3580.8	0.098966	0.11078	1.0032
0.822	19.964	-26567	3580.8	0.099747	0.11029	1.003
0.824	19.995	-26566	3580.8	0.10053	0.1098	1.0028
0.826	20.026	-26565	3580.7	0.097893	0.11068	1.0034
0.828	20.005	-26566	3580.5	0.095258	0.11156	1.004
0.83	19.968	-26567	3580.3	0.092622	0.11244	1.0046
0.832	19.949	-26565	3580	0.089987	0.11331	1.0052
0.834	19.99	-26563	3579.7	0.087352	0.11419	1.0058
0.836	19.966	-26562	3579.2	0.087352	0.114	1.0057
0.838	19.935	-26561	3578.7	0.087352	0.1138	1.0056
0.84	19.903	-26564	3578.1	0.087352	0.11361	1.0055
0.842	19.92	-26568	3577.5	0.087352	0.11341	1.0054
0.844	19.943	-26567	3576.9	0.087352	0.11322	1.0053
0.846	20.019	-26567	3576.3	0.08823	0.11253	1.0045
0.848	20.068	-26561	3575.7	0.089109	0.11185	1.0037
0.85	20.045	-26554	3575	0.089987	0.11117	1.0029
0.852	19.97	-26556	3574.4	0.090866	0.11048	1.0022
0.854	19.941	-26558	3573.7	0.091744	0.1098	1.0014
0.856	19.955	-26556	3573.1	0.091646	0.1099	1.0011
0.858	19.95	-26553	3572.5	0.091549	0.11	1.0008
0.86	19.942	-26553	3571.9	0.091451	0.11009	1.0005
0.862	19.927	-26553	3571.4	0.091354	0.11019	1.0002
0.864	19.97	-26552	3570.8	0.091256	0.11029	0.99991
0.866	20.027	-26551	3570.1	0.092232	0.10951	1.0001
0.868	19.986	-26559	3569.5	0.093208	0.10873	1.0003
0.87	19.99	-26567	3568.8	0.094184	0.10795	1.0005
0.872	19.948	-26565	3568.1	0.09516	0.10716	1.0007
0.874	19.916	-26563	3567.3	0.096136	0.10638	1.0009
0.876	19.957	-26562	3566.6	0.096624	0.10697	1.0011
0.878	19.965	-26561	3565.9	0.097112	0.10756	1.0013
0.88	19.953	-26557	3565.1	0.0976	0.10814	1.0015
0.882	19.958	-26552	3564.3	0.098088	0.10873	1.0017
0.884	19.977	-26554	3563.6	0.098576	0.10931	1.0019
0.886	19.967	-26555	3562.8	0.099357	0.11	1.003
0.888	19.932	-26561	3562	0.10014	0.11068	1.0042
0.89	19.928	-26566	3561.3	0.10092	0.11136	1.0054
0.892	19.967	-26563	3560.6	0.1017	0.11204	1.0065
0.894	19.992	-26560	3559.8	0.10248	0.11273	1.0077
0.896	19.953	-26561	3559	0.1018	0.11214	1.0076
0.898	19.907	-26561	3558.3	0.10111	0.11156	1.0075
0.9	19.916	-26566	3557.5	0.10043	0.11097	1.0074
0.902	19.939	-26570	3556.8	0.099747	0.11039	1.0073
0.904	19.95	-26566	3556.1	0.099064	0.1098	1.0072
0.906	19.968	-26563	3555.5	0.099162	0.1097	1.0064
0.908	19.998	-26558	3554.8	0.099259	0.1096	1.0055
0.91	20.013	-26553	3554.3	0.099357	0.10951	1.0046
0.912	19.965	-26555	3553.8	0.099454	0.10941	1.0037
0.914	19.928	-26557	3553.3	0.099552	0.10931	1.0028
0.916	20.013	-26555	3552.9	0.098478	0.10951	1.0023
0.918	20.023	-26552	3552.4	0.097405	0.1097	1.0017
0.92	19.915	-26557	3552	0.096331	0.1099	1.0011
0.922	19.913	-26563	3551.5	0.095258	0.11009	1.0005
0.924	19.984	-26561	3551	0.094184	0.11029	0.99991
0.926	19.957	-26560	3550.4	0.095258	0.1097	1
0.928	19.975	-26560	3549.9	0.096331	0.10912	1.0001
0.93	20.007	-26561	3549.4	0.097405	0.10853	1.0002
0.932	20.012	-26555	3548.9	0.098478	0.10795	1.0003
0.934	19.982	-26550	3548.5	0.099552	0.10736	1.0004
0.936	19.97	-26554	3548.3	0.09965	0.10707	1.0007
0.938	19.914	-26558	3548.1	0.099747	0.10677	1.001
0.94	19.859	-26554	3548	0.099845	0.10648	1.0013
0.942	19.907	-26550	3548	0.099942	0.10619	1.0016
0.944	19.931	-26555	3547.9	0.10004	0.1059	1.0019
0.946	19.982	-26560	3547.8	0.10043	0.10619	1.0024
0.948	20.031	-26556	3547.8	0.10082	0.10648	1.003
0.95	19.986	-26552	3547.7	0.10121	0.10677	1.0036
0.952	19.967	-26552	3547.6	0.1016	0.10707	1.0042
0.954	19.941	-26552	3547.5	0.10199	0.10736	1.0048
0.956	19.899	-26554	3547.3	0.10111	0.10687	1.005
0.958	19.922	-26556	3547.1	0.10024	0.10638	1.0052
0.96	19.975	-26549	3546.9	0.099357	0.1059	1.0054
0.962	20.007	-26543	3546.6	0.098478	0.10541	1.0056
0.964	19.963	-26551	3546.3	0.0976	0.10492	1.0058
0.966	19.918	-26558	3545.9	0.098966	0.1058	1.0055
0.968	19.911	-26552	3545.6	0.10033	0.10668	1.0052
0.97	19.91	-26546	3545.2	0.1017	0.10756	1.0049
0.972	19.894	-26546	3544.9	0.10307	0.10843	1.0046
0.974	19.878	-26547	3544.6	0.10443	0.10931	1.0043
0.976	19.871	-26555	3544.3	0.10394	0.10863	1.0028
0.978	19.859	-26564	3544.1	0.10346	0.10795	1.0014
0.98	19.842	-26555	3543.8	0.10297	0.10726	0.99991
0.982	19.83	-26546	3543.6	0.10248	0.10658	0.99845
0.984	19.839	-26551	3543.4	0.10199	0.1059	0.99698
0.986	19.881	-26555	3543.3	0.099942	0.10619	0.99679
0.988	19.912	-26554	3543.1	0.097893	0.10648	0.99659
0.99	19.908	-26552	3543	0.095843	0.10677	0.9964
0.992	19.91	-26554	3542.8	0.093794	0.10707	0.9962
0.994	19.882	-26556	3542.7	0.091744	0.10736	0.99601
0.996	19.847	-26558	3542.4	0.091646	0.10814	0.99816
0.998	19.871	-26561	3542.2	0.091549	0.10892	1.0003
1	19.858	-26554	3542	0.091451	0.1097	1.0024
1.002	19.827	-26547	3541.8	0.091354	0.11048	1.0046
1.004	19.85	-26549	3541.6	0.091256	0.11126	1.0067
1.006	19.874	-26551	3541.3	0.089792	0.11087	1.0049
1.008	19.918	-26552	3541.1	0.088328	0.11048	1.003
1.01	19.926	-26552	3540.9	0.086864	0.11009	1.0012
1.012	19.876	-26553	3540.7	0.0854	0.1097	0.99933
1.014	19.849	-26554	3540.5	0.083936	0.10931	0.99747
1.016	19.887	-26558	3540.4	0.083838	0.10902	0.9964
1.018	19.926	-26562	3540.3	0.083741	0.10873	0.99532
1.02	19.941	-26555	3540.1	0.083643	0.10843	0.99425
1.022	19.894	-26548	3539.9	0.083546	0.10814	0.99318
1.024	19.899	-26554	3539.6	0.083448	0.10785	0.9921
1.026	19.917	-26560	3539.4	0.082277	0.10834	0.99396
1.028	20.001	-26555	3539.2	0.081106	0.10882	0.99581
1.03	20.028	-26551	3539	0.079934	0.10931	0.99767
1.032	19.971	-26550	3538.7	0.078763	0.1098	0.99952
1.034	19.913	-26548	3538.4	0.077592	0.11029	1.0014
1.036	19.902	-26552	3538.1	0.078958	0.1097	1.0025
1.038	19.943	-26555	3537.7	0.080325	0.10912	1.0037
1.04	19.962	-26554	3537.4	0.081691	0.10853	1.0049
1.042	20.02	-26552	3537	0.083058	0.10795	1.0061
1.044	20.032	-26551	3536.6	0.084424	0.10736	1.0072
1.046	20.019	-26550	3536.3	0.085986	0.10756	1.0068
1.048	20.023	-26556	3536.1	0.087547	0.10775	1.0065
1.05	19.999	-26561	3535.9	0.089109	0.10795	1.0061
1.052	19.918	-26563	3535.7	0.09067	0.10814	1.0057
1.054	19.898	-26564	3535.6	0.092232	0.10834	1.0053
1.056	19.97	-26559	3535.5	0.092134	0.10873	1.0043
1.058	20.011	-26554	3535.3	0.092037	0.10912	1.0033
1.06	20.017	-26553	3535.2	0.091939	0.10951	1.0024
1.062	20.032	-26552	3535.1	0.091842	0.1099	1.0014
1.064	20.043	-26561	3535	0.091744	0.11029	1.0004
1.066	20.037	-26570	3534.8	0.091256	0.11097	1.0004
1.068	20.021	-26572	3534.5	0.090768	0.11165	1.0004
1.07	20.002	-26575	3534.3	0.09028	0.11234	1.0004
1.072	20	-26568	3534	0.089792	0.11302	1.0004
1.074	20.011	-26561	3533.7	0.089304	0.1137	1.0004
1.076	19.976	-26562	3533.5	0.08989	0.11312	1.0012
1.078	19.906	-26563	3533.3	0.090475	0.11253	1.002
1.08	19.911	-26574	3533	0.091061	0.11195	1.0027
1.082	19.943	-26584	3532.7	0.091646	0.11136	1.0035
1.084	19.98	-26582	3532.5	0.092232	0.11078	1.0043
1.086	20.014	-26579	3532.1	0.092818	0.11029	1.0043
1.088	20.044	-26579	3531.8	0.093403	0.1098	1.0043
1.09	20.031	-26580	3531.5	0.093989	0.10931	1.0043
1.092	19.971	-26580	3531.1	0.094574	0.10882	1.0043
1.094	19.969	-26579	3530.7	0.09516	0.10834	1.0043
1.096	20.049	-26580	3530.3	0.095941	0.10814	1.0043
1.098	20.028	-26580	3529.9	0.096722	0.10795	1.0043
1.1	19.948	-26582	3529.4	0.097502	0.10775	1.0043
1.102	19.935	-26583	3529	0.098283	0.10756	1.0043
1.104	19.942	-26582	3528.6	0.099064	0.10736	1.0043
1.106	19.925	-26581	3528.1	0.099747	0.10863	1.0062
1.108	19.89	-26581	3527.7	0.10043	0.1099	1.008
1.11	19.975	-26580	3527.3	0.10111	0.11117	1.0099
1.112	20.078	-26575	3527.1	0.1018	0.11244	1.0117
1.114	20.046	-26570	3526.9	0.10248	0.1137	1.0136
1.116	19.931	-26568	3526.7	0.10258	0.11448	1.0123
1.118	19.948	-26567	3526.5	0.10268	0.11527	1.011
1.12	19.908	-26569	3526.3	0.10277	0.11605	1.0098
1.122	19.914	-26571	3526.3	0.10287	0.11683	1.0085
1.124	19.981	-26568	3526.2	0.10297	0.11761	1.0072
1.126	20.025	-26564	3526.1	0.10189	0.11536	1.007
1.128	19.99	-26563	3525.9	0.10082	0.11312	1.0068
1.13	19.914	-26562	3525.8	0.099747	0.11087	1.0066
1.132	19.897	-26566	3525.6	0.098674	0.10863	1.0065
1.134	19.898	-26569	3525.4	0.0976	0.10638	1.0063
1.136	19.896	-26566	3525.2	0.098576	0.10756	1.0061
1.138	19.878	-26564	3525	0.099552	0.10873	1.0059
1.14	19.88	-26566	3524.7	0.10053	0.1099	1.0057
1.142	19.873	-26568	3524.5	0.1015	0.11107	1.0055
1.144	19.829	-26571	3524.3	0.10248	0.11224	1.0053
1.146	19.883	-26575	3524.1	0.10424	0.11185	1.0052
1.148	19.942	-26570	3523.9	0.10599	0.11146	1.0051
1.15	19.92	-26565	3523.7	0.10775	0.11107	1.005
1.152	19.832	-26572	3523.6	0.10951	0.11068	1.0049
1.154	19.703	-26579	3523.4	0.11126	0.11029	1.0048
1.156	19.622	-26581	3523.3	0.11146	0.1099	1.0047
1.158	19.615	-26584	3523.2	0.11165	0.10951	1.0046
1.16	19.604	-26579	3523.1	0.11185	0.10912	1.0045
1.162	19.478	-26575	3523	0.11204	0.10873	1.0044
1.164	19.417	-26578	3522.9	0.11224	0.10834	1.0043
1.166	19.458	-26580	3522.9	0.11146	0.10795	1.003
1.168	19.491	-26577	3522.8	0.11068	0.10756	1.0018
1.17	19.491	-26574	3522.7	0.1099	0.10716	1.0005
1.172	19.481	-26572	3522.6	0.10912	0.10677	0.99923
1.174	19.486	-26570	3522.6	0.10834	0.10638	0.99796
1.176	19.556	-26573	3522.5	0.10609	0.10619	0.99728
1.178	19.593	-26576	3522.4	0.10385	0.10599	0.99659
1.18	19.504	-26572	3522.2	0.1016	0.1058	0.99591
1.182	19.434	-26568	3522	0.099357	0.1056	0.99523
1.184	19.39	-26569	3521.8	0.097112	0.10541	0.99454
1.186	19.295	-26569	3521.5	0.097893	0.10551	0.99376
1.188	19.31	-26576	3521.2	0.098674	0.1056	0.99298
1.19	19.309	-26582	3520.9	0.099454	0.1057	0.9922
1.192	19.231	-26590	3520.4	0.10024	0.1058	0.99142
1.194	19.228	-26598	3520	0.10102	0.1059	0.99064
1.196	19.368	-26589	3519.5	0.099747	0.10551	0.99093
1.198	19.416	-26581	3519.1	0.098478	0.10512	0.99123
1.2	19.349	-26581	3518.7	0.09721	0.10472	0.99152
1.202	19.301	-26580	3518.4	0.095941	0.10433	0.99181
1.204	19.434	-26586	3518.1	0.094672	0.10394	0.9921
1.206	19.517	-26591	3517.9	0.095941	0.10424	0.99152
1.208	19.565	-26589	3517.7	0.09721	0.10453	0.99093
1.21	19.645	-26587	3517.5	0.098478	0.10482	0.99035
1.212	19.63	-26586	3517.4	0.099747	0.10512	0.98976
1.214	19.606	-26584	3517.3	0.10102	0.10541	0.98918
1.216	19.691	-26582	3517.2	0.10004	0.1059	0.99152
1.218	19.799	-26579	3517.2	0.099064	0.10638	0.99386
1.22	19.839	-26586	3517.1	0.098088	0.10687	0.9962
1.222	19.829	-26592	3517.1	0.097112	0.10736	0.99855
1.224	19.809	-26594	3517.1	0.096136	0.10785	1.0009
1.226	19.824	-26595	3517.2	0.096136	0.10775	1.0017
1.228	19.927	-26595	3517.3	0.096136	0.10765	1.0024
1.23	20.002	-26596	3517.3	0.096136	0.10756	1.0032
1.232	19.94	-26597	3517.3	0.096136	0.10746	1.004
1.234	19.906	-26598	3517.3	0.096136	0.10736	1.0048
1.236	19.926	-26594	3517.3	0.094574	0.10853	1.0063
1.238	19.984	-26590	3517.3	0.093013	0.1097	1.0077
1.24	20.024	-26591	3517.3	0.091451	0.11087	1.0092
1.242	19.975	-26592	3517.2	0.08989	0.11204	1.0106
1.244	20	-26593	3517.2	0.088328	0.11322	1.0121
1.246	20.021	-26595	3517	0.089011	0.11165	1.0124
1.248	19.966	-26597	3516.9	0.089694	0.11009	1.0127
1.25	19.961	-26599	3516.8	0.090378	0.10853	1.013
1.252	19.961	-26599	3516.6	0.091061	0.10697	1.0133
1.254	19.995	-26599	3516.5	0.091744	0.10541	1.0136
1.256	20.044	-26598	3516.4	0.091354	0.10707	1.014
1.258	20.028	-26597	3516.3	0.090963	0.10873	1.0144
1.26	19.987	-26597	3516.2	0.090573	0.11039	1.0147
1.262	19.97	-26598	3516.2	0.090182	0.11204	1.0151
1.264	19.924	-26597	3516.1	0.089792	0.1137	1.0155
1.266	19.874	-26596	3515.9	0.090085	0.11409	1.0157
1.268	19.953	-26596	3515.7	0.090378	0.11448	1.0159
1.27	20.054	-26596	3515.4	0.09067	0.11488	1.0161
1.272	20.052	-26602	3515	0.090963	0.11527	1.0163
1.274	20.018	-26607	3514.6	0.091256	0.11566	1.0165
1.276	20.031	-26607	3514.2	0.091256	0.11448	1.0159
1.278	20.023	-26607	3513.9	0.091256	0.11331	1.0153
1.28	19.985	-26603	3513.6	0.091256	0.11214	1.0147
1.282	19.933	-26599	3513.3	0.091256	0.11097	1.0142
1.284	19.927	-26602	3513.1	0.091256	0.1098	1.0136
1.286	19.911	-26604	3512.9	0.091646	0.10921	1.0121
1.288	19.927	-26605	3512.8	0.092037	0.10863	1.0106
1.29	19.944	-26607	3512.7	0.092427	0.10804	1.0092
1.292	20.014	-26608	3512.5	0.092818	0.10746	1.0077
1.294	20.004	-26610	3512.4	0.093208	0.10687	1.0063
1.296	19.962	-26613	3512.3	0.09311	0.10726	1.0069
1.298	19.958	-26616	3512.2	0.093013	0.10765	1.0076
1.3	19.936	-26608	3512	0.092915	0.10804	1.0083
1.302	19.908	-26601	3511.8	0.092818	0.10843	1.009
1.304	19.953	-26598	3511.6	0.09272	0.10882	1.0097
1.306	19.98	-26595	3511.4	0.09233	0.11078	1.0094
1.308	19.944	-26602	3511.1	0.091939	0.11273	1.0091
1.31	19.958	-26610	3511	0.091549	0.11468	1.0088
1.312	19.979	-26611	3510.9	0.091158	0.11663	1.0085
1.314	19.939	-26613	3510.9	0.090768	0.11858	1.0082
1.316	19.895	-26613	3510.7	0.092622	0.11771	1.0077
1.318	19.879	-26614	3510.6	0.094477	0.11683	1.0072
1.32	19.895	-26617	3510.5	0.096331	0.11595	1.0067
1.322	19.915	-26620	3510.4	0.098186	0.11507	1.0063
1.324	19.897	-26619	3510.3	0.10004	0.11419	1.0058
1.326	19.871	-26617	3510.4	0.098088	0.11468	1.0048
1.328	19.889	-26615	3510.5	0.096136	0.11517	1.0038
1.33	19.94	-26613	3510.7	0.094184	0.11566	1.0028
1.332	19.962	-26608	3511.1	0.092232	0.11614	1.0019
1.334	19.93	-26603	3511.4	0.09028	0.11663	1.0009
1.336	19.894	-26608	3511.9	0.088133	0.11575	1.0003
1.338	19.896	-26612	3512.4	0.085986	0.11488	0.99972
1.34	19.91	-26616	3513.1	0.083838	0.114	0.99913
1.342	19.916	-26619	3513.8	0.081691	0.11312	0.99855
1.344	19.925	-26615	3514.5	0.079544	0.11224	0.99796
1.346	19.986	-26610	3515.3	0.079056	0.11263	0.99776
1.348	19.963	-26614	3516.1	0.078568	0.11302	0.99757
1.35	19.865	-26617	3517	0.07808	0.11341	0.99737
1.352	19.882	-26619	3517.9	0.077592	0.1138	0.99718
1.354	19.956	-26621	3518.8	0.077104	0.11419	0.99698
1.356	19.931	-26618	3519.8	0.078275	0.11409	0.99708
1.358	19.917	-26615	3520.8	0.079446	0.114	0.99718
1.36	19.909	-26614	3521.9	0.080618	0.1139	0.99728
1.362	19.871	-26614	3523	0.081789	0.1138	0.99737
1.364	19.923	-26616	3524.1	0.08296	0.1137	0.99747
1.366	19.97	-26618	3525.2	0.084229	0.11605	0.99776
1.368	19.936	-26620	3526.4	0.085498	0.11839	0.99806
1.37	19.892	-26621	3527.5	0.086766	0.12073	0.99835
1.372	19.916	-26622	3528.7	0.088035	0.12307	0.99864
1.374	19.955	-26623	3529.9	0.089304	0.12542	0.99894
1.376	19.983	-26626	3531.2	0.089694	0.12454	0.99747
1.378	19.947	-26629	3532.6	0.090085	0.12366	0.99601
1.38	19.903	-26626	3534.1	0.090475	0.12278	0.99454
1.382	19.911	-26623	3535.5	0.090866	0.1219	0.99308
1.384	20.027	-26624	3537	0.091256	0.12102	0.99162
1.386	20.004	-26625	3538.5	0.092622	0.11868	0.99152
1.388	19.931	-26625	3540.1	0.093989	0.11634	0.99142
1.39	19.954	-26624	3541.6	0.095355	0.114	0.99132
1.392	20.005	-26623	3543.1	0.096722	0.11165	0.99123
1.394	19.979	-26621	3544.7	0.098088	0.10931	0.99113
1.396	19.912	-26624	3546.1	0.098966	0.11039	0.99064
1.398	19.888	-26627	3547.5	0.099845	0.11146	0.99015
1.4	19.926	-26627	3548.7	0.10072	0.11253	0.98966
1.402	19.953	-26628	3549.9	0.1016	0.11361	0.98918
1.404	19.959	-26627	3551	0.10248	0.11468	0.98869
1.406	19.971	-26627	3551.9	0.10248	0.11448	0.98898
1.408	19.952	-26630	3552.9	0.10248	0.11429	0.98927
1.41	19.911	-26633	3553.8	0.10248	0.11409	0.98957
1.412	19.88	-26632	3554.7	0.10248	0.1139	0.98986
1.414	19.835	-26632	3555.6	0.10248	0.1137	0.99015
1.416	19.818	-26627	3556.6	0.10355	0.114	0.99054
1.418	19.858	-26622	3557.6	0.10463	0.11429	0.99093
1.42	19.884	-26622	3558.6	0.1057	0.11458	0.99132
1.422	19.885	-26621	3559.5	0.10677	0.11488	0.99171
1.424	19.851	-26626	3560.5	0.10785	0.11517	0.9921
1.426	19.859	-26632	3561.3	0.10619	0.11527	0.99337
1.428	19.856	-26630	3562.1	0.10453	0.11536	0.99464
1.43	19.873	-26628	3563	0.10287	0.11546	0.99591
1.432	19.824	-26626	3563.8	0.10121	0.11556	0.99718
1.434	19.782	-26624	3564.6	0.099552	0.11566	0.99845
1.436	19.793	-26627	3565.4	0.10043	0.11634	0.99855
1.438	19.784	-26630	3566.3	0.10131	0.11702	0.99864
1.44	19.838	-26629	3567	0.10219	0.11771	0.99874
1.442	19.893	-26627	3567.7	0.10307	0.11839	0.99884
1.444	19.908	-26631	3568.4	0.10394	0.11907	0.99894
1.446	19.892	-26634	3569.1	0.10277	0.11702	0.99923
1.448	19.89	-26624	3569.7	0.1016	0.11497	0.99952
1.45	19.849	-26615	3570.3	0.10043	0.11292	0.99981
1.452	19.781	-26619	3570.9	0.099259	0.11087	1.0001
1.454	19.782	-26624	3571.4	0.098088	0.10882	1.0004
1.456	19.855	-26629	3571.7	0.096819	0.10912	1.0003
1.458	19.984	-26635	3572.1	0.09555	0.10941	1.0002
1.46	19.996	-26628	3572.3	0.094282	0.1097	1.0001
1.462	19.94	-26621	3572.5	0.093013	0.11	1
1.464	19.861	-26622	3572.7	0.091744	0.11029	0.99991
1.466	19.827	-26623	3572.7	0.092232	0.1099	1
1.468	19.854	-26618	3572.8	0.09272	0.10951	1.0001
1.47	19.902	-26614	3572.8	0.093208	0.10912	1.0002
1.472	19.928	-26620	3572.7	0.093696	0.10873	1.0003
1.474	19.94	-26626	3572.7	0.094184	0.10834	1.0004
1.476	20.007	-26627	3572.5	0.094086	0.1097	1.0012
1.478	19.974	-26627	3572.4	0.093989	0.11107	1.002
1.48	19.946	-26624	3572.2	0.093891	0.11244	1.0027
1.482	19.961	-26621	3571.9	0.093794	0.1138	1.0035
1.484	19.918	-26618	3571.6	0.093696	0.11517	1.0043
1.486	19.82	-26614	3571.1	0.09311	0.11527	1.0059
1.488	19.806	-26615	3570.6	0.092525	0.11536	1.0074
1.49	19.906	-26617	3570	0.091939	0.11546	1.009
1.492	19.966	-26612	3569.3	0.091354	0.11556	1.0106
1.494	19.955	-26607	3568.5	0.090768	0.11566	1.0121
1.496	19.962	-26613	3567.5	0.091061	0.118	1.0136
1.498	19.982	-26620	3566.4	0.091354	0.12034	1.015
1.5	19.991	-26613	3565.3	0.091646	0.12268	1.0165
1.502	19.955	-26607	3564.1	0.091939	0.12503	1.018
1.504	19.893	-26612	3562.9	0.092232	0.12737	1.0194
1.506	19.856	-26616	3561.9	0.092232	0.12659	1.019
1.508	19.842	-26612	3560.9	0.092232	0.12581	1.0187
1.51	19.913	-26608	3559.9	0.092232	0.12503	1.0183
1.512	19.99	-26611	3559	0.092232	0.12424	1.0179
1.514	19.988	-26613	3558	0.092232	0.12346	1.0175
1.516	19.92	-26612	3557.2	0.092525	0.1219	1.0169
1.518	19.848	-26611	3556.3	0.092818	0.12034	1.0163
1.52	19.89	-26606	3555.5	0.09311	0.11878	1.0157
1.522	19.976	-26601	3554.8	0.093403	0.11722	1.0151
1.524	20.001	-26601	3554.1	0.093696	0.11566	1.0146
1.526	19.969	-26601	3553.5	0.092232	0.11566	1.014
1.528	19.918	-26606	3552.9	0.090768	0.11566	1.0134
1.53	19.88	-26611	3552.2	0.089304	0.11566	1.0128
1.532	19.843	-26606	3551.6	0.08784	0.11566	1.0122
1.534	19.853	-26601	3550.9	0.086376	0.11566	1.0116
1.536	20.011	-26601	3550.2	0.087547	0.11566	1.0127
1.538	19.937	-26600	3549.5	0.088718	0.11566	1.0138
1.54	19.895	-26599	3548.8	0.08989	0.11566	1.0148
1.542	19.962	-26597	3548.2	0.091061	0.11566	1.0159
1.544	20	-26594	3547.5	0.092232	0.11566	1.017
1.546	19.93	-26590	3546.8	0.093891	0.11517	1.0171
1.548	19.922	-26593	3546.1	0.09555	0.11468	1.0172
1.55	19.94	-26595	3545.4	0.09721	0.11419	1.0173
1.552	19.943	-26599	3544.9	0.098869	0.1137	1.0174
1.554	19.925	-26603	3544.3	0.10053	0.11322	1.0175
1.556	19.909	-26600	3544	0.10063	0.1138	1.0166
1.558	19.884	-26597	3543.7	0.10072	0.11439	1.0157
1.56	19.895	-26597	3543.5	0.10082	0.11497	1.0148
1.562	19.959	-26597	3543.3	0.10092	0.11556	1.014
1.564	19.964	-26602	3543.2	0.10102	0.11614	1.0131
1.566	19.915	-26606	3543.3	0.1015	0.11644	1.0139
1.568	19.877	-26602	3543.4	0.10199	0.11673	1.0146
1.57	19.864	-26598	3543.5	0.10248	0.11702	1.0154
1.572	19.861	-26599	3543.6	0.10297	0.11732	1.0162
1.574	19.9	-26599	3543.7	0.10346	0.11761	1.017
1.576	19.953	-26597	3543.9	0.10258	0.11663	1.0163
1.578	19.982	-26596	3544.1	0.1017	0.11566	1.0156
1.58	19.964	-26602	3544.3	0.10082	0.11468	1.0149
1.582	19.913	-26608	3544.4	0.099942	0.1137	1.0143
1.584	19.941	-26611	3544.6	0.099064	0.11273	1.0136
1.586	19.998	-26615	3544.6	0.099552	0.11361	1.0145
1.588	19.944	-26613	3544.7	0.10004	0.11448	1.0153
1.59	19.907	-26611	3544.7	0.10053	0.11536	1.0162
1.592	19.941	-26604	3544.7	0.10102	0.11624	1.0171
1.594	19.841	-26597	3544.6	0.1015	0.11712	1.018
1.596	19.825	-26601	3544.5	0.10043	0.11634	1.0177
1.598	19.886	-26605	3544.5	0.099357	0.11556	1.0174
1.6	19.899	-26593	3544.4	0.098283	0.11478	1.0171
1.602	19.953	-26581	3544.3	0.09721	0.114	1.0168
1.604	19.984	-26585	3544.3	0.096136	0.11322	1.0165
1.606	19.953	-26590	3544.2	0.095648	0.11273	1.0158
1.608	19.918	-26595	3544	0.09516	0.11224	1.0151
1.61	19.928	-26601	3543.8	0.094672	0.11175	1.0145
1.612	19.949	-26604	3543.6	0.094184	0.11126	1.0138
1.614	19.931	-26607	3543.4	0.093696	0.11078	1.0131
1.616	19.926	-26602	3543.2	0.094184	0.11156	1.0116
1.618	19.937	-26597	3543	0.094672	0.11234	1.0102
1.62	19.923	-26598	3542.8	0.09516	0.11312	1.0087
1.622	19.85	-26599	3542.8	0.095648	0.1139	1.0072
1.624	19.91	-26595	3542.7	0.096136	0.11468	1.0058
1.626	19.874	-26592	3542.6	0.096331	0.11361	1.0062
1.628	19.867	-26595	3542.5	0.096526	0.11253	1.0065
1.63	19.964	-26599	3542.4	0.096722	0.11146	1.0069
1.632	19.974	-26598	3542.3	0.096917	0.11039	1.0073
1.634	19.913	-26596	3542.1	0.097112	0.10931	1.0077
1.636	19.876	-26597	3541.9	0.097014	0.1096	1.0068
1.638	19.925	-26598	3541.8	0.096917	0.1099	1.006
1.64	19.923	-26600	3541.6	0.096819	0.11019	1.0051
1.642	19.893	-26603	3541.4	0.096722	0.11048	1.0042
1.644	19.865	-26596	3541.3	0.096624	0.11078	1.0033
1.646	19.863	-26588	3541	0.096234	0.11126	1.0031
1.648	19.883	-26597	3540.8	0.095843	0.11175	1.0029
1.65	19.888	-26606	3540.6	0.095453	0.11224	1.0027
1.652	19.858	-26602	3540.5	0.095062	0.11273	1.0025
1.654	19.864	-26599	3540.4	0.094672	0.11322	1.0024
1.656	19.895	-26600	3540.3	0.095453	0.114	1.0023
1.658	19.866	-26601	3540.2	0.096234	0.11478	1.0022
1.66	19.79	-26606	3540.2	0.097014	0.11556	1.0021
1.662	19.73	-26612	3540.3	0.097795	0.11634	1.002
1.664	19.774	-26610	3540.3	0.098576	0.11712	1.0019
1.666	19.862	-26608	3540.4	0.098478	0.11605	1.0022
1.668	19.877	-26603	3540.5	0.098381	0.11497	1.0024
1.67	19.851	-26598	3540.5	0.098283	0.1139	1.0027
1.672	19.821	-26598	3540.5	0.098186	0.11283	1.003
1.674	19.825	-26599	3540.5	0.098088	0.11175	1.0033
1.676	19.834	-26601	3540.4	0.096526	0.11156	1.0025
1.678	19.837	-26602	3540.3	0.094965	0.11136	1.0018
1.68	19.769	-26598	3540.1	0.093403	0.11117	1.001
1.682	19.765	-26594	3539.9	0.091842	0.11097	1.0002
1.684	19.855	-26598	3539.7	0.09028	0.11078	0.99942
1.686	19.921	-26602	3539.5	0.089011	0.11009	0.99816
1.688	19.921	-26604	3539.3	0.087742	0.10941	0.99689
1.69	19.882	-26606	3539.2	0.086474	0.10873	0.99562
1.692	19.926	-26604	3539.1	0.085205	0.10804	0.99435
1.694	19.975	-26603	3539	0.083936	0.10736	0.99308
1.696	19.96	-26600	3538.9	0.084424	0.10873	0.99386
1.698	19.815	-26597	3538.8	0.084912	0.11009	0.99464
1.7	19.908	-26599	3538.6	0.0854	0.11146	0.99542
1.702	19.941	-26601	3538.4	0.085888	0.11283	0.9962
1.704	19.963	-26597	3538.1	0.086376	0.11419	0.99698
1.706	19.958	-26594	3537.9	0.089304	0.11341	0.99835
1.708	19.957	-26601	3537.7	0.092232	0.11263	0.99972
1.71	19.91	-26608	3537.6	0.09516	0.11185	1.0011
1.712	19.866	-26604	3537.6	0.098088	0.11107	1.0024
1.714	19.909	-26599	3537.6	0.10102	0.11029	1.0038
1.716	19.923	-26598	3537.7	0.10072	0.11	1.0024
1.718	19.945	-26597	3537.9	0.10043	0.1097	1.0011
1.72	19.988	-26601	3538	0.10014	0.10941	0.99972
1.722	20	-26604	3538.2	0.099845	0.10912	0.99835
1.724	19.991	-26604	3538.3	0.099552	0.10882	0.99698
1.726	19.989	-26603	3538.4	0.097893	0.10912	0.9965
1.728	19.978	-26606	3538.4	0.096234	0.10941	0.99601
1.73	19.96	-26610	3538.4	0.094574	0.1097	0.99552
1.732	19.926	-26605	3538.5	0.092915	0.11	0.99503
1.734	19.919	-26601	3538.6	0.091256	0.11029	0.99454
1.736	19.898	-26605	3538.6	0.091549	0.11019	0.99552
1.738	19.885	-26609	3538.7	0.091842	0.11009	0.9965
1.74	19.919	-26609	3538.8	0.092134	0.11	0.99747
1.742	19.961	-26609	3538.9	0.092427	0.1099	0.99845
1.744	19.993	-26610	3539	0.09272	0.1098	0.99942
1.746	20.019	-26611	3539.2	0.09272	0.10951	0.99903
1.748	20.012	-26607	3539.4	0.09272	0.10921	0.99864
1.75	19.945	-26602	3539.5	0.09272	0.10892	0.99825
1.752	19.9	-26601	3539.6	0.09272	0.10863	0.99786
1.754	19.922	-26601	3539.7	0.09272	0.10834	0.99747
1.756	19.937	-26607	3539.7	0.093013	0.10882	0.99776
1.758	19.944	-26613	3539.7	0.093306	0.10931	0.99806
1.76	19.941	-26610	3539.7	0.093598	0.1098	0.99835
1.762	19.983	-26607	3539.8	0.093891	0.11029	0.99864
1.764	20.036	-26607	3539.8	0.094184	0.11078	0.99894
1.766	19.977	-26606	3539.8	0.094184	0.11126	0.99991
1.768	19.934	-26605	3539.8	0.094184	0.11175	1.0009
1.77	19.959	-26604	3539.8	0.094184	0.11224	1.0019
1.772	20.022	-26604	3539.6	0.094184	0.11273	1.0028
1.774	20.042	-26605	3539.5	0.094184	0.11322	1.0038
1.776	19.928	-26611	3539.2	0.091939	0.114	1.0029
1.778	19.906	-26618	3538.9	0.089694	0.11478	1.0021
1.78	19.955	-26615	3538.4	0.08745	0.11556	1.0012
1.782	19.937	-26613	3537.9	0.085205	0.11634	1.0003
1.784	19.862	-26612	3537.4	0.08296	0.11712	0.99942
1.786	19.87	-26610	3536.8	0.085693	0.1178	0.99981
1.788	19.971	-26611	3536.2	0.088426	0.11849	1.0002
1.79	19.965	-26611	3535.6	0.091158	0.11917	1.0006
1.792	19.876	-26613	3535	0.093891	0.11985	1.001
1.794	19.907	-26615	3534.4	0.096624	0.12054	1.0014
1.796	19.948	-26617	3534	0.096331	0.11966	1.0026
1.798	19.977	-26618	3533.5	0.096038	0.11878	1.0039
1.8	19.897	-26617	3533.1	0.095746	0.1179	1.0052
1.802	19.87	-26616	3532.7	0.095453	0.11702	1.0065
1.804	19.89	-26616	3532.4	0.09516	0.11614	1.0077
1.806	19.877	-26617	3532.2	0.095941	0.11575	1.0064
1.808	19.872	-26617	3532.1	0.096722	0.11536	1.005
1.81	19.886	-26616	3532	0.097502	0.11497	1.0036
1.812	19.875	-26617	3532	0.098283	0.11458	1.0023
1.814	19.868	-26617	3532	0.099064	0.11419	1.0009
1.816	19.882	-26616	3532	0.098771	0.1138	1.0011
1.818	19.884	-26616	3532	0.098478	0.11341	1.0013
1.82	19.836	-26617	3532	0.098186	0.11302	1.0015
1.822	19.862	-26618	3532	0.097893	0.11263	1.0017
1.824	19.861	-26618	3532.1	0.0976	0.11224	1.0019
1.826	19.797	-26619	3532.2	0.097405	0.11195	1.0027
1.828	19.737	-26618	3532.2	0.09721	0.11165	1.0036
1.83	19.677	-26618	3532.4	0.097014	0.11136	1.0045
1.832	19.571	-26620	3532.5	0.096819	0.11107	1.0054
1.834	19.464	-26623	3532.7	0.096624	0.11078	1.0063
1.836	19.417	-26621	3532.9	0.096819	0.11039	1.0058
1.838	19.407	-26619	3533	0.097014	0.11	1.0053
1.84	19.437	-26622	3533.1	0.09721	0.1096	1.0048
1.842	19.482	-26624	3533.2	0.097405	0.10921	1.0043
1.844	19.472	-26627	3533.3	0.0976	0.10882	1.0038
1.846	19.445	-26629	3533.3	0.097307	0.1099	1.0052
1.848	19.418	-26623	3533.4	0.097014	0.11097	1.0065
1.85	19.412	-26617	3533.4	0.096722	0.11204	1.0079
1.852	19.472	-26618	3533.4	0.096429	0.11312	1.0093
1.854	19.461	-26618	3533.4	0.096136	0.11419	1.0106
1.856	19.437	-26619	3533.3	0.097014	0.11497	1.0107
1.858	19.433	-26620	3533.3	0.097893	0.11575	1.0108
1.86	19.412	-26620	3533.2	0.098771	0.11653	1.0109
1.862	19.346	-26621	3533.1	0.09965	0.11732	1.011
1.864	19.201	-26621	3532.9	0.10053	0.1181	1.0111
1.866	19.193	-26621	3532.8	0.10004	0.11751	1.0112
1.868	19.251	-26622	3532.7	0.099552	0.11692	1.0113
1.87	19.309	-26623	3532.6	0.099064	0.11634	1.0114
1.872	19.253	-26626	3532.5	0.098576	0.11575	1.0115
1.874	19.276	-26629	3532.5	0.098088	0.11517	1.0116
1.876	19.354	-26624	3532.6	0.10072	0.11458	1.01
1.878	19.42	-26620	3532.7	0.10336	0.114	1.0083
1.88	19.435	-26618	3532.8	0.10599	0.11341	1.0066
1.882	19.405	-26617	3532.7	0.10863	0.11283	1.005
1.884	19.517	-26619	3532.6	0.11126	0.11224	1.0033
1.886	19.577	-26622	3532.6	0.11078	0.11273	1.0032
1.888	19.593	-26620	3532.5	0.11029	0.11322	1.0031
1.89	19.597	-26619	3532.5	0.1098	0.1137	1.003
1.892	19.711	-26624	3532.5	0.10931	0.11419	1.0029
1.894	19.805	-26629	3532.6	0.10882	0.11468	1.0028
1.896	19.831	-26632	3532.6	0.10765	0.11566	1.0022
1.898	19.852	-26635	3532.5	0.10648	0.11663	1.0015
1.9	19.897	-26629	3532.4	0.10531	0.11761	1.0008
1.902	19.921	-26623	3532.1	0.10414	0.11858	1.0001
1.904	19.911	-26621	3531.9	0.10297	0.11956	0.99942
1.906	19.928	-26619	3531.6	0.1017	0.11868	1.0008
1.908	19.905	-26622	3531.4	0.10043	0.1178	1.0022
1.91	19.888	-26625	3531.1	0.099162	0.11692	1.0035
1.912	19.951	-26628	3530.9	0.097893	0.11605	1.0049
1.914	19.963	-26632	3530.7	0.096624	0.11517	1.0063
1.916	19.897	-26634	3530.2	0.095843	0.11673	1.0079
1.918	19.855	-26637	3529.7	0.095062	0.11829	1.0096
1.92	19.886	-26632	3529.4	0.094282	0.11985	1.0112
1.922	19.943	-26627	3529.2	0.093501	0.12141	1.0129
1.924	19.999	-26635	3529	0.09272	0.12298	1.0146
1.926	20.048	-26642	3528.9	0.09067	0.12093	1.0136
1.928	19.993	-26641	3528.8	0.088621	0.11888	1.0126
1.93	19.888	-26639	3528.6	0.086571	0.11683	1.0116
1.932	19.841	-26641	3528.3	0.084522	0.11478	1.0106
1.934	19.894	-26642	3528.1	0.082472	0.11273	1.0097
1.936	20.002	-26636	3527.7	0.085888	0.114	1.0081
1.938	20.083	-26630	3527.3	0.089304	0.11527	1.0065
1.94	20.049	-26634	3527	0.09272	0.11653	1.005
1.942	19.95	-26637	3526.8	0.096136	0.1178	1.0034
1.944	19.928	-26635	3526.7	0.099552	0.11907	1.0019
1.946	19.942	-26633	3526.7	0.098869	0.11751	1.0032
1.948	19.945	-26638	3526.8	0.098186	0.11595	1.0046
1.95	20.001	-26643	3526.9	0.097502	0.11439	1.006
1.952	19.981	-26634	3526.9	0.096819	0.11283	1.0073
1.954	19.975	-26625	3527	0.096136	0.11126	1.0087
1.956	19.956	-26627	3527.2	0.095355	0.11224	1.0095
1.958	19.881	-26628	3527.3	0.094574	0.11322	1.0103
1.96	19.839	-26632	3527.4	0.093794	0.11419	1.011
1.962	19.917	-26635	3527.5	0.093013	0.11517	1.0118
1.964	19.949	-26639	3527.6	0.092232	0.11614	1.0126
1.966	19.91	-26642	3527.6	0.093013	0.11614	1.0113
1.968	19.887	-26643	3527.6	0.093794	0.11614	1.0101
1.97	19.924	-26643	3527.6	0.094574	0.11614	1.0088
1.972	19.925	-26643	3527.6	0.095355	0.11614	1.0075
1.974	19.902	-26642	3527.6	0.096136	0.11614	1.0063
1.976	19.891	-26644	3527.7	0.096429	0.11585	1.0069
1.978	19.907	-26646	3527.9	0.096722	0.11556	1.0076
1.98	19.934	-26645	3528	0.097014	0.11527	1.0083
1.982	19.918	-26645	3528.2	0.097307	0.11497	1.009
1.984	19.874	-26646	3528.5	0.0976	0.11468	1.0097
1.986	19.894	-26647	3528.5	0.098186	0.11448	1.0103
1.988	19.919	-26644	3528.6	0.098771	0.11429	1.0108
1.99	19.975	-26641	3528.7	0.099357	0.11409	1.0114
1.992	19.943	-26646	3528.8	0.099942	0.1139	1.012
1.994	19.838	-26652	3528.9	0.10053	0.1137	1.0126
1.996	19.815	-26653	3529.1	0.09965	0.11361	1.012
1.998	19.903	-26654	3529.2	0.098771	0.11351	1.0114
2	19.99	-26650	3529.5	0.097893	0.11341	1.0108
2.002	19.953	-26645	3529.9	0.097014	0.11331	1.0103
2.004	19.866	-26646	3530.3	0.096136	0.11322	1.0097
2.006	19.837	-26648	3530.1	0.096917	0.11575	1.0097
2.008	19.821	-26647	3529.8	0.097698	0.11829	1.0097
2.01	19.805	-26647	3529.8	0.098478	0.12083	1.0097
2.012	19.847	-26657	3529.9	0.099259	0.12337	1.0097
2.014	19.927	-26666	3530	0.10004	0.1259	1.0097
2.016	19.93	-26660	3530.5	0.10024	0.12346	1.0077
2.018	19.861	-26655	3531	0.10043	0.12102	1.0058
2.02	19.85	-26656	3531.5	0.10063	0.11858	1.0038
2.022	19.905	-26657	3531.9	0.10082	0.11614	1.0019
2.024	19.934	-26659	3532.3	0.10102	0.1137	0.99991
2.026	19.906	-26661	3532.7	0.10033	0.11556	1.0009
2.028	19.894	-26661	3533.2	0.09965	0.11741	1.0019
2.03	19.862	-26662	3533.7	0.098966	0.11927	1.0028
2.032	19.788	-26661	3534.4	0.098283	0.12112	1.0038
2.034	19.829	-26661	3535	0.0976	0.12298	1.0048
2.036	19.889	-26670	3536.1	0.093989	0.12083	1.005
2.038	19.917	-26679	3537.3	0.090378	0.11868	1.0052
2.04	19.899	-26672	3538.5	0.086766	0.11653	1.0054
2.042	20.004	-26666	3539.8	0.083155	0.11439	1.0056
2.044	20.037	-26664	3541	0.079544	0.11224	1.0058
2.046	19.937	-26663	3542.3	0.081496	0.11361	1.0041
2.048	19.976	-26667	3543.6	0.083448	0.11497	1.0024
2.05	19.899	-26672	3544.9	0.0854	0.11634	1.0008
2.052	19.835	-26672	3546.3	0.087352	0.11771	0.99913
2.054	19.895	-26671	3547.7	0.089304	0.11907	0.99747
2.056	19.935	-26671	3549.1	0.090768	0.1179	0.99845
2.058	19.947	-26670	3550.5	0.092232	0.11673	0.99942
2.06	19.876	-26664	3551.9	0.093696	0.11556	1.0004
2.062	19.816	-26658	3553.4	0.09516	0.11439	1.0014
2.064	19.846	-26663	3554.9	0.096624	0.11322	1.0024
2.066	19.917	-26667	3556.3	0.099357	0.114	1.0019
2.068	19.916	-26667	3557.7	0.10209	0.11478	1.0014
2.07	19.872	-26667	3559	0.10482	0.11556	1.0009
2.072	19.845	-26667	3560.2	0.10756	0.11634	1.0004
2.074	19.862	-26667	3561.5	0.11029	0.11712	0.99991
2.076	19.928	-26666	3562.5	0.11156	0.11702	1.0011
2.078	19.972	-26665	3563.4	0.11283	0.11692	1.0023
2.08	19.963	-26665	3564.3	0.11409	0.11683	1.0034
2.082	19.91	-26665	3565.1	0.11536	0.11673	1.0046
2.084	19.826	-26670	3565.9	0.11663	0.11663	1.0058
2.086	19.77	-26675	3566.6	0.11614	0.11722	1.0047
2.088	19.801	-26671	3567.4	0.11566	0.1178	1.0036
2.09	19.923	-26668	3568.1	0.11517	0.11839	1.0025
2.092	19.964	-26662	3568.8	0.11468	0.11897	1.0015
2.094	19.838	-26656	3569.5	0.11419	0.11956	1.0004
2.096	19.759	-26659	3570.2	0.11204	0.11927	0.99972
2.098	19.802	-26662	3571	0.1099	0.11897	0.99903
2.1	19.844	-26665	3571.7	0.10775	0.11868	0.99835
2.102	19.842	-26668	3572.5	0.1056	0.11839	0.99767
2.104	19.824	-26665	3573.2	0.10346	0.1181	0.99698
2.106	19.803	-26662	3573.9	0.10316	0.11663	0.99611
2.108	19.789	-26665	3574.7	0.10287	0.11517	0.99523
2.11	19.795	-26668	3575.3	0.10258	0.1137	0.99435
2.112	19.775	-26669	3575.9	0.10228	0.11224	0.99347
2.114	19.741	-26669	3576.5	0.10199	0.11078	0.99259
2.116	19.812	-26663	3577.1	0.10043	0.11146	0.99288
2.118	19.886	-26657	3577.7	0.098869	0.11214	0.99318
2.12	19.96	-26661	3578.2	0.097307	0.11283	0.99347
2.122	19.852	-26666	3578.5	0.095746	0.11351	0.99376
2.124	19.725	-26667	3578.8	0.094184	0.11419	0.99406
2.126	19.816	-26668	3578.9	0.094672	0.114	0.99503
2.128	19.866	-26664	3579.1	0.09516	0.1138	0.99601
2.13	19.85	-26661	3579.2	0.095648	0.11361	0.99698
2.132	19.863	-26656	3579.3	0.096136	0.11341	0.99796
2.134	19.823	-26650	3579.4	0.096624	0.11322	0.99894
2.136	19.801	-26651	3579.6	0.097502	0.114	0.99855
2.138	19.889	-26651	3579.8	0.098381	0.11478	0.99816
2.14	19.923	-26657	3580	0.099259	0.11556	0.99776
2.142	19.89	-26663	3580.2	0.10014	0.11634	0.99737
2.144	19.887	-26667	3580.5	0.10102	0.11712	0.99698
2.146	19.841	-26671	3580.7	0.10111	0.11751	0.99611
2.148	19.799	-26673	3580.8	0.10121	0.1179	0.99523
2.15	19.787	-26675	3580.9	0.10131	0.11829	0.99435
2.152	19.85	-26670	3580.8	0.10141	0.11868	0.99347
2.154	19.894	-26665	3580.8	0.1015	0.11907	0.99259
2.156	19.878	-26672	3580.6	0.10121	0.11927	0.99406
2.158	19.872	-26678	3580.4	0.10092	0.11946	0.99552
2.16	19.908	-26676	3580.1	0.10063	0.11966	0.99698
2.162	19.925	-26673	3579.7	0.10033	0.11985	0.99845
2.164	19.88	-26660	3579.3	0.10004	0.12005	0.99991
2.166	19.823	-26648	3578.5	0.1015	0.11995	0.99972
2.168	19.803	-26655	3577.7	0.10297	0.11985	0.99952
2.17	19.87	-26662	3576.9	0.10443	0.11976	0.99933
2.172	19.917	-26667	3575.9	0.1059	0.11966	0.99913
2.174	19.889	-26673	3575	0.10736	0.11956	0.99894
2.176	19.888	-26667	3574	0.10551	0.11917	0.99864
2.178	19.866	-26661	3573.1	0.10365	0.11878	0.99835
2.18	19.824	-26658	3572.1	0.1018	0.11839	0.99806
2.182	19.908	-26654	3571.2	0.099942	0.118	0.99776
2.184	20.018	-26656	3570.3	0.098088	0.11761	0.99747
2.186	19.948	-26657	3569.3	0.097893	0.11683	0.99767
2.188	19.826	-26655	3568.3	0.097698	0.11605	0.99786
2.19	19.919	-26652	3567.3	0.097502	0.11527	0.99806
2.192	20.004	-26647	3566.4	0.097307	0.11448	0.99825
2.194	19.963	-26641	3565.4	0.097112	0.1137	0.99845
2.196	19.867	-26637	3564.6	0.09555	0.11566	0.99776
2.198	19.79	-26634	3563.7	0.093989	0.11761	0.99708
2.2	19.848	-26636	3562.9	0.092427	0.11956	0.9964
2.202	19.93	-26639	3562	0.090866	0.12151	0.99572
2.204	19.968	-26639	3561.2	0.089304	0.12346	0.99503
2.206	19.941	-26638	3560.4	0.091061	0.12288	0.9963
2.208	19.926	-26635	3559.6	0.092818	0.12229	0.99757
2.21	19.902	-26631	3558.9	0.094574	0.12171	0.99884
2.212	19.882	-26633	3558.2	0.096331	0.12112	1.0001
2.214	19.833	-26636	3557.5	0.098088	0.12054	1.0014
2.216	19.786	-26636	3556.9	0.10024	0.12151	1.0024
2.218	19.828	-26637	3556.3	0.10238	0.12249	1.0035
2.22	19.882	-26637	3555.7	0.10453	0.12346	1.0046
2.222	19.908	-26636	3555.3	0.10668	0.12444	1.0057
2.224	19.949	-26642	3554.8	0.10882	0.12542	1.0067
2.226	19.933	-26648	3554.5	0.10824	0.12532	1.0071
2.228	19.919	-26644	3554.3	0.10765	0.12522	1.0075
2.23	19.902	-26640	3554.1	0.10707	0.12512	1.0079
2.232	19.904	-26637	3554	0.10648	0.12503	1.0083
2.234	19.907	-26633	3554	0.1059	0.12493	1.0087
2.236	19.836	-26638	3553.9	0.10502	0.12385	1.0066
2.238	19.724	-26643	3553.8	0.10414	0.12278	1.0046
2.24	19.728	-26642	3553.7	0.10326	0.12171	1.0025
2.242	19.817	-26641	3553.6	0.10238	0.12063	1.0005
2.244	19.903	-26637	3553.5	0.1015	0.11956	0.99845
2.246	19.962	-26634	3553.2	0.1017	0.12005	0.99757
2.248	19.968	-26634	3552.9	0.10189	0.12054	0.99669
2.25	19.939	-26634	3552.6	0.10209	0.12102	0.99581
2.252	19.896	-26638	3552.2	0.10228	0.12151	0.99493
2.254	19.86	-26641	3551.7	0.10248	0.122	0.99406
2.256	19.852	-26640	3551.3	0.10277	0.12112	0.99513
2.258	19.899	-26639	3551	0.10307	0.12024	0.9962
2.26	19.943	-26643	3550.6	0.10336	0.11936	0.99728
2.262	19.933	-26647	3550.3	0.10365	0.11849	0.99835
2.264	19.932	-26643	3550	0.10394	0.11761	0.99942
2.266	19.92	-26639	3549.6	0.10414	0.11868	0.99786
2.268	19.826	-26639	3549.3	0.10433	0.11976	0.9963
2.27	19.739	-26640	3548.9	0.10453	0.12083	0.99474
2.272	19.802	-26634	3548.5	0.10472	0.1219	0.99318
2.274	19.94	-26628	3548.1	0.10492	0.12298	0.99162
2.276	19.966	-26631	3547.8	0.1056	0.12132	0.9924
2.278	19.919	-26634	3547.5	0.10629	0.11966	0.99318
2.28	19.934	-26635	3547.1	0.10697	0.118	0.99396
2.282	19.893	-26635	3546.7	0.10765	0.11634	0.99474
2.284	19.869	-26635	3546.2	0.10834	0.11468	0.99552
2.286	19.926	-26635	3545.9	0.10814	0.11488	0.99581
2.288	19.883	-26637	3545.6	0.10795	0.11507	0.99611
2.29	19.804	-26639	3545.5	0.10775	0.11527	0.9964
2.292	19.831	-26634	3545.4	0.10756	0.11546	0.99669
2.294	19.877	-26630	3545.3	0.10736	0.11566	0.99698
2.296	19.919	-26630	3545.4	0.10746	0.11575	0.9963
2.298	19.887	-26630	3545.5	0.10756	0.11585	0.99562
2.3	19.807	-26631	3545.6	0.10765	0.11595	0.99493
2.302	19.844	-26633	3545.7	0.10775	0.11605	0.99425
2.304	19.974	-26633	3545.9	0.10785	0.11614	0.99357
2.306	19.902	-26633	3546	0.10746	0.11605	0.99288
2.308	19.803	-26634	3546.1	0.10707	0.11595	0.9922
2.31	19.785	-26635	3546.2	0.10668	0.11585	0.99152
2.312	19.744	-26635	3546.2	0.10629	0.11575	0.99084
2.314	19.825	-26635	3546.2	0.1059	0.11566	0.99015
2.316	19.872	-26633	3546.2	0.10433	0.11536	0.99132
2.318	19.845	-26631	3546.1	0.10277	0.11507	0.99249
2.32	19.853	-26632	3546	0.10121	0.11478	0.99367
2.322	19.87	-26632	3545.9	0.09965	0.11448	0.99484
2.324	19.849	-26634	3545.7	0.098088	0.11419	0.99601
2.326	19.79	-26635	3545.7	0.099064	0.11448	0.99659
2.328	19.751	-26633	3545.7	0.10004	0.11478	0.99718
2.33	19.775	-26631	3545.7	0.10102	0.11507	0.99776
2.332	19.812	-26630	3545.6	0.10199	0.11536	0.99835
2.334	19.784	-26629	3545.6	0.10297	0.11566	0.99894
2.336	19.745	-26628	3545.5	0.10346	0.11653	0.99894
2.338	19.787	-26628	3545.4	0.10394	0.11741	0.99894
2.34	19.824	-26631	3545.3	0.10443	0.11829	0.99894
2.342	19.837	-26635	3545.2	0.10492	0.11917	0.99894
2.344	19.848	-26634	3545.1	0.10541	0.12005	0.99894
2.346	19.824	-26633	3545	0.10414	0.11907	0.99913
2.348	19.787	-26631	3544.9	0.10287	0.1181	0.99933
2.35	19.766	-26629	3544.8	0.1016	0.11712	0.99952
2.352	19.749	-26632	3544.8	0.10033	0.11614	0.99972
2.354	19.757	-26635	3544.7	0.099064	0.11517	0.99991
2.356	19.788	-26632	3544.7	0.09965	0.11458	0.99991
2.358	19.8	-26629	3544.6	0.10024	0.114	0.99991
2.36	19.855	-26628	3544.5	0.10082	0.11341	0.99991
2.362	19.895	-26626	3544.5	0.10141	0.11283	0.99991
2.364	19.857	-26630	3544.4	0.10199	0.11224	0.99991
2.366	19.871	-26635	3544.4	0.098869	0.11253	0.99962
2.368	19.931	-26635	3544.4	0.095746	0.11283	0.99933
2.37	19.882	-26635	3544.4	0.092622	0.11312	0.99903
2.372	19.877	-26634	3544.4	0.089499	0.11341	0.99874
2.374	19.877	-26633	3544.4	0.086376	0.1137	0.99845
2.376	19.851	-26635	3544.4	0.0854	0.11253	0.99816
2.378	19.907	-26638	3544.3	0.084424	0.11136	0.99786
2.38	19.957	-26639	3544.3	0.083448	0.11019	0.99757
2.382	19.926	-26639	3544.1	0.082472	0.10902	0.99728
2.384	19.931	-26637	3544	0.081496	0.10785	0.99698
2.386	19.925	-26635	3543.7	0.082374	0.10814	0.99708
2.388	19.898	-26638	3543.5	0.083253	0.10843	0.99718
2.39	19.914	-26640	3543.2	0.084131	0.10873	0.99728
2.392	19.921	-26637	3542.9	0.08501	0.10902	0.99737
2.394	19.845	-26635	3542.6	0.085888	0.10931	0.99747
2.396	19.863	-26633	3542.3	0.087645	0.11058	0.99855
2.398	19.886	-26631	3542	0.089402	0.11185	0.99962
2.4	19.89	-26640	3541.7	0.091158	0.11312	1.0007
2.402	19.958	-26649	3541.5	0.092915	0.11439	1.0018
2.404	19.964	-26650	3541.2	0.094672	0.11566	1.0028
2.406	19.938	-26650	3541	0.095746	0.11556	1.0045
2.408	19.944	-26647	3540.7	0.096819	0.11546	1.0062
2.41	19.948	-26644	3540.5	0.097893	0.11536	1.0078
2.412	19.938	-26641	3540.3	0.098966	0.11527	1.0095
2.414	19.945	-26637	3540.1	0.10004	0.11517	1.0111
2.416	19.987	-26636	3540	0.099942	0.11575	1.0116
2.418	19.937	-26634	3539.8	0.099845	0.11634	1.0121
2.42	19.877	-26633	3539.8	0.099747	0.11692	1.0126
2.422	19.861	-26632	3539.7	0.09965	0.11751	1.0131
2.424	19.889	-26636	3539.7	0.099552	0.1181	1.0136
2.426	19.911	-26640	3539.9	0.097795	0.11692	1.013
2.428	19.897	-26640	3540	0.096038	0.11575	1.0124
2.43	19.908	-26641	3540.2	0.094282	0.11458	1.0118
2.432	19.936	-26639	3540.5	0.092525	0.11341	1.0112
2.434	19.936	-26637	3540.7	0.090768	0.11224	1.0106
2.436	19.955	-26637	3540.8	0.089694	0.11283	1.0106
2.438	19.986	-26638	3540.9	0.088621	0.11341	1.0106
2.44	19.911	-26631	3540.9	0.087547	0.114	1.0106
2.442	19.803	-26625	3540.8	0.086474	0.11458	1.0106
2.444	19.825	-26633	3540.8	0.0854	0.11517	1.0106
2.446	19.897	-26642	3540.5	0.088133	0.11409	1.0122
2.448	19.902	-26643	3540.3	0.090866	0.11302	1.0138
2.45	19.905	-26643	3540	0.093598	0.11195	1.0153
2.452	19.94	-26641	3539.6	0.096331	0.11087	1.0169
2.454	19.926	-26638	3539.2	0.099064	0.1098	1.0185
2.456	19.927	-26635	3538.9	0.10024	0.11234	1.019
2.458	19.914	-26632	3538.6	0.10141	0.11488	1.0196
2.46	19.931	-26636	3538.4	0.10258	0.11741	1.0202
2.462	19.907	-26639	3538.2	0.10375	0.11995	1.0208
2.464	19.858	-26641	3538.1	0.10492	0.12249	1.0214
2.466	19.86	-26643	3538	0.10463	0.12259	1.0218
2.468	19.867	-26638	3537.9	0.10433	0.12268	1.0222
2.47	19.867	-26634	3537.8	0.10404	0.12278	1.0226
2.472	19.798	-26628	3537.8	0.10375	0.12288	1.0229
2.474	19.759	-26623	3537.7	0.10346	0.12298	1.0233
2.476	19.901	-26627	3537.6	0.10424	0.12259	1.022
2.478	19.967	-26630	3537.5	0.10502	0.1222	1.0206
2.48	19.877	-26637	3537.3	0.1058	0.1218	1.0192
2.482	19.861	-26644	3537.1	0.10658	0.12141	1.0179
2.484	19.856	-26643	3536.9	0.10736	0.12102	1.0165
2.486	19.789	-26643	3536.8	0.10609	0.12063	1.0162
2.488	19.72	-26638	3536.6	0.10482	0.12024	1.0159
2.49	19.832	-26633	3536.6	0.10355	0.11985	1.0156
2.492	19.964	-26634	3536.6	0.10228	0.11946	1.0153
2.494	19.877	-26635	3536.6	0.10102	0.11907	1.015
2.496	19.736	-26639	3536.7	0.10102	0.11839	1.0146
2.498	19.652	-26643	3536.8	0.10102	0.11771	1.0143
2.5	19.615	-26642	3536.9	0.10102	0.11702	1.0139
2.502	19.553	-26640	3536.9	0.10102	0.11634	1.0135
2.504	19.495	-26638	3537	0.10102	0.11566	1.0131
2.506	19.441	-26636	3537	0.1016	0.11722	1.0138
2.508	19.405	-26637	3536.9	0.10219	0.11878	1.0145
2.51	19.397	-26638	3536.9	0.10277	0.12034	1.0151
2.512	19.38	-26638	3536.9	0.10336	0.1219	1.0158
2.514	19.392	-26637	3536.9	0.10394	0.12346	1.0165
2.516	19.458	-26640	3536.8	0.10482	0.12298	1.0167
2.518	19.456	-26643	3536.8	0.1057	0.12249	1.0169
2.52	19.395	-26643	3536.6	0.10658	0.122	1.0171
2.522	19.37	-26643	3536.4	0.10746	0.12151	1.0173
2.524	19.35	-26641	3536.2	0.10834	0.12102	1.0175
2.526	19.338	-26639	3535.9	0.10765	0.12102	1.017
2.528	19.321	-26642	3535.5	0.10697	0.12102	1.0165
2.53	19.303	-26644	3535.1	0.10629	0.12102	1.016
2.532	19.29	-26644	3534.6	0.1056	0.12102	1.0155
2.534	19.245	-26645	3534.2	0.10492	0.12102	1.015
2.536	19.193	-26640	3533.9	0.10424	0.12034	1.0139
2.538	19.183	-26635	3533.5	0.10355	0.11966	1.0127
2.54	19.181	-26637	3533.2	0.10287	0.11897	1.0115
2.542	19.213	-26639	3532.8	0.10219	0.11829	1.0104
2.544	19.338	-26642	3532.4	0.1015	0.11761	1.0092
2.546	19.35	-26645	3532	0.10375	0.11712	1.0082
2.548	19.278	-26641	3531.6	0.10599	0.11663	1.0072
2.55	19.287	-26638	3531.2	0.10824	0.11614	1.0063
2.552	19.329	-26634	3530.8	0.11048	0.11566	1.0053
2.554	19.392	-26630	3530.4	0.11273	0.11517	1.0043
2.556	19.552	-26642	3530.1	0.11253	0.11468	1.0047
2.558	19.632	-26653	3529.9	0.11234	0.11419	1.0051
2.56	19.766	-26654	3529.7	0.11214	0.1137	1.0055
2.562	19.753	-26655	3529.5	0.11195	0.11322	1.0059
2.564	19.625	-26657	3529.4	0.11175	0.11273	1.0063
2.566	19.682	-26659	3529.3	0.11175	0.11224	1.005
2.568	19.692	-26658	3529.1	0.11175	0.11175	1.0037
2.57	19.72	-26657	3529	0.11175	0.11126	1.0024
2.572	19.816	-26655	3528.9	0.11175	0.11078	1.0012
2.574	19.929	-26653	3528.7	0.11175	0.11029	0.99991
2.576	19.917	-26656	3528.4	0.11146	0.11078	0.99991
2.578	19.887	-26659	3528.2	0.11117	0.11126	0.99991
2.58	19.874	-26653	3527.9	0.11087	0.11175	0.99991
2.582	19.913	-26647	3527.6	0.11058	0.11224	0.99991
2.584	19.935	-26652	3527.3	0.11029	0.11273	0.99991
2.586	19.872	-26656	3527	0.10951	0.11419	0.99962
2.588	19.855	-26648	3526.8	0.10873	0.11566	0.99933
2.59	19.88	-26641	3526.7	0.10795	0.11712	0.99903
2.592	19.89	-26646	3526.6	0.10716	0.11858	0.99874
2.594	19.929	-26651	3526.4	0.10638	0.12005	0.99845
2.596	20.007	-26652	3526.4	0.1057	0.11966	0.99796
2.598	20.002	-26652	3526.4	0.10502	0.11927	0.99747
2.6	19.919	-26652	3526.4	0.10433	0.11888	0.99698
2.602	19.873	-26653	3526.4	0.10365	0.11849	0.9965
2.604	19.871	-26657	3526.3	0.10297	0.1181	0.99601
2.606	19.885	-26662	3526.3	0.10131	0.11683	0.99601
2.608	19.88	-26663	3526.2	0.09965	0.11556	0.99601
2.61	19.844	-26664	3526.1	0.09799	0.11429	0.99601
2.612	19.842	-26669	3526	0.096331	0.11302	0.99601
2.614	19.852	-26674	3525.9	0.094672	0.11175	0.99601
2.616	19.847	-26666	3525.8	0.095258	0.11204	0.9963
2.618	19.919	-26659	3525.7	0.095843	0.11234	0.99659
2.62	19.938	-26660	3525.6	0.096429	0.11263	0.99689
2.622	19.923	-26660	3525.5	0.097014	0.11292	0.99718
2.624	19.97	-26665	3525.4	0.0976	0.11322	0.99747
2.626	20.022	-26670	3525.4	0.098478	0.11429	0.99659
2.628	20.017	-26668	3525.3	0.099357	0.11536	0.99572
2.63	19.913	-26665	3525.1	0.10024	0.11644	0.99484
2.632	19.828	-26662	3524.8	0.10111	0.11751	0.99396
2.634	19.791	-26658	3524.6	0.10199	0.11858	0.99308
2.636	19.757	-26663	3524.3	0.10287	0.11878	0.9923
2.638	19.911	-26668	3524.1	0.10375	0.11897	0.99152
2.64	19.947	-26665	3523.8	0.10463	0.11917	0.99074
2.642	19.843	-26663	3523.6	0.10551	0.11936	0.98996
2.644	19.793	-26664	3523.4	0.10638	0.11956	0.98918
2.646	19.883	-26665	3523.1	0.10609	0.11927	0.98947
2.648	19.903	-26660	3522.9	0.1058	0.11897	0.98976
2.65	19.869	-26655	3522.7	0.10551	0.11868	0.99005
2.652	19.836	-26662	3522.6	0.10521	0.11839	0.99035
2.654	19.867	-26668	3522.4	0.10492	0.1181	0.99064
2.656	19.855	-26668	3522.4	0.1057	0.1181	0.98986
2.658	19.918	-26668	3522.3	0.10648	0.1181	0.98908
2.66	19.907	-26667	3522.2	0.10726	0.1181	0.9883
2.662	19.879	-26667	3522.2	0.10804	0.1181	0.98752
2.664	19.832	-26667	3522.1	0.10882	0.1181	0.98674
2.666	19.809	-26667	3521.9	0.10785	0.11888	0.98596
2.668	19.821	-26660	3521.6	0.10687	0.11966	0.98517
2.67	19.871	-26653	3521.3	0.1059	0.12044	0.98439
2.672	19.879	-26665	3521.1	0.10492	0.12122	0.98361
2.674	19.831	-26677	3520.9	0.10394	0.122	0.98283
2.676	19.847	-26676	3520.7	0.10482	0.12141	0.98273
2.678	19.847	-26676	3520.5	0.1057	0.12083	0.98264
2.68	19.842	-26670	3520.4	0.10658	0.12024	0.98254
2.682	19.876	-26664	3520.5	0.10746	0.11966	0.98244
2.684	19.857	-26666	3520.6	0.10834	0.11907	0.98234
2.686	19.806	-26669	3520.9	0.10873	0.11878	0.98303
2.688	19.817	-26675	3521.2	0.10912	0.11849	0.98371
2.69	19.85	-26680	3521.6	0.10951	0.11819	0.98439
2.692	19.832	-26674	3522.2	0.1099	0.1179	0.98508
2.694	19.805	-26668	3522.7	0.11029	0.11761	0.98576
2.696	19.812	-26670	3523.6	0.10707	0.11761	0.98449
2.698	19.849	-26673	3524.4	0.10385	0.11761	0.98322
2.7	19.928	-26676	3525.4	0.10063	0.11761	0.98195
2.702	19.917	-26678	3526.6	0.097405	0.11761	0.98068
2.704	19.818	-26671	3527.7	0.094184	0.11761	0.97942
2.706	19.852	-26663	3528.9	0.094867	0.11771	0.97893
2.708	19.922	-26669	3530.1	0.09555	0.1178	0.97844
2.71	19.892	-26675	3531.4	0.096234	0.1179	0.97795
2.712	19.836	-26675	3532.6	0.096917	0.118	0.97746
2.714	19.849	-26676	3533.9	0.0976	0.1181	0.97698
2.716	19.82	-26683	3535.4	0.097893	0.1178	0.97737
2.718	19.814	-26689	3537	0.098186	0.11751	0.97776
2.72	19.839	-26685	3538.6	0.098478	0.11722	0.97815
2.722	19.853	-26682	3540.2	0.098771	0.11692	0.97854
2.724	19.843	-26681	3541.9	0.099064	0.11663	0.97893
2.726	19.826	-26680	3543.6	0.10004	0.11917	0.98166
2.728	19.818	-26681	3545.4	0.10102	0.12171	0.98439
2.73	19.79	-26682	3547	0.10199	0.12424	0.98713
2.732	19.738	-26679	3548.6	0.10297	0.12678	0.98986
2.734	19.823	-26677	3550.2	0.10394	0.12932	0.99259
2.736	19.932	-26682	3551.7	0.1057	0.12971	0.99152
2.738	19.945	-26687	3553.2	0.10746	0.1301	0.99044
2.74	19.941	-26680	3554.5	0.10921	0.13049	0.98937
2.742	19.893	-26674	3555.7	0.11097	0.13088	0.9883
2.744	19.901	-26678	3556.8	0.11273	0.13127	0.98722
2.746	19.874	-26681	3557.8	0.10892	0.12903	0.98713
2.748	19.825	-26681	3558.8	0.10512	0.12678	0.98703
2.75	19.818	-26681	3560	0.10131	0.12454	0.98693
2.752	19.849	-26683	3561.3	0.097502	0.12229	0.98683
2.754	19.822	-26684	3562.5	0.093696	0.12005	0.98674
2.756	19.832	-26685	3563.9	0.095453	0.12034	0.98644
2.758	19.837	-26686	3565.3	0.09721	0.12063	0.98615
2.76	19.783	-26681	3566.5	0.098966	0.12093	0.98586
2.762	19.762	-26677	3567.6	0.10072	0.12122	0.98556
2.764	19.841	-26679	3568.7	0.10248	0.12151	0.98527
2.766	19.893	-26680	3569.5	0.10453	0.1218	0.98508
2.768	19.861	-26683	3570.2	0.10658	0.1221	0.98488
2.77	19.804	-26686	3570.8	0.10863	0.12239	0.98469
2.772	19.75	-26684	3571.3	0.11068	0.12268	0.98449
2.774	19.739	-26682	3571.7	0.11273	0.12298	0.9843
2.776	19.777	-26682	3572	0.11273	0.12229	0.98566
2.778	19.787	-26682	3572.2	0.11273	0.12161	0.98703
2.78	19.757	-26676	3572.5	0.11273	0.12093	0.9884
2.782	19.765	-26670	3572.8	0.11273	0.12024	0.98976
2.784	19.784	-26671	3573.1	0.11273	0.11956	0.99113
2.786	19.759	-26671	3573.5	0.11058	0.11936	0.99171
2.788	19.783	-26668	3573.9	0.10843	0.11917	0.9923
2.79	19.832	-26664	3574.4	0.10629	0.11897	0.99288
2.792	19.827	-26667	3575	0.10414	0.11878	0.99347
2.794	19.814	-26671	3575.6	0.10199	0.11858	0.99406
2.796	19.767	-26677	3576.2	0.10307	0.11888	0.99435
2.798	19.708	-26684	3576.9	0.10414	0.11917	0.99464
2.8	19.707	-26675	3577.7	0.10521	0.11946	0.99493
2.802	19.767	-26666	3578.7	0.10629	0.11976	0.99523
2.804	19.772	-26671	3579.6	0.10736	0.12005	0.99552
2.806	19.801	-26676	3580.3	0.10521	0.11917	0.99611
2.808	19.856	-26674	3581	0.10307	0.11829	0.99669
2.81	19.843	-26673	3581.4	0.10092	0.11741	0.99728
2.812	19.802	-26672	3581.7	0.098771	0.11653	0.99786
2.814	19.8	-26672	3581.9	0.096624	0.11566	0.99845
2.816	19.873	-26670	3582	0.098283	0.11644	0.99952
2.818	19.853	-26668	3582.1	0.099942	0.11722	1.0006
2.82	19.811	-26663	3582.1	0.1016	0.118	1.0017
2.822	19.826	-26657	3581.9	0.10326	0.11878	1.0027
2.824	19.801	-26657	3581.8	0.10492	0.11956	1.0038
2.826	19.807	-26657	3581.5	0.1057	0.11956	1.0047
2.828	19.864	-26658	3581.2	0.10648	0.11956	1.0056
2.83	19.852	-26659	3580.9	0.10726	0.11956	1.0065
2.832	19.849	-26662	3580.4	0.10804	0.11956	1.0073
2.834	19.814	-26665	3579.9	0.10882	0.11956	1.0082
2.836	19.803	-26665	3579.2	0.10951	0.11936	1.0101
2.838	19.839	-26665	3578.5	0.11019	0.11917	1.0119
2.84	19.907	-26664	3577.8	0.11087	0.11897	1.0138
2.842	19.944	-26663	3576.9	0.11156	0.11878	1.0156
2.844	19.939	-26659	3576.1	0.11224	0.11858	1.0175
2.846	19.899	-26654	3575.3	0.11283	0.11917	1.0178
2.848	19.826	-26653	3574.4	0.11341	0.11976	1.0181
2.85	19.801	-26652	3573.5	0.114	0.12034	1.0184
2.852	19.829	-26655	3572.6	0.11458	0.12093	1.0187
2.854	19.839	-26658	3571.7	0.11517	0.12151	1.0189
2.856	19.823	-26657	3570.6	0.11488	0.12102	1.0187
2.858	19.822	-26657	3569.6	0.11458	0.12054	1.0184
2.86	19.851	-26652	3568.5	0.11429	0.12005	1.0181
2.862	19.869	-26648	3567.4	0.114	0.11956	1.0178
2.864	19.873	-26649	3566.2	0.1137	0.11907	1.0175
2.866	19.868	-26651	3565.1	0.11448	0.11868	1.0176
2.868	19.843	-26650	3563.9	0.11527	0.11829	1.0177
2.87	19.857	-26649	3562.8	0.11605	0.1179	1.0178
2.872	19.831	-26651	3561.8	0.11683	0.11751	1.0179
2.874	19.765	-26654	3560.8	0.11761	0.11712	1.018
2.876	19.749	-26658	3559.8	0.11507	0.11663	1.017
2.878	19.817	-26662	3558.7	0.11253	0.11614	1.016
2.88	19.869	-26657	3557.7	0.11	0.11566	1.015
2.882	19.89	-26653	3556.6	0.10746	0.11517	1.0141
2.884	19.876	-26654	3555.5	0.10492	0.11468	1.0131
2.886	19.857	-26655	3554.8	0.10394	0.11546	1.0122
2.888	19.794	-26657	3554.1	0.10297	0.11624	1.0113
2.89	19.809	-26658	3553.5	0.10199	0.11702	1.0105
2.892	19.866	-26659	3553.1	0.10102	0.1178	1.0096
2.894	19.87	-26660	3552.6	0.10004	0.11858	1.0087
2.896	19.869	-26659	3552.3	0.10092	0.11878	1.0086
2.898	19.852	-26657	3552	0.1018	0.11897	1.0085
2.9	19.884	-26651	3551.7	0.10268	0.11917	1.0084
2.902	19.892	-26644	3551.6	0.10355	0.11936	1.0083
2.904	19.874	-26646	3551.5	0.10443	0.11956	1.0082
2.906	19.887	-26648	3551.4	0.10375	0.12102	1.0101
2.908	19.9	-26648	3551.3	0.10307	0.12249	1.0119
2.91	19.895	-26649	3551	0.10238	0.12395	1.0138
2.912	19.852	-26647	3550.7	0.1017	0.12542	1.0156
2.914	19.779	-26645	3550.3	0.10102	0.12688	1.0175
2.916	19.779	-26639	3549.9	0.099845	0.12698	1.0191
2.918	19.84	-26632	3549.5	0.098674	0.12708	1.0208
2.92	19.823	-26632	3549	0.097502	0.12717	1.0225
2.922	19.83	-26632	3548.6	0.096331	0.12727	1.0241
2.924	19.85	-26635	3548.2	0.09516	0.12737	1.0258
2.926	19.839	-26639	3547.8	0.096722	0.12805	1.0243
2.928	19.832	-26643	3547.4	0.098283	0.12873	1.0228
2.93	19.844	-26647	3546.9	0.099845	0.12942	1.0214
2.932	19.834	-26649	3546.4	0.10141	0.1301	1.0199
2.934	19.808	-26652	3545.9	0.10297	0.13078	1.0185
2.936	19.85	-26652	3545.4	0.10189	0.12893	1.0154
2.938	19.869	-26653	3544.8	0.10082	0.12708	1.0124
2.94	19.823	-26650	3544.2	0.099747	0.12522	1.0094
2.942	19.792	-26647	3543.5	0.098674	0.12337	1.0064
2.944	19.807	-26643	3542.8	0.0976	0.12151	1.0033
2.946	19.843	-26639	3542.1	0.096917	0.12151	1.001
2.948	19.86	-26635	3541.5	0.096234	0.12151	0.99864
2.95	19.855	-26632	3540.8	0.09555	0.12151	0.9963
2.952	19.832	-26630	3540.1	0.094867	0.12151	0.99396
2.954	19.802	-26628	3539.4	0.094184	0.12151	0.99162
2.956	19.797	-26631	3538.6	0.095062	0.12229	0.9922
2.958	19.797	-26634	3537.7	0.095941	0.12307	0.99279
2.96	19.796	-26637	3536.9	0.096819	0.12385	0.99337
2.962	19.86	-26640	3536	0.097698	0.12464	0.99396
2.964	19.87	-26642	3535.1	0.098576	0.12542	0.99454
2.966	19.841	-26644	3534.5	0.098674	0.12376	0.99328
2.968	19.872	-26642	3533.8	0.098771	0.1221	0.99201
2.97	19.861	-26639	3533.4	0.098869	0.12044	0.99074
2.972	19.78	-26638	3533.2	0.098966	0.11878	0.98947
2.974	19.686	-26638	3533	0.099064	0.11712	0.9882
2.976	19.749	-26636	3533.1	0.10043	0.11888	0.9881
2.978	19.816	-26635	3533.2	0.1018	0.12063	0.988
2.98	19.859	-26640	3533.4	0.10316	0.12239	0.98791
2.982	19.895	-26645	3533.7	0.10453	0.12415	0.98781
2.984	19.871	-26639	3534	0.1059	0.1259	0.98771
2.986	19.837	-26633	3534.3	0.10551	0.12629	0.9884
2.988	19.784	-26637	3534.6	0.10512	0.12668	0.98908
2.99	19.752	-26641	3534.9	0.10472	0.12708	0.98976
2.992	19.752	-26638	3535.2	0.10433	0.12747	0.99044
2.994	19.768	-26636	3535.5	0.10394	0.12786	0.99113
2.996	19.742	-26635	3535.6	0.1016	0.12815	0.99298
2.998	19.729	-26635	3535.7	0.099259	0.12844	0.99484
3	19.713	-26636	3535.7	0.096917	0.12873	0.99669
3.002	19.722	-26638	3535.6	0.094574	0.12903	0.99855
3.004	19.748	-26643	3535.5	0.092232	0.12932	1.0004
3.006	19.737	-26648	3535.4	0.094672	0.12961	1.0011
3.008	19.673	-26645	3535.3	0.097112	0.12991	1.0018
3.01	19.722	-26643	3535.1	0.099552	0.1302	1.0024
3.012	19.814	-26642	3534.9	0.10199	0.13049	1.0031
3.014	19.801	-26642	3534.7	0.10443	0.13078	1.0038
3.016	19.743	-26640	3534.4	0.10404	0.13078	1.0047
3.018	19.72	-26638	3534.1	0.10365	0.13078	1.0056
3.02	19.776	-26642	3533.8	0.10326	0.13078	1.0065
3.022	19.799	-26646	3533.5	0.10287	0.13078	1.0073
3.024	19.753	-26644	3533.2	0.10248	0.13078	1.0082
3.026	19.75	-26643	3532.9	0.10248	0.12961	1.0069
3.028	19.75	-26645	3532.7	0.10248	0.12844	1.0057
3.03	19.73	-26647	3532.5	0.10248	0.12727	1.0044
3.032	19.757	-26641	3532.3	0.10248	0.1261	1.0031
3.034	19.796	-26636	3532.1	0.10248	0.12493	1.0019
3.036	19.819	-26634	3531.9	0.10287	0.12561	1.0021
3.038	19.828	-26633	3531.7	0.10326	0.12629	1.0023
3.04	19.815	-26636	3531.4	0.10365	0.12698	1.0024
3.042	19.799	-26639	3531.2	0.10404	0.12766	1.0026
3.044	19.816	-26639	3531	0.10443	0.12834	1.0028
3.046	19.816	-26638	3530.7	0.10385	0.12825	1.0023
3.048	19.8	-26638	3530.5	0.10326	0.12815	1.0017
3.05	19.889	-26638	3530.2	0.10268	0.12805	1.0011
3.052	20.023	-26637	3530	0.10209	0.12795	1.0005
3.054	19.964	-26635	3529.7	0.1015	0.12786	0.99991
3.056	19.877	-26633	3529.4	0.10336	0.12727	1.0016
3.058	19.891	-26631	3529.1	0.10521	0.12668	1.0032
3.06	19.904	-26633	3528.8	0.10707	0.1261	1.0049
3.062	19.857	-26634	3528.6	0.10892	0.12551	1.0065
3.064	19.842	-26635	3528.3	0.11078	0.12493	1.0082
3.066	19.847	-26636	3528.1	0.11	0.12503	1.009
3.068	19.853	-26637	3527.9	0.10921	0.12512	1.0098
3.07	19.871	-26639	3527.8	0.10843	0.12522	1.0106
3.072	19.876	-26635	3527.8	0.10765	0.12532	1.0113
3.074	19.885	-26631	3527.8	0.10687	0.12542	1.0121
3.076	19.923	-26631	3527.8	0.10707	0.12532	1.0106
3.078	19.951	-26631	3527.9	0.10726	0.12522	1.0092
3.08	19.841	-26639	3527.9	0.10746	0.12512	1.0077
3.082	19.809	-26648	3528	0.10765	0.12503	1.0063
3.084	19.866	-26645	3528	0.10785	0.12493	1.0048
3.086	19.935	-26642	3527.9	0.10765	0.12473	1.0039
3.088	19.934	-26636	3527.7	0.10746	0.12454	1.003
3.09	19.884	-26631	3527.5	0.10726	0.12434	1.0022
3.092	19.879	-26637	3527.3	0.10707	0.12415	1.0013
3.094	19.932	-26644	3527	0.10687	0.12395	1.0004
3.096	19.947	-26643	3526.8	0.10453	0.12337	0.99952
3.098	19.876	-26643	3526.6	0.10219	0.12278	0.99864
3.1	19.844	-26645	3526.4	0.099845	0.1222	0.99776
3.102	19.854	-26647	3526.3	0.097502	0.12161	0.99689
3.104	19.833	-26644	3526.2	0.09516	0.12102	0.99601
3.106	19.818	-26642	3526.4	0.097014	0.12122	0.99454
3.108	19.823	-26646	3526.5	0.098869	0.12141	0.99308
3.11	19.837	-26650	3526.8	0.10072	0.12161	0.99162
3.112	19.835	-26642	3527	0.10258	0.1218	0.99015
3.114	19.788	-26634	3527.2	0.10443	0.122	0.98869
3.116	19.749	-26644	3527.5	0.10512	0.1218	0.98898
3.118	19.774	-26654	3527.7	0.1058	0.12161	0.98927
3.12	19.829	-26651	3527.8	0.10648	0.12141	0.98957
3.122	19.905	-26648	3527.8	0.10716	0.12122	0.98986
3.124	20.001	-26646	3527.8	0.10785	0.12102	0.99015
3.126	20.015	-26644	3527.8	0.10707	0.122	0.9921
3.128	19.918	-26639	3527.9	0.10629	0.12298	0.99406
3.13	19.837	-26634	3527.9	0.10551	0.12395	0.99601
3.132	19.85	-26636	3528	0.10472	0.12493	0.99796
3.134	19.853	-26638	3528.2	0.10394	0.1259	0.99991
3.136	19.793	-26642	3528.3	0.10472	0.12493	0.99972
3.138	19.805	-26647	3528.4	0.10551	0.12395	0.99952
3.14	19.883	-26646	3528.6	0.10629	0.12298	0.99933
3.142	19.907	-26645	3528.8	0.10707	0.122	0.99913
3.144	19.913	-26642	3529	0.10785	0.12102	0.99894
3.146	19.872	-26639	3529	0.10716	0.12161	0.99894
3.148	19.836	-26637	3529.1	0.10648	0.1222	0.99894
3.15	19.771	-26634	3529.2	0.1058	0.12278	0.99894
3.152	19.728	-26639	3529.2	0.10512	0.12337	0.99894
3.154	19.746	-26645	3529.2	0.10443	0.12395	0.99894
3.156	19.801	-26642	3529	0.10268	0.12259	0.99796
3.158	19.83	-26640	3528.8	0.10092	0.12122	0.99698
3.16	19.734	-26641	3528.6	0.099162	0.11985	0.99601
3.162	19.642	-26642	3528.3	0.097405	0.11849	0.99503
3.164	19.638	-26644	3528.1	0.095648	0.11712	0.99406
3.166	19.633	-26645	3527.8	0.096429	0.11624	0.99523
3.168	19.551	-26642	3527.5	0.09721	0.11536	0.9964
3.17	19.488	-26638	3527.2	0.09799	0.11448	0.99757
3.172	19.428	-26637	3526.9	0.098771	0.11361	0.99874
3.174	19.376	-26635	3526.7	0.099552	0.11273	0.99991
3.176	19.365	-26635	3526.4	0.099357	0.11195	0.99903
3.178	19.358	-26634	3526.2	0.099162	0.11117	0.99816
3.18	19.399	-26636	3526	0.098966	0.11039	0.99728
3.182	19.429	-26638	3525.8	0.098771	0.1096	0.9964
3.184	19.386	-26640	3525.6	0.098576	0.10882	0.99552
3.186	19.332	-26643	3525.5	0.098674	0.10853	0.99464
3.188	19.319	-26639	3525.3	0.098771	0.10824	0.99376
3.19	19.308	-26635	3525.1	0.098869	0.10795	0.99288
3.192	19.316	-26639	3525	0.098966	0.10765	0.99201
3.194	19.32	-26642	3524.8	0.099064	0.10736	0.99113
3.196	19.298	-26647	3524.7	0.099064	0.10951	0.99171
3.198	19.267	-26653	3524.7	0.099064	0.11165	0.9923
3.2	19.195	-26659	3524.6	0.099064	0.1138	0.99288
3.202	19.126	-26665	3524.5	0.099064	0.11595	0.99347
3.204	19.19	-26658	3524.4	0.099064	0.1181	0.99406
3.206	19.317	-26651	3524.3	0.10014	0.11868	0.99552
3.208	19.327	-26649	3524.2	0.10121	0.11927	0.99698
3.21	19.268	-26648	3524.1	0.10228	0.11985	0.99845
3.212	19.211	-26652	3524.1	0.10336	0.12044	0.99991
3.214	19.175	-26657	3524.1	0.10443	0.12102	1.0014
3.216	19.186	-26660	3524.3	0.10394	0.12141	1.0012
3.218	19.26	-26664	3524.4	0.10346	0.1218	1.001
3.22	19.347	-26666	3524.6	0.10297	0.1222	1.0008
3.222	19.451	-26668	3524.9	0.10248	0.12259	1.0006
3.224	19.544	-26667	3525.2	0.10199	0.12298	1.0004
3.226	19.6	-26666	3525.5	0.10063	0.1222	1.0004
3.228	19.604	-26658	3525.7	0.099259	0.12141	1.0004
3.23	19.685	-26651	3525.9	0.097893	0.12063	1.0004
3.232	19.679	-26655	3526.1	0.096526	0.11985	1.0004
3.234	19.695	-26659	3526.3	0.09516	0.11907	1.0004
3.236	19.728	-26659	3526.4	0.095453	0.11946	1.0008
3.238	19.793	-26658	3526.5	0.095746	0.11985	1.0012
3.24	19.9	-26650	3526.5	0.096038	0.12024	1.0016
3.242	19.846	-26642	3526.5	0.096331	0.12063	1.002
3.244	19.795	-26644	3526.5	0.096624	0.12102	1.0024
3.246	19.866	-26646	3526.4	0.097502	0.12083	1.0029
3.248	19.924	-26650	3526.2	0.098381	0.12063	1.0035
3.25	19.899	-26654	3526	0.099259	0.12044	1.0041
3.252	19.926	-26651	3525.7	0.10014	0.12024	1.0047
3.254	19.918	-26648	3525.4	0.10102	0.12005	1.0053
3.256	19.828	-26651	3525	0.10092	0.12015	1.005
3.258	19.843	-26654	3524.6	0.10082	0.12024	1.0047
3.26	19.896	-26653	3524.1	0.10072	0.12034	1.0044
3.262	19.895	-26652	3523.6	0.10063	0.12044	1.0041
3.264	19.891	-26646	3523	0.10053	0.12054	1.0038
3.266	19.9	-26641	3522.6	0.10063	0.12132	1.0049
3.268	19.912	-26650	3522.2	0.10072	0.1221	1.006
3.27	19.866	-26660	3521.9	0.10082	0.12288	1.007
3.272	19.866	-26656	3521.7	0.10092	0.12366	1.0081
3.274	19.868	-26652	3521.5	0.10102	0.12444	1.0092
3.276	19.838	-26653	3521.4	0.1015	0.12512	1.0092
3.278	19.803	-26654	3521.4	0.10199	0.12581	1.0092
3.28	19.83	-26659	3521.3	0.10248	0.12649	1.0092
3.282	19.857	-26665	3521.3	0.10297	0.12717	1.0092
3.284	19.809	-26658	3521.3	0.10346	0.12786	1.0092
3.286	19.803	-26650	3521.5	0.10482	0.12629	1.0078
3.288	19.936	-26652	3521.8	0.10619	0.12473	1.0065
3.29	20.026	-26654	3521.9	0.10756	0.12317	1.0051
3.292	19.949	-26660	3521.9	0.10892	0.12161	1.0037
3.294	19.873	-26667	3522	0.11029	0.12005	1.0024
3.296	19.834	-26664	3521.7	0.11039	0.12171	1.0054
3.298	19.823	-26661	3521.5	0.11048	0.12337	1.0084
3.3	19.835	-26664	3521.3	0.11058	0.12503	1.0114
3.302	19.824	-26667	3521.3	0.11068	0.12668	1.0145
3.304	19.819	-26662	3521.2	0.11078	0.12834	1.0175
3.306	19.87	-26656	3521.5	0.11107	0.12776	1.0168
3.308	19.882	-26657	3521.8	0.11136	0.12717	1.0161
3.31	19.831	-26657	3522.1	0.11165	0.12659	1.0154
3.312	19.831	-26661	3522.2	0.11195	0.126	1.0147
3.314	19.849	-26664	3522.3	0.11224	0.12542	1.0141
3.316	19.834	-26660	3522.1	0.11156	0.12503	1.0125
3.318	19.818	-26655	3522	0.11087	0.12464	1.0109
3.32	19.822	-26657	3522	0.11019	0.12424	1.0094
3.322	19.896	-26659	3522.2	0.10951	0.12385	1.0078
3.324	19.851	-26660	3522.4	0.10882	0.12346	1.0063
3.326	19.812	-26661	3522.3	0.10892	0.12249	1.0036
3.328	19.852	-26660	3522.2	0.10902	0.12151	1.001
3.33	19.766	-26660	3521.9	0.10912	0.12054	0.99835
3.332	19.799	-26661	3521.4	0.10921	0.11956	0.99572
3.334	19.857	-26663	3520.9	0.10931	0.11858	0.99308
3.336	19.891	-26664	3520.8	0.10394	0.11858	0.99396
3.338	19.855	-26665	3520.6	0.098576	0.11858	0.99484
3.34	19.802	-26665	3520.5	0.093208	0.11858	0.99572
3.342	19.739	-26666	3520.5	0.08784	0.11858	0.99659
3.344	19.707	-26665	3520.4	0.082472	0.11858	0.99747
3.346	19.769	-26664	3520.3	0.084522	0.12024	0.99776
3.348	19.906	-26664	3520.1	0.086571	0.1219	0.99806
3.35	19.898	-26664	3520	0.088621	0.12356	0.99835
3.352	19.86	-26663	3520	0.09067	0.12522	0.99864
3.354	19.817	-26662	3520	0.09272	0.12688	0.99894
3.356	19.77	-26660	3520.3	0.093794	0.12571	0.99786
3.358	19.725	-26659	3520.6	0.094867	0.12454	0.99679
3.36	19.761	-26659	3521.2	0.095941	0.12337	0.99572
3.362	19.844	-26659	3521.8	0.097014	0.1222	0.99464
3.364	19.82	-26660	3522.5	0.098088	0.12102	0.99357
3.366	19.784	-26661	3523.6	0.099747	0.1219	0.99523
3.368	19.818	-26663	3524.6	0.10141	0.12278	0.99689
3.37	19.895	-26666	3525.8	0.10307	0.12366	0.99855
3.372	19.917	-26668	3527.2	0.10472	0.12454	1.0002
3.374	19.831	-26669	3528.6	0.10638	0.12542	1.0019
3.376	19.777	-26668	3530.1	0.10726	0.12483	1.0015
3.378	19.793	-26667	3531.6	0.10814	0.12424	1.0011
3.38	19.831	-26666	3533.2	0.10902	0.12366	1.0007
3.382	19.856	-26664	3534.8	0.1099	0.12307	1.0003
3.384	19.863	-26669	3536.5	0.11078	0.12249	0.99991
3.386	19.836	-26675	3538	0.11107	0.12346	1.0014
3.388	19.827	-26674	3539.6	0.11136	0.12444	1.0028
3.39	19.839	-26674	3541.1	0.11165	0.12542	1.0043
3.392	19.867	-26673	3542.6	0.11195	0.12639	1.0058
3.394	19.902	-26672	3544.1	0.11224	0.12737	1.0072
3.396	19.841	-26671	3545.5	0.10902	0.12717	1.0079
3.398	19.81	-26671	3547	0.1058	0.12698	1.0086
3.4	19.818	-26668	3548.4	0.10258	0.12678	1.0093
3.402	19.822	-26664	3549.7	0.099357	0.12659	1.01
3.404	19.815	-26663	3551.1	0.096136	0.12639	1.0106
3.406	19.804	-26663	3552.4	0.098381	0.12688	1.0103
3.408	19.845	-26663	3553.6	0.10063	0.12737	1.0099
3.41	19.832	-26663	3554.8	0.10287	0.12786	1.0095
3.412	19.783	-26665	3555.8	0.10512	0.12834	1.0091
3.414	19.81	-26668	3556.8	0.10736	0.12883	1.0087
3.416	19.831	-26668	3557.7	0.10629	0.12825	1.0086
3.418	19.782	-26668	3558.6	0.10521	0.12766	1.0085
3.42	19.818	-26662	3559.6	0.10414	0.12708	1.0084
3.422	19.817	-26655	3560.4	0.10307	0.12649	1.0083
3.424	19.784	-26660	3561.3	0.10199	0.1259	1.0082
3.426	19.831	-26666	3562.2	0.10336	0.12649	1.0075
3.428	19.848	-26669	3563.1	0.10472	0.12708	1.0068
3.43	19.808	-26672	3563.9	0.10609	0.12766	1.0062
3.432	19.723	-26670	3564.7	0.10746	0.12825	1.0055
3.434	19.667	-26668	3565.5	0.10882	0.12883	1.0048
3.436	19.783	-26665	3566.1	0.10707	0.12834	1.004
3.438	19.8	-26661	3566.7	0.10531	0.12786	1.0032
3.44	19.753	-26660	3567.3	0.10355	0.12737	1.0024
3.442	19.739	-26659	3567.8	0.1018	0.12688	1.0017
3.444	19.738	-26657	3568.4	0.10004	0.12639	1.0009
3.446	19.773	-26654	3568.9	0.10024	0.1262	1.0009
3.448	19.792	-26657	3569.5	0.10043	0.126	1.0009
3.45	19.732	-26659	3570	0.10063	0.12581	1.0009
3.452	19.686	-26662	3570.4	0.10082	0.12561	1.0009
3.454	19.714	-26664	3570.8	0.10102	0.12542	1.0009
3.456	19.745	-26663	3571.1	0.10141	0.12542	1.0009
3.458	19.79	-26662	3571.5	0.1018	0.12542	1.0009
3.46	19.823	-26663	3571.8	0.10219	0.12542	1.0009
3.462	19.772	-26665	3572.1	0.10258	0.12542	1.0009
3.464	19.69	-26663	3572.4	0.10297	0.12542	1.0009
3.466	19.649	-26660	3572.6	0.10297	0.1261	1.0026
3.468	19.706	-26655	3572.8	0.10297	0.12678	1.0044
3.47	19.769	-26651	3573	0.10297	0.12747	1.0062
3.472	19.805	-26655	3573.1	0.10297	0.12815	1.0079
3.474	19.832	-26660	3573.2	0.10297	0.12883	1.0097
3.476	19.815	-26662	3573.2	0.10287	0.12873	1.0108
3.478	19.803	-26663	3573.3	0.10277	0.12864	1.012
3.48	19.808	-26662	3573.3	0.10268	0.12854	1.0132
3.482	19.787	-26661	3573.3	0.10258	0.12844	1.0144
3.484	19.77	-26660	3573.3	0.10248	0.12834	1.0155
3.486	19.843	-26660	3573.2	0.10189	0.12727	1.014
3.488	19.864	-26657	3573.1	0.10131	0.1262	1.0124
3.49	19.878	-26653	3572.9	0.10072	0.12512	1.0108
3.492	19.902	-26657	3572.6	0.10014	0.12405	1.0093
3.494	19.878	-26661	3572.4	0.099552	0.12298	1.0077
3.496	19.834	-26665	3571.9	0.10033	0.12346	1.0074
3.498	19.802	-26670	3571.5	0.10111	0.12395	1.0071
3.5	19.846	-26664	3571	0.10189	0.12444	1.0068
3.502	19.839	-26658	3570.3	0.10268	0.12493	1.0065
3.504	19.78	-26653	3569.7	0.10346	0.12542	1.0063
3.506	19.78	-26648	3569	0.10424	0.12551	1.0058
3.508	19.829	-26642	3568.2	0.10502	0.12561	1.0053
3.51	19.828	-26636	3567.5	0.1058	0.12571	1.0048
3.512	19.888	-26642	3566.7	0.10658	0.12581	1.0043
3.514	19.846	-26648	3565.9	0.10736	0.1259	1.0038
3.516	19.796	-26647	3564.9	0.10648	0.12532	1.0031
3.518	19.767	-26647	3563.9	0.1056	0.12473	1.0024
3.52	19.793	-26645	3562.9	0.10472	0.12415	1.0018
3.522	19.83	-26644	3562	0.10385	0.12356	1.0011
3.524	19.861	-26645	3561	0.10297	0.12298	1.0004
3.526	19.871	-26646	3560.2	0.10316	0.12327	0.99913
3.528	19.864	-26643	3559.4	0.10336	0.12356	0.99786
3.53	19.877	-26641	3558.7	0.10355	0.12385	0.99659
3.532	19.862	-26644	3558.1	0.10375	0.12415	0.99532
3.534	19.815	-26647	3557.4	0.10394	0.12444	0.99406
3.536	19.791	-26644	3556.9	0.10502	0.12424	0.99493
3.538	19.779	-26640	3556.3	0.10609	0.12405	0.99581
3.54	19.768	-26636	3555.9	0.10716	0.12385	0.99669
3.542	19.76	-26631	3555.6	0.10824	0.12366	0.99757
3.544	19.747	-26635	3555.2	0.10931	0.12346	0.99845
3.546	19.753	-26638	3555	0.10941	0.12307	0.99864
3.548	19.749	-26636	3554.8	0.10951	0.12268	0.99884
3.55	19.767	-26634	3554.6	0.1096	0.12229	0.99903
3.552	19.901	-26631	3554.4	0.1097	0.1219	0.99923
3.554	19.94	-26629	3554.2	0.1098	0.12151	0.99942
3.556	19.876	-26627	3554	0.10951	0.1218	0.99942
3.558	19.85	-26626	3553.8	0.10921	0.1221	0.99942
3.56	19.883	-26630	3553.6	0.10892	0.12239	0.99942
3.562	19.969	-26634	3553.5	0.10863	0.12268	0.99942
3.564	19.991	-26630	3553.3	0.10834	0.12298	0.99942
3.566	19.956	-26627	3553.2	0.10824	0.12337	1.0001
3.568	19.887	-26626	3553.1	0.10814	0.12376	1.0008
3.57	19.809	-26626	3552.9	0.10804	0.12415	1.0015
3.572	19.733	-26626	3552.6	0.10795	0.12454	1.0022
3.574	19.704	-26627	3552.3	0.10785	0.12493	1.0028
3.576	19.767	-26629	3552	0.10677	0.12512	1.0019
3.578	19.841	-26631	3551.7	0.1057	0.12532	1.0009
3.58	19.866	-26624	3551.4	0.10463	0.12551	0.99991
3.582	19.85	-26618	3551.1	0.10355	0.12571	0.99894
3.584	19.868	-26624	3550.7	0.10248	0.1259	0.99796
3.586	19.845	-26630	3550.3	0.10365	0.12542	0.99786
3.588	19.779	-26625	3549.9	0.10482	0.12493	0.99776
3.59	19.759	-26620	3549.5	0.10599	0.12444	0.99767
3.592	19.77	-26626	3549.1	0.10716	0.12395	0.99757
3.594	19.826	-26632	3548.6	0.10834	0.12346	0.99747
3.596	19.877	-26630	3548.3	0.10853	0.12346	0.99718
3.598	19.886	-26629	3547.9	0.10873	0.12346	0.99689
3.6	19.834	-26628	3547.5	0.10892	0.12346	0.99659
3.602	19.817	-26627	3547	0.10912	0.12346	0.9963
3.604	19.887	-26628	3546.6	0.10931	0.12346	0.99601
3.606	19.893	-26628	3546.2	0.11029	0.12337	0.99669
3.608	19.818	-26625	3545.8	0.11126	0.12327	0.99737
3.61	19.794	-26621	3545.5	0.11224	0.12317	0.99806
3.612	19.792	-26623	3545.1	0.11322	0.12307	0.99874
3.614	19.777	-26625	3544.7	0.11419	0.12298	0.99942
3.616	19.767	-26619	3544.3	0.11224	0.12327	0.99933
3.618	19.748	-26613	3544	0.11029	0.12356	0.99923
3.62	19.732	-26610	3543.6	0.10834	0.12385	0.99913
3.622	19.759	-26606	3543.3	0.10638	0.12415	0.99903
3.624	19.769	-26613	3543	0.10443	0.12444	0.99894
3.626	19.782	-26620	3542.7	0.10463	0.12503	0.99913
3.628	19.806	-26620	3542.4	0.10482	0.12561	0.99933
3.63	19.827	-26620	3542.1	0.10502	0.1262	0.99952
3.632	19.855	-26614	3541.8	0.10521	0.12678	0.99972
3.634	19.862	-26609	3541.5	0.10541	0.12737	0.99991
3.636	19.865	-26612	3541	0.10512	0.12815	1.0001
3.638	19.809	-26615	3540.6	0.10482	0.12893	1.0003
3.64	19.775	-26615	3540.2	0.10453	0.12971	1.0005
3.642	19.782	-26614	3539.7	0.10424	0.13049	1.0007
3.644	19.757	-26610	3539.3	0.10394	0.13127	1.0009
3.646	19.693	-26606	3538.9	0.10385	0.13088	1.0011
3.648	19.709	-26608	3538.6	0.10375	0.13049	1.0013
3.65	19.746	-26610	3538.3	0.10365	0.1301	1.0015
3.652	19.748	-26613	3538	0.10355	0.12971	1.0017
3.654	19.778	-26617	3537.7	0.10346	0.12932	1.0019
3.656	19.817	-26612	3537.5	0.10228	0.12844	1.0013
3.658	19.804	-26607	3537.2	0.10111	0.12756	1.0007
3.66	19.786	-26610	3536.8	0.099942	0.12668	1.0001
3.662	19.771	-26613	3536.4	0.098771	0.12581	0.99952
3.664	19.707	-26613	3536.1	0.0976	0.12493	0.99894
3.666	19.714	-26613	3535.7	0.098576	0.1261	0.99942
3.668	19.728	-26616	3535.3	0.099552	0.12727	0.99991
3.67	19.72	-26619	3534.9	0.10053	0.12844	1.0004
3.672	19.73	-26619	3534.6	0.1015	0.12961	1.0009
3.674	19.736	-26620	3534.3	0.10248	0.13078	1.0014
3.676	19.7	-26618	3534.1	0.10385	0.13098	1.0012
3.678	19.755	-26617	3533.9	0.10521	0.13117	1.001
3.68	19.8	-26615	3533.7	0.10658	0.13137	1.0008
3.682	19.788	-26613	3533.6	0.10795	0.13156	1.0006
3.684	19.785	-26610	3533.5	0.10931	0.13176	1.0004
3.686	19.761	-26608	3533.4	0.10785	0.13127	1.0005
3.688	19.765	-26607	3533.3	0.10638	0.13078	1.0006
3.69	19.84	-26606	3533.2	0.10492	0.1303	1.0007
3.692	19.895	-26606	3533	0.10346	0.12981	1.0008
3.694	19.901	-26606	3532.8	0.10199	0.12932	1.0009
3.696	19.91	-26606	3532.6	0.10268	0.12922	1.0008
3.698	19.905	-26606	3532.4	0.10336	0.12912	1.0007
3.7	19.848	-26611	3532.1	0.10404	0.12903	1.0006
3.702	19.801	-26616	3531.8	0.10472	0.12893	1.0005
3.704	19.811	-26619	3531.4	0.10541	0.12883	1.0004
3.706	19.879	-26621	3530.9	0.10599	0.12834	1.0003
3.708	19.922	-26621	3530.4	0.10658	0.12786	1.0002
3.71	19.891	-26621	3530	0.10716	0.12737	1.0001
3.712	19.851	-26616	3529.5	0.10775	0.12688	1
3.714	19.817	-26611	3529	0.10834	0.12639	0.99991
3.716	19.793	-26617	3528.5	0.10785	0.12678	0.99981
3.718	19.805	-26622	3528.1	0.10736	0.12717	0.99972
3.72	19.81	-26616	3527.7	0.10687	0.12756	0.99962
3.722	19.814	-26611	3527.3	0.10638	0.12795	0.99952
3.724	19.855	-26611	3527	0.1059	0.12834	0.99942
3.726	19.883	-26611	3526.8	0.10609	0.12854	0.99952
3.728	19.932	-26616	3526.5	0.10629	0.12873	0.99962
3.73	19.937	-26620	3526.3	0.10648	0.12893	0.99972
3.732	19.939	-26616	3526.1	0.10668	0.12912	0.99981
3.734	19.947	-26612	3525.9	0.10687	0.12932	0.99991
3.736	19.93	-26611	3525.6	0.10521	0.12942	0.99884
3.738	19.891	-26609	3525.4	0.10355	0.12952	0.99776
3.74	19.864	-26612	3525.1	0.10189	0.12961	0.99669
3.742	19.852	-26614	3524.8	0.10024	0.12971	0.99562
3.744	19.881	-26609	3524.6	0.098576	0.12981	0.99454
3.746	19.859	-26605	3524.4	0.098381	0.12893	0.99415
3.748	19.831	-26605	3524.2	0.098186	0.12805	0.99376
3.75	19.845	-26606	3524	0.09799	0.12717	0.99337
3.752	19.906	-26605	3523.9	0.097795	0.12629	0.99298
3.754	19.946	-26605	3523.7	0.0976	0.12542	0.99259
3.756	19.892	-26609	3523.6	0.09799	0.12493	0.99249
3.758	19.838	-26614	3523.5	0.098381	0.12444	0.9924
3.76	19.889	-26611	3523.4	0.098771	0.12395	0.9923
3.762	19.833	-26608	3523.3	0.099162	0.12346	0.9922
3.764	19.798	-26605	3523.2	0.099552	0.12298	0.9921
3.766	19.841	-26603	3523	0.099942	0.12405	0.99328
3.768	19.927	-26608	3522.8	0.10033	0.12512	0.99445
3.77	19.909	-26612	3522.6	0.10072	0.1262	0.99562
3.772	19.855	-26608	3522.4	0.10111	0.12727	0.99679
3.774	19.825	-26604	3522.1	0.1015	0.12834	0.99796
3.776	19.807	-26607	3522	0.10316	0.12776	0.99903
3.778	19.801	-26609	3522	0.10482	0.12717	1.0001
3.78	19.812	-26611	3521.9	0.10648	0.12659	1.0012
3.782	19.818	-26613	3521.9	0.10814	0.126	1.0023
3.784	19.863	-26612	3521.9	0.1098	0.12542	1.0033
3.786	19.896	-26612	3521.8	0.10912	0.12542	1.0019
3.788	19.826	-26611	3521.8	0.10843	0.12542	1.0004
3.79	19.7	-26610	3521.7	0.10775	0.12542	0.99894
3.792	19.702	-26608	3521.7	0.10707	0.12542	0.99747
3.794	19.82	-26607	3521.7	0.10638	0.12542	0.99601
3.796	19.85	-26610	3521.7	0.10619	0.12503	0.99542
3.798	19.802	-26614	3521.7	0.10599	0.12464	0.99484
3.8	19.797	-26614	3521.8	0.1058	0.12424	0.99425
3.802	19.834	-26614	3521.9	0.1056	0.12385	0.99367
3.804	19.857	-26613	3522	0.10541	0.12346	0.99308
3.806	19.829	-26612	3522.2	0.10697	0.12249	0.99142
3.808	19.797	-26610	3522.3	0.10853	0.12151	0.98976
3.81	19.785	-26608	3522.4	0.11009	0.12054	0.9881
3.812	19.775	-26608	3522.5	0.11165	0.11956	0.98644
3.814	19.723	-26609	3522.6	0.11322	0.11858	0.98478
3.816	19.69	-26607	3522.6	0.1139	0.11976	0.98703
3.818	19.659	-26605	3522.6	0.11458	0.12093	0.98927
3.82	19.577	-26603	3522.7	0.11527	0.1221	0.99152
3.822	19.507	-26602	3522.8	0.11595	0.12327	0.99376
3.824	19.442	-26603	3522.9	0.11663	0.12444	0.99601
3.826	19.429	-26604	3523.1	0.11624	0.12307	0.99718
3.828	19.438	-26605	3523.3	0.11585	0.12171	0.99835
3.83	19.408	-26607	3523.5	0.11546	0.12034	0.99952
3.832	19.408	-26606	3523.7	0.11507	0.11897	1.0007
3.834	19.441	-26606	3523.8	0.11468	0.11761	1.0019
3.836	19.462	-26608	3523.9	0.11351	0.11761	1.0012
3.838	19.378	-26611	3524	0.11234	0.11761	1.0005
3.84	19.298	-26612	3524.1	0.11117	0.11761	0.99981
3.842	19.193	-26614	3524.1	0.11	0.11761	0.99913
3.844	19.26	-26610	3524.1	0.10882	0.11761	0.99845
3.846	19.415	-26606	3524.1	0.10746	0.11732	0.99747
3.848	19.367	-26605	3524.1	0.10609	0.11702	0.9965
3.85	19.229	-26604	3524.1	0.10472	0.11673	0.99552
3.852	19.145	-26606	3524	0.10336	0.11644	0.99454
3.854	19.184	-26607	3523.9	0.10199	0.11614	0.99357
3.856	19.264	-26606	3523.8	0.1017	0.11566	0.99464
3.858	19.225	-26606	3523.7	0.10141	0.11517	0.99572
3.86	19.166	-26600	3523.7	0.10111	0.11468	0.99679
3.862	19.166	-26594	3523.7	0.10082	0.11419	0.99786
3.864	19.215	-26599	3523.8	0.10053	0.1137	0.99894
3.866	19.235	-26603	3523.7	0.10131	0.11507	0.99913
3.868	19.229	-26603	3523.7	0.10209	0.11644	0.99933
3.87	19.307	-26602	3523.7	0.10287	0.1178	0.99952
3.872	19.402	-26605	3523.5	0.10365	0.11917	0.99972
3.874	19.469	-26607	3523.4	0.10443	0.12054	0.99991
3.876	19.455	-26607	3523.3	0.10453	0.12171	1.0015
3.878	19.434	-26607	3523.1	0.10463	0.12288	1.003
3.88	19.492	-26603	3523	0.10472	0.12405	1.0046
3.882	19.555	-26599	3523	0.10482	0.12522	1.0062
3.884	19.632	-26598	3522.9	0.10492	0.12639	1.0077
3.886	19.726	-26597	3522.9	0.10375	0.12512	1.0086
3.888	19.767	-26599	3522.9	0.10258	0.12385	1.0095
3.89	19.78	-26600	3522.9	0.10141	0.12259	1.0104
3.892	19.796	-26600	3522.8	0.10024	0.12132	1.0112
3.894	19.839	-26600	3522.7	0.099064	0.12005	1.0121
3.896	19.867	-26604	3522.7	0.098771	0.11995	1.013
3.898	19.849	-26607	3522.6	0.098478	0.11985	1.0139
3.9	19.82	-26612	3522.6	0.098186	0.11976	1.0147
3.902	19.82	-26616	3522.5	0.097893	0.11966	1.0156
3.904	19.832	-26616	3522.4	0.0976	0.11956	1.0165
3.906	19.867	-26616	3522.4	0.096038	0.12044	1.0159
3.908	19.967	-26615	3522.3	0.094477	0.12132	1.0153
3.91	19.904	-26614	3522.2	0.092915	0.1222	1.0147
3.912	19.817	-26604	3522	0.091354	0.12307	1.0142
3.914	19.766	-26595	3521.9	0.089792	0.12395	1.0136
3.916	19.769	-26595	3521.7	0.090866	0.12307	1.0137
3.918	19.79	-26595	3521.5	0.091939	0.1222	1.0138
3.92	19.936	-26601	3521.2	0.093013	0.12132	1.0139
3.922	19.953	-26608	3520.7	0.094086	0.12044	1.014
3.924	19.893	-26607	3520.3	0.09516	0.11956	1.0141
3.926	19.928	-26605	3519.9	0.093598	0.1219	1.0147
3.928	19.89	-26608	3519.6	0.092037	0.12424	1.0154
3.93	19.924	-26610	3519.2	0.090475	0.12659	1.0161
3.932	19.848	-26613	3518.7	0.088914	0.12893	1.0168
3.934	19.786	-26615	3518.3	0.087352	0.13127	1.0175
3.936	19.765	-26614	3517.7	0.088523	0.13225	1.0175
3.938	19.818	-26613	3517.2	0.089694	0.13322	1.0175
3.94	19.924	-26615	3516.7	0.090866	0.1342	1.0175
3.942	19.87	-26618	3516.3	0.092037	0.13518	1.0175
3.944	19.827	-26618	3516	0.093208	0.13615	1.0175
3.946	19.835	-26618	3516	0.094184	0.13371	1.0177
3.948	19.899	-26614	3516	0.09516	0.13127	1.0179
3.95	19.906	-26611	3516.1	0.096136	0.12883	1.0181
3.952	19.866	-26615	3516.3	0.097112	0.12639	1.0183
3.954	19.855	-26618	3516.5	0.098088	0.12395	1.0185
3.956	19.842	-26620	3516.8	0.097112	0.1261	1.0183
3.958	19.801	-26622	3517	0.096136	0.12825	1.0181
3.96	19.781	-26620	3517.3	0.09516	0.13039	1.0179
3.962	19.796	-26619	3517.5	0.094184	0.13254	1.0177
3.964	19.802	-26620	3517.7	0.093208	0.13469	1.0175
3.966	19.826	-26621	3517.7	0.093989	0.13547	1.0179
3.968	19.867	-26619	3517.8	0.09477	0.13625	1.0183
3.97	19.863	-26617	3517.8	0.09555	0.13703	1.0187
3.972	19.843	-26615	3517.8	0.096331	0.13781	1.019
3.974	19.834	-26613	3517.8	0.097112	0.13859	1.0194
3.976	19.803	-26615	3517.8	0.097795	0.1381	1.0192
3.978	19.746	-26617	3517.8	0.098478	0.13762	1.019
3.98	19.716	-26616	3517.8	0.099162	0.13713	1.0188
3.982	19.758	-26615	3517.9	0.099845	0.13664	1.0187
3.984	19.794	-26616	3517.9	0.10053	0.13615	1.0185
3.986	19.84	-26616	3517.9	0.10004	0.13654	1.0182
3.988	19.829	-26615	3518	0.099552	0.13693	1.0179
3.99	19.819	-26614	3518	0.099064	0.13732	1.0176
3.992	19.825	-26612	3518	0.098576	0.13771	1.0173
3.994	19.842	-26609	3518.1	0.098088	0.1381	1.017
3.996	19.833	-26607	3518	0.096917	0.13791	1.015
3.998	19.756	-26605	3518	0.095746	0.13771	1.0131
4	19.784	-26607	3518.1	0.094574	0.13752	1.0111
4.002	19.814	-26609	3518.2	0.093403	0.13732	1.0092
4.004	19.798	-26614	3518.3	0.092232	0.13713	1.0072
4.006	19.815	-26620	3518.5	0.094574	0.1383	1.0069
4.008	19.762	-26622	3518.7	0.096917	0.13947	1.0066
4.01	19.776	-26624	3518.9	0.099259	0.14064	1.0064
4.012	19.833	-26624	3519.1	0.1016	0.14181	1.0061
4.014	19.864	-26624	3519.3	0.10394	0.14298	1.0058
4.016	19.795	-26617	3519.6	0.10365	0.1423	1.0049
4.018	19.763	-26611	3520	0.10336	0.14162	1.004
4.02	19.809	-26616	3520.4	0.10307	0.14093	1.0031
4.022	19.845	-26622	3520.8	0.10277	0.14025	1.0023
4.024	19.857	-26621	3521.3	0.10248	0.13957	1.0014
4.026	19.827	-26621	3521.8	0.10463	0.13976	1.0012
4.028	19.774	-26621	3522.3	0.10677	0.13996	1.001
4.03	19.726	-26620	3522.9	0.10892	0.14015	1.0008
4.032	19.743	-26618	3523.5	0.11107	0.14035	1.0006
4.034	19.751	-26616	3524.2	0.11322	0.14054	1.0004
4.036	19.766	-26615	3525.1	0.11322	0.14025	0.99933
4.038	19.801	-26615	3526	0.11322	0.13996	0.99825
4.04	19.812	-26621	3526.9	0.11322	0.13967	0.99718
4.042	19.861	-26626	3527.9	0.11322	0.13937	0.99611
4.044	19.922	-26626	3528.9	0.11322	0.13908	0.99503
4.046	19.904	-26626	3529.8	0.11527	0.13976	0.99347
4.048	19.883	-26624	3530.7	0.11732	0.14045	0.99191
4.05	19.846	-26622	3531.5	0.11936	0.14113	0.99035
4.052	19.768	-26622	3532.2	0.12141	0.14181	0.98879
4.054	19.763	-26622	3533	0.12346	0.1425	0.98722
4.056	19.835	-26618	3533.6	0.12268	0.1425	0.98547
4.058	19.854	-26614	3534.2	0.1219	0.1425	0.98371
4.06	19.777	-26619	3534.9	0.12112	0.1425	0.98195
4.062	19.711	-26624	3535.6	0.12034	0.1425	0.9802
4.064	19.75	-26627	3536.4	0.11956	0.1425	0.97844
4.066	19.833	-26630	3537	0.12249	0.14054	0.97688
4.068	19.834	-26629	3537.7	0.12542	0.13859	0.97532
4.07	19.811	-26628	3538.4	0.12834	0.13664	0.97376
4.072	19.78	-26628	3539.2	0.13127	0.13469	0.97219
4.074	19.708	-26628	3540	0.1342	0.13274	0.97063
4.076	19.717	-26627	3541.1	0.13488	0.13147	0.97063
4.078	19.722	-26625	3542.3	0.13557	0.1302	0.97063
4.08	19.772	-26628	3543.5	0.13625	0.12893	0.97063
4.082	19.853	-26631	3544.8	0.13693	0.12766	0.97063
4.084	19.815	-26630	3546.1	0.13762	0.12639	0.97063
4.086	19.762	-26629	3547.5	0.13674	0.12581	0.96975
4.088	19.754	-26623	3548.8	0.13586	0.12522	0.96888
4.09	19.796	-26616	3550.2	0.13498	0.12464	0.968
4.092	19.769	-26611	3551.6	0.1341	0.12405	0.96712
4.094	19.8	-26606	3553	0.13322	0.12346	0.96624
4.096	19.818	-26609	3554.3	0.13303	0.12307	0.96702
4.098	19.819	-26613	3555.7	0.13283	0.12268	0.9678
4.1	19.761	-26613	3557	0.13264	0.12229	0.96858
4.102	19.643	-26613	3558.2	0.13244	0.1219	0.96936
4.104	19.67	-26614	3559.5	0.13225	0.12151	0.97014
4.106	19.734	-26616	3560.6	0.13303	0.12239	0.97141
4.108	19.74	-26616	3561.8	0.13381	0.12327	0.97268
4.11	19.748	-26616	3562.9	0.13459	0.12415	0.97395
4.112	19.749	-26612	3563.9	0.13537	0.12503	0.97522
4.114	19.71	-26607	3565	0.13615	0.1259	0.97649
4.116	19.706	-26607	3566	0.13332	0.12503	0.97795
4.118	19.802	-26607	3567.1	0.13049	0.12415	0.97942
4.12	19.889	-26609	3568.1	0.12766	0.12327	0.98088
4.122	19.837	-26611	3569.2	0.12483	0.12239	0.98234
4.124	19.745	-26606	3570.2	0.122	0.12151	0.98381
4.126	19.733	-26601	3570.7	0.12112	0.12366	0.98683
4.128	19.778	-26600	3571.1	0.12024	0.12581	0.98986
4.13	19.775	-26600	3571.5	0.11936	0.12795	0.99288
4.132	19.763	-26604	3571.9	0.11849	0.1301	0.99591
4.134	19.834	-26608	3572.3	0.11761	0.13225	0.99894
4.136	19.868	-26610	3572.6	0.11244	0.13156	0.99894
4.138	19.827	-26612	3572.9	0.10726	0.13088	0.99894
4.14	19.796	-26612	3573.2	0.10209	0.1302	0.99894
4.142	19.745	-26611	3573.2	0.096917	0.12952	0.99894
4.144	19.661	-26607	3573.3	0.091744	0.12883	0.99894
4.146	19.645	-26602	3573.1	0.094282	0.12952	0.99757
4.148	19.756	-26598	3572.9	0.096819	0.1302	0.9962
4.15	19.878	-26594	3572.3	0.099357	0.13088	0.99484
4.152	19.962	-26592	3571.4	0.10189	0.13156	0.99347
4.154	19.96	-26590	3570.5	0.10443	0.13225	0.9921
4.156	19.846	-26596	3569.4	0.09965	0.13244	0.99435
4.158	19.802	-26601	3568.3	0.094867	0.13264	0.99659
4.16	19.823	-26599	3567.3	0.090085	0.13283	0.99884
4.162	19.801	-26597	3566.5	0.085302	0.13303	1.0011
4.164	19.766	-26597	3565.6	0.08052	0.13322	1.0033
4.166	19.842	-26596	3565	0.085205	0.13352	1.0023
4.168	19.866	-26593	3564.4	0.08989	0.13381	1.0012
4.17	19.887	-26591	3563.5	0.094574	0.1341	1.0001
4.172	19.863	-26596	3562.3	0.099259	0.1344	0.99903
4.174	19.733	-26602	3561.2	0.10394	0.13469	0.99796
4.176	19.754	-26601	3560.3	0.09799	0.13576	1
4.178	19.788	-26600	3559.4	0.092037	0.13684	1.0021
4.18	19.866	-26593	3558.8	0.086083	0.13791	1.0041
4.182	19.924	-26586	3558.5	0.08013	0.13898	1.0062
4.184	19.893	-26589	3558.2	0.074176	0.14006	1.0082
4.186	19.946	-26591	3558.1	0.075347	0.13879	1.0059
4.188	19.83	-26580	3558	0.076518	0.13752	1.0035
4.19	19.811	-26570	3557.8	0.07769	0.13625	1.0012
4.192	19.864	-26576	3557.7	0.078861	0.13498	0.99884
4.194	19.818	-26582	3557.5	0.080032	0.13371	0.9965
4.196	19.786	-26577	3557.3	0.07808	0.13283	0.99718
4.198	19.745	-26572	3557.1	0.076128	0.13196	0.99786
4.2	19.735	-26575	3556.9	0.074176	0.13108	0.99855
4.202	19.75	-26578	3556.7	0.072224	0.1302	0.99923
4.204	19.816	-26584	3556.6	0.070272	0.12932	0.99991
4.206	19.842	-26589	3556.4	0.073688	0.12912	0.99933
4.208	19.829	-26583	3556.2	0.077104	0.12893	0.99874
4.21	19.827	-26577	3555.9	0.08052	0.12873	0.99816
4.212	19.83	-26573	3555.7	0.083936	0.12854	0.99757
4.214	19.859	-26568	3555.4	0.087352	0.12834	0.99698
4.216	19.881	-26564	3555.1	0.089792	0.12756	0.99737
4.218	19.865	-26561	3554.8	0.092232	0.12678	0.99776
4.22	19.786	-26565	3554.4	0.094672	0.126	0.99816
4.222	19.727	-26568	3554	0.097112	0.12522	0.99855
4.224	19.761	-26571	3553.6	0.099552	0.12444	0.99894
4.226	19.818	-26573	3553.1	0.10453	0.12532	1.0003
4.228	19.845	-26573	3552.6	0.10951	0.1262	1.0017
4.23	19.831	-26573	3552	0.11448	0.12708	1.003
4.232	19.835	-26571	3551.4	0.11946	0.12795	1.0044
4.234	19.885	-26568	3550.8	0.12444	0.12883	1.0058
4.236	19.884	-26568	3550.2	0.12307	0.12864	1.0069
4.238	19.854	-26569	3549.6	0.12171	0.12844	1.0081
4.24	19.853	-26567	3549	0.12034	0.12825	1.0093
4.242	19.844	-26565	3548.4	0.11897	0.12805	1.0105
4.244	19.8	-26561	3547.8	0.11761	0.12786	1.0116
4.246	19.78	-26557	3547.3	0.118	0.12825	1.0106
4.248	19.755	-26557	3546.7	0.11839	0.12864	1.0097
4.25	19.773	-26556	3546.2	0.11878	0.12903	1.0087
4.252	19.797	-26556	3545.6	0.11917	0.12942	1.0077
4.254	19.818	-26556	3545	0.11956	0.12981	1.0067
4.256	19.802	-26552	3544.4	0.11878	0.12727	1.0037
4.258	19.827	-26549	3543.9	0.118	0.12473	1.0007
4.26	19.767	-26552	3543.4	0.11722	0.1222	0.99767
4.262	19.831	-26555	3542.8	0.11644	0.11966	0.99464
4.264	19.928	-26570	3542.3	0.11566	0.11712	0.99162
4.266	19.889	-26585	3541.7	0.11663	0.11732	0.99152
4.268	19.83	-26584	3541.2	0.11761	0.11751	0.99142
4.27	19.771	-26583	3540.7	0.11858	0.11771	0.99132
4.272	19.699	-26582	3540.3	0.11956	0.1179	0.99123
4.274	19.711	-26582	3539.8	0.12054	0.1181	0.99113
4.276	19.81	-26578	3539.5	0.12063	0.11995	0.99415
4.278	19.864	-26574	3539.1	0.12073	0.1218	0.99718
4.28	19.801	-26577	3538.8	0.12083	0.12366	1.0002
4.282	19.79	-26579	3538.4	0.12093	0.12551	1.0032
4.284	19.779	-26578	3538.1	0.12102	0.12737	1.0063
4.286	19.785	-26576	3537.8	0.12015	0.12834	1.0085
4.288	19.76	-26575	3537.5	0.11927	0.12932	1.0107
4.29	19.782	-26575	3537.3	0.11839	0.1303	1.013
4.292	19.805	-26572	3537.2	0.11751	0.13127	1.0152
4.294	19.752	-26568	3537	0.11663	0.13225	1.0175
4.296	19.71	-26570	3537.2	0.11605	0.13215	1.0174
4.298	19.693	-26572	3537.3	0.11546	0.13205	1.0173
4.3	19.702	-26570	3537.6	0.11488	0.13196	1.0172
4.302	19.751	-26569	3537.9	0.11429	0.13186	1.0171
4.304	19.805	-26560	3538.3	0.1137	0.13176	1.017
4.306	19.789	-26552	3538.6	0.1139	0.13205	1.0164
4.308	19.744	-26551	3539	0.11409	0.13235	1.0158
4.31	19.733	-26550	3539.2	0.11429	0.13264	1.0152
4.312	19.733	-26548	3539.3	0.11448	0.13293	1.0146
4.314	19.727	-26547	3539.4	0.11468	0.13322	1.0141
4.316	19.714	-26552	3539.6	0.11175	0.13361	1.0121
4.318	19.713	-26557	3539.8	0.10882	0.134	1.0102
4.32	19.693	-26554	3539.9	0.1059	0.1344	1.0082
4.322	19.667	-26551	3540	0.10297	0.13479	1.0063
4.324	19.733	-26549	3540.1	0.10004	0.13518	1.0043
4.326	19.743	-26547	3539.7	0.10365	0.13742	1.0053
4.328	19.709	-26548	3539.3	0.10726	0.13967	1.0063
4.33	19.736	-26549	3538.9	0.11087	0.14191	1.0072
4.332	19.811	-26553	3538.4	0.11448	0.14416	1.0082
4.334	19.808	-26558	3537.9	0.1181	0.1464	1.0092
4.336	19.79	-26555	3537.6	0.11546	0.1466	1.0108
4.338	19.888	-26552	3537.2	0.11283	0.14679	1.0125
4.34	19.901	-26553	3536.9	0.11019	0.14699	1.0142
4.342	19.838	-26554	3536.6	0.10756	0.14718	1.0158
4.344	19.846	-26553	3536.2	0.10492	0.14738	1.0175
4.346	19.859	-26553	3536	0.10268	0.14777	1.0165
4.348	19.841	-26549	3535.7	0.10043	0.14816	1.0155
4.35	19.845	-26546	3535.5	0.098186	0.14855	1.0146
4.352	19.822	-26550	3535.2	0.095941	0.14894	1.0136
4.354	19.841	-26553	3534.9	0.093696	0.14933	1.0126
4.356	19.863	-26560	3534.4	0.092915	0.1505	1.0111
4.358	19.851	-26567	3533.8	0.092134	0.15167	1.0097
4.36	19.825	-26559	3533.5	0.091354	0.15284	1.0082
4.362	19.829	-26550	3533.4	0.090573	0.15401	1.0067
4.364	19.824	-26551	3533.2	0.089792	0.15518	1.0053
4.366	19.839	-26551	3533.3	0.08745	0.15421	1.0024
4.368	19.844	-26554	3533.3	0.085107	0.15323	0.99962
4.37	19.861	-26557	3533.2	0.082765	0.15226	0.99679
4.372	19.927	-26549	3533	0.080422	0.15128	0.99396
4.374	19.934	-26542	3532.7	0.07808	0.1503	0.99113
4.376	19.931	-26540	3532.2	0.08335	0.15079	0.99132
4.378	19.883	-26538	3531.7	0.088621	0.15128	0.99152
4.38	19.784	-26542	3531.2	0.093891	0.15177	0.99171
4.382	19.744	-26545	3530.6	0.099162	0.15226	0.99191
4.384	19.861	-26543	3530.1	0.10443	0.15274	0.9921
4.386	19.973	-26541	3529.7	0.10765	0.15167	0.99386
4.388	19.969	-26545	3529.4	0.11087	0.1506	0.99562
4.39	19.897	-26548	3529.1	0.11409	0.14952	0.99737
4.392	19.837	-26543	3528.9	0.11732	0.14845	0.99913
4.394	19.821	-26538	3528.7	0.12054	0.14738	1.0009
4.396	19.841	-26538	3528.7	0.12454	0.14699	1.0017
4.398	19.881	-26538	3528.7	0.12854	0.1466	1.0024
4.4	19.872	-26540	3528.7	0.13254	0.1462	1.0032
4.402	19.809	-26542	3528.8	0.13654	0.14581	1.004
4.404	19.795	-26543	3528.9	0.14054	0.14542	1.0048
4.406	19.821	-26543	3528.9	0.14025	0.14445	1.0053
4.408	19.852	-26546	3528.9	0.13996	0.14347	1.0058
4.41	19.934	-26548	3529	0.13967	0.1425	1.0063
4.412	19.975	-26548	3529	0.13937	0.14152	1.0067
4.414	19.898	-26547	3529	0.13908	0.14054	1.0072
4.416	19.803	-26547	3529.1	0.1384	0.14035	1.0062
4.418	19.796	-26547	3529.1	0.13771	0.14015	1.0051
4.42	19.819	-26544	3529.1	0.13703	0.13996	1.004
4.422	19.799	-26541	3529	0.13635	0.13976	1.0029
4.424	19.86	-26538	3529	0.13566	0.13957	1.0019
4.426	19.847	-26534	3528.9	0.13508	0.13654	1.0015
4.428	19.855	-26541	3528.7	0.13449	0.13352	1.0011
4.43	19.915	-26548	3528.6	0.13391	0.13049	1.0007
4.432	19.888	-26545	3528.4	0.13332	0.12747	1.0003
4.434	19.837	-26542	3528.2	0.13274	0.12444	0.99991
4.436	19.837	-26541	3528.1	0.1341	0.12434	1.0001
4.438	19.79	-26539	3527.9	0.13547	0.12424	1.0003
4.44	19.679	-26542	3527.7	0.13684	0.12415	1.0005
4.442	19.695	-26546	3527.5	0.1382	0.12405	1.0007
4.444	19.825	-26546	3527.3	0.13957	0.12395	1.0009
4.446	19.888	-26545	3527.1	0.1384	0.12317	0.99952
4.448	19.839	-26545	3527	0.13723	0.12239	0.99816
4.45	19.804	-26545	3526.8	0.13605	0.12161	0.99679
4.452	19.81	-26543	3526.7	0.13488	0.12083	0.99542
4.454	19.859	-26542	3526.5	0.13371	0.12005	0.99406
4.456	19.876	-26545	3526.3	0.13254	0.11858	0.99425
4.458	19.846	-26548	3526.1	0.13137	0.11712	0.99445
4.46	19.748	-26549	3525.9	0.1302	0.11566	0.99464
4.462	19.693	-26550	3525.7	0.12903	0.11419	0.99484
4.464	19.714	-26545	3525.5	0.12786	0.11273	0.99503
4.466	19.739	-26540	3525.2	0.1259	0.1137	0.99513
4.468	19.696	-26539	3525	0.12395	0.11468	0.99523
4.47	19.576	-26539	3524.8	0.122	0.11566	0.99532
4.472	19.486	-26539	3524.5	0.12005	0.11663	0.99542
4.474	19.435	-26540	3524.2	0.1181	0.11761	0.99552
4.476	19.443	-26547	3524.1	0.11732	0.11663	0.99493
4.478	19.457	-26555	3524	0.11653	0.11566	0.99435
4.48	19.348	-26550	3523.9	0.11575	0.11468	0.99376
4.482	19.253	-26546	3524	0.11497	0.1137	0.99318
4.484	19.319	-26542	3524.1	0.11419	0.11273	0.99259
4.486	19.386	-26537	3524.3	0.11117	0.11185	0.99288
4.488	19.383	-26547	3524.5	0.10814	0.11097	0.99318
4.49	19.393	-26556	3524.7	0.10512	0.11009	0.99347
4.492	19.384	-26552	3524.9	0.10209	0.10921	0.99376
4.494	19.366	-26548	3525.1	0.099064	0.10834	0.99406
4.496	19.353	-26545	3525.2	0.096234	0.10921	0.99474
4.498	19.306	-26542	3525.3	0.093403	0.11009	0.99542
4.5	19.238	-26544	3525.5	0.090573	0.11097	0.99611
4.502	19.2	-26546	3525.7	0.087742	0.11185	0.99679
4.504	19.182	-26542	3525.9	0.084912	0.11273	0.99747
4.506	19.21	-26539	3526	0.085595	0.11458	0.99855
4.508	19.264	-26538	3526.1	0.086278	0.11644	0.99962
4.51	19.234	-26538	3526.2	0.086962	0.11829	1.0007
4.512	19.245	-26537	3526.3	0.087645	0.12015	1.0018
4.514	19.262	-26537	3526.4	0.088328	0.122	1.0028
4.516	19.203	-26535	3526.5	0.08745	0.12044	1.003
4.518	19.284	-26534	3526.7	0.086571	0.11888	1.0032
4.52	19.39	-26534	3526.8	0.085693	0.11732	1.0034
4.522	19.35	-26534	3527	0.084814	0.11575	1.0036
4.524	19.39	-26534	3527.1	0.083936	0.11419	1.0038
4.526	19.55	-26534	3527.2	0.082667	0.11527	1.0038
4.528	19.588	-26537	3527.3	0.081398	0.11634	1.0038
4.53	19.481	-26539	3527.2	0.08013	0.11741	1.0038
4.532	19.607	-26542	3527.1	0.078861	0.11849	1.0038
4.534	19.752	-26544	3527	0.077592	0.11956	1.0038
4.536	19.805	-26545	3526.8	0.075835	0.11946	1.0043
4.538	19.828	-26545	3526.7	0.074078	0.11936	1.0048
4.54	19.838	-26547	3526.6	0.072322	0.11927	1.0053
4.542	19.812	-26550	3526.5	0.070565	0.11917	1.0058
4.544	19.789	-26541	3526.4	0.068808	0.11907	1.0063
4.546	19.817	-26531	3526.3	0.071736	0.11888	1.0054
4.548	19.879	-26535	3526.1	0.074664	0.11868	1.0045
4.55	19.895	-26540	3526	0.077592	0.11849	1.0036
4.552	19.893	-26535	3526	0.08052	0.11829	1.0027
4.554	19.888	-26530	3525.9	0.083448	0.1181	1.0019
4.556	19.814	-26540	3525.9	0.082179	0.11741	1.0017
4.558	19.748	-26550	3525.9	0.08091	0.11673	1.0015
4.56	19.788	-26542	3525.9	0.079642	0.11605	1.0013
4.562	19.84	-26534	3526	0.078373	0.11536	1.0011
4.564	19.848	-26534	3526.1	0.077104	0.11468	1.0009
4.566	19.856	-26533	3526.3	0.078568	0.11595	0.99991
4.568	19.854	-26540	3526.4	0.080032	0.11722	0.99894
4.57	19.85	-26547	3526.5	0.081496	0.11849	0.99796
4.572	19.883	-26547	3526.7	0.08296	0.11976	0.99698
4.574	19.904	-26547	3526.8	0.084424	0.12102	0.99601
4.576	19.855	-26552	3527	0.085302	0.12171	0.99669
4.578	19.781	-26557	3527.1	0.086181	0.12239	0.99737
4.58	19.818	-26554	3527.2	0.087059	0.12307	0.99806
4.582	19.925	-26550	3527.3	0.087938	0.12376	0.99874
4.584	19.966	-26553	3527.3	0.088816	0.12444	0.99942
4.586	19.89	-26555	3527.3	0.091158	0.12542	1.0025
4.588	19.873	-26551	3527.2	0.093501	0.12639	1.0057
4.59	19.86	-26547	3527.1	0.095843	0.12737	1.0088
4.592	19.825	-26542	3527	0.098186	0.12834	1.0119
4.594	19.828	-26537	3526.9	0.10053	0.12932	1.015
4.596	19.764	-26542	3526.8	0.10141	0.12981	1.0142
4.598	19.74	-26547	3526.8	0.10228	0.1303	1.0133
4.6	19.8	-26549	3526.8	0.10316	0.13078	1.0124
4.602	19.859	-26551	3526.7	0.10404	0.13127	1.0115
4.604	19.91	-26545	3526.6	0.10492	0.13176	1.0106
4.606	19.97	-26538	3526.5	0.10472	0.13117	1.0109
4.608	19.928	-26539	3526.4	0.10453	0.13059	1.0112
4.61	19.844	-26541	3526.3	0.10433	0.13	1.0115
4.612	19.809	-26544	3526.1	0.10414	0.12942	1.0118
4.614	19.767	-26548	3525.9	0.10394	0.12883	1.0121
4.616	19.815	-26553	3525.6	0.1056	0.12854	1.0111
4.618	19.8	-26559	3525.3	0.10726	0.12825	1.0102
4.62	19.815	-26553	3524.9	0.10892	0.12795	1.0092
4.622	19.812	-26547	3524.5	0.11058	0.12766	1.0082
4.624	19.777	-26546	3524.1	0.11224	0.12737	1.0072
4.626	19.799	-26546	3523.7	0.11439	0.12766	1.0067
4.628	19.784	-26546	3523.2	0.11653	0.12795	1.0063
4.63	19.76	-26546	3522.7	0.11868	0.12825	1.0058
4.632	19.817	-26543	3522.2	0.12083	0.12854	1.0053
4.634	19.823	-26540	3521.7	0.12298	0.12883	1.0048
4.636	19.806	-26548	3521.2	0.12415	0.12873	1.0051
4.638	19.818	-26555	3520.8	0.12532	0.12864	1.0054
4.64	19.804	-26549	3520.3	0.12649	0.12854	1.0057
4.642	19.75	-26544	3519.8	0.12766	0.12844	1.006
4.644	19.759	-26549	3519.3	0.12883	0.12834	1.0063
4.646	19.793	-26555	3519	0.12893	0.12737	1.0057
4.648	19.794	-26558	3518.7	0.12903	0.12639	1.0051
4.65	19.766	-26561	3518.5	0.12912	0.12542	1.0045
4.652	19.738	-26550	3518.5	0.12922	0.12444	1.0039
4.654	19.775	-26539	3518.5	0.12932	0.12346	1.0033
4.656	19.842	-26539	3518.6	0.12991	0.12551	1.0023
4.658	19.868	-26538	3518.8	0.13049	0.12756	1.0012
4.66	19.863	-26538	3519.1	0.13108	0.12961	1.0001
4.662	19.861	-26538	3519.4	0.13166	0.13166	0.99903
4.664	19.85	-26546	3519.8	0.13225	0.13371	0.99796
4.666	19.755	-26555	3520.2	0.13205	0.13391	0.99825
4.668	19.721	-26556	3520.6	0.13186	0.1341	0.99855
4.67	19.8	-26557	3521.1	0.13166	0.1343	0.99884
4.672	19.824	-26552	3521.7	0.13147	0.13449	0.99913
4.674	19.762	-26547	3522.2	0.13127	0.13469	0.99942
4.676	19.761	-26550	3523.1	0.12981	0.13537	0.99737
4.678	19.832	-26553	3523.9	0.12834	0.13605	0.99532
4.68	19.829	-26554	3524.8	0.12688	0.13674	0.99328
4.682	19.815	-26556	3525.8	0.12542	0.13742	0.99123
4.684	19.753	-26556	3526.7	0.12395	0.1381	0.98918
4.686	19.756	-26556	3527.8	0.12532	0.13791	0.988
4.688	19.781	-26559	3528.9	0.12668	0.13771	0.98683
4.69	19.793	-26563	3529.9	0.12805	0.13752	0.98566
4.692	19.83	-26560	3531	0.12942	0.13732	0.98449
4.694	19.782	-26557	3532	0.13078	0.13713	0.98332
4.696	19.692	-26557	3533.2	0.13059	0.13615	0.9842
4.698	19.776	-26557	3534.4	0.13039	0.13518	0.98508
4.7	19.837	-26556	3535.5	0.1302	0.1342	0.98596
4.702	19.824	-26555	3536.7	0.13	0.13322	0.98683
4.704	19.79	-26558	3537.8	0.12981	0.13225	0.98771
4.706	19.782	-26560	3539	0.13078	0.13371	0.9882
4.708	19.813	-26554	3540.2	0.13176	0.13518	0.98869
4.71	19.78	-26548	3541.3	0.13274	0.13664	0.98918
4.712	19.762	-26555	3542.4	0.13371	0.1381	0.98966
4.714	19.759	-26562	3543.4	0.13469	0.13957	0.99015
4.716	19.728	-26556	3544.4	0.134	0.13957	0.99044
4.718	19.752	-26550	3545.4	0.13332	0.13957	0.99074
4.72	19.795	-26555	3546.3	0.13264	0.13957	0.99103
4.722	19.837	-26560	3547.1	0.13196	0.13957	0.99132
4.724	19.83	-26558	3547.8	0.13127	0.13957	0.99162
4.726	19.819	-26556	3548.4	0.12981	0.13937	0.99171
4.728	19.819	-26558	3549	0.12834	0.13918	0.99181
4.73	19.81	-26559	3549.6	0.12688	0.13898	0.99191
4.732	19.794	-26548	3550.2	0.12542	0.13879	0.99201
4.734	19.764	-26538	3550.8	0.12395	0.13859	0.9921
4.736	19.731	-26545	3551.3	0.12424	0.13791	0.99093
4.738	19.707	-26552	3551.9	0.12454	0.13723	0.98976
4.74	19.703	-26558	3552.5	0.12483	0.13654	0.98859
4.742	19.747	-26564	3553.1	0.12512	0.13586	0.98742
4.744	19.788	-26559	3553.8	0.12542	0.13518	0.98625
4.746	19.757	-26553	3554.3	0.12366	0.13518	0.98537
4.748	19.741	-26555	3554.8	0.1219	0.13518	0.98449
4.75	19.791	-26557	3555.4	0.12015	0.13518	0.98361
4.752	19.732	-26556	3555.9	0.11839	0.13518	0.98273
4.754	19.639	-26556	3556.4	0.11663	0.13518	0.98186
4.756	19.714	-26548	3556.8	0.11556	0.1342	0.98205
4.758	19.787	-26540	3557.2	0.11448	0.13322	0.98225
4.76	19.736	-26542	3557.7	0.11341	0.13225	0.98244
4.762	19.664	-26545	3558.1	0.11234	0.13127	0.98264
4.764	19.725	-26542	3558.6	0.11126	0.1303	0.98283
4.766	19.805	-26539	3559.1	0.11263	0.13108	0.98303
4.768	19.815	-26542	3559.7	0.114	0.13186	0.98322
4.77	19.815	-26544	3560.3	0.11536	0.13264	0.98342
4.772	19.801	-26545	3561.1	0.11673	0.13342	0.98361
4.774	19.732	-26546	3561.8	0.1181	0.1342	0.98381
4.776	19.728	-26541	3562.5	0.11985	0.1342	0.98254
4.778	19.795	-26537	3563.2	0.12161	0.1342	0.98127
4.78	19.779	-26532	3564	0.12337	0.1342	0.98
4.782	19.732	-26526	3564.8	0.12512	0.1342	0.97873
4.784	19.8	-26528	3565.6	0.12688	0.1342	0.97746
4.786	19.865	-26531	3566.7	0.12756	0.13381	0.97893
4.788	19.841	-26535	3567.8	0.12825	0.13342	0.98039
4.79	19.852	-26538	3568.8	0.12893	0.13303	0.98186
4.792	19.819	-26536	3569.8	0.12961	0.13264	0.98332
4.794	19.806	-26534	3570.8	0.1303	0.13225	0.98478
