t	ekg	optical	pressure	accel_x	accel_y	accel_z
0	21.505	-20113	3501.9	-0.20447	0.97942	0.081008
0.002	21.502	-20108	3501.9	-0.20496	0.97971	0.081886
0.004	21.507	-20102	3502	-0.20545	0.98	0.082765
0.006	21.528	-20106	3502	-0.20594	0.98029	0.083643
0.008	21.532	-20111	3502	-0.20642	0.98059	0.084522
0.01	21.491	-20110	3502.1	-0.20691	0.98088	0.0854
0.012	21.517	-20110	3502.1	-0.20838	0.97971	0.08579
0.014	21.537	-20105	3502.1	-0.20984	0.97854	0.086181
0.016	21.529	-20101	3502.1	-0.2113	0.97737	0.086571
0.018	21.513	-20099	3502.1	-0.21277	0.9762	0.086962
0.02	21.514	-20098	3502.1	-0.21423	0.97502	0.087352
0.022	21.515	-20104	3502	-0.21472	0.97385	0.08784
0.024	21.51	-20111	3501.9	-0.21521	0.97268	0.088328
0.026	21.493	-20104	3501.8	-0.2157	0.97151	0.088816
0.028	21.454	-20096	3501.7	-0.21618	0.97034	0.089304
0.03	21.42	-20099	3501.6	-0.21667	0.96917	0.089792
0.032	21.451	-20102	3501.4	-0.2156	0.96927	0.089206
0.034	21.523	-20106	3501.2	-0.21452	0.96936	0.088621
0.036	21.519	-20111	3501	-0.21345	0.96946	0.088035
0.038	21.482	-20109	3500.7	-0.21238	0.96956	0.08745
0.04	21.492	-20107	3500.5	-0.2113	0.96966	0.086864
0.042	21.512	-20106	3500.3	-0.21043	0.96966	0.087742
0.044	21.515	-20104	3500.1	-0.20955	0.96966	0.088621
0.046	21.498	-20105	3499.9	-0.20867	0.96966	0.089499
0.048	21.472	-20106	3499.5	-0.20779	0.96966	0.090378
0.05	21.458	-20106	3499.2	-0.20691	0.96966	0.091256
0.052	21.461	-20105	3499	-0.20623	0.96907	0.090475
0.054	21.469	-20105	3498.7	-0.20555	0.96848	0.089694
0.056	21.47	-20105	3498.4	-0.20486	0.9679	0.088914
0.058	21.491	-20106	3497.9	-0.20418	0.96731	0.088133
0.06	21.511	-20107	3497.5	-0.2035	0.96673	0.087352
0.062	21.518	-20107	3497.2	-0.20193	0.96614	0.086571
0.064	21.535	-20106	3496.9	-0.20037	0.96556	0.08579
0.066	21.544	-20107	3496.5	-0.19881	0.96497	0.08501
0.068	21.538	-20107	3496	-0.19725	0.96439	0.084229
0.07	21.528	-20105	3495.5	-0.19569	0.9638	0.083448
0.072	21.513	-20104	3495.2	-0.19442	0.96429	0.083643
0.074	21.511	-20102	3494.8	-0.19315	0.96478	0.083838
0.076	21.57	-20101	3494.4	-0.19188	0.96526	0.084034
0.078	21.585	-20099	3493.7	-0.19061	0.96575	0.084229
0.08	21.585	-20098	3493.1	-0.18934	0.96624	0.084424
0.082	21.576	-20100	3492.7	-0.18983	0.96634	0.085205
0.084	21.603	-20102	3492.3	-0.19032	0.96644	0.085986
0.086	21.599	-20102	3491.8	-0.19081	0.96653	0.086766
0.088	21.597	-20102	3491.2	-0.1913	0.96663	0.087547
0.09	21.547	-20102	3490.7	-0.19178	0.96673	0.088328
0.092	21.556	-20102	3490.2	-0.19286	0.96575	0.088426
0.094	21.571	-20103	3489.6	-0.19393	0.96478	0.088523
0.096	21.599	-20104	3489.1	-0.195	0.9638	0.088621
0.098	21.603	-20105	3488.6	-0.19608	0.96282	0.088718
0.1	21.617	-20107	3488.1	-0.19715	0.96185	0.088816
0.102	21.602	-20108	3487.6	-0.19725	0.96068	0.090182
0.104	21.583	-20109	3487	-0.19735	0.95951	0.091549
0.106	21.558	-20110	3486.6	-0.19744	0.95833	0.092915
0.108	21.526	-20112	3486.2	-0.19754	0.95716	0.094282
0.11	21.521	-20108	3485.8	-0.19764	0.95599	0.095648
0.112	21.553	-20104	3485.3	-0.19774	0.9555	0.094574
0.114	21.578	-20101	3484.8	-0.19784	0.95502	0.093501
0.116	21.578	-20097	3484.3	-0.19793	0.95453	0.092427
0.118	21.581	-20097	3483.9	-0.19803	0.95404	0.091354
0.12	21.608	-20096	3483.4	-0.19813	0.95355	0.09028
0.122	21.615	-20097	3483	-0.19852	0.95326	0.089694
0.124	21.582	-20097	3482.6	-0.19891	0.95297	0.089109
0.126	21.55	-20099	3482.1	-0.1993	0.95267	0.088523
0.128	21.547	-20101	3481.7	-0.19969	0.95238	0.087938
0.13	21.551	-20105	3481.3	-0.20008	0.95209	0.087352
0.132	21.552	-20109	3481	-0.20028	0.95297	0.087547
0.134	21.56	-20108	3480.6	-0.20047	0.95384	0.087742
0.136	21.565	-20108	3480.2	-0.20067	0.95472	0.087938
0.138	21.549	-20106	3479.8	-0.20086	0.9556	0.088133
0.14	21.51	-20104	3479.4	-0.20106	0.95648	0.088328
0.142	21.498	-20107	3479.1	-0.20096	0.95668	0.08784
0.144	21.522	-20110	3478.8	-0.20086	0.95687	0.087352
0.146	21.545	-20109	3478.4	-0.20076	0.95707	0.086864
0.148	21.568	-20109	3478.1	-0.20067	0.95726	0.086376
0.15	21.575	-20107	3477.7	-0.20057	0.95746	0.085888
0.152	21.567	-20106	3477.3	-0.20018	0.95931	0.085693
0.154	21.563	-20112	3476.9	-0.19979	0.96116	0.085498
0.156	21.594	-20118	3476.6	-0.1994	0.96302	0.085302
0.158	21.59	-20116	3476.3	-0.19901	0.96487	0.085107
0.16	21.541	-20113	3475.9	-0.19862	0.96673	0.084912
0.162	21.512	-20108	3475.6	-0.1991	0.96751	0.08579
0.164	21.504	-20103	3475.4	-0.19959	0.96829	0.086669
0.166	21.535	-20098	3475.1	-0.20008	0.96907	0.087547
0.168	21.534	-20093	3474.8	-0.20057	0.96985	0.088426
0.17	21.506	-20091	3474.5	-0.20106	0.97063	0.089304
0.172	21.491	-20088	3474.2	-0.20028	0.97151	0.088133
0.174	21.493	-20089	3473.9	-0.19949	0.97239	0.086962
0.176	21.499	-20091	3473.6	-0.19871	0.97327	0.08579
0.178	21.444	-20093	3473.3	-0.19793	0.97415	0.084619
0.18	21.363	-20096	3473	-0.19715	0.97502	0.083448
0.182	21.429	-20098	3472.7	-0.19627	0.9761	0.082277
0.184	21.516	-20100	3472.5	-0.1954	0.97717	0.081106
0.186	21.462	-20106	3472.3	-0.19452	0.97824	0.079934
0.188	21.398	-20113	3472	-0.19364	0.97932	0.078763
0.19	21.338	-20114	3471.8	-0.19276	0.98039	0.077592
0.192	21.28	-20116	3471.6	-0.19403	0.97824	0.078861
0.194	21.211	-20116	3471.4	-0.1953	0.9761	0.08013
0.196	21.125	-20116	3471.2	-0.19657	0.97395	0.081398
0.198	21.04	-20107	3471	-0.19784	0.9718	0.082667
0.2	20.961	-20098	3470.7	-0.1991	0.96966	0.083936
0.202	20.897	-20097	3470.4	-0.19862	0.96907	0.083448
0.204	20.899	-20096	3470.2	-0.19813	0.96848	0.08296
0.206	20.935	-20098	3469.9	-0.19764	0.9679	0.082472
0.208	20.915	-20100	3469.6	-0.19715	0.96731	0.081984
0.21	20.885	-20101	3469.3	-0.19666	0.96673	0.081496
0.212	20.901	-20101	3469	-0.19588	0.96702	0.081398
0.214	20.918	-20104	3468.6	-0.1951	0.96731	0.081301
0.216	20.923	-20107	3468.3	-0.19432	0.96761	0.081203
0.218	20.935	-20105	3467.9	-0.19354	0.9679	0.081106
0.22	20.937	-20103	3467.6	-0.19276	0.96819	0.081008
0.222	20.926	-20107	3467.3	-0.19442	0.96692	0.079446
0.224	20.909	-20111	3467	-0.19608	0.96565	0.077885
0.226	20.874	-20110	3466.7	-0.19774	0.96439	0.076323
0.228	20.844	-20110	3466.4	-0.1994	0.96312	0.074762
0.23	20.841	-20106	3466.1	-0.20106	0.96185	0.0732
0.232	20.834	-20103	3465.8	-0.20115	0.96185	0.0732
0.234	20.833	-20105	3465.5	-0.20125	0.96185	0.0732
0.236	20.838	-20107	3465.2	-0.20135	0.96185	0.0732
0.238	20.843	-20099	3464.9	-0.20145	0.96185	0.0732
0.24	20.853	-20090	3464.6	-0.20154	0.96185	0.0732
0.242	20.874	-20085	3464.3	-0.20047	0.96263	0.073005
0.244	20.914	-20080	3464.1	-0.1994	0.96341	0.07281
0.246	20.963	-20091	3463.8	-0.19832	0.96419	0.072614
0.248	20.976	-20101	3463.6	-0.19725	0.96497	0.072419
0.25	21.035	-20103	3463.3	-0.19618	0.96575	0.072224
0.252	21.147	-20104	3463.1	-0.19549	0.96624	0.073395
0.254	21.227	-20101	3462.9	-0.19481	0.96673	0.074566
0.256	21.275	-20097	3462.6	-0.19413	0.96722	0.075738
0.258	21.344	-20100	3462.4	-0.19344	0.9677	0.076909
0.26	21.422	-20103	3462.1	-0.19276	0.96819	0.07808
0.262	21.458	-20106	3461.9	-0.1913	0.96761	0.078568
0.264	21.481	-20109	3461.7	-0.18983	0.96702	0.079056
0.266	21.514	-20109	3461.5	-0.18837	0.96644	0.079544
0.268	21.508	-20110	3461.4	-0.1869	0.96585	0.080032
0.27	21.499	-20105	3461.3	-0.18544	0.96526	0.08052
0.272	21.494	-20101	3461.2	-0.18768	0.96565	0.08013
0.274	21.509	-20097	3461.1	-0.18993	0.96604	0.079739
0.276	21.527	-20093	3461	-0.19217	0.96644	0.079349
0.278	21.538	-20094	3460.9	-0.19442	0.96683	0.078958
0.28	21.562	-20094	3460.8	-0.19666	0.96722	0.078568
0.282	21.574	-20097	3460.7	-0.19793	0.96644	0.078373
0.284	21.566	-20099	3460.6	-0.1992	0.96565	0.078178
0.286	21.554	-20100	3460.4	-0.20047	0.96487	0.077982
0.288	21.534	-20102	3460.3	-0.20174	0.96409	0.077787
0.29	21.496	-20102	3460.1	-0.20301	0.96331	0.077592
0.292	21.488	-20103	3460	-0.20232	0.96273	0.077202
0.294	21.537	-20103	3459.9	-0.20164	0.96214	0.076811
0.296	21.544	-20102	3459.7	-0.20096	0.96156	0.076421
0.298	21.543	-20099	3459.5	-0.20028	0.96097	0.07603
0.3	21.597	-20095	3459.3	-0.19959	0.96038	0.07564
0.302	21.606	-20096	3459.2	-0.19979	0.96107	0.074664
0.304	21.602	-20097	3459.1	-0.19998	0.96175	0.073688
0.306	21.623	-20099	3459	-0.20018	0.96243	0.072712
0.308	21.605	-20102	3458.8	-0.20037	0.96312	0.071736
0.31	21.604	-20102	3458.7	-0.20057	0.9638	0.07076
0.312	21.612	-20103	3458.6	-0.20154	0.96556	0.071931
0.314	21.606	-20101	3458.5	-0.20252	0.96731	0.073102
0.316	21.592	-20099	3458.4	-0.2035	0.96907	0.074274
0.318	21.577	-20098	3458.4	-0.20447	0.97083	0.075445
0.32	21.565	-20097	3458.3	-0.20545	0.97258	0.076616
0.322	21.559	-20101	3458.2	-0.20437	0.97278	0.077592
0.324	21.578	-20105	3458.2	-0.2033	0.97297	0.078568
0.326	21.565	-20107	3458.1	-0.20223	0.97317	0.079544
0.328	21.55	-20108	3458.1	-0.20115	0.97336	0.08052
0.33	21.613	-20106	3458.1	-0.20008	0.97356	0.081496
0.332	21.615	-20104	3458.1	-0.20037	0.97376	0.082862
0.334	21.53	-20099	3458.1	-0.20067	0.97395	0.084229
0.336	21.503	-20093	3458.1	-0.20096	0.97415	0.085595
0.338	21.499	-20098	3458.2	-0.20125	0.97434	0.086962
0.34	21.507	-20103	3458.3	-0.20154	0.97454	0.088328
0.342	21.511	-20103	3458.3	-0.20106	0.97571	0.08823
0.344	21.56	-20104	3458.3	-0.20057	0.97688	0.088133
0.346	21.579	-20104	3458.3	-0.20008	0.97805	0.088035
0.348	21.586	-20103	3458.3	-0.19959	0.97922	0.087938
0.35	21.552	-20103	3458.4	-0.1991	0.98039	0.08784
0.352	21.532	-20103	3458.3	-0.19998	0.98049	0.08784
0.354	21.565	-20097	3458.3	-0.20086	0.98059	0.08784
0.356	21.571	-20090	3458.3	-0.20174	0.98068	0.08784
0.358	21.549	-20094	3458.5	-0.20262	0.98078	0.08784
0.36	21.517	-20098	3458.6	-0.2035	0.98088	0.08784
0.362	21.516	-20103	3458.6	-0.2032	0.9801	0.08784
0.364	21.552	-20109	3458.7	-0.20291	0.97932	0.08784
0.366	21.557	-20105	3458.8	-0.20262	0.97854	0.08784
0.368	21.537	-20101	3459	-0.20232	0.97776	0.08784
0.37	21.522	-20101	3459.2	-0.20203	0.97698	0.08784
0.372	21.505	-20102	3459.4	-0.20369	0.97776	0.08823
0.374	21.514	-20100	3459.5	-0.20535	0.97854	0.088621
0.376	21.557	-20098	3459.9	-0.20701	0.97932	0.089011
0.378	21.577	-20095	3460.3	-0.20867	0.9801	0.089402
0.38	21.564	-20091	3460.8	-0.21033	0.98088	0.089792
0.382	21.569	-20097	3461.4	-0.20906	0.9799	0.090768
0.384	21.573	-20103	3462	-0.20779	0.97893	0.091744
0.386	21.556	-20102	3462.8	-0.20652	0.97795	0.09272
0.388	21.54	-20102	3463.8	-0.20525	0.97698	0.093696
0.39	21.502	-20099	3464.9	-0.20398	0.976	0.094672
0.392	21.492	-20096	3466.2	-0.20369	0.97405	0.096331
0.394	21.564	-20095	3467.6	-0.2034	0.9721	0.09799
0.396	21.62	-20093	3469.2	-0.20311	0.97014	0.09965
0.398	21.625	-20097	3471.1	-0.20281	0.96819	0.10131
0.4	21.61	-20101	3472.9	-0.20252	0.96624	0.10297
0.402	21.616	-20103	3475.2	-0.20184	0.96565	0.10228
0.404	21.613	-20105	3477.4	-0.20115	0.96507	0.1016
0.406	21.596	-20101	3479.8	-0.20047	0.96448	0.10092
0.408	21.578	-20098	3482.4	-0.19979	0.9639	0.10024
0.41	21.575	-20094	3485	-0.1991	0.96331	0.099552
0.412	21.611	-20091	3488	-0.20076	0.96263	0.10072
0.414	21.607	-20096	3491	-0.20242	0.96195	0.10189
0.416	21.564	-20102	3494.2	-0.20408	0.96126	0.10307
0.418	21.511	-20100	3497.4	-0.20574	0.96058	0.10424
0.42	21.554	-20098	3500.7	-0.2074	0.9599	0.10541
0.422	21.592	-20093	3504.2	-0.2072	0.96038	0.10609
0.424	21.599	-20087	3507.8	-0.20701	0.96087	0.10677
0.426	21.604	-20092	3511.3	-0.20681	0.96136	0.10746
0.428	21.611	-20096	3514.9	-0.20662	0.96185	0.10814
0.43	21.618	-20093	3518.5	-0.20642	0.96234	0.10882
0.432	21.591	-20089	3522.4	-0.20467	0.96136	0.10951
0.434	21.584	-20090	3526.2	-0.20291	0.96038	0.11019
0.436	21.563	-20092	3530	-0.20115	0.95941	0.11087
0.438	21.537	-20091	3533.8	-0.1994	0.95843	0.11156
0.44	21.534	-20090	3537.5	-0.19764	0.95746	0.11224
0.442	21.599	-20093	3541.2	-0.19705	0.95912	0.11019
0.444	21.604	-20096	3545	-0.19647	0.96077	0.10814
0.446	21.607	-20093	3548.6	-0.19588	0.96243	0.10609
0.448	21.624	-20091	3552.1	-0.1953	0.96409	0.10404
0.45	21.601	-20091	3555.7	-0.19471	0.96575	0.10199
0.452	21.565	-20092	3559.1	-0.19354	0.96536	0.10141
0.454	21.548	-20094	3562.6	-0.19237	0.96497	0.10082
0.456	21.54	-20097	3565.7	-0.1912	0.96458	0.10024
0.458	21.524	-20091	3568.4	-0.19003	0.96419	0.09965
0.46	21.523	-20085	3571.2	-0.18886	0.9638	0.099064
0.462	21.537	-20085	3573.9	-0.18915	0.96497	0.099064
0.464	21.526	-20085	3576.7	-0.18944	0.96614	0.099064
0.466	21.497	-20086	3579	-0.18973	0.96731	0.099064
0.468	21.47	-20087	3581	-0.19003	0.96848	0.099064
0.47	21.464	-20087	3582.9	-0.19032	0.96966	0.099064
0.472	21.474	-20087	3584.6	-0.19091	0.96936	0.098186
0.474	21.469	-20086	3586.2	-0.19149	0.96907	0.097307
0.476	21.46	-20084	3587.6	-0.19208	0.96878	0.096429
0.478	21.457	-20084	3588.8	-0.19266	0.96848	0.09555
0.48	21.456	-20083	3590.1	-0.19325	0.96819	0.094672
0.482	21.468	-20087	3590.8	-0.19374	0.96936	0.094086
0.484	21.474	-20091	3591.5	-0.19422	0.97053	0.093501
0.486	21.478	-20090	3592	-0.19471	0.97171	0.092915
0.488	21.47	-20089	3592.4	-0.1952	0.97288	0.09233
0.49	21.453	-20088	3592.7	-0.19569	0.97405	0.091744
0.492	21.42	-20087	3592.6	-0.19686	0.97415	0.091939
0.494	21.399	-20087	3592.5	-0.19803	0.97424	0.092134
0.496	21.405	-20086	3592.2	-0.1992	0.97434	0.09233
0.498	21.463	-20085	3591.8	-0.20037	0.97444	0.092525
0.5	21.525	-20084	3591.4	-0.20154	0.97454	0.09272
0.502	21.503	-20087	3590.6	-0.20291	0.97639	0.091939
0.504	21.445	-20089	3589.9	-0.20428	0.97824	0.091158
0.506	21.487	-20087	3589	-0.20564	0.9801	0.090378
0.508	21.579	-20084	3588.1	-0.20701	0.98195	0.089597
0.51	21.558	-20086	3587.2	-0.20838	0.98381	0.088816
0.512	21.524	-20088	3586	-0.20769	0.98381	0.088426
0.514	21.519	-20086	3584.7	-0.20701	0.98381	0.088035
0.516	21.541	-20085	3583.5	-0.20633	0.98381	0.087645
0.518	21.549	-20084	3582.3	-0.20564	0.98381	0.087254
0.52	21.517	-20083	3581	-0.20496	0.98381	0.086864
0.522	21.487	-20083	3579.5	-0.20633	0.98312	0.086864
0.524	21.51	-20082	3577.9	-0.20769	0.98244	0.086864
0.526	21.564	-20084	3576.4	-0.20906	0.98176	0.086864
0.528	21.564	-20086	3574.8	-0.21043	0.98108	0.086864
0.53	21.536	-20084	3573.3	-0.21179	0.98039	0.086864
0.532	21.541	-20082	3571.5	-0.2115	0.98039	0.086864
0.534	21.57	-20082	3569.7	-0.21121	0.98039	0.086864
0.536	21.57	-20082	3567.9	-0.21091	0.98039	0.086864
0.538	21.539	-20084	3566.2	-0.21062	0.98039	0.086864
0.54	21.51	-20085	3564.4	-0.21033	0.98039	0.086864
0.542	21.507	-20083	3562.4	-0.20867	0.97883	0.086376
0.544	21.509	-20082	3560.4	-0.20701	0.97727	0.085888
0.546	21.513	-20083	3558.3	-0.20535	0.97571	0.0854
0.548	21.523	-20085	3556.3	-0.20369	0.97415	0.084912
0.55	21.501	-20078	3554.3	-0.20203	0.97258	0.084424
0.552	21.461	-20070	3552	-0.20359	0.972	0.084619
0.554	21.43	-20075	3549.8	-0.20516	0.97141	0.084814
0.556	21.441	-20080	3547.6	-0.20672	0.97083	0.08501
0.558	21.529	-20080	3545.4	-0.20828	0.97024	0.085205
0.56	21.606	-20080	3543.2	-0.20984	0.96966	0.0854
0.562	21.587	-20077	3540.9	-0.20769	0.96751	0.084131
0.564	21.555	-20073	3538.7	-0.20555	0.96536	0.082862
0.566	21.551	-20070	3536.5	-0.2034	0.96321	0.081594
0.568	21.525	-20066	3534.5	-0.20125	0.96107	0.080325
0.57	21.518	-20067	3532.5	-0.1991	0.95892	0.079056
0.572	21.527	-20068	3530.4	-0.19803	0.95931	0.079837
0.574	21.511	-20072	3528.3	-0.19696	0.9597	0.080618
0.576	21.482	-20076	3526.4	-0.19588	0.96009	0.081398
0.578	21.491	-20074	3524.5	-0.19481	0.96048	0.082179
0.58	21.507	-20071	3522.6	-0.19374	0.96087	0.08296
0.582	21.534	-20073	3520.8	-0.19559	0.96087	0.081398
0.584	21.599	-20075	3519	-0.19744	0.96087	0.079837
0.586	21.591	-20072	3517.3	-0.1993	0.96087	0.078275
0.588	21.567	-20069	3515.7	-0.20115	0.96087	0.076714
0.59	21.557	-20068	3514	-0.20301	0.96087	0.075152
0.592	21.561	-20067	3512.6	-0.2033	0.96156	0.074664
0.594	21.573	-20069	3511.1	-0.20359	0.96224	0.074176
0.596	21.564	-20070	3509.8	-0.20389	0.96292	0.073688
0.598	21.553	-20078	3508.5	-0.20418	0.9636	0.0732
0.6	21.553	-20086	3507.2	-0.20447	0.96429	0.072712
0.602	21.529	-20084	3506.1	-0.20428	0.96351	0.07281
0.604	21.525	-20081	3505	-0.20408	0.96273	0.072907
0.606	21.532	-20076	3504	-0.20389	0.96195	0.073005
0.608	21.509	-20070	3503	-0.20369	0.96116	0.073102
0.61	21.47	-20069	3502	-0.2035	0.96038	0.0732
0.612	21.491	-20068	3501.3	-0.20457	0.96195	0.072907
0.614	21.546	-20069	3500.5	-0.20564	0.96351	0.072614
0.616	21.504	-20070	3499.9	-0.20672	0.96507	0.072322
0.618	21.485	-20071	3499.2	-0.20779	0.96663	0.072029
0.62	21.509	-20072	3498.6	-0.20886	0.96819	0.071736
0.622	21.519	-20077	3498.2	-0.20896	0.968	0.072614
0.624	21.514	-20082	3497.9	-0.20906	0.9678	0.073493
0.626	21.514	-20079	3497.5	-0.20916	0.96761	0.074371
0.628	21.511	-20076	3497.1	-0.20925	0.96741	0.07525
0.63	21.502	-20070	3496.8	-0.20935	0.96722	0.076128
0.632	21.503	-20064	3496.7	-0.20896	0.968	0.076714
0.634	21.505	-20068	3496.6	-0.20857	0.96878	0.077299
0.636	21.508	-20072	3496.5	-0.20818	0.96956	0.077885
0.638	21.511	-20073	3496.3	-0.20779	0.97034	0.07847
0.64	21.497	-20074	3496.1	-0.2074	0.97112	0.079056
0.642	21.475	-20073	3496.1	-0.20818	0.97141	0.078861
0.644	21.477	-20073	3496.2	-0.20896	0.97171	0.078666
0.646	21.519	-20073	3496.2	-0.20974	0.972	0.07847
0.648	21.563	-20073	3496.1	-0.21052	0.97229	0.078275
0.65	21.574	-20077	3496	-0.2113	0.97258	0.07808
0.652	21.559	-20081	3496.1	-0.21306	0.97346	0.077494
0.654	21.551	-20081	3496.3	-0.21482	0.97434	0.076909
0.656	21.546	-20081	3496.3	-0.21657	0.97522	0.076323
0.658	21.529	-20080	3496.3	-0.21833	0.9761	0.075738
0.66	21.519	-20080	3496.4	-0.22009	0.97698	0.075152
0.662	21.544	-20076	3496.4	-0.22028	0.97698	0.075054
0.664	21.563	-20073	3496.5	-0.22048	0.97698	0.074957
0.666	21.531	-20068	3496.6	-0.22067	0.97698	0.074859
0.668	21.524	-20064	3496.5	-0.22087	0.97698	0.074762
0.67	21.513	-20073	3496.5	-0.22106	0.97698	0.074664
0.672	21.495	-20082	3496.7	-0.22067	0.9759	0.07564
0.674	21.485	-20079	3496.8	-0.22028	0.97483	0.076616
0.676	21.512	-20077	3496.8	-0.21989	0.97376	0.077592
0.678	21.503	-20072	3496.8	-0.2195	0.97268	0.078568
0.68	21.529	-20066	3496.8	-0.21911	0.97161	0.079544
0.682	21.601	-20068	3496.8	-0.21823	0.97005	0.079056
0.684	21.56	-20070	3496.9	-0.21736	0.96848	0.078568
0.686	21.531	-20070	3496.9	-0.21648	0.96692	0.07808
0.688	21.551	-20070	3496.9	-0.2156	0.96536	0.077592
0.69	21.543	-20071	3496.9	-0.21472	0.9638	0.077104
0.692	21.516	-20072	3496.9	-0.21423	0.96282	0.077397
0.694	21.51	-20072	3496.8	-0.21374	0.96185	0.07769
0.696	21.452	-20072	3496.8	-0.21326	0.96087	0.077982
0.698	21.441	-20070	3496.8	-0.21277	0.9599	0.078275
0.7	21.489	-20068	3496.9	-0.21228	0.95892	0.078568
0.702	21.497	-20069	3496.8	-0.21228	0.9598	0.07808
0.704	21.442	-20070	3496.6	-0.21228	0.96068	0.077592
0.706	21.429	-20065	3496.6	-0.21228	0.96156	0.077104
0.708	21.436	-20060	3496.6	-0.21228	0.96243	0.076616
0.71	21.444	-20059	3496.6	-0.21228	0.96331	0.076128
0.712	21.447	-20058	3496.4	-0.21208	0.96175	0.076518
0.714	21.459	-20061	3496.2	-0.21189	0.96019	0.076909
0.716	21.477	-20064	3496	-0.21169	0.95863	0.077299
0.718	21.486	-20070	3495.9	-0.2115	0.95707	0.07769
0.72	21.478	-20076	3495.8	-0.2113	0.9555	0.07808
0.722	21.467	-20075	3495.5	-0.20886	0.95589	0.076811
0.724	21.477	-20074	3495.1	-0.20642	0.95628	0.075542
0.726	21.484	-20072	3494.9	-0.20398	0.95668	0.074274
0.728	21.482	-20070	3494.6	-0.20154	0.95707	0.073005
0.73	21.494	-20072	3494.4	-0.1991	0.95746	0.071736
0.732	21.501	-20073	3493.9	-0.20008	0.95765	0.071736
0.734	21.485	-20071	3493.5	-0.20106	0.95785	0.071736
0.736	21.442	-20069	3493.1	-0.20203	0.95804	0.071736
0.738	21.422	-20069	3492.7	-0.20301	0.95824	0.071736
0.74	21.434	-20069	3492.3	-0.20398	0.95843	0.071736
0.742	21.456	-20070	3492	-0.2035	0.95863	0.072029
0.744	21.482	-20072	3491.8	-0.20301	0.95882	0.072322
0.746	21.494	-20068	3491.6	-0.20252	0.95902	0.072614
0.748	21.512	-20065	3491.4	-0.20203	0.95921	0.072907
0.75	21.557	-20065	3491.2	-0.20154	0.95941	0.0732
0.752	21.582	-20065	3490.8	-0.20154	0.96058	0.073298
0.754	21.564	-20067	3490.5	-0.20154	0.96175	0.073395
0.756	21.558	-20069	3490.2	-0.20154	0.96292	0.073493
0.758	21.581	-20073	3490	-0.20154	0.96409	0.07359
0.76	21.586	-20077	3489.8	-0.20154	0.96526	0.073688
0.762	21.558	-20074	3489.4	-0.20154	0.96614	0.074566
0.764	21.507	-20071	3489	-0.20154	0.96702	0.075445
0.766	21.507	-20074	3488.7	-0.20154	0.9679	0.076323
0.768	21.563	-20077	3488.6	-0.20154	0.96878	0.077202
0.77	21.609	-20076	3488.4	-0.20154	0.96966	0.07808
0.772	21.612	-20075	3488	-0.20145	0.97024	0.078373
0.774	21.573	-20071	3487.7	-0.20135	0.97083	0.078666
0.776	21.558	-20066	3487.4	-0.20125	0.97141	0.078958
0.778	21.557	-20069	3487.2	-0.20115	0.972	0.079251
0.78	21.551	-20072	3487	-0.20106	0.97258	0.079544
0.782	21.551	-20069	3486.6	-0.2033	0.97376	0.078958
0.784	21.57	-20067	3486.3	-0.20555	0.97493	0.078373
0.786	21.567	-20067	3486	-0.20779	0.9761	0.077787
0.788	21.549	-20068	3485.7	-0.21004	0.97727	0.077202
0.79	21.562	-20072	3485.4	-0.21228	0.97844	0.076616
0.792	21.603	-20076	3484.9	-0.21248	0.97824	0.077982
0.794	21.609	-20072	3484.5	-0.21267	0.97805	0.079349
0.796	21.556	-20068	3484.1	-0.21287	0.97785	0.080715
0.798	21.581	-20071	3483.7	-0.21306	0.97766	0.082082
0.8	21.633	-20073	3483.3	-0.21326	0.97746	0.083448
0.802	21.626	-20066	3482.9	-0.21355	0.97776	0.083838
0.804	21.603	-20060	3482.6	-0.21384	0.97805	0.084229
0.806	21.591	-20058	3482.3	-0.21413	0.97834	0.084619
0.808	21.581	-20057	3482	-0.21443	0.97864	0.08501
0.81	21.58	-20057	3481.8	-0.21472	0.97893	0.0854
0.812	21.599	-20058	3481.7	-0.21618	0.97893	0.086083
0.814	21.614	-20060	3481.6	-0.21765	0.97893	0.086766
0.816	21.605	-20063	3481.4	-0.21911	0.97893	0.08745
0.818	21.594	-20063	3481.1	-0.22058	0.97893	0.088133
0.82	21.591	-20063	3480.9	-0.22204	0.97893	0.088816
0.822	21.589	-20060	3480.7	-0.22058	0.97717	0.090573
0.824	21.568	-20056	3480.5	-0.21911	0.97541	0.09233
0.826	21.559	-20062	3480.2	-0.21765	0.97366	0.094086
0.828	21.567	-20067	3479.9	-0.21618	0.9719	0.095843
0.83	21.552	-20064	3479.5	-0.21472	0.97014	0.0976
0.832	21.526	-20061	3479.3	-0.21316	0.96917	0.096819
0.834	21.545	-20060	3479.1	-0.2116	0.96819	0.096038
0.836	21.568	-20059	3478.8	-0.21004	0.96722	0.095258
0.838	21.574	-20056	3478.4	-0.20847	0.96624	0.094477
0.84	21.573	-20052	3478.1	-0.20691	0.96526	0.093696
0.842	21.549	-20052	3477.9	-0.20662	0.96478	0.093696
0.844	21.529	-20051	3477.7	-0.20633	0.96429	0.093696
0.846	21.509	-20058	3477.5	-0.20603	0.9638	0.093696
0.848	21.508	-20066	3477.2	-0.20574	0.96331	0.093696
0.85	21.516	-20065	3477	-0.20545	0.96282	0.093696
0.852	21.502	-20063	3476.8	-0.20594	0.96312	0.09311
0.854	21.48	-20065	3476.6	-0.20642	0.96341	0.092525
0.856	21.476	-20067	3476.3	-0.20691	0.9637	0.091939
0.858	21.439	-20065	3476	-0.2074	0.964	0.091354
0.86	21.412	-20062	3475.7	-0.20789	0.96429	0.090768
0.862	21.399	-20065	3475.3	-0.20681	0.96536	0.091354
0.864	21.4	-20068	3474.9	-0.20574	0.96644	0.091939
0.866	21.425	-20070	3474.4	-0.20467	0.96751	0.092525
0.868	21.487	-20073	3474	-0.20359	0.96858	0.09311
0.87	21.444	-20066	3473.6	-0.20252	0.96966	0.093696
0.872	21.367	-20060	3473.2	-0.20301	0.97005	0.095258
0.874	21.301	-20060	3472.9	-0.2035	0.97044	0.096819
0.876	21.236	-20060	3472.6	-0.20398	0.97083	0.098381
0.878	21.184	-20060	3472.3	-0.20447	0.97122	0.099942
0.88	21.124	-20060	3472	-0.20496	0.97161	0.1015
0.882	21.047	-20068	3471.7	-0.20496	0.972	0.10121
0.884	20.981	-20075	3471.5	-0.20496	0.97239	0.10092
0.886	20.958	-20075	3471.2	-0.20496	0.97278	0.10063
0.888	20.957	-20075	3471	-0.20496	0.97317	0.10033
0.89	20.957	-20082	3470.8	-0.20496	0.97356	0.10004
0.892	20.953	-20090	3470.6	-0.20535	0.97219	0.098966
0.894	20.942	-20089	3470.4	-0.20574	0.97083	0.097893
0.896	20.922	-20088	3470.2	-0.20613	0.96946	0.096819
0.898	20.911	-20083	3469.9	-0.20652	0.96809	0.095746
0.9	20.932	-20078	3469.7	-0.20691	0.96673	0.094672
0.902	20.941	-20082	3469.4	-0.2075	0.96565	0.092427
0.904	20.902	-20087	3469.1	-0.20808	0.96458	0.090182
0.906	20.868	-20085	3468.8	-0.20867	0.96351	0.087938
0.908	20.836	-20083	3468.4	-0.20925	0.96243	0.085693
0.91	20.81	-20080	3468.1	-0.20984	0.96136	0.083448
0.912	20.8	-20076	3467.9	-0.20994	0.96195	0.082082
0.914	20.804	-20077	3467.6	-0.21004	0.96253	0.080715
0.916	20.799	-20078	3467.3	-0.21013	0.96312	0.079349
0.918	20.803	-20075	3467	-0.21023	0.9637	0.077982
0.92	20.849	-20071	3466.6	-0.21033	0.96429	0.076616
0.922	20.888	-20068	3466.5	-0.20994	0.9639	0.077202
0.924	20.877	-20065	3466.3	-0.20955	0.96351	0.077787
0.926	20.887	-20063	3466.1	-0.20916	0.96312	0.078373
0.928	20.911	-20060	3465.8	-0.20877	0.96273	0.078958
0.93	20.959	-20060	3465.5	-0.20838	0.96234	0.079544
0.932	21.017	-20060	3465.4	-0.20799	0.96263	0.079056
0.934	21.132	-20065	3465.2	-0.2076	0.96292	0.078568
0.936	21.247	-20071	3465.1	-0.2072	0.96321	0.07808
0.938	21.255	-20068	3464.8	-0.20681	0.96351	0.077592
0.94	21.318	-20064	3464.6	-0.20642	0.9638	0.077104
0.942	21.381	-20067	3464.4	-0.20594	0.96439	0.077006
0.944	21.41	-20071	3464.3	-0.20545	0.96497	0.076909
0.946	21.439	-20071	3464.2	-0.20496	0.96556	0.076811
0.948	21.44	-20070	3464	-0.20447	0.96614	0.076714
0.95	21.475	-20073	3463.8	-0.20398	0.96673	0.076616
0.952	21.538	-20075	3463.7	-0.20457	0.968	0.076811
0.954	21.566	-20072	3463.7	-0.20516	0.96927	0.077006
0.956	21.571	-20068	3463.6	-0.20574	0.97053	0.077202
0.958	21.578	-20069	3463.4	-0.20633	0.9718	0.077397
0.96	21.578	-20070	3463.2	-0.20691	0.97307	0.077592
0.962	21.602	-20067	3463.1	-0.20662	0.97278	0.07808
0.964	21.611	-20065	3463	-0.20633	0.97249	0.078568
0.966	21.604	-20066	3462.8	-0.20603	0.97219	0.079056
0.968	21.616	-20067	3462.5	-0.20574	0.9719	0.079544
0.97	21.634	-20067	3462.3	-0.20545	0.97161	0.080032
0.972	21.629	-20066	3462.2	-0.20642	0.97151	0.079544
0.974	21.619	-20068	3462.1	-0.2074	0.97141	0.079056
0.976	21.61	-20070	3461.9	-0.20838	0.97132	0.078568
0.978	21.6	-20070	3461.6	-0.20935	0.97122	0.07808
0.98	21.594	-20070	3461.3	-0.21033	0.97112	0.077592
0.982	21.591	-20071	3461.2	-0.2116	0.97083	0.077299
0.984	21.593	-20073	3461.2	-0.21287	0.97053	0.077006
0.986	21.593	-20069	3461.1	-0.21413	0.97024	0.076714
0.988	21.575	-20066	3460.9	-0.2154	0.96995	0.076421
0.99	21.557	-20068	3460.7	-0.21667	0.96966	0.076128
0.992	21.58	-20071	3460.7	-0.21677	0.97014	0.075347
0.994	21.603	-20070	3460.6	-0.21687	0.97063	0.074566
0.996	21.611	-20070	3460.6	-0.21696	0.97112	0.073786
0.998	21.625	-20067	3460.5	-0.21706	0.97161	0.073005
1	21.631	-20064	3460.3	-0.21716	0.9721	0.072224
1.002	21.603	-20065	3460.3	-0.21882	0.97424	0.072029
1.004	21.573	-20066	3460.2	-0.22048	0.97639	0.071834
1.006	21.575	-20070	3460.1	-0.22214	0.97854	0.071638
1.008	21.58	-20074	3460	-0.2238	0.98068	0.071443
1.01	21.571	-20075	3460	-0.22546	0.98283	0.071248
1.012	21.588	-20077	3459.8	-0.22633	0.98312	0.072029
1.014	21.611	-20078	3459.7	-0.22721	0.98342	0.07281
1.016	21.615	-20079	3459.6	-0.22809	0.98371	0.07359
1.018	21.619	-20076	3459.5	-0.22897	0.984	0.074371
1.02	21.647	-20073	3459.4	-0.22985	0.9843	0.075152
1.022	21.65	-20072	3459.3	-0.22819	0.98527	0.074371
1.024	21.6	-20071	3459.2	-0.22653	0.98625	0.07359
1.026	21.618	-20069	3459.2	-0.22487	0.98722	0.07281
1.028	21.606	-20067	3459.1	-0.22321	0.9882	0.072029
1.03	21.564	-20066	3459	-0.22155	0.98918	0.071248
1.032	21.559	-20065	3458.9	-0.21901	0.9881	0.069979
1.034	21.565	-20068	3458.9	-0.21648	0.98703	0.06871
1.036	21.573	-20072	3458.8	-0.21394	0.98596	0.067442
1.038	21.577	-20069	3458.7	-0.2114	0.98488	0.066173
1.04	21.575	-20067	3458.6	-0.20886	0.98381	0.064904
1.042	21.58	-20067	3458.6	-0.2072	0.98332	0.064904
1.044	21.581	-20067	3458.6	-0.20555	0.98283	0.064904
1.046	21.57	-20069	3458.6	-0.20389	0.98234	0.064904
1.048	21.542	-20071	3458.7	-0.20223	0.98186	0.064904
1.05	21.513	-20068	3458.7	-0.20057	0.98137	0.064904
1.052	21.545	-20064	3458.7	-0.20076	0.9802	0.064416
1.054	21.595	-20060	3458.7	-0.20096	0.97903	0.063928
1.056	21.561	-20057	3458.6	-0.20115	0.97785	0.06344
1.058	21.509	-20059	3458.6	-0.20135	0.97668	0.062952
1.06	21.553	-20061	3458.5	-0.20154	0.97551	0.062464
1.062	21.622	-20061	3458.6	-0.20008	0.97483	0.064026
1.064	21.661	-20061	3458.7	-0.19862	0.97415	0.065587
1.066	21.658	-20062	3459	-0.19715	0.97346	0.067149
1.068	21.628	-20063	3459.4	-0.19569	0.97278	0.06871
1.07	21.631	-20069	3459.9	-0.19422	0.9721	0.070272
1.072	21.625	-20075	3460.8	-0.19471	0.97044	0.069491
1.074	21.614	-20072	3461.8	-0.1952	0.96878	0.06871
1.076	21.629	-20068	3462.9	-0.19569	0.96712	0.06793
1.078	21.616	-20070	3464.4	-0.19618	0.96546	0.067149
1.08	21.582	-20072	3465.8	-0.19666	0.9638	0.066368
1.082	21.605	-20069	3467.6	-0.19647	0.96321	0.067051
1.084	21.656	-20067	3469.4	-0.19627	0.96263	0.067734
1.086	21.649	-20063	3471.4	-0.19608	0.96204	0.068418
1.088	21.658	-20060	3473.6	-0.19588	0.96146	0.069101
1.09	21.621	-20060	3475.7	-0.19569	0.96087	0.069784
1.092	21.601	-20060	3478.3	-0.19549	0.95931	0.071346
1.094	21.602	-20065	3480.9	-0.1953	0.95775	0.072907
1.096	21.612	-20070	3483.7	-0.1951	0.95619	0.074469
1.098	21.616	-20070	3486.5	-0.19491	0.95463	0.07603
1.1	21.608	-20069	3489.4	-0.19471	0.95306	0.077592
1.102	21.616	-20069	3492.5	-0.19442	0.95384	0.07808
1.104	21.622	-20068	3495.7	-0.19413	0.95463	0.078568
1.106	21.642	-20064	3499	-0.19383	0.95541	0.079056
1.108	21.631	-20060	3502.5	-0.19354	0.95619	0.079544
1.11	21.627	-20066	3506	-0.19325	0.95697	0.080032
1.112	21.644	-20071	3509.6	-0.19383	0.95785	0.080032
1.114	21.627	-20070	3513.2	-0.19442	0.95872	0.080032
1.116	21.638	-20069	3516.8	-0.195	0.9596	0.080032
1.118	21.663	-20066	3520.4	-0.19559	0.96048	0.080032
1.12	21.6	-20064	3524.1	-0.19618	0.96136	0.080032
1.122	21.568	-20064	3527.7	-0.19813	0.96029	0.081984
1.124	21.581	-20064	3531.4	-0.20008	0.95921	0.083936
1.126	21.574	-20064	3535	-0.20203	0.95814	0.085888
1.128	21.565	-20065	3538.6	-0.20398	0.95707	0.08784
1.13	21.56	-20066	3542.2	-0.20594	0.95599	0.089792
1.132	21.57	-20067	3545.5	-0.20584	0.95804	0.088718
1.134	21.573	-20066	3548.9	-0.20574	0.96009	0.087645
1.136	21.572	-20065	3552.1	-0.20564	0.96214	0.086571
1.138	21.59	-20063	3555.1	-0.20555	0.96419	0.085498
1.14	21.61	-20061	3558.2	-0.20545	0.96624	0.084424
1.142	21.614	-20062	3560.9	-0.20662	0.96741	0.085498
1.144	21.617	-20062	3563.6	-0.20779	0.96858	0.086571
1.146	21.609	-20059	3566.1	-0.20896	0.96975	0.087645
1.148	21.566	-20057	3568.4	-0.21013	0.97092	0.088718
1.15	21.507	-20063	3570.7	-0.2113	0.9721	0.089792
1.152	21.479	-20069	3572.6	-0.21238	0.97297	0.088621
1.154	21.508	-20072	3574.5	-0.21345	0.97385	0.08745
1.156	21.54	-20074	3576.2	-0.21452	0.97473	0.086278
1.158	21.517	-20073	3577.6	-0.2156	0.97561	0.085107
1.16	21.496	-20072	3579.1	-0.21667	0.97649	0.083936
1.162	21.514	-20068	3580	-0.21657	0.97659	0.083936
1.164	21.529	-20065	3581	-0.21648	0.97668	0.083936
1.166	21.545	-20060	3581.8	-0.21638	0.97678	0.083936
1.168	21.545	-20055	3582.4	-0.21628	0.97688	0.083936
1.17	21.473	-20052	3583.1	-0.21618	0.97698	0.083936
1.172	21.449	-20049	3583.3	-0.2154	0.97659	0.083546
1.174	21.51	-20058	3583.5	-0.21462	0.9762	0.083155
1.176	21.558	-20066	3583.5	-0.21384	0.9758	0.082765
1.178	21.545	-20065	3583.4	-0.21306	0.97541	0.082374
1.18	21.561	-20063	3583.3	-0.21228	0.97502	0.081984
1.182	21.553	-20060	3582.9	-0.21355	0.97639	0.082765
1.184	21.52	-20057	3582.4	-0.21482	0.97776	0.083546
1.186	21.518	-20058	3581.9	-0.21609	0.97912	0.084326
1.188	21.546	-20059	3581.2	-0.21736	0.98049	0.085107
1.19	21.539	-20059	3580.5	-0.21862	0.98186	0.085888
1.192	21.546	-20058	3579.6	-0.21892	0.98068	0.086376
1.194	21.551	-20056	3578.6	-0.21921	0.97951	0.086864
1.196	21.542	-20053	3577.5	-0.2195	0.97834	0.087352
1.198	21.508	-20053	3576.3	-0.2198	0.97717	0.08784
1.2	21.507	-20053	3575.1	-0.22009	0.976	0.088328
1.202	21.52	-20051	3573.8	-0.2198	0.97493	0.088621
1.204	21.585	-20050	3572.5	-0.2195	0.97385	0.088914
1.206	21.61	-20048	3571.1	-0.21921	0.97278	0.089206
1.208	21.59	-20046	3569.6	-0.21892	0.97171	0.089499
1.21	21.609	-20052	3568.1	-0.21862	0.97063	0.089792
1.212	21.611	-20058	3566.5	-0.21648	0.97122	0.088621
1.214	21.598	-20058	3564.9	-0.21433	0.9718	0.08745
1.216	21.596	-20059	3563.2	-0.21218	0.97239	0.086278
1.218	21.573	-20058	3561.4	-0.21004	0.97297	0.085107
1.22	21.544	-20057	3559.6	-0.20789	0.97356	0.083936
1.222	21.556	-20058	3557.6	-0.20916	0.97258	0.082765
1.224	21.568	-20060	3555.7	-0.21043	0.97161	0.081594
1.226	21.576	-20058	3553.6	-0.21169	0.97063	0.080422
1.228	21.586	-20057	3551.5	-0.21296	0.96966	0.079251
1.23	21.578	-20054	3549.4	-0.21423	0.96868	0.07808
1.232	21.566	-20052	3547.2	-0.21413	0.96839	0.077787
1.234	21.566	-20054	3545	-0.21404	0.96809	0.077494
1.236	21.578	-20057	3542.8	-0.21394	0.9678	0.077202
1.238	21.591	-20056	3540.6	-0.21384	0.96751	0.076909
1.24	21.591	-20055	3538.5	-0.21374	0.96722	0.076616
1.242	21.576	-20053	3536.4	-0.21365	0.96673	0.076226
1.244	21.566	-20051	3534.3	-0.21355	0.96624	0.075835
1.246	21.569	-20051	3532.2	-0.21345	0.96575	0.075445
1.248	21.556	-20051	3530.2	-0.21335	0.96526	0.075054
1.25	21.544	-20051	3528.3	-0.21326	0.96478	0.074664
1.252	21.565	-20050	3526.3	-0.21267	0.96439	0.075152
1.254	21.577	-20048	3524.3	-0.21208	0.964	0.07564
1.256	21.549	-20045	3522.5	-0.2115	0.9636	0.076128
1.258	21.551	-20048	3520.7	-0.21091	0.96321	0.076616
1.26	21.571	-20052	3518.9	-0.21033	0.96282	0.077104
1.262	21.579	-20052	3517.3	-0.2116	0.96224	0.077592
1.264	21.607	-20053	3515.6	-0.21287	0.96165	0.07808
1.266	21.583	-20051	3514	-0.21413	0.96107	0.078568
1.268	21.568	-20050	3512.6	-0.2154	0.96048	0.079056
1.27	21.574	-20046	3511.1	-0.21667	0.9599	0.079544
1.272	21.523	-20043	3509.8	-0.21531	0.9598	0.080227
1.274	21.538	-20044	3508.4	-0.21394	0.9597	0.08091
1.276	21.631	-20046	3507.2	-0.21257	0.9596	0.081594
1.278	21.602	-20052	3506	-0.21121	0.95951	0.082277
1.28	21.576	-20058	3504.9	-0.20984	0.95941	0.08296
1.282	21.631	-20058	3503.9	-0.20994	0.95921	0.083253
1.284	21.622	-20058	3502.9	-0.21004	0.95902	0.083546
1.286	21.572	-20051	3502	-0.21013	0.95882	0.083838
1.288	21.555	-20044	3501.1	-0.21023	0.95863	0.084131
1.29	21.545	-20046	3500.3	-0.21033	0.95843	0.084424
1.292	21.517	-20048	3499.7	-0.21111	0.95746	0.084131
1.294	21.525	-20048	3499	-0.21189	0.95648	0.083838
1.296	21.55	-20048	3498.5	-0.21267	0.9555	0.083546
1.298	21.542	-20046	3498	-0.21345	0.95453	0.083253
1.3	21.513	-20045	3497.5	-0.21423	0.95355	0.08296
1.302	21.528	-20051	3497.1	-0.21335	0.9557	0.082765
1.304	21.566	-20056	3496.8	-0.21248	0.95785	0.08257
1.306	21.553	-20053	3496.5	-0.2116	0.95999	0.082374
1.308	21.56	-20050	3496.2	-0.21072	0.96214	0.082179
1.31	21.571	-20046	3496	-0.20984	0.96429	0.081984
1.312	21.61	-20043	3495.8	-0.21199	0.96419	0.080422
1.314	21.675	-20043	3495.7	-0.21413	0.96409	0.078861
1.316	21.684	-20043	3495.6	-0.21628	0.964	0.077299
1.318	21.642	-20044	3495.6	-0.21843	0.9639	0.075738
1.32	21.6	-20046	3495.6	-0.22058	0.9638	0.074176
1.322	21.574	-20043	3495.5	-0.21989	0.96439	0.07525
1.324	21.561	-20040	3495.4	-0.21921	0.96497	0.076323
1.326	21.555	-20047	3495.4	-0.21853	0.96556	0.077397
1.328	21.567	-20053	3495.5	-0.21784	0.96614	0.07847
1.33	21.607	-20052	3495.6	-0.21716	0.96673	0.079544
1.332	21.629	-20050	3495.6	-0.21755	0.96692	0.079446
1.334	21.584	-20052	3495.6	-0.21794	0.96712	0.079349
1.336	21.559	-20054	3495.7	-0.21833	0.96731	0.079251
1.338	21.571	-20050	3495.9	-0.21872	0.96751	0.079154
1.34	21.584	-20045	3496	-0.21911	0.9677	0.079056
1.342	21.583	-20042	3496.1	-0.21882	0.96751	0.080227
1.344	21.561	-20039	3496.2	-0.21853	0.96731	0.081398
1.346	21.556	-20039	3496.3	-0.21823	0.96712	0.08257
1.348	21.56	-20038	3496.5	-0.21794	0.96692	0.083741
1.35	21.563	-20044	3496.7	-0.21765	0.96673	0.084912
1.352	21.587	-20049	3496.9	-0.21872	0.96878	0.084912
1.354	21.592	-20044	3497	-0.2198	0.97083	0.084912
1.356	21.573	-20039	3497.2	-0.22087	0.97288	0.084912
1.358	21.543	-20041	3497.3	-0.22194	0.97493	0.084912
1.36	21.555	-20042	3497.5	-0.22302	0.97698	0.084912
1.362	21.554	-20044	3497.7	-0.22321	0.97659	0.084229
1.364	21.53	-20047	3498	-0.22341	0.9762	0.083546
1.366	21.495	-20045	3498.1	-0.2236	0.9758	0.082862
1.368	21.491	-20043	3498.2	-0.2238	0.97541	0.082179
1.37	21.531	-20048	3498.3	-0.22399	0.97502	0.081496
1.372	21.533	-20052	3498.4	-0.22438	0.97571	0.08052
1.374	21.572	-20050	3498.5	-0.22477	0.97639	0.079544
1.376	21.592	-20048	3498.5	-0.22516	0.97707	0.078568
1.378	21.608	-20051	3498.5	-0.22555	0.97776	0.077592
1.38	21.61	-20055	3498.4	-0.22594	0.97844	0.076616
1.382	21.572	-20053	3498.4	-0.22633	0.97746	0.076714
1.384	21.536	-20051	3498.4	-0.22672	0.97649	0.076811
1.386	21.534	-20044	3498.3	-0.22712	0.97551	0.076909
1.388	21.563	-20037	3498.1	-0.22751	0.97454	0.077006
1.39	21.516	-20041	3497.9	-0.2279	0.97356	0.077104
1.392	21.448	-20045	3497.7	-0.22702	0.97376	0.076518
1.394	21.46	-20053	3497.5	-0.22614	0.97395	0.075933
1.396	21.509	-20060	3497.3	-0.22526	0.97415	0.075347
1.398	21.513	-20051	3497.2	-0.22438	0.97434	0.074762
1.4	21.505	-20042	3497.1	-0.2235	0.97454	0.074176
1.402	21.511	-20043	3496.8	-0.22155	0.97278	0.074078
1.404	21.515	-20043	3496.5	-0.2196	0.97102	0.073981
1.406	21.498	-20045	3496.2	-0.21765	0.96927	0.073883
1.408	21.485	-20047	3496	-0.2157	0.96751	0.073786
1.41	21.505	-20038	3495.8	-0.21374	0.96575	0.073688
1.412	21.531	-20029	3495.4	-0.21316	0.96614	0.072907
1.414	21.545	-20033	3495	-0.21257	0.96653	0.072126
1.416	21.52	-20036	3494.7	-0.21199	0.96692	0.071346
1.418	21.476	-20042	3494.4	-0.2114	0.96731	0.070565
1.42	21.445	-20048	3494.1	-0.21082	0.9677	0.069784
1.422	21.431	-20046	3493.7	-0.21111	0.96653	0.070174
1.424	21.439	-20045	3493.2	-0.2114	0.96536	0.070565
1.426	21.486	-20044	3492.8	-0.21169	0.96419	0.070955
1.428	21.561	-20043	3492.4	-0.21199	0.96302	0.071346
1.43	21.58	-20042	3492	-0.21228	0.96185	0.071736
1.432	21.59	-20041	3491.6	-0.21052	0.96224	0.071346
1.434	21.603	-20038	3491.1	-0.20877	0.96263	0.070955
1.436	21.598	-20035	3490.7	-0.20701	0.96302	0.070565
1.438	21.572	-20037	3490.3	-0.20525	0.96341	0.070174
1.44	21.574	-20039	3489.8	-0.2035	0.9638	0.069784
1.442	21.614	-20041	3489.4	-0.20437	0.96351	0.069686
1.444	21.606	-20042	3489	-0.20525	0.96321	0.069589
1.446	21.617	-20043	3488.6	-0.20613	0.96292	0.069491
1.448	21.645	-20044	3488.1	-0.20701	0.96263	0.069394
1.45	21.677	-20045	3487.6	-0.20789	0.96234	0.069296
1.452	21.666	-20045	3487.3	-0.20769	0.96224	0.068906
1.454	21.604	-20049	3486.9	-0.2075	0.96214	0.068515
1.456	21.537	-20052	3486.5	-0.2073	0.96204	0.068125
1.458	21.552	-20047	3486.1	-0.20711	0.96195	0.067734
1.46	21.593	-20042	3485.7	-0.20691	0.96185	0.067344
1.462	21.634	-20035	3485.3	-0.20828	0.96243	0.066661
1.464	21.634	-20028	3484.9	-0.20964	0.96302	0.065978
1.466	21.625	-20033	3484.5	-0.21101	0.9636	0.065294
1.468	21.629	-20038	3484.2	-0.21238	0.96419	0.064611
1.47	21.61	-20041	3483.9	-0.21374	0.96478	0.063928
1.472	21.573	-20044	3483.6	-0.21326	0.96419	0.064318
1.474	21.581	-20044	3483.3	-0.21277	0.9636	0.064709
1.476	21.641	-20043	3483	-0.21228	0.96302	0.065099
1.478	21.63	-20049	3482.5	-0.21179	0.96243	0.06549
1.48	21.607	-20054	3482.1	-0.2113	0.96185	0.06588
1.482	21.616	-20049	3481.9	-0.21072	0.9636	0.066758
1.484	21.648	-20044	3481.7	-0.21013	0.96536	0.067637
1.486	21.644	-20043	3481.4	-0.20955	0.96712	0.068515
1.488	21.601	-20042	3481	-0.20896	0.96888	0.069394
1.49	21.571	-20046	3480.7	-0.20838	0.97063	0.070272
1.492	21.573	-20050	3480.6	-0.20906	0.97122	0.069882
1.494	21.572	-20053	3480.6	-0.20974	0.9718	0.069491
1.496	21.558	-20055	3480.3	-0.21043	0.97239	0.069101
1.498	21.542	-20050	3479.8	-0.21111	0.97297	0.06871
1.5	21.552	-20045	3479.3	-0.21179	0.97356	0.06832
1.502	21.635	-20046	3479.1	-0.21013	0.97346	0.068418
1.504	21.686	-20048	3478.9	-0.20847	0.97336	0.068515
1.506	21.672	-20046	3478.6	-0.20681	0.97327	0.068613
1.508	21.676	-20044	3478.2	-0.20516	0.97317	0.06871
1.51	21.66	-20043	3477.8	-0.2035	0.97307	0.068808
1.512	21.636	-20042	3477.7	-0.20584	0.97278	0.070077
1.514	21.633	-20037	3477.6	-0.20818	0.97249	0.071346
1.516	21.635	-20033	3477.4	-0.21052	0.97219	0.072614
1.518	21.631	-20042	3477.3	-0.21287	0.9719	0.073883
1.52	21.617	-20051	3477.1	-0.21521	0.97161	0.075152
1.522	21.608	-20047	3477	-0.21472	0.97073	0.074566
1.524	21.62	-20043	3477	-0.21423	0.96985	0.073981
1.526	21.625	-20047	3476.9	-0.21374	0.96897	0.073395
1.528	21.606	-20051	3476.7	-0.21326	0.96809	0.07281
1.53	21.606	-20043	3476.6	-0.21277	0.96722	0.072224
1.532	21.606	-20035	3476.6	-0.21199	0.96741	0.071834
1.534	21.579	-20040	3476.5	-0.21121	0.96761	0.071443
1.536	21.534	-20045	3476.5	-0.21043	0.9678	0.071053
1.538	21.507	-20048	3476.5	-0.20964	0.968	0.070662
1.54	21.494	-20051	3476.5	-0.20886	0.96819	0.070272
1.542	21.499	-20050	3476.4	-0.20906	0.9677	0.070077
1.544	21.475	-20049	3476.4	-0.20925	0.96722	0.069882
1.546	21.478	-20043	3476.4	-0.20945	0.96673	0.069686
1.548	21.482	-20038	3476.3	-0.20964	0.96624	0.069491
1.55	21.499	-20037	3476.3	-0.20984	0.96575	0.069296
1.552	21.503	-20037	3476.2	-0.21023	0.96556	0.069296
1.554	21.454	-20043	3476	-0.21062	0.96536	0.069296
1.556	21.409	-20049	3475.9	-0.21101	0.96517	0.069296
1.558	21.377	-20048	3475.8	-0.2114	0.96497	0.069296
1.56	21.351	-20048	3475.7	-0.21179	0.96478	0.069296
1.562	21.278	-20047	3475.5	-0.2116	0.96507	0.068808
1.564	21.171	-20047	3475.3	-0.2114	0.96536	0.06832
1.566	21.09	-20048	3475.1	-0.21121	0.96565	0.067832
1.568	21.041	-20049	3474.9	-0.21101	0.96595	0.067344
1.57	20.997	-20048	3474.7	-0.21082	0.96624	0.066856
1.572	20.966	-20048	3474.6	-0.20925	0.96565	0.066856
1.574	20.974	-20054	3474.4	-0.20769	0.96507	0.066856
1.576	21	-20060	3474.3	-0.20613	0.96448	0.066856
1.578	21.009	-20051	3474.1	-0.20457	0.9639	0.066856
1.58	20.996	-20043	3474	-0.20301	0.96331	0.066856
1.582	20.952	-20043	3473.8	-0.20447	0.9636	0.067051
1.584	20.91	-20043	3473.6	-0.20594	0.9639	0.067246
1.586	20.932	-20043	3473.4	-0.2074	0.96419	0.067442
1.588	20.969	-20043	3473.2	-0.20886	0.96448	0.067637
1.59	20.977	-20043	3473	-0.21033	0.96478	0.067832
1.592	20.987	-20043	3472.8	-0.20847	0.96604	0.067246
1.594	20.971	-20046	3472.6	-0.20662	0.96731	0.066661
1.596	20.924	-20048	3472.4	-0.20476	0.96858	0.066075
1.598	20.883	-20048	3472.2	-0.20291	0.96985	0.06549
1.6	20.863	-20049	3472	-0.20106	0.97112	0.064904
1.602	20.833	-20052	3471.8	-0.20213	0.97229	0.06549
1.604	20.783	-20055	3471.6	-0.2032	0.97346	0.066075
1.606	20.767	-20052	3471.4	-0.20428	0.97463	0.066661
1.608	20.814	-20050	3471.2	-0.20535	0.9758	0.067246
1.61	20.869	-20052	3471	-0.20642	0.97698	0.067832
1.612	20.915	-20055	3470.8	-0.2075	0.97756	0.06588
1.614	20.951	-20054	3470.6	-0.20857	0.97815	0.063928
1.616	20.978	-20052	3470.4	-0.20964	0.97873	0.061976
1.618	21.026	-20049	3470.1	-0.21072	0.97932	0.060024
1.62	21.091	-20046	3469.9	-0.21179	0.9799	0.058072
1.622	21.189	-20036	3469.6	-0.2113	0.9801	0.058072
1.624	21.269	-20026	3469.2	-0.21082	0.98029	0.058072
1.626	21.326	-20035	3468.9	-0.21033	0.98049	0.058072
1.628	21.359	-20044	3468.5	-0.20984	0.98068	0.058072
1.63	21.385	-20048	3468.2	-0.20935	0.98088	0.058072
1.632	21.424	-20052	3467.9	-0.20945	0.98039	0.058755
1.634	21.464	-20042	3467.6	-0.20955	0.9799	0.059438
1.636	21.477	-20032	3467.3	-0.20964	0.97942	0.060122
1.638	21.5	-20034	3467	-0.20974	0.97893	0.060805
1.64	21.628	-20037	3466.7	-0.20984	0.97844	0.061488
1.642	21.653	-20040	3466.4	-0.20828	0.97834	0.062562
1.644	21.63	-20043	3466.2	-0.20672	0.97824	0.063635
1.646	21.627	-20038	3465.9	-0.20516	0.97815	0.064709
1.648	21.639	-20033	3465.6	-0.20359	0.97805	0.065782
1.65	21.647	-20037	3465.3	-0.20203	0.97795	0.066856
1.652	21.644	-20042	3465.2	-0.2035	0.97727	0.06832
1.654	21.636	-20038	3465	-0.20496	0.97659	0.069784
1.656	21.628	-20033	3464.9	-0.20642	0.9759	0.071248
1.658	21.629	-20037	3464.7	-0.20789	0.97522	0.072712
1.66	21.636	-20040	3464.5	-0.20935	0.97454	0.074176
1.662	21.666	-20041	3464.3	-0.20877	0.97385	0.07525
1.664	21.707	-20042	3464.1	-0.20818	0.97317	0.076323
1.666	21.686	-20047	3463.9	-0.2076	0.97249	0.077397
1.668	21.639	-20052	3463.7	-0.20701	0.9718	0.07847
1.67	21.644	-20048	3463.4	-0.20642	0.97112	0.079544
1.672	21.645	-20044	3463.2	-0.20652	0.96975	0.078373
1.674	21.625	-20044	3462.9	-0.20662	0.96839	0.077202
1.676	21.618	-20043	3462.7	-0.20672	0.96702	0.07603
1.678	21.626	-20047	3462.4	-0.20681	0.96565	0.074859
1.68	21.631	-20052	3462.2	-0.20691	0.96429	0.073688
1.682	21.607	-20048	3461.9	-0.20633	0.964	0.074469
1.684	21.618	-20044	3461.6	-0.20574	0.9637	0.07525
1.686	21.627	-20050	3461.3	-0.20516	0.96341	0.07603
1.688	21.614	-20057	3461	-0.20457	0.96312	0.076811
1.69	21.595	-20055	3460.7	-0.20398	0.96282	0.077592
1.692	21.61	-20052	3460.5	-0.20467	0.96273	0.077982
1.694	21.639	-20050	3460.3	-0.20535	0.96263	0.078373
1.696	21.639	-20047	3460	-0.20603	0.96253	0.078763
1.698	21.638	-20048	3459.8	-0.20672	0.96243	0.079154
1.7	21.65	-20049	3459.6	-0.2074	0.96234	0.079544
1.702	21.649	-20048	3459.4	-0.20642	0.96185	0.079934
1.704	21.641	-20048	3459.3	-0.20545	0.96136	0.080325
1.706	21.629	-20045	3459.1	-0.20447	0.96087	0.080715
1.708	21.62	-20043	3458.8	-0.2035	0.96038	0.081106
1.71	21.596	-20043	3458.6	-0.20252	0.9599	0.081496
1.712	21.614	-20044	3458.3	-0.20174	0.96019	0.081398
1.714	21.656	-20042	3458.1	-0.20096	0.96048	0.081301
1.716	21.634	-20039	3457.9	-0.20018	0.96077	0.081203
1.718	21.626	-20038	3457.7	-0.1994	0.96107	0.081106
1.72	21.631	-20038	3457.5	-0.19862	0.96136	0.081008
1.722	21.597	-20042	3457.4	-0.19949	0.96214	0.080715
1.724	21.556	-20047	3457.2	-0.20037	0.96292	0.080422
1.726	21.548	-20047	3457	-0.20125	0.9637	0.08013
1.728	21.564	-20047	3456.8	-0.20213	0.96448	0.079837
1.73	21.603	-20047	3456.7	-0.20301	0.96526	0.079544
1.732	21.629	-20047	3456.5	-0.20223	0.96692	0.080227
1.734	21.643	-20048	3456.3	-0.20145	0.96858	0.08091
1.736	21.653	-20048	3456.1	-0.20067	0.97024	0.081594
1.738	21.644	-20048	3455.9	-0.19988	0.9719	0.082277
1.74	21.634	-20048	3455.8	-0.1991	0.97356	0.08296
1.742	21.632	-20048	3455.7	-0.20076	0.97493	0.081691
1.744	21.61	-20049	3455.6	-0.20242	0.97629	0.080422
1.746	21.596	-20049	3455.6	-0.20408	0.97766	0.079154
1.748	21.599	-20049	3455.6	-0.20574	0.97903	0.077885
1.75	21.599	-20046	3455.7	-0.2074	0.98039	0.076616
1.752	21.598	-20043	3456	-0.20701	0.98108	0.077592
1.754	21.613	-20038	3456.4	-0.20662	0.98176	0.078568
1.756	21.622	-20034	3456.9	-0.20623	0.98244	0.079544
1.758	21.582	-20034	3457.5	-0.20584	0.98312	0.08052
1.76	21.588	-20035	3458.2	-0.20545	0.98381	0.081496
1.762	21.617	-20037	3459.3	-0.20379	0.98254	0.081594
1.764	21.634	-20039	3460.4	-0.20213	0.98127	0.081691
1.766	21.612	-20040	3461.7	-0.20047	0.98	0.081789
1.768	21.614	-20041	3463.2	-0.19881	0.97873	0.081886
1.77	21.647	-20043	3464.7	-0.19715	0.97746	0.081984
1.772	21.644	-20045	3466.6	-0.19842	0.97688	0.082472
1.774	21.651	-20045	3468.5	-0.19969	0.97629	0.08296
1.776	21.657	-20045	3470.6	-0.20096	0.97571	0.083448
1.778	21.64	-20045	3473	-0.20223	0.97512	0.083936
1.78	21.646	-20045	3475.4	-0.2035	0.97454	0.084424
1.782	21.666	-20046	3478.1	-0.20516	0.97317	0.083838
1.784	21.67	-20046	3480.8	-0.20681	0.9718	0.083253
1.786	21.66	-20045	3483.7	-0.20847	0.97044	0.082667
1.788	21.654	-20044	3486.7	-0.21013	0.96907	0.082082
1.79	21.654	-20044	3489.7	-0.21179	0.9677	0.081496
1.792	21.659	-20043	3492.9	-0.2113	0.96634	0.080715
1.794	21.683	-20045	3496.1	-0.21082	0.96497	0.079934
1.796	21.69	-20047	3499.4	-0.21033	0.9636	0.079154
1.798	21.698	-20045	3502.8	-0.20984	0.96224	0.078373
1.8	21.668	-20044	3506.2	-0.20935	0.96087	0.077592
1.802	21.628	-20041	3509.6	-0.20867	0.9596	0.07847
1.804	21.577	-20037	3513	-0.20799	0.95833	0.079349
1.806	21.573	-20038	3516.4	-0.2073	0.95707	0.080227
1.808	21.591	-20038	3519.7	-0.20662	0.9558	0.081106
1.81	21.602	-20039	3523.1	-0.20594	0.95453	0.081984
1.812	21.58	-20041	3526.4	-0.20584	0.95511	0.082472
1.814	21.571	-20042	3529.6	-0.20574	0.9557	0.08296
1.816	21.586	-20042	3532.8	-0.20564	0.95628	0.083448
1.818	21.596	-20045	3535.9	-0.20555	0.95687	0.083936
1.82	21.603	-20047	3539	-0.20545	0.95746	0.084424
1.822	21.614	-20050	3541.8	-0.20662	0.95765	0.083741
1.824	21.623	-20052	3544.6	-0.20779	0.95785	0.083058
1.826	21.605	-20052	3547.3	-0.20896	0.95804	0.082374
1.828	21.565	-20052	3549.9	-0.21013	0.95824	0.081691
1.83	21.542	-20052	3552.5	-0.2113	0.95843	0.081008
1.832	21.547	-20051	3554.7	-0.21306	0.95912	0.079739
1.834	21.537	-20051	3556.9	-0.21482	0.9598	0.07847
1.836	21.517	-20050	3559	-0.21657	0.96048	0.077202
1.838	21.513	-20045	3560.8	-0.21833	0.96116	0.075933
1.84	21.499	-20039	3562.6	-0.22009	0.96185	0.074664
1.842	21.508	-20040	3564.1	-0.21784	0.96302	0.073005
1.844	21.544	-20040	3565.5	-0.2156	0.96419	0.071346
1.846	21.531	-20040	3566.7	-0.21335	0.96536	0.069686
1.848	21.516	-20040	3567.7	-0.21111	0.96653	0.068027
1.85	21.549	-20042	3568.7	-0.20886	0.9677	0.066368
1.852	21.547	-20044	3569.3	-0.21043	0.96751	0.067539
1.854	21.515	-20044	3569.9	-0.21199	0.96731	0.06871
1.856	21.504	-20044	3570.3	-0.21355	0.96712	0.069882
1.858	21.542	-20044	3570.6	-0.21511	0.96692	0.071053
1.86	21.529	-20044	3570.8	-0.21667	0.96673	0.072224
1.862	21.54	-20045	3570.8	-0.2154	0.96731	0.070955
1.864	21.56	-20045	3570.8	-0.21413	0.9679	0.069686
1.866	21.561	-20046	3570.7	-0.21287	0.96848	0.068418
1.868	21.545	-20047	3570.4	-0.2116	0.96907	0.067149
1.87	21.526	-20045	3570.2	-0.21033	0.96966	0.06588
1.872	21.503	-20044	3569.7	-0.21082	0.97014	0.065978
1.874	21.497	-20044	3569.2	-0.2113	0.97063	0.066075
1.876	21.477	-20045	3568.6	-0.21179	0.97112	0.066173
1.878	21.495	-20041	3567.8	-0.21228	0.97161	0.06627
1.88	21.551	-20037	3567.1	-0.21277	0.9721	0.066368
1.882	21.581	-20036	3566.2	-0.21365	0.97171	0.066661
1.884	21.554	-20035	3565.3	-0.21452	0.97132	0.066954
1.886	21.533	-20036	3564.5	-0.2154	0.97092	0.067246
1.888	21.541	-20037	3563.6	-0.21628	0.97053	0.067539
1.89	21.567	-20037	3562.7	-0.21716	0.97014	0.067832
1.892	21.561	-20037	3561.8	-0.21628	0.97112	0.067442
1.894	21.577	-20038	3560.8	-0.2154	0.9721	0.067051
1.896	21.612	-20039	3559.8	-0.21452	0.97307	0.066661
1.898	21.586	-20034	3558.6	-0.21365	0.97405	0.06627
1.9	21.57	-20029	3557.4	-0.21277	0.97502	0.06588
1.902	21.551	-20035	3556.1	-0.2116	0.97502	0.064514
1.904	21.526	-20042	3554.7	-0.21043	0.97502	0.063147
1.906	21.536	-20041	3553.3	-0.20925	0.97502	0.061781
1.908	21.596	-20040	3551.9	-0.20808	0.97502	0.060414
1.91	21.625	-20036	3550.5	-0.20691	0.97502	0.059048
1.912	21.614	-20033	3548.9	-0.20984	0.97444	0.058658
1.914	21.615	-20032	3547.2	-0.21277	0.97385	0.058267
1.916	21.616	-20031	3545.6	-0.2157	0.97327	0.057877
1.918	21.601	-20030	3543.8	-0.21862	0.97268	0.057486
1.92	21.566	-20029	3542.1	-0.22155	0.9721	0.057096
1.922	21.538	-20036	3540.2	-0.22077	0.97132	0.056608
1.924	21.56	-20042	3538.3	-0.21999	0.97053	0.05612
1.926	21.585	-20038	3536.4	-0.21921	0.96975	0.055632
1.928	21.566	-20033	3534.5	-0.21843	0.96897	0.055144
1.93	21.547	-20033	3532.5	-0.21765	0.96819	0.054656
1.932	21.548	-20032	3530.6	-0.21784	0.96722	0.054949
1.934	21.559	-20040	3528.7	-0.21804	0.96624	0.055242
1.936	21.576	-20048	3526.8	-0.21823	0.96526	0.055534
1.938	21.624	-20046	3524.9	-0.21843	0.96429	0.055827
1.94	21.639	-20044	3523.1	-0.21862	0.96331	0.05612
1.942	21.561	-20043	3521.4	-0.21814	0.9638	0.057194
1.944	21.539	-20042	3519.8	-0.21765	0.96429	0.058267
1.946	21.519	-20041	3518.2	-0.21716	0.96478	0.059341
1.948	21.514	-20039	3516.7	-0.21667	0.96526	0.060414
1.95	21.543	-20030	3515.2	-0.21618	0.96575	0.061488
1.952	21.571	-20021	3513.9	-0.21696	0.96585	0.061781
1.954	21.563	-20029	3512.5	-0.21775	0.96595	0.062074
1.956	21.571	-20037	3511.3	-0.21853	0.96604	0.062366
1.958	21.587	-20037	3510.1	-0.21931	0.96614	0.062659
1.96	21.584	-20037	3509	-0.22009	0.96624	0.062952
1.962	21.588	-20037	3508	-0.2196	0.96595	0.063538
1.964	21.594	-20036	3507	-0.21911	0.96565	0.064123
1.966	21.596	-20031	3506	-0.21862	0.96536	0.064709
1.968	21.587	-20026	3505.1	-0.21814	0.96507	0.065294
1.97	21.581	-20028	3504.3	-0.21765	0.96478	0.06588
1.972	21.567	-20031	3503.4	-0.21706	0.96487	0.065002
1.974	21.546	-20031	3502.5	-0.21648	0.96497	0.064123
1.976	21.556	-20031	3501.6	-0.21589	0.96507	0.063245
1.978	21.587	-20034	3500.7	-0.21531	0.96517	0.062366
1.98	21.613	-20037	3499.8	-0.21472	0.96526	0.061488
1.982	21.626	-20035	3499.1	-0.21531	0.96546	0.061781
1.984	21.587	-20032	3498.4	-0.21589	0.96565	0.062074
1.986	21.56	-20026	3497.7	-0.21648	0.96585	0.062366
1.988	21.547	-20020	3497.1	-0.21706	0.96604	0.062659
1.99	21.532	-20018	3496.4	-0.21765	0.96624	0.062952
1.992	21.533	-20017	3495.9	-0.2195	0.96809	0.065197
1.994	21.548	-20021	3495.4	-0.22136	0.96995	0.067442
1.996	21.561	-20025	3494.9	-0.22321	0.9718	0.069686
1.998	21.573	-20027	3494.5	-0.22507	0.97366	0.071931
2	21.562	-20030	3494.1	-0.22692	0.97551	0.074176
2.002	21.546	-20030	3493.8	-0.22633	0.976	0.074664
2.004	21.558	-20031	3493.5	-0.22575	0.97649	0.075152
2.006	21.563	-20028	3493.2	-0.22516	0.97698	0.07564
2.008	21.557	-20025	3493	-0.22458	0.97746	0.076128
2.01	21.572	-20031	3492.8	-0.22399	0.97795	0.076616
2.012	21.592	-20037	3492.7	-0.22419	0.97854	0.076323
2.014	21.601	-20031	3492.6	-0.22438	0.97912	0.07603
2.016	21.584	-20024	3492.6	-0.22458	0.97971	0.075738
2.018	21.564	-20032	3492.6	-0.22477	0.98029	0.075445
2.02	21.576	-20040	3492.5	-0.22497	0.98088	0.075152
2.022	21.58	-20034	3492.6	-0.22311	0.97912	0.075835
2.024	21.566	-20027	3492.7	-0.22126	0.97737	0.076518
2.026	21.602	-20037	3492.8	-0.2194	0.97561	0.077202
2.028	21.59	-20047	3492.9	-0.21755	0.97385	0.077885
2.03	21.557	-20051	3492.9	-0.2157	0.9721	0.078568
2.032	21.55	-20055	3493	-0.21423	0.97229	0.078275
2.034	21.582	-20050	3493	-0.21277	0.97249	0.077982
2.036	21.577	-20044	3493.1	-0.2113	0.97268	0.07769
2.038	21.555	-20044	3493	-0.20984	0.97288	0.077397
2.04	21.596	-20043	3493	-0.20838	0.97307	0.077104
2.042	21.651	-20047	3492.9	-0.20906	0.97171	0.075933
2.044	21.628	-20050	3492.7	-0.20974	0.97034	0.074762
2.046	21.566	-20053	3492.6	-0.21043	0.96897	0.07359
2.048	21.552	-20056	3492.4	-0.21111	0.96761	0.072419
2.05	21.561	-20059	3492.2	-0.21179	0.96624	0.071248
2.052	21.53	-20061	3492	-0.21189	0.96702	0.072322
2.054	21.543	-20057	3491.8	-0.21199	0.9678	0.073395
2.056	21.562	-20054	3491.6	-0.21208	0.96858	0.074469
2.058	21.558	-20052	3491.3	-0.21218	0.96936	0.075542
2.06	21.566	-20049	3491.1	-0.21228	0.97014	0.076616
2.062	21.588	-20050	3490.8	-0.2115	0.97034	0.07564
2.064	21.571	-20052	3490.6	-0.21072	0.97053	0.074664
2.066	21.552	-20045	3490.3	-0.20994	0.97073	0.073688
2.068	21.566	-20039	3490.2	-0.20916	0.97092	0.072712
2.07	21.558	-20031	3490	-0.20838	0.97112	0.071736
2.072	21.53	-20023	3489.8	-0.20886	0.97024	0.072322
2.074	21.503	-20027	3489.6	-0.20935	0.96936	0.072907
2.076	21.491	-20032	3489.4	-0.20984	0.96848	0.073493
2.078	21.499	-20033	3489.2	-0.21033	0.96761	0.074078
2.08	21.496	-20034	3489	-0.21082	0.96673	0.074664
2.082	21.497	-20034	3488.7	-0.21062	0.96683	0.073883
2.084	21.501	-20034	3488.4	-0.21043	0.96692	0.073102
2.086	21.492	-20035	3488.2	-0.21023	0.96702	0.072322
2.088	21.489	-20036	3488	-0.21004	0.96712	0.071541
2.09	21.504	-20035	3487.8	-0.20984	0.96722	0.07076
2.092	21.505	-20034	3487.5	-0.20935	0.968	0.070955
2.094	21.482	-20035	3487.2	-0.20886	0.96878	0.07115
2.096	21.459	-20036	3486.9	-0.20838	0.96956	0.071346
2.098	21.455	-20037	3486.6	-0.20789	0.97034	0.071541
2.1	21.477	-20037	3486.3	-0.2074	0.97112	0.071736
2.102	21.495	-20032	3486	-0.20681	0.97161	0.071834
2.104	21.486	-20028	3485.6	-0.20623	0.9721	0.071931
2.106	21.469	-20030	3485.3	-0.20564	0.97258	0.072029
2.108	21.447	-20031	3484.9	-0.20506	0.97307	0.072126
2.11	21.457	-20033	3484.5	-0.20447	0.97356	0.072224
2.112	21.501	-20034	3484	-0.20447	0.97268	0.072419
2.114	21.556	-20035	3483.5	-0.20447	0.9718	0.072614
2.116	21.5	-20036	3483	-0.20447	0.97092	0.07281
2.118	21.501	-20033	3482.5	-0.20447	0.97005	0.073005
2.12	21.506	-20029	3482.1	-0.20447	0.96917	0.0732
2.122	21.502	-20034	3481.6	-0.20545	0.96985	0.073102
2.124	21.527	-20038	3481.2	-0.20642	0.97053	0.073005
2.126	21.538	-20040	3480.7	-0.2074	0.97122	0.072907
2.128	21.551	-20042	3480.3	-0.20838	0.9719	0.07281
2.13	21.603	-20039	3479.8	-0.20935	0.97258	0.072712
2.132	21.629	-20035	3479.4	-0.20896	0.97297	0.072419
2.134	21.616	-20033	3479	-0.20857	0.97336	0.072126
2.136	21.592	-20031	3478.6	-0.20818	0.97376	0.071834
2.138	21.601	-20030	3478.2	-0.20779	0.97415	0.071541
2.14	21.63	-20029	3477.8	-0.2074	0.97454	0.071248
2.142	21.633	-20030	3477.4	-0.20711	0.97463	0.071248
2.144	21.617	-20031	3476.9	-0.20681	0.97473	0.071248
2.146	21.611	-20031	3476.5	-0.20652	0.97483	0.071248
2.148	21.607	-20031	3476.2	-0.20623	0.97493	0.071248
2.15	21.598	-20030	3475.8	-0.20594	0.97502	0.071248
2.152	21.557	-20029	3475.4	-0.20574	0.97473	0.071541
2.154	21.536	-20037	3475	-0.20555	0.97444	0.071834
2.156	21.554	-20045	3474.6	-0.20535	0.97415	0.072126
2.158	21.574	-20043	3474.2	-0.20516	0.97385	0.072419
2.16	21.585	-20041	3473.7	-0.20496	0.97356	0.072712
2.162	21.605	-20044	3473.4	-0.20525	0.97454	0.072419
2.164	21.615	-20046	3473	-0.20555	0.97551	0.072126
2.166	21.6	-20038	3472.6	-0.20584	0.97649	0.071834
2.168	21.594	-20030	3472.3	-0.20613	0.97746	0.071541
2.17	21.58	-20032	3472	-0.20642	0.97844	0.071248
2.172	21.534	-20034	3471.5	-0.20447	0.97727	0.070955
2.174	21.563	-20038	3471.1	-0.20252	0.9761	0.070662
2.176	21.67	-20042	3470.6	-0.20057	0.97493	0.07037
2.178	21.69	-20037	3470.2	-0.19862	0.97376	0.070077
2.18	21.633	-20032	3469.8	-0.19666	0.97258	0.069784
2.182	21.588	-20033	3469.4	-0.19715	0.97151	0.070467
2.184	21.569	-20034	3469	-0.19764	0.97044	0.07115
2.186	21.609	-20033	3468.6	-0.19813	0.96936	0.071834
2.188	21.628	-20032	3468.3	-0.19862	0.96829	0.072517
2.19	21.565	-20035	3467.9	-0.1991	0.96722	0.0732
2.192	21.546	-20039	3467.6	-0.1991	0.96644	0.072614
2.194	21.598	-20039	3467.3	-0.1991	0.96565	0.072029
2.196	21.635	-20039	3467	-0.1991	0.96487	0.071443
2.198	21.594	-20035	3466.8	-0.1991	0.96409	0.070858
2.2	21.614	-20031	3466.6	-0.1991	0.96331	0.070272
2.202	21.644	-20036	3466.4	-0.19871	0.9636	0.070565
2.204	21.581	-20041	3466.2	-0.19832	0.9639	0.070858
2.206	21.592	-20040	3466	-0.19793	0.96419	0.07115
2.208	21.6	-20039	3465.9	-0.19754	0.96448	0.071443
2.21	21.602	-20036	3465.7	-0.19715	0.96478	0.071736
2.212	21.594	-20034	3465.6	-0.19647	0.96526	0.07076
2.214	21.567	-20033	3465.4	-0.19579	0.96575	0.069784
2.216	21.557	-20032	3465.3	-0.1951	0.96624	0.068808
2.218	21.578	-20033	3465.1	-0.19442	0.96673	0.067832
2.22	21.6	-20033	3464.9	-0.19374	0.96722	0.066856
2.222	21.582	-20035	3464.7	-0.1954	0.96692	0.067734
2.224	21.544	-20038	3464.5	-0.19705	0.96663	0.068613
2.226	21.542	-20038	3464.3	-0.19871	0.96634	0.069491
2.228	21.527	-20039	3464.1	-0.20037	0.96604	0.07037
2.23	21.522	-20039	3463.9	-0.20203	0.96575	0.071248
2.232	21.524	-20039	3463.7	-0.20057	0.96692	0.071053
2.234	21.518	-20038	3463.6	-0.1991	0.96809	0.070858
2.236	21.509	-20036	3463.4	-0.19764	0.96927	0.070662
2.238	21.501	-20036	3463.1	-0.19618	0.97044	0.070467
2.24	21.474	-20036	3462.9	-0.19471	0.97161	0.070272
2.242	21.461	-20041	3462.6	-0.19608	0.97083	0.069979
2.244	21.434	-20046	3462.3	-0.19744	0.97005	0.069686
2.246	21.404	-20041	3462	-0.19881	0.96927	0.069394
2.248	21.388	-20036	3461.9	-0.20018	0.96848	0.069101
2.25	21.353	-20035	3461.7	-0.20154	0.9677	0.068808
2.252	21.301	-20033	3461.4	-0.20291	0.96946	0.069686
2.254	21.247	-20035	3461.1	-0.20428	0.97122	0.070565
2.256	21.197	-20036	3460.9	-0.20564	0.97297	0.071443
2.258	21.137	-20036	3460.6	-0.20701	0.97473	0.072322
2.26	21.063	-20036	3460.4	-0.20838	0.97649	0.0732
2.262	20.993	-20036	3460.2	-0.20799	0.9758	0.073102
2.264	20.949	-20036	3459.9	-0.2076	0.97512	0.073005
2.266	20.936	-20031	3459.8	-0.2072	0.97444	0.072907
2.268	20.93	-20026	3459.7	-0.20681	0.97376	0.07281
2.27	20.93	-20026	3459.6	-0.20642	0.97307	0.072712
2.272	20.944	-20025	3459.5	-0.2075	0.97297	0.073981
2.274	20.946	-20028	3459.3	-0.20857	0.97288	0.07525
2.276	20.932	-20031	3459.2	-0.20964	0.97278	0.076518
2.278	20.921	-20036	3459.2	-0.21072	0.97268	0.077787
2.28	20.943	-20040	3459.1	-0.21179	0.97258	0.079056
2.282	20.979	-20038	3459	-0.21091	0.97239	0.078178
2.284	20.936	-20037	3458.9	-0.21004	0.97219	0.077299
2.286	20.871	-20036	3458.8	-0.20916	0.972	0.076421
2.288	20.838	-20035	3458.8	-0.20828	0.9718	0.075542
2.29	20.829	-20029	3458.7	-0.2074	0.97161	0.074664
2.292	20.837	-20024	3458.6	-0.20681	0.972	0.073786
2.294	20.761	-20025	3458.5	-0.20623	0.97239	0.072907
2.296	20.766	-20025	3458.4	-0.20564	0.97278	0.072029
2.298	20.79	-20027	3458.4	-0.20506	0.97317	0.07115
2.3	20.838	-20029	3458.3	-0.20447	0.97356	0.070272
2.302	20.835	-20029	3458.1	-0.20389	0.97307	0.069198
2.304	20.839	-20028	3458	-0.2033	0.97258	0.068125
2.306	20.88	-20030	3457.8	-0.20272	0.9721	0.067051
2.308	20.931	-20031	3457.5	-0.20213	0.97161	0.065978
2.31	21.001	-20032	3457.3	-0.20154	0.97112	0.064904
2.312	21.07	-20033	3457	-0.20203	0.97122	0.066173
2.314	21.127	-20036	3456.7	-0.20252	0.97132	0.067442
2.316	21.192	-20039	3456.4	-0.20301	0.97141	0.06871
2.318	21.3	-20041	3456.1	-0.2035	0.97151	0.069979
2.32	21.349	-20043	3455.7	-0.20398	0.97161	0.071248
2.322	21.374	-20040	3455.5	-0.20525	0.9721	0.071736
2.324	21.41	-20037	3455.3	-0.20652	0.97258	0.072224
2.326	21.454	-20035	3455	-0.20779	0.97307	0.072712
2.328	21.498	-20032	3454.8	-0.20906	0.97356	0.0732
2.33	21.529	-20032	3454.5	-0.21033	0.97405	0.073688
2.332	21.565	-20032	3454.3	-0.21082	0.97307	0.074078
2.334	21.589	-20031	3454.1	-0.2113	0.9721	0.074469
2.336	21.57	-20030	3453.9	-0.21179	0.97112	0.074859
2.338	21.552	-20032	3453.7	-0.21228	0.97014	0.07525
2.34	21.565	-20034	3453.5	-0.21277	0.96917	0.07564
2.342	21.582	-20034	3453.4	-0.21218	0.96985	0.075054
2.344	21.589	-20035	3453.2	-0.2116	0.97053	0.074469
2.346	21.603	-20034	3453	-0.21101	0.97122	0.073883
2.348	21.646	-20034	3452.8	-0.21043	0.9719	0.073298
2.35	21.67	-20032	3452.5	-0.20984	0.97258	0.072712
2.352	21.634	-20030	3452.3	-0.21004	0.97083	0.071931
2.354	21.602	-20029	3452.1	-0.21023	0.96907	0.07115
2.356	21.598	-20028	3451.9	-0.21043	0.96731	0.07037
2.358	21.613	-20031	3451.6	-0.21062	0.96556	0.069589
2.36	21.631	-20033	3451.4	-0.21082	0.9638	0.068808
2.362	21.631	-20037	3451.2	-0.21121	0.9639	0.06871
2.364	21.612	-20042	3451	-0.2116	0.964	0.068613
2.366	21.624	-20044	3450.9	-0.21199	0.96409	0.068515
2.368	21.631	-20046	3450.7	-0.21238	0.96419	0.068418
2.37	21.617	-20040	3450.5	-0.21277	0.96429	0.06832
2.372	21.615	-20034	3450.3	-0.21257	0.96448	0.068515
2.374	21.611	-20034	3450.2	-0.21238	0.96468	0.06871
2.376	21.615	-20034	3450	-0.21218	0.96487	0.068906
2.378	21.594	-20035	3449.8	-0.21199	0.96507	0.069101
2.38	21.601	-20036	3449.6	-0.21179	0.96526	0.069296
2.382	21.655	-20035	3449.3	-0.2114	0.96565	0.069686
2.384	21.622	-20035	3449	-0.21101	0.96604	0.070077
2.386	21.589	-20039	3448.8	-0.21062	0.96644	0.070467
2.388	21.542	-20043	3448.6	-0.21023	0.96683	0.070858
2.39	21.548	-20037	3448.3	-0.20984	0.96722	0.071248
2.392	21.621	-20032	3448.2	-0.20925	0.96702	0.07037
2.394	21.649	-20030	3448	-0.20867	0.96683	0.069491
2.396	21.624	-20027	3447.9	-0.20808	0.96663	0.068613
2.398	21.63	-20027	3447.8	-0.2075	0.96644	0.067734
2.4	21.605	-20026	3447.7	-0.20691	0.96624	0.066856
2.402	21.584	-20030	3447.5	-0.20789	0.96556	0.067734
2.404	21.573	-20034	3447.3	-0.20886	0.96487	0.068613
2.406	21.616	-20038	3447.1	-0.20984	0.96419	0.069491
2.408	21.654	-20042	3447	-0.21082	0.96351	0.07037
2.41	21.631	-20042	3446.8	-0.21179	0.96282	0.071248
2.412	21.611	-20042	3446.7	-0.2116	0.96321	0.071053
2.414	21.604	-20034	3446.5	-0.2114	0.9636	0.070858
2.416	21.589	-20026	3446.3	-0.21121	0.964	0.070662
2.418	21.582	-20029	3446.1	-0.21101	0.96439	0.070467
2.42	21.582	-20032	3445.9	-0.21082	0.96478	0.070272
2.422	21.582	-20036	3445.7	-0.21033	0.96497	0.069491
2.424	21.58	-20041	3445.6	-0.20984	0.96517	0.06871
2.426	21.563	-20041	3445.4	-0.20935	0.96536	0.06793
2.428	21.541	-20041	3445.2	-0.20886	0.96556	0.067149
2.43	21.534	-20040	3445	-0.20838	0.96575	0.066368
2.432	21.559	-20038	3444.9	-0.20789	0.96585	0.066368
2.434	21.586	-20041	3444.7	-0.2074	0.96595	0.066368
2.436	21.574	-20043	3444.6	-0.20691	0.96604	0.066368
2.438	21.573	-20037	3444.6	-0.20642	0.96614	0.066368
2.44	21.599	-20030	3444.6	-0.20594	0.96624	0.066368
2.442	21.599	-20034	3444.7	-0.20603	0.96663	0.066563
2.444	21.589	-20038	3444.8	-0.20613	0.96702	0.066758
2.446	21.594	-20036	3445	-0.20623	0.96741	0.066954
2.448	21.593	-20034	3445.4	-0.20633	0.9678	0.067149
2.45	21.593	-20037	3445.8	-0.20642	0.96819	0.067344
2.452	21.6	-20039	3446.5	-0.20808	0.9679	0.068027
2.454	21.613	-20039	3447.2	-0.20974	0.96761	0.06871
2.456	21.608	-20039	3448.2	-0.2114	0.96731	0.069394
2.458	21.596	-20036	3449.5	-0.21306	0.96702	0.070077
2.46	21.597	-20033	3450.8	-0.21472	0.96673	0.07076
2.462	21.603	-20033	3452.1	-0.21423	0.96673	0.070272
2.464	21.631	-20033	3453.3	-0.21374	0.96673	0.069784
2.466	21.652	-20034	3454.9	-0.21326	0.96673	0.069296
2.468	21.64	-20034	3456.7	-0.21277	0.96673	0.068808
2.47	21.615	-20035	3458.5	-0.21228	0.96673	0.06832
2.472	21.593	-20036	3460.7	-0.21257	0.96614	0.068125
2.474	21.571	-20035	3462.9	-0.21287	0.96556	0.06793
2.476	21.576	-20034	3465.3	-0.21316	0.96497	0.067734
2.478	21.588	-20034	3467.8	-0.21345	0.96439	0.067539
2.48	21.603	-20034	3470.3	-0.21374	0.9638	0.067344
2.482	21.624	-20034	3473.1	-0.21345	0.9637	0.067832
2.484	21.61	-20034	3475.8	-0.21316	0.9636	0.06832
2.486	21.634	-20031	3478.7	-0.21287	0.96351	0.068808
2.488	21.653	-20027	3481.7	-0.21257	0.96341	0.069296
2.49	21.611	-20031	3484.7	-0.21228	0.96331	0.069784
2.492	21.604	-20035	3487.8	-0.21365	0.96292	0.07037
2.494	21.589	-20032	3491	-0.21501	0.96253	0.070955
2.496	21.566	-20029	3494.2	-0.21638	0.96214	0.071541
2.498	21.589	-20031	3497.4	-0.21775	0.96175	0.072126
2.5	21.57	-20033	3500.7	-0.21911	0.96136	0.072712
2.502	21.557	-20034	3503.9	-0.2196	0.96214	0.072907
2.504	21.626	-20036	3507.2	-0.22009	0.96292	0.073102
2.506	21.678	-20037	3510.4	-0.22058	0.9637	0.073298
2.508	21.654	-20039	3513.6	-0.22106	0.96448	0.073493
2.51	21.619	-20035	3516.8	-0.22155	0.96526	0.073688
2.512	21.593	-20031	3519.9	-0.22116	0.964	0.074371
2.514	21.562	-20033	3523.1	-0.22077	0.96273	0.075054
2.516	21.545	-20035	3526.2	-0.22038	0.96146	0.075738
2.518	21.535	-20031	3529.1	-0.21999	0.96019	0.076421
2.52	21.507	-20026	3532.1	-0.2196	0.95892	0.077104
2.522	21.474	-20027	3534.7	-0.21892	0.95931	0.075347
2.524	21.464	-20028	3537.3	-0.21823	0.9597	0.07359
2.526	21.489	-20032	3539.8	-0.21755	0.96009	0.071834
2.528	21.504	-20036	3542.1	-0.21687	0.96048	0.070077
2.53	21.473	-20034	3544.4	-0.21618	0.96087	0.06832
2.532	21.471	-20031	3546.4	-0.21648	0.96058	0.068808
2.534	21.494	-20032	3548.3	-0.21677	0.96029	0.069296
2.536	21.45	-20033	3550.1	-0.21706	0.95999	0.069784
2.538	21.436	-20033	3551.7	-0.21736	0.9597	0.070272
2.54	21.474	-20033	3553.2	-0.21765	0.95941	0.07076
2.542	21.535	-20031	3554.5	-0.21667	0.96009	0.069491
2.544	21.562	-20028	3555.7	-0.2157	0.96077	0.068222
2.546	21.546	-20032	3556.7	-0.21472	0.96146	0.066954
2.548	21.548	-20036	3557.5	-0.21374	0.96214	0.065685
2.55	21.541	-20035	3558.4	-0.21277	0.96282	0.064416
2.552	21.504	-20035	3558.8	-0.21404	0.9637	0.063928
2.554	21.477	-20034	3559.2	-0.21531	0.96458	0.06344
2.556	21.459	-20034	3559.4	-0.21657	0.96546	0.062952
2.558	21.462	-20029	3559.5	-0.21784	0.96634	0.062464
2.56	21.483	-20024	3559.5	-0.21911	0.96722	0.061976
2.562	21.49	-20027	3559.2	-0.21853	0.96663	0.062269
2.564	21.486	-20030	3559	-0.21794	0.96604	0.062562
2.566	21.504	-20027	3558.5	-0.21736	0.96546	0.062854
2.568	21.497	-20024	3558	-0.21677	0.96487	0.063147
2.57	21.482	-20028	3557.5	-0.21618	0.96429	0.06344
2.572	21.504	-20032	3556.7	-0.21618	0.96487	0.064416
2.574	21.545	-20028	3555.9	-0.21618	0.96546	0.065392
2.576	21.545	-20023	3555	-0.21618	0.96604	0.066368
2.578	21.539	-20022	3554	-0.21618	0.96663	0.067344
2.58	21.543	-20021	3553	-0.21618	0.96722	0.06832
2.582	21.539	-20025	3551.9	-0.21765	0.96897	0.069394
2.584	21.527	-20029	3550.7	-0.21911	0.97073	0.070467
2.586	21.567	-20023	3549.5	-0.22058	0.97249	0.071541
2.588	21.583	-20017	3548.2	-0.22204	0.97424	0.072614
2.59	21.562	-20022	3546.9	-0.2235	0.976	0.073688
2.592	21.53	-20027	3545.5	-0.21989	0.9759	0.072907
2.594	21.497	-20028	3544	-0.21628	0.9758	0.072126
2.596	21.493	-20028	3542.5	-0.21267	0.97571	0.071346
2.598	21.511	-20030	3540.9	-0.20906	0.97561	0.070565
2.6	21.531	-20032	3539.4	-0.20545	0.97551	0.069784
2.602	21.559	-20027	3537.7	-0.2075	0.9761	0.067832
2.604	21.591	-20022	3536.1	-0.20955	0.97668	0.06588
2.606	21.602	-20025	3534.4	-0.2116	0.97727	0.063928
2.608	21.592	-20029	3532.6	-0.21365	0.97785	0.061976
2.61	21.586	-20026	3530.8	-0.2157	0.97844	0.060024
2.612	21.578	-20024	3528.8	-0.21501	0.97854	0.060219
2.614	21.567	-20027	3526.8	-0.21433	0.97864	0.060414
2.616	21.553	-20030	3524.8	-0.21365	0.97873	0.06061
2.618	21.547	-20028	3522.8	-0.21296	0.97883	0.060805
2.62	21.551	-20025	3520.8	-0.21228	0.97893	0.061
2.622	21.555	-20023	3518.9	-0.21111	0.97854	0.061683
2.624	21.553	-20020	3516.9	-0.20994	0.97815	0.062366
2.626	21.553	-20020	3515	-0.20877	0.97776	0.06305
2.628	21.567	-20021	3513	-0.2076	0.97737	0.063733
2.63	21.578	-20022	3511.1	-0.20642	0.97698	0.064416
2.632	21.561	-20024	3509.4	-0.20633	0.97551	0.066173
2.634	21.512	-20024	3507.6	-0.20623	0.97405	0.06793
2.636	21.524	-20023	3505.9	-0.20613	0.97258	0.069686
2.638	21.548	-20021	3504.3	-0.20603	0.97112	0.071443
2.64	21.532	-20019	3502.7	-0.20594	0.96966	0.0732
2.642	21.543	-20020	3501.2	-0.20681	0.96956	0.073688
2.644	21.544	-20021	3499.8	-0.20769	0.96946	0.074176
2.646	21.527	-20025	3498.4	-0.20857	0.96936	0.074664
2.648	21.537	-20028	3497	-0.20945	0.96927	0.075152
2.65	21.52	-20026	3495.7	-0.21033	0.96917	0.07564
2.652	21.522	-20023	3494.6	-0.21043	0.96809	0.074371
2.654	21.528	-20016	3493.4	-0.21052	0.96702	0.073102
2.656	21.539	-20008	3492.3	-0.21062	0.96595	0.071834
2.658	21.537	-20016	3491.2	-0.21072	0.96487	0.070565
2.66	21.529	-20024	3490.2	-0.21082	0.9638	0.069296
2.662	21.568	-20021	3489.3	-0.21169	0.96331	0.069784
2.664	21.623	-20019	3488.4	-0.21257	0.96282	0.070272
2.666	21.609	-20024	3487.5	-0.21345	0.96234	0.07076
2.668	21.564	-20030	3486.8	-0.21433	0.96185	0.071248
2.67	21.526	-20027	3486.1	-0.21521	0.96136	0.071736
2.672	21.514	-20023	3485.6	-0.21492	0.96136	0.072419
2.674	21.516	-20024	3485.1	-0.21462	0.96136	0.073102
2.676	21.523	-20024	3484.6	-0.21433	0.96136	0.073786
2.678	21.523	-20021	3484.2	-0.21404	0.96136	0.074469
2.68	21.524	-20018	3483.8	-0.21374	0.96136	0.075152
2.682	21.535	-20019	3483.5	-0.21208	0.96292	0.075152
2.684	21.535	-20019	3483.2	-0.21043	0.96448	0.075152
2.686	21.52	-20019	3483	-0.20877	0.96604	0.075152
2.688	21.508	-20019	3482.8	-0.20711	0.96761	0.075152
2.69	21.535	-20020	3482.6	-0.20545	0.96917	0.075152
2.692	21.592	-20021	3482.7	-0.20662	0.96907	0.07769
2.694	21.594	-20020	3482.9	-0.20779	0.96897	0.080227
2.696	21.576	-20020	3483	-0.20896	0.96888	0.082765
2.698	21.578	-20019	3483.1	-0.21013	0.96878	0.085302
2.7	21.553	-20018	3483.3	-0.2113	0.96868	0.08784
2.702	21.553	-20022	3483.3	-0.20955	0.96878	0.086571
2.704	21.56	-20025	3483.4	-0.20779	0.96888	0.085302
2.706	21.553	-20027	3483.4	-0.20603	0.96897	0.084034
2.708	21.575	-20029	3483.4	-0.20428	0.96907	0.082765
2.71	21.597	-20028	3483.3	-0.20252	0.96917	0.081496
2.712	21.593	-20026	3483.3	-0.20135	0.96956	0.081789
2.714	21.557	-20029	3483.2	-0.20018	0.96995	0.082082
2.716	21.539	-20031	3483.2	-0.19901	0.97034	0.082374
2.718	21.551	-20029	3483.2	-0.19784	0.97073	0.082667
2.72	21.529	-20027	3483.2	-0.19666	0.97112	0.08296
2.722	21.512	-20028	3483.3	-0.19696	0.96975	0.081984
2.724	21.524	-20029	3483.5	-0.19725	0.96839	0.081008
2.726	21.502	-20029	3483.6	-0.19754	0.96702	0.080032
2.728	21.488	-20030	3483.8	-0.19784	0.96565	0.079056
2.73	21.509	-20021	3484	-0.19813	0.96429	0.07808
2.732	21.523	-20011	3484.1	-0.19813	0.96604	0.079446
2.734	21.508	-20018	3484.3	-0.19813	0.9678	0.080813
2.736	21.508	-20024	3484.5	-0.19813	0.96956	0.082179
2.738	21.509	-20030	3484.7	-0.19813	0.97132	0.083546
2.74	21.516	-20035	3484.9	-0.19813	0.97307	0.084912
2.742	21.515	-20031	3485.1	-0.19832	0.97219	0.084424
2.744	21.495	-20026	3485.2	-0.19852	0.97132	0.083936
2.746	21.471	-20025	3485.4	-0.19871	0.97044	0.083448
2.748	21.488	-20023	3485.5	-0.19891	0.96956	0.08296
2.75	21.569	-20021	3485.6	-0.1991	0.96868	0.082472
2.752	21.598	-20018	3485.7	-0.19891	0.96936	0.082277
2.754	21.54	-20020	3485.7	-0.19871	0.97005	0.082082
2.756	21.478	-20022	3485.8	-0.19852	0.97073	0.081886
2.758	21.453	-20021	3486	-0.19832	0.97141	0.081691
2.76	21.433	-20019	3486.1	-0.19813	0.9721	0.081496
2.762	21.413	-20021	3486.1	-0.19871	0.97317	0.080227
2.764	21.421	-20022	3486.2	-0.1993	0.97424	0.078958
2.766	21.429	-20021	3486.2	-0.19988	0.97532	0.07769
2.768	21.429	-20019	3486.2	-0.20047	0.97639	0.076421
2.77	21.442	-20020	3486.2	-0.20106	0.97746	0.075152
2.772	21.462	-20022	3486.2	-0.20223	0.97737	0.075347
2.774	21.472	-20026	3486.3	-0.2034	0.97727	0.075542
2.776	21.468	-20031	3486.3	-0.20457	0.97717	0.075738
2.778	21.468	-20032	3486.3	-0.20574	0.97707	0.075933
2.78	21.462	-20033	3486.4	-0.20691	0.97698	0.076128
2.782	21.447	-20019	3486.4	-0.20594	0.97668	0.076909
2.784	21.45	-20005	3486.5	-0.20496	0.97639	0.07769
2.786	21.461	-20010	3486.5	-0.20398	0.9761	0.07847
2.788	21.445	-20015	3486.5	-0.20301	0.9758	0.079251
2.79	21.483	-20023	3486.5	-0.20203	0.97551	0.080032
2.792	21.507	-20030	3486.4	-0.20076	0.97502	0.079642
2.794	21.474	-20026	3486.3	-0.19949	0.97454	0.079251
2.796	21.426	-20021	3486.2	-0.19823	0.97405	0.078861
2.798	21.418	-20021	3486	-0.19696	0.97356	0.07847
2.8	21.459	-20021	3485.9	-0.19569	0.97307	0.07808
2.802	21.467	-20020	3485.8	-0.19705	0.97161	0.077787
2.804	21.46	-20019	3485.6	-0.19842	0.97014	0.077494
2.806	21.478	-20023	3485.5	-0.19979	0.96868	0.077202
2.808	21.461	-20027	3485.4	-0.20115	0.96722	0.076909
2.81	21.45	-20028	3485.3	-0.20252	0.96575	0.076616
2.812	21.482	-20029	3485.1	-0.20311	0.96595	0.075835
2.814	21.498	-20026	3484.9	-0.20369	0.96614	0.075054
2.816	21.546	-20022	3484.7	-0.20428	0.96634	0.074274
2.818	21.548	-20022	3484.5	-0.20486	0.96653	0.073493
2.82	21.585	-20022	3484.3	-0.20545	0.96673	0.072712
2.822	21.593	-20020	3484	-0.20496	0.96556	0.073102
2.824	21.579	-20019	3483.7	-0.20447	0.96439	0.073493
2.826	21.589	-20018	3483.4	-0.20398	0.96321	0.073883
2.828	21.604	-20017	3483.2	-0.2035	0.96204	0.074274
2.83	21.575	-20021	3482.9	-0.20301	0.96087	0.074664
2.832	21.583	-20026	3482.6	-0.20408	0.96156	0.075054
2.834	21.579	-20027	3482.3	-0.20516	0.96224	0.075445
2.836	21.578	-20028	3482.1	-0.20623	0.96292	0.075835
2.838	21.573	-20028	3481.9	-0.2073	0.9636	0.076226
2.84	21.54	-20028	3481.7	-0.20838	0.96429	0.076616
2.842	21.512	-20026	3481.5	-0.2076	0.96409	0.076323
2.844	21.52	-20025	3481.2	-0.20681	0.9639	0.07603
2.846	21.528	-20023	3481	-0.20603	0.9637	0.075738
2.848	21.544	-20022	3480.8	-0.20525	0.96351	0.075445
2.85	21.566	-20020	3480.5	-0.20447	0.96331	0.075152
2.852	21.58	-20018	3480.2	-0.20398	0.96331	0.074371
2.854	21.586	-20021	3479.9	-0.2035	0.96331	0.07359
2.856	21.593	-20024	3479.5	-0.20301	0.96331	0.07281
2.858	21.597	-20028	3479.1	-0.20252	0.96331	0.072029
2.86	21.587	-20033	3478.8	-0.20203	0.96331	0.071248
2.862	21.58	-20035	3478.4	-0.20457	0.96312	0.072322
2.864	21.584	-20036	3478	-0.20711	0.96292	0.073395
2.866	21.563	-20033	3477.6	-0.20964	0.96273	0.074469
2.868	21.522	-20031	3477.4	-0.21218	0.96253	0.075542
2.87	21.512	-20031	3477.1	-0.21472	0.96234	0.076616
2.872	21.527	-20031	3476.8	-0.21384	0.96156	0.077299
2.874	21.543	-20031	3476.5	-0.21296	0.96077	0.077982
2.876	21.54	-20031	3476.2	-0.21208	0.95999	0.078666
2.878	21.573	-20032	3475.9	-0.21121	0.95921	0.079349
2.88	21.58	-20032	3475.5	-0.21033	0.95843	0.080032
2.882	21.557	-20033	3475.2	-0.21043	0.96019	0.079544
2.884	21.556	-20033	3474.9	-0.21052	0.96195	0.079056
2.886	21.54	-20034	3474.6	-0.21062	0.9637	0.078568
2.888	21.518	-20034	3474.3	-0.21072	0.96546	0.07808
2.89	21.517	-20034	3474.1	-0.21082	0.96722	0.077592
2.892	21.545	-20034	3473.8	-0.21179	0.96644	0.07769
2.894	21.575	-20032	3473.5	-0.21277	0.96565	0.077787
2.896	21.574	-20029	3473.2	-0.21374	0.96487	0.077885
2.898	21.57	-20028	3472.9	-0.21472	0.96409	0.077982
2.9	21.536	-20026	3472.7	-0.2157	0.96331	0.07808
2.902	21.57	-20024	3472.4	-0.21589	0.96302	0.078275
2.904	21.523	-20021	3472.2	-0.21609	0.96273	0.07847
2.906	21.531	-20021	3471.9	-0.21628	0.96243	0.078666
2.908	21.56	-20021	3471.7	-0.21648	0.96214	0.078861
2.91	21.53	-20020	3471.4	-0.21667	0.96185	0.079056
2.912	21.499	-20020	3471.2	-0.21648	0.96253	0.079056
2.914	21.467	-20017	3470.9	-0.21628	0.96321	0.079056
2.916	21.452	-20015	3470.8	-0.21609	0.9639	0.079056
2.918	21.452	-20017	3470.7	-0.21589	0.96458	0.079056
2.92	21.46	-20019	3470.6	-0.2157	0.96526	0.079056
2.922	21.451	-20021	3470.4	-0.2157	0.96585	0.079934
2.924	21.419	-20022	3470.3	-0.2157	0.96644	0.080813
2.926	21.363	-20023	3470	-0.2157	0.96702	0.081691
2.928	21.337	-20023	3469.8	-0.2157	0.96761	0.08257
2.93	21.329	-20019	3469.6	-0.2157	0.96819	0.083448
2.932	21.318	-20016	3469.2	-0.21521	0.96848	0.083155
2.934	21.287	-20022	3468.9	-0.21472	0.96878	0.082862
2.936	21.236	-20028	3468.5	-0.21423	0.96907	0.08257
2.938	21.169	-20024	3468.1	-0.21374	0.96936	0.082277
2.94	21.105	-20020	3467.8	-0.21326	0.96966	0.081984
2.942	21.078	-20020	3467.3	-0.21374	0.96966	0.082179
2.944	21.043	-20019	3466.8	-0.21423	0.96966	0.082374
2.946	20.993	-20024	3466.2	-0.21472	0.96966	0.08257
2.948	21.009	-20029	3465.7	-0.21521	0.96966	0.082765
2.95	21.026	-20027	3465.1	-0.2157	0.96966	0.08296
2.952	20.963	-20024	3464.6	-0.21609	0.97063	0.083058
2.954	20.905	-20026	3464	-0.21648	0.97161	0.083155
2.956	20.921	-20027	3463.5	-0.21687	0.97258	0.083253
2.958	20.938	-20029	3463	-0.21726	0.97356	0.08335
2.96	20.91	-20032	3462.5	-0.21765	0.97454	0.083448
2.962	20.931	-20031	3462	-0.21911	0.97454	0.083936
2.964	20.914	-20029	3461.6	-0.22058	0.97454	0.084424
2.966	20.888	-20034	3461.1	-0.22204	0.97454	0.084912
2.968	20.881	-20039	3460.7	-0.2235	0.97454	0.0854
2.97	20.853	-20036	3460.3	-0.22497	0.97454	0.085888
2.972	20.798	-20032	3459.9	-0.22477	0.97356	0.086083
2.974	20.757	-20035	3459.5	-0.22458	0.97258	0.086278
2.976	20.764	-20037	3459.1	-0.22438	0.97161	0.086474
2.978	20.786	-20033	3458.7	-0.22419	0.97063	0.086669
2.98	20.811	-20028	3458.3	-0.22399	0.96966	0.086864
2.982	20.874	-20024	3458	-0.22321	0.96927	0.086474
2.984	20.874	-20021	3457.7	-0.22243	0.96888	0.086083
2.986	20.798	-20025	3457.4	-0.22165	0.96848	0.085693
2.988	20.812	-20030	3457.1	-0.22087	0.96809	0.085302
2.99	20.839	-20028	3456.9	-0.22009	0.9677	0.084912
2.992	20.872	-20027	3456.6	-0.2198	0.96575	0.084717
2.994	20.925	-20030	3456.3	-0.2195	0.9638	0.084522
2.996	21.017	-20033	3456	-0.21921	0.96185	0.084326
2.998	21.082	-20033	3455.7	-0.21892	0.9599	0.084131
3	21.141	-20033	3455.4	-0.21862	0.95794	0.083936
3.002	21.241	-20033	3455	-0.21911	0.96029	0.08335
3.004	21.339	-20033	3454.6	-0.2196	0.96263	0.082765
3.006	21.394	-20034	3454.2	-0.22009	0.96497	0.082179
3.008	21.442	-20035	3453.8	-0.22058	0.96731	0.081594
3.01	21.481	-20038	3453.3	-0.22106	0.96966	0.081008
3.012	21.511	-20042	3452.9	-0.22126	0.96956	0.080813
3.014	21.522	-20037	3452.4	-0.22145	0.96946	0.080618
3.016	21.517	-20031	3452	-0.22165	0.96936	0.080422
3.018	21.521	-20029	3451.6	-0.22184	0.96927	0.080227
3.02	21.518	-20027	3451.1	-0.22204	0.96917	0.080032
3.022	21.52	-20027	3450.7	-0.22194	0.96868	0.079837
3.024	21.539	-20027	3450.2	-0.22184	0.96819	0.079642
3.026	21.565	-20026	3449.8	-0.22175	0.9677	0.079446
3.028	21.582	-20025	3449.4	-0.22165	0.96722	0.079251
3.03	21.587	-20025	3449	-0.22155	0.96673	0.079056
3.032	21.586	-20025	3448.7	-0.22233	0.96702	0.079154
3.034	21.59	-20026	3448.3	-0.22311	0.96731	0.079251
3.036	21.591	-20028	3448	-0.22389	0.96761	0.079349
3.038	21.569	-20026	3447.7	-0.22468	0.9679	0.079446
3.04	21.545	-20025	3447.4	-0.22546	0.96819	0.079544
3.042	21.537	-20023	3447.1	-0.22409	0.96614	0.079837
3.044	21.522	-20021	3446.8	-0.22272	0.96409	0.08013
3.046	21.561	-20020	3446.5	-0.22136	0.96204	0.080422
3.048	21.652	-20018	3446.3	-0.21999	0.95999	0.080715
3.05	21.634	-20023	3446.1	-0.21862	0.95794	0.081008
3.052	21.585	-20028	3446	-0.21814	0.95628	0.080618
3.054	21.587	-20026	3445.9	-0.21765	0.95463	0.080227
3.056	21.599	-20025	3445.7	-0.21716	0.95297	0.079837
3.058	21.619	-20022	3445.6	-0.21667	0.95131	0.079446
3.06	21.569	-20018	3445.5	-0.21618	0.94965	0.079056
3.062	21.566	-20025	3445.4	-0.21687	0.95014	0.078666
3.064	21.569	-20031	3445.2	-0.21755	0.95062	0.078275
3.066	21.521	-20030	3445.1	-0.21823	0.95111	0.077885
3.068	21.6	-20030	3444.9	-0.21892	0.9516	0.077494
3.07	21.674	-20029	3444.8	-0.2196	0.95209	0.077104
3.072	21.645	-20029	3444.6	-0.2194	0.95228	0.076909
3.074	21.569	-20039	3444.4	-0.21921	0.95248	0.076714
3.076	21.559	-20048	3444.3	-0.21901	0.95267	0.076518
3.078	21.582	-20041	3444.1	-0.21882	0.95287	0.076323
3.08	21.58	-20033	3444	-0.21862	0.95306	0.076128
3.082	21.579	-20033	3443.8	-0.21804	0.95326	0.075445
3.084	21.565	-20033	3443.7	-0.21745	0.95345	0.074762
3.086	21.549	-20036	3443.5	-0.21687	0.95365	0.074078
3.088	21.544	-20040	3443.3	-0.21628	0.95384	0.073395
3.09	21.518	-20038	3443.2	-0.2157	0.95404	0.072712
3.092	21.496	-20035	3442.9	-0.21706	0.9557	0.072322
3.094	21.523	-20035	3442.6	-0.21843	0.95736	0.071931
3.096	21.568	-20034	3442.4	-0.2198	0.95902	0.071541
3.098	21.577	-20030	3442.1	-0.22116	0.96068	0.07115
3.1	21.566	-20026	3441.9	-0.22253	0.96234	0.07076
3.102	21.564	-20031	3441.6	-0.22194	0.96273	0.069101
3.104	21.546	-20036	3441.3	-0.22136	0.96312	0.067442
3.106	21.508	-20036	3441	-0.22077	0.96351	0.065782
3.108	21.493	-20037	3440.6	-0.22019	0.9639	0.064123
3.11	21.525	-20031	3440.3	-0.2196	0.96429	0.062464
3.112	21.557	-20026	3440	-0.21833	0.96507	0.062854
3.114	21.557	-20025	3439.8	-0.21706	0.96585	0.063245
3.116	21.553	-20023	3439.5	-0.21579	0.96663	0.063635
3.118	21.562	-20024	3439.2	-0.21452	0.96741	0.064026
3.12	21.575	-20025	3439	-0.21326	0.96819	0.064416
3.122	21.579	-20024	3438.8	-0.21413	0.968	0.06549
3.124	21.57	-20023	3438.7	-0.21501	0.9678	0.066563
3.126	21.541	-20028	3438.6	-0.21589	0.96761	0.067637
3.128	21.544	-20032	3438.6	-0.21677	0.96741	0.06871
3.13	21.593	-20027	3438.7	-0.21765	0.96722	0.069784
3.132	21.618	-20022	3439	-0.21765	0.96741	0.068613
3.134	21.596	-20027	3439.2	-0.21765	0.96761	0.067442
3.136	21.541	-20033	3439.6	-0.21765	0.9678	0.06627
3.138	21.518	-20024	3440.2	-0.21765	0.968	0.065099
3.14	21.53	-20015	3440.7	-0.21765	0.96819	0.063928
3.142	21.537	-20018	3441.6	-0.21579	0.96858	0.064611
3.144	21.553	-20020	3442.4	-0.21394	0.96897	0.065294
3.146	21.614	-20024	3443.5	-0.21208	0.96936	0.065978
3.148	21.642	-20028	3444.8	-0.21023	0.96975	0.066661
3.15	21.576	-20026	3446	-0.20838	0.97014	0.067344
3.152	21.552	-20024	3447.7	-0.20847	0.96975	0.067734
3.154	21.556	-20024	3449.4	-0.20857	0.96936	0.068125
3.156	21.559	-20025	3451.2	-0.20867	0.96897	0.068515
3.158	21.545	-20023	3453.2	-0.20877	0.96858	0.068906
3.16	21.592	-20021	3455.2	-0.20886	0.96819	0.069296
3.162	21.61	-20021	3457.6	-0.20896	0.96829	0.069784
3.164	21.584	-20021	3460	-0.20906	0.96839	0.070272
3.166	21.605	-20017	3462.4	-0.20916	0.96848	0.07076
3.168	21.608	-20014	3465	-0.20925	0.96858	0.071248
3.17	21.585	-20016	3467.6	-0.20935	0.96868	0.071736
3.172	21.6	-20018	3470.5	-0.2075	0.96809	0.07076
3.174	21.604	-20023	3473.4	-0.20564	0.96751	0.069784
3.176	21.593	-20027	3476.4	-0.20379	0.96692	0.068808
3.178	21.561	-20022	3479.5	-0.20193	0.96634	0.067832
3.18	21.523	-20018	3482.5	-0.20008	0.96575	0.066856
3.182	21.54	-20017	3485.7	-0.20018	0.96526	0.065685
3.184	21.594	-20017	3488.9	-0.20028	0.96478	0.064514
3.186	21.583	-20019	3492.1	-0.20037	0.96429	0.063342
3.188	21.551	-20020	3495.3	-0.20047	0.9638	0.062171
3.19	21.543	-20019	3498.5	-0.20057	0.96331	0.061
3.192	21.569	-20018	3501.6	-0.19998	0.96243	0.06139
3.194	21.589	-20017	3504.8	-0.1994	0.96156	0.061781
3.196	21.562	-20016	3507.9	-0.19881	0.96068	0.062171
3.198	21.536	-20025	3511.1	-0.19823	0.9598	0.062562
3.2	21.545	-20035	3514.2	-0.19764	0.95892	0.062952
3.202	21.561	-20040	3517.2	-0.19881	0.96019	0.062854
3.204	21.559	-20045	3520.2	-0.19998	0.96146	0.062757
3.206	21.535	-20047	3523.1	-0.20115	0.96273	0.062659
3.208	21.507	-20048	3525.9	-0.20232	0.964	0.062562
3.21	21.471	-20045	3528.8	-0.2035	0.96526	0.062464
3.212	21.441	-20041	3531.3	-0.20262	0.96487	0.062171
3.214	21.439	-20043	3533.9	-0.20174	0.96448	0.061878
3.216	21.454	-20044	3536.2	-0.20086	0.96409	0.061586
3.218	21.447	-20040	3538.4	-0.19998	0.9637	0.061293
3.22	21.421	-20036	3540.6	-0.1991	0.96331	0.061
3.222	21.413	-20038	3542.4	-0.19881	0.9639	0.062074
3.224	21.416	-20040	3544.2	-0.19852	0.96448	0.063147
3.226	21.438	-20036	3545.8	-0.19823	0.96507	0.064221
3.228	21.458	-20033	3547.2	-0.19793	0.96565	0.065294
3.23	21.464	-20033	3548.5	-0.19764	0.96624	0.066368
3.232	21.448	-20033	3549.5	-0.19862	0.96683	0.067442
3.234	21.437	-20035	3550.4	-0.19959	0.96741	0.068515
3.236	21.494	-20037	3551.2	-0.20057	0.968	0.069589
3.238	21.501	-20027	3551.8	-0.20154	0.96858	0.070662
3.24	21.456	-20017	3552.5	-0.20252	0.96917	0.071736
3.242	21.438	-20019	3552.8	-0.20135	0.96927	0.071053
3.244	21.446	-20020	3553	-0.20018	0.96936	0.07037
3.246	21.458	-20022	3553.2	-0.19901	0.96946	0.069686
3.248	21.5	-20024	3553.1	-0.19784	0.96956	0.069003
3.25	21.542	-20028	3553.1	-0.19666	0.96966	0.06832
3.252	21.544	-20032	3552.7	-0.19705	0.97005	0.068808
3.254	21.521	-20027	3552.4	-0.19744	0.97044	0.069296
3.256	21.509	-20021	3551.9	-0.19784	0.97083	0.069784
3.258	21.503	-20018	3551.3	-0.19823	0.97122	0.070272
3.26	21.505	-20015	3550.6	-0.19862	0.97161	0.07076
3.262	21.514	-20018	3549.8	-0.19862	0.97102	0.070467
3.264	21.504	-20021	3548.9	-0.19862	0.97044	0.070174
3.266	21.477	-20021	3548	-0.19862	0.96985	0.069882
3.268	21.473	-20021	3546.9	-0.19862	0.96927	0.069589
3.27	21.503	-20017	3545.8	-0.19862	0.96868	0.069296
3.272	21.53	-20013	3544.6	-0.19832	0.96907	0.069882
3.274	21.527	-20014	3543.3	-0.19803	0.96946	0.070467
3.276	21.558	-20015	3541.9	-0.19774	0.96985	0.071053
3.278	21.578	-20017	3540.5	-0.19744	0.97024	0.071638
3.28	21.534	-20020	3539	-0.19715	0.97063	0.072224
3.282	21.498	-20016	3537.5	-0.19618	0.96985	0.071541
3.284	21.497	-20011	3535.9	-0.1952	0.96907	0.070858
3.286	21.517	-20018	3534.3	-0.19422	0.96829	0.070174
3.288	21.53	-20024	3532.6	-0.19325	0.96751	0.069491
3.29	21.514	-20026	3531	-0.19227	0.96673	0.068808
3.292	21.509	-20029	3529.1	-0.19344	0.96546	0.068906
3.294	21.523	-20025	3527.3	-0.19461	0.96419	0.069003
3.296	21.517	-20021	3525.5	-0.19579	0.96292	0.069101
3.298	21.492	-20019	3523.6	-0.19696	0.96165	0.069198
3.3	21.484	-20016	3521.7	-0.19813	0.96038	0.069296
3.302	21.47	-20019	3519.8	-0.19823	0.96087	0.069198
3.304	21.475	-20021	3517.9	-0.19832	0.96136	0.069101
3.306	21.51	-20022	3516	-0.19842	0.96185	0.069003
3.308	21.547	-20022	3514.1	-0.19852	0.96234	0.068906
3.31	21.544	-20017	3512.2	-0.19862	0.96282	0.068808
3.312	21.541	-20011	3510.3	-0.19774	0.96439	0.069589
3.314	21.537	-20016	3508.5	-0.19686	0.96595	0.07037
3.316	21.548	-20020	3506.7	-0.19598	0.96751	0.07115
3.318	21.579	-20024	3505.1	-0.1951	0.96907	0.071931
3.32	21.537	-20028	3503.4	-0.19422	0.97063	0.072712
3.322	21.52	-20021	3501.9	-0.19422	0.96985	0.071736
3.324	21.55	-20015	3500.5	-0.19422	0.96907	0.07076
3.326	21.544	-20015	3499.1	-0.19422	0.96829	0.069784
3.328	21.519	-20014	3497.8	-0.19422	0.96751	0.068808
3.33	21.515	-20014	3496.5	-0.19422	0.96673	0.067832
3.332	21.499	-20014	3495.3	-0.19579	0.96712	0.069296
3.334	21.476	-20014	3494.1	-0.19735	0.96751	0.07076
3.336	21.486	-20014	3493	-0.19891	0.9679	0.072224
3.338	21.518	-20014	3491.9	-0.20047	0.96829	0.073688
3.34	21.523	-20015	3490.9	-0.20203	0.96868	0.075152
3.342	21.491	-20016	3490	-0.20223	0.96975	0.075542
3.344	21.53	-20016	3489.1	-0.20242	0.97083	0.075933
3.346	21.552	-20017	3488.2	-0.20262	0.9719	0.076323
3.348	21.531	-20018	3487.5	-0.20281	0.97297	0.076714
3.35	21.518	-20014	3486.7	-0.20301	0.97405	0.077104
3.352	21.515	-20010	3486.2	-0.20232	0.97376	0.077787
3.354	21.523	-20007	3485.6	-0.20164	0.97346	0.07847
3.356	21.546	-20005	3485.1	-0.20096	0.97317	0.079154
3.358	21.552	-20010	3484.7	-0.20028	0.97288	0.079837
3.36	21.527	-20016	3484.3	-0.19959	0.97258	0.08052
3.362	21.493	-20014	3484	-0.19949	0.9719	0.080813
3.364	21.479	-20011	3483.7	-0.1994	0.97122	0.081106
3.366	21.489	-20011	3483.5	-0.1993	0.97053	0.081398
3.368	21.492	-20011	3483.3	-0.1992	0.96985	0.081691
3.37	21.486	-20012	3483.1	-0.1991	0.96917	0.081984
3.372	21.501	-20014	3483	-0.19949	0.96897	0.08257
3.374	21.501	-20014	3482.9	-0.19988	0.96878	0.083155
3.376	21.495	-20013	3482.9	-0.20028	0.96858	0.083741
3.378	21.533	-20015	3482.8	-0.20067	0.96839	0.084326
3.38	21.534	-20017	3482.8	-0.20106	0.96819	0.084912
3.382	21.514	-20017	3482.9	-0.20086	0.96731	0.084229
3.384	21.524	-20017	3483	-0.20067	0.96644	0.083546
3.386	21.522	-20016	3483	-0.20047	0.96556	0.082862
3.388	21.527	-20015	3483.1	-0.20028	0.96468	0.082179
3.39	21.516	-20017	3483.2	-0.20008	0.9638	0.081496
3.392	21.513	-20018	3483.2	-0.20125	0.96497	0.081789
3.394	21.529	-20016	3483.3	-0.20242	0.96614	0.082082
3.396	21.582	-20014	3483.3	-0.20359	0.96731	0.082374
3.398	21.613	-20012	3483.4	-0.20476	0.96848	0.082667
3.4	21.509	-20010	3483.5	-0.20594	0.96966	0.08296
3.402	21.495	-20011	3483.5	-0.20594	0.97083	0.082765
3.404	21.534	-20012	3483.5	-0.20594	0.972	0.08257
3.406	21.51	-20012	3483.5	-0.20594	0.97317	0.082374
3.408	21.503	-20012	3483.5	-0.20594	0.97434	0.082179
3.41	21.495	-20008	3483.6	-0.20594	0.97551	0.081984
3.412	21.516	-20004	3483.6	-0.20642	0.97522	0.08257
3.414	21.524	-20003	3483.7	-0.20691	0.97493	0.083155
3.416	21.501	-20002	3483.7	-0.2074	0.97463	0.083741
3.418	21.5	-20006	3483.7	-0.20789	0.97434	0.084326
3.42	21.505	-20009	3483.8	-0.20838	0.97405	0.084912
3.422	21.518	-20011	3483.7	-0.20984	0.9721	0.084814
3.424	21.508	-20013	3483.7	-0.2113	0.97014	0.084717
3.426	21.497	-20012	3483.7	-0.21277	0.96819	0.084619
3.428	21.488	-20012	3483.7	-0.21423	0.96624	0.084522
3.43	21.489	-20011	3483.7	-0.2157	0.96429	0.084424
3.432	21.496	-20010	3483.7	-0.21462	0.96448	0.084326
3.434	21.509	-20010	3483.7	-0.21355	0.96468	0.084229
3.436	21.501	-20011	3483.7	-0.21248	0.96487	0.084131
3.438	21.489	-20011	3483.8	-0.2114	0.96507	0.084034
3.44	21.473	-20011	3483.8	-0.21033	0.96526	0.083936
3.442	21.463	-20010	3483.8	-0.21082	0.96478	0.083936
3.444	21.448	-20010	3483.8	-0.2113	0.96429	0.083936
3.446	21.42	-20006	3483.8	-0.21179	0.9638	0.083936
3.448	21.404	-20002	3483.8	-0.21228	0.96331	0.083936
3.45	21.408	-20006	3483.8	-0.21277	0.96282	0.083936
3.452	21.419	-20010	3483.7	-0.21287	0.96292	0.084424
3.454	21.415	-20009	3483.7	-0.21296	0.96302	0.084912
3.456	21.403	-20007	3483.7	-0.21306	0.96312	0.0854
3.458	21.429	-20014	3483.6	-0.21316	0.96321	0.085888
3.46	21.47	-20020	3483.5	-0.21326	0.96331	0.086376
3.462	21.467	-20016	3483.4	-0.21228	0.96556	0.086083
3.464	21.439	-20013	3483.3	-0.2113	0.9678	0.08579
3.466	21.432	-20020	3483.1	-0.21033	0.97005	0.085498
3.468	21.423	-20027	3483	-0.20935	0.97229	0.085205
3.47	21.384	-20026	3482.8	-0.20838	0.97454	0.084912
3.472	21.386	-20026	3482.6	-0.20886	0.97336	0.084131
3.474	21.422	-20022	3482.3	-0.20935	0.97219	0.08335
3.476	21.453	-20018	3482.1	-0.20984	0.97102	0.08257
3.478	21.441	-20017	3481.9	-0.21033	0.96985	0.081789
3.48	21.42	-20017	3481.6	-0.21082	0.96868	0.081008
3.482	21.443	-20017	3481.4	-0.21208	0.96888	0.082374
3.484	21.438	-20018	3481.1	-0.21335	0.96907	0.083741
3.486	21.471	-20014	3480.8	-0.21462	0.96927	0.085107
3.488	21.49	-20010	3480.5	-0.21589	0.96946	0.086474
3.49	21.477	-20012	3480.2	-0.21716	0.96966	0.08784
3.492	21.476	-20014	3479.9	-0.21823	0.97014	0.087938
3.494	21.478	-20017	3479.6	-0.21931	0.97063	0.088035
3.496	21.481	-20020	3479.3	-0.22038	0.97112	0.088133
3.498	21.527	-20016	3478.9	-0.22145	0.97161	0.08823
3.5	21.573	-20012	3478.5	-0.22253	0.9721	0.088328
3.502	21.574	-20013	3478.2	-0.22224	0.9721	0.087254
3.504	21.548	-20014	3477.8	-0.22194	0.9721	0.086181
3.506	21.509	-20006	3477.5	-0.22165	0.9721	0.085107
3.508	21.497	-19999	3477.1	-0.22136	0.9721	0.084034
3.51	21.5	-20006	3476.7	-0.22106	0.9721	0.08296
3.512	21.526	-20013	3476.3	-0.22009	0.97024	0.082277
3.514	21.588	-20009	3475.9	-0.21911	0.96839	0.081594
3.516	21.621	-20004	3475.5	-0.21814	0.96653	0.08091
3.518	21.566	-20006	3475.2	-0.21716	0.96468	0.080227
3.52	21.51	-20009	3474.8	-0.21618	0.96282	0.079544
3.522	21.532	-20011	3474.4	-0.21716	0.9639	0.079446
3.524	21.528	-20013	3474	-0.21814	0.96497	0.079349
3.526	21.541	-20008	3473.6	-0.21911	0.96604	0.079251
3.528	21.568	-20003	3473.2	-0.22009	0.96712	0.079154
3.53	21.555	-20002	3472.8	-0.22106	0.96819	0.079056
3.532	21.537	-20002	3472.4	-0.22028	0.96692	0.079349
3.534	21.547	-20009	3472	-0.2195	0.96565	0.079642
3.536	21.554	-20016	3471.6	-0.21872	0.96439	0.079934
3.538	21.533	-20013	3471.3	-0.21794	0.96312	0.080227
3.54	21.501	-20009	3470.9	-0.21716	0.96185	0.08052
3.542	21.49	-20008	3470.5	-0.21736	0.96263	0.08013
3.544	21.496	-20007	3470.2	-0.21755	0.96341	0.079739
3.546	21.517	-20012	3469.8	-0.21775	0.96419	0.079349
3.548	21.548	-20018	3469.4	-0.21794	0.96497	0.078958
3.55	21.559	-20011	3469	-0.21814	0.96575	0.078568
3.552	21.554	-20004	3468.6	-0.21823	0.96614	0.078568
3.554	21.548	-19999	3468.3	-0.21833	0.96653	0.078568
3.556	21.55	-19994	3467.9	-0.21843	0.96692	0.078568
3.558	21.563	-20002	3467.5	-0.21853	0.96731	0.078568
3.56	21.58	-20011	3467.1	-0.21862	0.9677	0.078568
3.562	21.578	-20006	3466.7	-0.21882	0.96731	0.077592
3.564	21.556	-20002	3466.4	-0.21901	0.96692	0.076616
3.566	21.533	-20011	3466	-0.21921	0.96653	0.07564
3.568	21.51	-20021	3465.7	-0.2194	0.96614	0.074664
3.57	21.512	-20008	3465.4	-0.2196	0.96575	0.073688
3.572	21.526	-19994	3465	-0.2195	0.96634	0.074664
3.574	21.541	-19999	3464.7	-0.2194	0.96692	0.07564
3.576	21.539	-20005	3464.4	-0.21931	0.96751	0.076616
3.578	21.545	-20009	3464.1	-0.21921	0.96809	0.077592
3.58	21.577	-20013	3463.8	-0.21911	0.96868	0.078568
3.582	21.514	-20015	3463.5	-0.2194	0.96858	0.077982
3.584	21.507	-20016	3463.2	-0.2197	0.96848	0.077397
3.586	21.536	-20006	3462.8	-0.21999	0.96839	0.076811
3.588	21.548	-19995	3462.6	-0.22028	0.96829	0.076226
3.59	21.546	-20003	3462.3	-0.22058	0.96819	0.07564
3.592	21.517	-20011	3462	-0.22067	0.96878	0.076226
3.594	21.515	-20011	3461.8	-0.22077	0.96936	0.076811
3.596	21.505	-20011	3461.5	-0.22087	0.96995	0.077397
3.598	21.48	-20015	3461.3	-0.22097	0.97053	0.077982
3.6	21.474	-20018	3461.1	-0.22106	0.97112	0.078568
3.602	21.471	-20019	3460.9	-0.22175	0.97044	0.077885
3.604	21.452	-20021	3460.7	-0.22243	0.96975	0.077202
3.606	21.43	-20017	3460.5	-0.22311	0.96907	0.076518
3.608	21.409	-20013	3460.3	-0.2238	0.96839	0.075835
3.61	21.389	-20010	3460.1	-0.22448	0.9677	0.075152
3.612	21.362	-20006	3459.9	-0.22409	0.968	0.075347
3.614	21.328	-20008	3459.7	-0.2237	0.96829	0.075542
3.616	21.334	-20010	3459.4	-0.22331	0.96858	0.075738
3.618	21.324	-20011	3459.1	-0.22292	0.96888	0.075933
3.62	21.27	-20011	3458.9	-0.22253	0.96917	0.076128
3.622	21.189	-20008	3458.6	-0.22194	0.96868	0.077104
3.624	21.107	-20004	3458.4	-0.22136	0.96819	0.07808
3.626	21.04	-20009	3458.2	-0.22077	0.9677	0.079056
3.628	20.98	-20014	3457.9	-0.22019	0.96722	0.080032
3.63	20.956	-20017	3457.7	-0.2196	0.96673	0.081008
3.632	20.929	-20020	3457.5	-0.21921	0.96565	0.080422
3.634	20.877	-20016	3457.2	-0.21882	0.96458	0.079837
3.636	20.873	-20012	3457	-0.21843	0.96351	0.079251
3.638	20.891	-20004	3456.8	-0.21804	0.96243	0.078666
3.64	20.868	-19997	3456.5	-0.21765	0.96136	0.07808
3.642	20.83	-20003	3456.3	-0.21745	0.96224	0.07808
3.644	20.833	-20008	3456	-0.21726	0.96312	0.07808
3.646	20.864	-20005	3455.8	-0.21706	0.964	0.07808
3.648	20.89	-20002	3455.5	-0.21687	0.96487	0.07808
3.65	20.864	-20009	3455.3	-0.21667	0.96575	0.07808
3.652	20.863	-20016	3455	-0.21687	0.96634	0.078666
3.654	20.861	-20011	3454.7	-0.21706	0.96692	0.079251
3.656	20.812	-20006	3454.5	-0.21726	0.96751	0.079837
3.658	20.762	-20008	3454.2	-0.21745	0.96809	0.080422
3.66	20.734	-20011	3454	-0.21765	0.96868	0.081008
3.662	20.746	-20005	3453.7	-0.21784	0.96848	0.08013
3.664	20.763	-20000	3453.5	-0.21804	0.96829	0.079251
3.666	20.774	-20005	3453.2	-0.21823	0.96809	0.078373
3.668	20.803	-20011	3452.9	-0.21843	0.9679	0.077494
3.67	20.788	-20010	3452.7	-0.21862	0.9677	0.076616
3.672	20.786	-20008	3452.4	-0.21833	0.96809	0.077202
3.674	20.87	-20009	3452.1	-0.21804	0.96848	0.077787
3.676	20.897	-20009	3451.8	-0.21775	0.96888	0.078373
3.678	20.94	-20013	3451.5	-0.21745	0.96927	0.078958
3.68	21.031	-20016	3451.2	-0.21716	0.96966	0.079544
3.682	21.12	-20012	3450.9	-0.21755	0.97005	0.08052
3.684	21.166	-20007	3450.6	-0.21794	0.97044	0.081496
3.686	21.215	-20006	3450.3	-0.21833	0.97083	0.082472
3.688	21.267	-20004	3449.9	-0.21872	0.97122	0.083448
3.69	21.283	-20007	3449.6	-0.21911	0.97161	0.084424
3.692	21.306	-20011	3449.4	-0.22009	0.97229	0.085302
3.694	21.355	-20010	3449.1	-0.22106	0.97297	0.086181
3.696	21.43	-20009	3448.8	-0.22204	0.97366	0.087059
3.698	21.472	-20006	3448.6	-0.22302	0.97434	0.087938
3.7	21.482	-20003	3448.4	-0.22399	0.97502	0.088816
3.702	21.493	-20007	3448.2	-0.22389	0.97463	0.089304
3.704	21.509	-20011	3448	-0.2238	0.97424	0.089792
3.706	21.526	-20012	3447.8	-0.2237	0.97385	0.09028
3.708	21.522	-20013	3447.7	-0.2236	0.97346	0.090768
3.71	21.511	-20007	3447.6	-0.2235	0.97307	0.091256
3.712	21.52	-20001	3447.4	-0.22263	0.97288	0.090182
3.714	21.526	-20003	3447.3	-0.22175	0.97268	0.089109
3.716	21.532	-20005	3447.2	-0.22087	0.97249	0.088035
3.718	21.558	-20004	3447	-0.21999	0.97229	0.086962
3.72	21.573	-20003	3446.9	-0.21911	0.9721	0.085888
3.722	21.559	-20004	3446.8	-0.21726	0.97151	0.085693
3.724	21.542	-20005	3446.6	-0.2154	0.97092	0.085498
3.726	21.53	-20008	3446.5	-0.21355	0.97034	0.085302
3.728	21.569	-20011	3446.4	-0.21169	0.96975	0.085107
3.73	21.617	-20012	3446.2	-0.20984	0.96917	0.084912
3.732	21.606	-20013	3446.1	-0.20945	0.96888	0.084912
3.734	21.597	-20015	3446	-0.20906	0.96858	0.084912
3.736	21.586	-20017	3445.8	-0.20867	0.96829	0.084912
3.738	21.564	-20011	3445.7	-0.20828	0.968	0.084912
3.74	21.562	-20006	3445.6	-0.20789	0.9677	0.084912
3.742	21.559	-20005	3445.5	-0.20672	0.96624	0.084326
3.744	21.558	-20004	3445.4	-0.20555	0.96478	0.083741
3.746	21.567	-20000	3445.2	-0.20437	0.96331	0.083155
3.748	21.584	-19995	3445	-0.2032	0.96185	0.08257
3.75	21.551	-19999	3444.8	-0.20203	0.96038	0.081984
3.752	21.535	-20002	3444.6	-0.20272	0.96038	0.082765
3.754	21.568	-20002	3444.4	-0.2034	0.96038	0.083546
3.756	21.551	-20001	3444.2	-0.20408	0.96038	0.084326
3.758	21.553	-19999	3443.9	-0.20476	0.96038	0.085107
3.76	21.55	-19998	3443.7	-0.20545	0.96038	0.085888
3.762	21.521	-20004	3443.4	-0.20506	0.96019	0.08579
3.764	21.552	-20009	3443.1	-0.20467	0.95999	0.085693
3.766	21.533	-20010	3442.9	-0.20428	0.9598	0.085595
3.768	21.546	-20011	3442.8	-0.20389	0.9596	0.085498
3.77	21.563	-20008	3442.6	-0.2035	0.95941	0.0854
3.772	21.547	-20005	3442.4	-0.2032	0.96009	0.084912
3.774	21.539	-20009	3442.3	-0.20291	0.96077	0.084424
3.776	21.533	-20014	3442.1	-0.20262	0.96146	0.083936
3.778	21.538	-20011	3442	-0.20232	0.96214	0.083448
3.78	21.552	-20008	3441.8	-0.20203	0.96282	0.08296
3.782	21.553	-20002	3441.7	-0.20311	0.96321	0.082765
3.784	21.545	-19996	3441.6	-0.20418	0.9636	0.08257
3.786	21.534	-20001	3441.4	-0.20525	0.964	0.082374
3.788	21.521	-20006	3441.2	-0.20633	0.96439	0.082179
3.79	21.503	-20008	3441	-0.2074	0.96478	0.081984
3.792	21.495	-20011	3440.9	-0.2076	0.96585	0.08257
3.794	21.497	-20005	3440.8	-0.20779	0.96692	0.083155
3.796	21.481	-19999	3440.7	-0.20799	0.968	0.083741
3.798	21.463	-20002	3440.5	-0.20818	0.96907	0.084326
3.8	21.488	-20005	3440.4	-0.20838	0.97014	0.084912
3.802	21.538	-20008	3440.4	-0.20779	0.97092	0.084131
3.804	21.571	-20011	3440.4	-0.2072	0.97171	0.08335
3.806	21.57	-20006	3440.5	-0.20662	0.97249	0.08257
3.808	21.549	-20001	3440.6	-0.20603	0.97327	0.081789
3.81	21.545	-20007	3440.8	-0.20545	0.97405	0.081008
3.812	21.527	-20014	3441.2	-0.2074	0.97346	0.080715
3.814	21.516	-20015	3441.6	-0.20935	0.97288	0.080422
3.816	21.525	-20017	3442.1	-0.2113	0.97229	0.08013
3.818	21.538	-20013	3442.8	-0.21326	0.97171	0.079837
3.82	21.587	-20010	3443.4	-0.21521	0.97112	0.079544
3.822	21.573	-20010	3444.5	-0.21482	0.97092	0.079154
3.824	21.552	-20010	3445.5	-0.21443	0.97073	0.078763
3.826	21.561	-20012	3446.8	-0.21404	0.97053	0.078373
3.828	21.605	-20014	3448.3	-0.21365	0.97034	0.077982
3.83	21.59	-20009	3449.9	-0.21326	0.97014	0.077592
3.832	21.546	-20004	3451.9	-0.21326	0.97053	0.077787
3.834	21.542	-20008	3453.9	-0.21326	0.97092	0.077982
3.836	21.542	-20013	3456.1	-0.21326	0.97132	0.078178
3.838	21.536	-20011	3458.5	-0.21326	0.97171	0.078373
3.84	21.569	-20009	3461	-0.21326	0.9721	0.078568
3.842	21.585	-20009	3463.9	-0.21306	0.9719	0.07847
3.844	21.572	-20009	3466.7	-0.21287	0.97171	0.078373
3.846	21.555	-20011	3469.8	-0.21267	0.97151	0.078275
3.848	21.572	-20014	3473	-0.21248	0.97132	0.078178
3.85	21.62	-20009	3476.2	-0.21228	0.97112	0.07808
3.852	21.584	-20005	3479.7	-0.21023	0.97112	0.078861
3.854	21.569	-20003	3483.1	-0.20818	0.97112	0.079642
3.856	21.577	-20002	3486.7	-0.20613	0.97112	0.080422
3.858	21.542	-20003	3490.4	-0.20408	0.97112	0.081203
3.86	21.552	-20004	3494	-0.20203	0.97112	0.081984
3.862	21.593	-20007	3497.8	-0.20252	0.96946	0.080813
3.864	21.59	-20010	3501.6	-0.20301	0.9678	0.079642
3.866	21.552	-20011	3505.4	-0.2035	0.96614	0.07847
3.868	21.543	-20011	3509.3	-0.20398	0.96448	0.077299
3.87	21.531	-20010	3513.1	-0.20447	0.96282	0.076128
3.872	21.539	-20008	3516.8	-0.20428	0.96204	0.075542
3.874	21.555	-20007	3520.6	-0.20408	0.96126	0.074957
3.876	21.538	-20007	3524.2	-0.20389	0.96048	0.074371
3.878	21.515	-20011	3527.8	-0.20369	0.9597	0.073786
3.88	21.507	-20015	3531.5	-0.2035	0.95892	0.0732
3.882	21.525	-20016	3534.8	-0.20311	0.9596	0.071931
3.884	21.545	-20017	3538.2	-0.20272	0.96029	0.070662
3.886	21.521	-20011	3541.3	-0.20232	0.96097	0.069394
3.888	21.475	-20004	3544.3	-0.20193	0.96165	0.068125
3.89	21.455	-20002	3547.2	-0.20154	0.96234	0.066856
3.892	21.479	-19999	3549.8	-0.20213	0.96185	0.067539
3.894	21.492	-20001	3552.4	-0.20272	0.96136	0.068222
3.896	21.466	-20002	3554.8	-0.2033	0.96087	0.068906
3.898	21.461	-20006	3556.9	-0.20389	0.96038	0.069589
3.9	21.472	-20010	3559.1	-0.20447	0.9599	0.070272
3.902	21.452	-20005	3560.8	-0.20389	0.95951	0.070077
3.904	21.415	-20001	3562.6	-0.2033	0.95912	0.069882
3.906	21.433	-20000	3564.1	-0.20272	0.95872	0.069686
3.908	21.421	-20000	3565.3	-0.20213	0.95833	0.069491
3.91	21.416	-20001	3566.6	-0.20154	0.95794	0.069296
3.912	21.404	-20002	3567.5	-0.20223	0.9598	0.069491
3.914	21.398	-20000	3568.4	-0.20291	0.96165	0.069686
3.916	21.4	-19999	3569.1	-0.20359	0.96351	0.069882
3.918	21.418	-19999	3569.6	-0.20428	0.96536	0.070077
3.92	21.428	-19999	3570	-0.20496	0.96722	0.070272
3.922	21.436	-20001	3570.2	-0.20506	0.96692	0.069589
3.924	21.426	-20003	3570.4	-0.20516	0.96663	0.068906
3.926	21.386	-20004	3570.3	-0.20525	0.96634	0.068222
3.928	21.364	-20004	3570.1	-0.20535	0.96604	0.067539
3.93	21.43	-20003	3569.9	-0.20545	0.96575	0.066856
3.932	21.48	-20003	3569.4	-0.20672	0.96614	0.067344
3.934	21.476	-20001	3568.9	-0.20799	0.96653	0.067832
3.936	21.458	-19999	3568.4	-0.20925	0.96692	0.06832
3.938	21.472	-20000	3567.7	-0.21052	0.96731	0.068808
3.94	21.489	-20000	3567	-0.21179	0.9677	0.069296
3.942	21.506	-20001	3566	-0.2114	0.9678	0.068808
3.944	21.521	-20002	3565.1	-0.21101	0.9679	0.06832
3.946	21.48	-20000	3564.1	-0.21062	0.968	0.067832
3.948	21.432	-19997	3563.1	-0.21023	0.96809	0.067344
3.95	21.403	-19995	3562	-0.20984	0.96819	0.066856
3.952	21.44	-19993	3560.7	-0.21101	0.96858	0.067637
3.954	21.503	-19992	3559.4	-0.21218	0.96897	0.068418
3.956	21.503	-19992	3558.1	-0.21335	0.96936	0.069198
3.958	21.472	-19996	3556.7	-0.21452	0.96975	0.069979
3.96	21.465	-19999	3555.3	-0.2157	0.97014	0.07076
3.962	21.463	-19993	3553.8	-0.21433	0.97044	0.070077
3.964	21.447	-19987	3552.2	-0.21296	0.97073	0.069394
3.966	21.462	-19986	3550.5	-0.2116	0.97102	0.06871
3.968	21.489	-19984	3548.8	-0.21023	0.97132	0.068027
3.97	21.481	-19994	3547.1	-0.20886	0.97161	0.067344
3.972	21.473	-20004	3545.2	-0.20964	0.97278	0.066758
3.974	21.493	-20003	3543.4	-0.21043	0.97395	0.066173
3.976	21.525	-20003	3541.6	-0.21121	0.97512	0.065587
3.978	21.522	-19999	3539.7	-0.21199	0.97629	0.065002
3.98	21.51	-19996	3537.9	-0.21277	0.97746	0.064416
3.982	21.509	-19997	3535.9	-0.21228	0.97717	0.064514
3.984	21.496	-19998	3534	-0.21179	0.97688	0.064611
3.986	21.484	-19998	3532	-0.2113	0.97659	0.064709
3.988	21.47	-19998	3530.1	-0.21082	0.97629	0.064806
3.99	21.467	-19996	3528.1	-0.21033	0.976	0.064904
3.992	21.5	-19995	3526.1	-0.20925	0.9759	0.065392
3.994	21.508	-19994	3524.1	-0.20818	0.9758	0.06588
3.996	21.517	-19993	3522.2	-0.20711	0.97571	0.066368
3.998	21.507	-19989	3520.2	-0.20603	0.97561	0.066856
4	21.496	-19985	3518.2	-0.20496	0.97551	0.067344
4.002	21.452	-19989	3516.4	-0.2073	0.97385	0.06832
4.004	21.457	-19993	3514.6	-0.20964	0.97219	0.069296
4.006	21.475	-19992	3512.8	-0.21199	0.97053	0.070272
4.008	21.482	-19992	3511.1	-0.21433	0.96888	0.071248
4.01	21.501	-19990	3509.4	-0.21667	0.96722	0.072224
4.012	21.528	-19988	3507.9	-0.21531	0.96712	0.071541
4.014	21.512	-19992	3506.3	-0.21394	0.96702	0.070858
4.016	21.486	-19997	3504.8	-0.21257	0.96692	0.070174
4.018	21.486	-19998	3503.3	-0.21121	0.96683	0.069491
4.02	21.484	-20000	3501.9	-0.20984	0.96673	0.068808
4.022	21.461	-19995	3500.6	-0.21091	0.96644	0.069394
4.024	21.467	-19991	3499.3	-0.21199	0.96614	0.069979
4.026	21.478	-19994	3498.1	-0.21306	0.96585	0.070565
4.028	21.504	-19997	3496.9	-0.21413	0.96556	0.07115
4.03	21.47	-19997	3495.8	-0.21521	0.96526	0.071736
4.032	21.43	-19996	3494.8	-0.21482	0.9638	0.072907
4.034	21.414	-19990	3493.7	-0.21443	0.96234	0.074078
4.036	21.44	-19983	3492.8	-0.21404	0.96087	0.07525
4.038	21.482	-19990	3492	-0.21365	0.95941	0.076421
4.04	21.482	-19997	3491.1	-0.21326	0.95794	0.077592
4.042	21.491	-19998	3490.4	-0.21296	0.95843	0.07769
4.044	21.498	-19998	3489.7	-0.21267	0.95892	0.077787
4.046	21.494	-20006	3489.1	-0.21238	0.95941	0.077885
4.048	21.5	-20013	3488.5	-0.21208	0.9599	0.077982
4.05	21.496	-20004	3488	-0.21179	0.96038	0.07808
4.052	21.474	-19994	3487.5	-0.21189	0.96038	0.076714
4.054	21.452	-19995	3487.1	-0.21199	0.96038	0.075347
4.056	21.442	-19995	3486.7	-0.21208	0.96038	0.073981
4.058	21.448	-19997	3486.3	-0.21218	0.96038	0.072614
4.06	21.466	-19999	3485.9	-0.21228	0.96038	0.071248
4.062	21.492	-19995	3485.6	-0.21091	0.96156	0.071053
4.064	21.514	-19991	3485.3	-0.20955	0.96273	0.070858
4.066	21.51	-19994	3485.1	-0.20818	0.9639	0.070662
4.068	21.492	-19997	3484.9	-0.20681	0.96507	0.070467
4.07	21.492	-19999	3484.7	-0.20545	0.96624	0.070272
4.072	21.506	-20000	3484.6	-0.20681	0.96546	0.071053
4.074	21.497	-19998	3484.4	-0.20818	0.96468	0.071834
4.076	21.467	-19996	3484.3	-0.20955	0.9639	0.072614
4.078	21.472	-19993	3484.2	-0.21091	0.96312	0.073395
4.08	21.496	-19991	3484.1	-0.21228	0.96234	0.074176
4.082	21.5	-19992	3484.1	-0.2113	0.96302	0.074176
4.084	21.49	-19993	3484	-0.21033	0.9637	0.074176
4.086	21.494	-19995	3484	-0.20935	0.96439	0.074176
4.088	21.484	-19997	3484	-0.20838	0.96507	0.074176
4.09	21.483	-19996	3484	-0.2074	0.96575	0.074176
4.092	21.472	-19995	3484	-0.20603	0.96575	0.075542
4.094	21.455	-19997	3484	-0.20467	0.96575	0.076909
4.096	21.444	-19999	3484.1	-0.2033	0.96575	0.078275
4.098	21.456	-19995	3484.1	-0.20193	0.96575	0.079642
4.1	21.44	-19991	3484.2	-0.20057	0.96575	0.081008
4.102	21.442	-19990	3484.2	-0.20164	0.96604	0.080618
4.104	21.428	-19988	3484.2	-0.20272	0.96634	0.080227
4.106	21.389	-19994	3484.2	-0.20379	0.96663	0.079837
4.108	21.38	-20000	3484.2	-0.20486	0.96692	0.079446
4.11	21.455	-19997	3484.3	-0.20594	0.96722	0.079056
4.112	21.498	-19995	3484.2	-0.20584	0.96751	0.078861
4.114	21.502	-19999	3484.2	-0.20574	0.9678	0.078666
4.116	21.49	-20003	3484.2	-0.20564	0.96809	0.07847
4.118	21.442	-20001	3484.2	-0.20555	0.96839	0.078275
4.12	21.431	-19999	3484.2	-0.20545	0.96868	0.07808
4.122	21.421	-19999	3484.3	-0.20457	0.96936	0.078763
4.124	21.403	-19999	3484.3	-0.20369	0.97005	0.079446
4.126	21.373	-19995	3484.3	-0.20281	0.97073	0.08013
4.128	21.34	-19990	3484.3	-0.20193	0.97141	0.080813
4.13	21.352	-19994	3484.2	-0.20106	0.9721	0.081496
4.132	21.365	-19999	3484.1	-0.20301	0.97317	0.080032
4.134	21.373	-20001	3484	-0.20496	0.97424	0.078568
4.136	21.396	-20003	3483.9	-0.20691	0.97532	0.077104
4.138	21.392	-20002	3483.8	-0.20886	0.97639	0.07564
4.14	21.384	-20001	3483.7	-0.21082	0.97746	0.074176
4.142	21.402	-19997	3483.6	-0.20984	0.97698	0.074859
4.144	21.402	-19994	3483.5	-0.20886	0.97649	0.075542
4.146	21.378	-19996	3483.4	-0.20789	0.976	0.076226
4.148	21.376	-19999	3483.3	-0.20691	0.97551	0.076909
4.15	21.389	-19993	3483.2	-0.20594	0.97502	0.077592
4.152	21.389	-19987	3483	-0.20672	0.97522	0.077592
4.154	21.375	-19994	3482.8	-0.2075	0.97541	0.077592
4.156	21.37	-20000	3482.7	-0.20828	0.97561	0.077592
4.158	21.4	-20001	3482.5	-0.20906	0.9758	0.077592
4.16	21.436	-20001	3482.3	-0.20984	0.976	0.077592
4.162	21.444	-19997	3482.2	-0.20955	0.9762	0.077494
4.164	21.365	-19992	3482	-0.20925	0.97639	0.077397
4.166	21.365	-19993	3481.8	-0.20896	0.97659	0.077299
4.168	21.412	-19994	3481.5	-0.20867	0.97678	0.077202
4.17	21.458	-19988	3481.3	-0.20838	0.97698	0.077104
4.172	21.481	-19983	3481.1	-0.20799	0.97659	0.077494
4.174	21.508	-19987	3480.8	-0.2076	0.9762	0.077885
4.176	21.525	-19991	3480.6	-0.2072	0.9758	0.078275
4.178	21.501	-19992	3480.4	-0.20681	0.97541	0.078666
4.18	21.503	-19993	3480.1	-0.20642	0.97502	0.079056
4.182	21.504	-19996	3479.9	-0.20506	0.97278	0.079154
4.184	21.488	-19999	3479.7	-0.20369	0.97053	0.079251
4.186	21.524	-19999	3479.5	-0.20232	0.96829	0.079349
4.188	21.52	-20000	3479.3	-0.20096	0.96604	0.079446
4.19	21.509	-19996	3479.1	-0.19959	0.9638	0.079544
4.192	21.511	-19993	3478.8	-0.20047	0.96429	0.079739
4.194	21.514	-19999	3478.6	-0.20135	0.96478	0.079934
4.196	21.52	-20005	3478.4	-0.20223	0.96526	0.08013
4.198	21.513	-19998	3478.1	-0.20311	0.96575	0.080325
4.2	21.509	-19990	3477.9	-0.20398	0.96624	0.08052
4.202	21.483	-19994	3477.6	-0.20496	0.96624	0.080227
4.204	21.477	-19998	3477.4	-0.20594	0.96624	0.079934
4.206	21.477	-19995	3477.2	-0.20691	0.96624	0.079642
4.208	21.475	-19992	3476.9	-0.20789	0.96624	0.079349
4.21	21.492	-19991	3476.6	-0.20886	0.96624	0.079056
4.212	21.507	-19989	3476.3	-0.20896	0.96604	0.078568
4.214	21.506	-19991	3476	-0.20906	0.96585	0.07808
4.216	21.498	-19992	3475.8	-0.20916	0.96565	0.077592
4.218	21.493	-19992	3475.5	-0.20925	0.96546	0.077104
4.22	21.481	-19991	3475.2	-0.20935	0.96526	0.076616
4.222	21.462	-19992	3474.9	-0.21062	0.96468	0.076323
4.224	21.462	-19994	3474.7	-0.21189	0.96409	0.07603
4.226	21.481	-19989	3474.4	-0.21316	0.96351	0.075738
4.228	21.506	-19984	3474.2	-0.21443	0.96292	0.075445
4.23	21.535	-19987	3473.9	-0.2157	0.96234	0.075152
4.232	21.541	-19989	3473.6	-0.21657	0.96331	0.074371
4.234	21.525	-19995	3473.3	-0.21745	0.96429	0.07359
4.236	21.526	-20001	3473.1	-0.21833	0.96526	0.07281
4.238	21.541	-20002	3472.9	-0.21921	0.96624	0.072029
4.24	21.55	-20002	3472.7	-0.22009	0.96722	0.071248
4.242	21.559	-20000	3472.5	-0.21862	0.96683	0.069394
4.244	21.533	-19997	3472.3	-0.21716	0.96644	0.067539
4.246	21.497	-19991	3472	-0.2157	0.96604	0.065685
4.248	21.464	-19985	3471.8	-0.21423	0.96565	0.06383
4.25	21.442	-19987	3471.5	-0.21277	0.96526	0.061976
4.252	21.458	-19989	3471.4	-0.21335	0.96507	0.061293
4.254	21.483	-19994	3471.2	-0.21394	0.96487	0.06061
4.256	21.492	-20000	3471.1	-0.21452	0.96468	0.059926
4.258	21.496	-20000	3470.9	-0.21511	0.96448	0.059243
4.26	21.504	-20000	3470.8	-0.2157	0.96429	0.05856
4.262	21.495	-20006	3470.8	-0.21248	0.96478	0.056901
4.264	21.491	-20012	3470.8	-0.20925	0.96526	0.055242
4.266	21.51	-20012	3470.7	-0.20603	0.96575	0.053582
4.268	21.501	-20011	3470.7	-0.20281	0.96624	0.051923
4.27	21.478	-20008	3470.6	-0.19959	0.96673	0.050264
4.272	21.451	-20005	3470.7	-0.19823	0.96809	0.051435
4.274	21.43	-20009	3470.7	-0.19686	0.96946	0.052606
4.276	21.414	-20013	3470.8	-0.19549	0.97083	0.053778
4.278	21.398	-20007	3470.8	-0.19413	0.97219	0.054949
4.28	21.382	-20002	3470.8	-0.19276	0.97356	0.05612
4.282	21.355	-20001	3471	-0.19256	0.97385	0.055827
4.284	21.321	-19999	3471.2	-0.19237	0.97415	0.055534
4.286	21.271	-20007	3471.3	-0.19217	0.97444	0.055242
4.288	21.237	-20015	3471.2	-0.19198	0.97473	0.054949
4.29	21.261	-20008	3471.2	-0.19178	0.97502	0.054656
4.292	21.323	-20000	3471.4	-0.19022	0.97317	0.053485
4.294	21.327	-19992	3471.5	-0.18866	0.97132	0.052314
4.296	21.32	-19983	3471.6	-0.1871	0.96946	0.051142
4.298	21.296	-19986	3471.5	-0.18554	0.96761	0.049971
4.3	21.211	-19990	3471.5	-0.18398	0.96575	0.0488
4.302	21.125	-19991	3471.6	-0.18446	0.96624	0.049386
4.304	21.052	-19991	3471.7	-0.18495	0.96673	0.049971
4.306	20.969	-19994	3471.6	-0.18544	0.96722	0.050557
4.308	20.905	-19997	3471.5	-0.18593	0.9677	0.051142
4.31	20.87	-19996	3471.3	-0.18642	0.96819	0.051728
4.312	20.845	-19994	3471.3	-0.18583	0.96751	0.051533
4.314	20.82	-19995	3471.3	-0.18524	0.96683	0.051338
4.316	20.814	-19997	3471.2	-0.18466	0.96614	0.051142
4.318	20.831	-19994	3471.1	-0.18407	0.96546	0.050947
4.32	20.846	-19991	3470.9	-0.18349	0.96478	0.050752
4.322	20.848	-19991	3470.9	-0.18729	0.96458	0.05163
4.324	20.842	-19990	3471	-0.1911	0.96439	0.052509
4.326	20.82	-19996	3470.9	-0.19491	0.96419	0.053387
4.328	20.806	-20002	3470.8	-0.19871	0.964	0.054266
4.33	20.79	-19996	3470.7	-0.20252	0.9638	0.055144
4.332	20.737	-19991	3470.7	-0.20428	0.9638	0.056218
4.334	20.674	-19985	3470.6	-0.20603	0.9638	0.057291
4.336	20.627	-19980	3470.5	-0.20779	0.9638	0.058365
4.338	20.633	-19980	3470.4	-0.20955	0.9638	0.059438
4.34	20.659	-19980	3470.3	-0.2113	0.9638	0.060512
4.342	20.69	-19987	3470.2	-0.21228	0.9639	0.062269
4.344	20.726	-19994	3470.1	-0.21326	0.964	0.064026
4.346	20.732	-19992	3470	-0.21423	0.96409	0.065782
4.348	20.749	-19990	3470	-0.21521	0.96419	0.067539
4.35	20.777	-19987	3470	-0.21618	0.96429	0.069296
4.352	20.826	-19983	3469.8	-0.21745	0.96575	0.071931
4.354	20.865	-19981	3469.6	-0.21872	0.96722	0.074566
4.356	20.884	-19979	3469.4	-0.21999	0.96868	0.077202
4.358	20.944	-19979	3469.2	-0.22126	0.97014	0.079837
4.36	21.001	-19980	3469.1	-0.22253	0.97161	0.082472
4.362	21.047	-19982	3468.7	-0.22409	0.97024	0.08296
4.364	21.127	-19984	3468.4	-0.22565	0.96888	0.083448
4.366	21.277	-19986	3468.1	-0.22721	0.96751	0.083936
4.368	21.371	-19988	3467.9	-0.22877	0.96614	0.084424
4.37	21.385	-19989	3467.6	-0.23034	0.96478	0.084912
4.372	21.381	-19990	3467.2	-0.23034	0.96556	0.0854
4.374	21.427	-19987	3466.8	-0.23034	0.96634	0.085888
4.376	21.454	-19985	3466.4	-0.23034	0.96712	0.086376
4.378	21.46	-19985	3466.2	-0.23034	0.9679	0.086864
4.38	21.48	-19986	3465.9	-0.23034	0.96868	0.087352
4.382	21.491	-19991	3465.8	-0.23258	0.96956	0.087157
4.384	21.491	-19995	3465.8	-0.23483	0.97044	0.086962
4.386	21.5	-19999	3465.6	-0.23707	0.97132	0.086766
4.388	21.515	-20004	3465.4	-0.23932	0.97219	0.086571
4.39	21.49	-20005	3465.1	-0.24156	0.97307	0.086376
4.392	21.45	-20007	3464.8	-0.24029	0.97336	0.086083
4.394	21.464	-20009	3464.5	-0.23902	0.97366	0.08579
4.396	21.507	-20010	3464.1	-0.23775	0.97395	0.085498
4.398	21.536	-20010	3463.7	-0.23648	0.97424	0.085205
4.4	21.543	-20010	3463.3	-0.23522	0.97454	0.084912
4.402	21.531	-20004	3463	-0.23346	0.97454	0.085888
4.404	21.518	-19998	3462.6	-0.2317	0.97454	0.086864
4.406	21.497	-20000	3462.3	-0.22995	0.97454	0.08784
4.408	21.491	-20001	3462	-0.22819	0.97454	0.088816
4.41	21.494	-20003	3461.7	-0.22643	0.97454	0.089792
4.412	21.502	-20005	3461.5	-0.22458	0.97473	0.08823
4.414	21.495	-20003	3461.3	-0.22272	0.97493	0.086669
4.416	21.504	-20001	3461.1	-0.22087	0.97512	0.085107
4.418	21.495	-20002	3460.9	-0.21901	0.97532	0.083546
4.42	21.51	-20003	3460.7	-0.21716	0.97551	0.081984
4.422	21.502	-20004	3460.5	-0.21736	0.97649	0.082667
4.424	21.422	-20005	3460.3	-0.21755	0.97746	0.08335
4.426	21.455	-20000	3460.1	-0.21775	0.97844	0.084034
4.428	21.457	-19994	3459.9	-0.21794	0.97942	0.084717
4.43	21.478	-19992	3459.7	-0.21814	0.98039	0.0854
4.432	21.528	-19989	3459.4	-0.21999	0.98117	0.086083
4.434	21.595	-19989	3459.2	-0.22184	0.98195	0.086766
4.436	21.543	-19989	3459	-0.2237	0.98273	0.08745
4.438	21.516	-19993	3458.8	-0.22555	0.98352	0.088133
4.44	21.534	-19996	3458.7	-0.22741	0.9843	0.088816
4.442	21.531	-19996	3458.5	-0.22731	0.984	0.088426
4.444	21.517	-19995	3458.3	-0.22721	0.98371	0.088035
4.446	21.514	-19995	3458.1	-0.22712	0.98342	0.087645
4.448	21.52	-19994	3457.9	-0.22702	0.98312	0.087254
4.45	21.537	-19995	3457.8	-0.22692	0.98283	0.086864
4.452	21.521	-19995	3457.6	-0.22672	0.98273	0.087254
4.454	21.479	-19993	3457.4	-0.22653	0.98264	0.087645
4.456	21.466	-19991	3457.2	-0.22633	0.98254	0.088035
4.458	21.492	-19991	3457.1	-0.22614	0.98244	0.088426
4.46	21.449	-19991	3456.9	-0.22594	0.98234	0.088816
4.462	21.404	-19992	3456.7	-0.22497	0.98156	0.08823
4.464	21.447	-19994	3456.6	-0.22399	0.98078	0.087645
4.466	21.499	-19991	3456.4	-0.22302	0.98	0.087059
4.468	21.49	-19989	3456.2	-0.22204	0.97922	0.086474
4.47	21.471	-19988	3456	-0.22106	0.97844	0.085888
4.472	21.479	-19987	3455.8	-0.22175	0.97746	0.087352
4.474	21.486	-19987	3455.6	-0.22243	0.97649	0.088816
4.476	21.491	-19987	3455.5	-0.22311	0.97551	0.09028
4.478	21.5	-19986	3455.4	-0.2238	0.97454	0.091744
4.48	21.48	-19986	3455.3	-0.22448	0.97356	0.093208
4.482	21.45	-19990	3455.4	-0.2238	0.972	0.093013
4.484	21.455	-19994	3455.5	-0.22311	0.97044	0.092818
4.486	21.466	-19997	3455.6	-0.22243	0.96888	0.092622
4.488	21.469	-19999	3455.9	-0.22175	0.96731	0.092427
4.49	21.467	-19996	3456.1	-0.22106	0.96575	0.092232
4.492	21.476	-19992	3456.7	-0.22165	0.96595	0.091646
4.494	21.524	-19990	3457.3	-0.22224	0.96614	0.091061
4.496	21.532	-19988	3458	-0.22282	0.96634	0.090475
4.498	21.516	-19993	3458.9	-0.22341	0.96653	0.08989
4.5	21.519	-19998	3459.8	-0.22399	0.96673	0.089304
4.502	21.523	-19999	3461.2	-0.22389	0.96653	0.089597
4.504	21.542	-20000	3462.5	-0.2238	0.96634	0.08989
4.506	21.503	-20002	3464	-0.2237	0.96614	0.090182
4.508	21.499	-20004	3465.7	-0.2236	0.96595	0.090475
4.51	21.533	-20004	3467.5	-0.2235	0.96575	0.090768
4.512	21.524	-20003	3469.6	-0.22233	0.96468	0.089792
4.514	21.516	-20004	3471.7	-0.22116	0.9636	0.088816
4.516	21.483	-20004	3474.1	-0.21999	0.96253	0.08784
4.518	21.508	-20001	3476.7	-0.21882	0.96146	0.086864
4.52	21.525	-19998	3479.2	-0.21765	0.96038	0.085888
4.522	21.509	-19996	3482.2	-0.21765	0.96146	0.085888
4.524	21.504	-19994	3485.1	-0.21765	0.96253	0.085888
4.526	21.477	-19991	3488.2	-0.21765	0.9636	0.085888
4.528	21.456	-19988	3491.4	-0.21765	0.96468	0.085888
4.53	21.461	-19998	3494.6	-0.21765	0.96575	0.085888
4.532	21.477	-20008	3498	-0.2154	0.96644	0.085302
4.534	21.526	-20002	3501.5	-0.21316	0.96712	0.084717
4.536	21.502	-19996	3505	-0.21091	0.9678	0.084131
4.538	21.484	-19995	3508.5	-0.20867	0.96848	0.083546
4.54	21.531	-19994	3512.1	-0.20642	0.96917	0.08296
4.542	21.494	-19993	3515.6	-0.20681	0.96956	0.083546
4.544	21.492	-19992	3519.2	-0.2072	0.96995	0.084131
4.546	21.494	-19993	3522.8	-0.2076	0.97034	0.084717
4.548	21.485	-19993	3526.5	-0.20799	0.97073	0.085302
4.55	21.505	-20000	3530.1	-0.20838	0.97112	0.085888
4.552	21.528	-20007	3533.6	-0.2074	0.97132	0.085205
4.554	21.514	-20003	3537.1	-0.20642	0.97151	0.084522
4.556	21.488	-19998	3540.5	-0.20545	0.97171	0.083838
4.558	21.472	-19997	3543.8	-0.20447	0.9719	0.083155
4.56	21.459	-19997	3547.2	-0.2035	0.9721	0.082472
4.562	21.439	-19994	3550.1	-0.20525	0.97092	0.080227
4.564	21.421	-19992	3553.1	-0.20701	0.96975	0.077982
4.566	21.423	-19990	3555.8	-0.20877	0.96858	0.075738
4.568	21.422	-19989	3558.4	-0.21052	0.96741	0.073493
4.57	21.406	-19993	3561	-0.21228	0.96624	0.071248
4.572	21.398	-19997	3563.2	-0.20964	0.96644	0.070077
4.574	21.387	-20000	3565.3	-0.20701	0.96663	0.068906
4.576	21.376	-20004	3567.2	-0.20437	0.96683	0.067734
4.578	21.363	-19998	3568.9	-0.20174	0.96702	0.066563
4.58	21.339	-19993	3570.6	-0.1991	0.96722	0.065392
4.582	21.35	-19993	3571.8	-0.20076	0.96809	0.06383
4.584	21.392	-19993	3573.1	-0.20242	0.96897	0.062269
4.586	21.411	-19997	3574.1	-0.20408	0.96985	0.060707
4.588	21.384	-20000	3574.9	-0.20574	0.97073	0.059146
4.59	21.364	-19999	3575.7	-0.2074	0.97161	0.057584
4.592	21.362	-19998	3576.2	-0.2072	0.972	0.056998
4.594	21.395	-19995	3576.7	-0.20701	0.97239	0.056413
4.596	21.398	-19991	3577	-0.20681	0.97278	0.055827
4.598	21.362	-19988	3577.1	-0.20662	0.97317	0.055242
4.6	21.377	-19985	3577.3	-0.20642	0.97356	0.054656
4.602	21.381	-19982	3577.1	-0.20476	0.97239	0.053875
4.604	21.367	-19978	3576.9	-0.20311	0.97122	0.053094
4.606	21.347	-19984	3576.6	-0.20145	0.97005	0.052314
