t	ekg	optical	pressure	accel_x	accel_y	accel_z
0	15.971	-13035	3848.6	-0.16592	0.93842	0.22399
0.002	15.975	-13030	3848.2	-0.16846	0.93647	0.22419
0.004	15.975	-13024	3847.7	-0.171	0.93452	0.22438
0.006	15.983	-13030	3847.5	-0.17353	0.93257	0.22458
0.008	15.981	-13036	3847.6	-0.17607	0.93062	0.22477
0.01	15.975	-13039	3847.6	-0.17861	0.92866	0.22497
0.012	15.961	-13041	3847.2	-0.18183	0.92905	0.22302
0.014	15.963	-13044	3846.8	-0.18505	0.92944	0.22106
0.016	15.99	-13047	3846.5	-0.18827	0.92984	0.21911
0.018	15.99	-13038	3846.2	-0.19149	0.93023	0.21716
0.02	15.984	-13028	3846	-0.19471	0.93062	0.21521
0.022	15.992	-13026	3845.3	-0.19383	0.93023	0.2156
0.024	16.001	-13024	3844.7	-0.19296	0.92984	0.21599
0.026	16.011	-13025	3844	-0.19208	0.92944	0.21638
0.028	15.981	-13025	3843.2	-0.1912	0.92905	0.21677
0.03	16.008	-13029	3842.5	-0.19032	0.92866	0.21716
0.032	16.004	-13032	3841.5	-0.19149	0.92535	0.21882
0.034	15.983	-13037	3840.6	-0.19266	0.92203	0.22048
0.036	15.984	-13042	3839.7	-0.19383	0.91871	0.22214
0.038	15.986	-13041	3838.9	-0.195	0.91539	0.2238
0.04	15.972	-13040	3838	-0.19618	0.91207	0.22546
0.042	15.971	-13039	3837.1	-0.19637	0.91412	0.22555
0.044	15.972	-13037	3836.1	-0.19657	0.91617	0.22565
0.046	15.951	-13035	3835.1	-0.19676	0.91822	0.22575
0.048	15.936	-13032	3834	-0.19696	0.92027	0.22585
0.05	15.934	-13036	3833	-0.19715	0.92232	0.22594
0.052	15.944	-13040	3832.4	-0.19696	0.92369	0.22458
0.054	15.979	-13032	3831.9	-0.19676	0.92505	0.22321
0.056	16.031	-13025	3831.4	-0.19657	0.92642	0.22184
0.058	16.064	-13030	3831	-0.19637	0.92779	0.22048
0.06	16.064	-13035	3830.7	-0.19618	0.92915	0.21911
0.062	16.053	-13033	3830.8	-0.19559	0.93228	0.2197
0.064	16.044	-13030	3831	-0.195	0.9354	0.22028
0.066	16.034	-13038	3831.3	-0.19442	0.93852	0.22087
0.068	16.03	-13046	3831.9	-0.19383	0.94164	0.22145
0.07	16.027	-13042	3832.5	-0.19325	0.94477	0.22204
0.072	16.028	-13038	3833.4	-0.19247	0.94652	0.22282
0.074	16.029	-13033	3834.3	-0.19169	0.94828	0.2236
0.076	16.012	-13028	3835.4	-0.19091	0.95004	0.22438
0.078	16.006	-13029	3836.7	-0.19012	0.9518	0.22516
0.08	16.009	-13030	3838	-0.18934	0.95355	0.22594
0.082	16.013	-13032	3839.6	-0.18915	0.95463	0.22428
0.084	16.002	-13034	3841.1	-0.18895	0.9557	0.22263
0.086	16.008	-13033	3842.7	-0.18876	0.95677	0.22097
0.088	16.009	-13033	3844.3	-0.18856	0.95785	0.21931
0.09	15.995	-13033	3845.9	-0.18837	0.95892	0.21765
0.092	15.993	-13033	3847	-0.18944	0.95824	0.21784
0.094	16.005	-13037	3848.2	-0.19052	0.95755	0.21804
0.096	16.008	-13041	3849.9	-0.19159	0.95687	0.21823
0.098	16.01	-13033	3852	-0.19266	0.95619	0.21843
0.1	16	-13024	3854.2	-0.19374	0.9555	0.21862
0.102	15.983	-13026	3855.6	-0.19461	0.9555	0.21862
0.104	15.983	-13027	3857	-0.19549	0.9555	0.21862
0.106	15.982	-13024	3858.5	-0.19637	0.9555	0.21862
0.108	15.977	-13022	3860.2	-0.19725	0.9555	0.21862
0.11	15.986	-13024	3862	-0.19813	0.9555	0.21862
0.112	15.997	-13026	3863.4	-0.19754	0.95589	0.21872
0.114	16.004	-13030	3864.9	-0.19696	0.95628	0.21882
0.116	16.022	-13035	3866.3	-0.19637	0.95668	0.21892
0.118	16.016	-13034	3867.7	-0.19579	0.95707	0.21901
0.12	16.019	-13033	3869	-0.1952	0.95746	0.21911
0.122	16.02	-13033	3870.1	-0.19354	0.95785	0.21901
0.124	16.014	-13033	3871.2	-0.19188	0.95824	0.21892
0.126	16.011	-13030	3872.3	-0.19022	0.95863	0.21882
0.128	16.033	-13026	3873.4	-0.18856	0.95902	0.21872
0.13	16.018	-13028	3874.5	-0.1869	0.95941	0.21862
0.132	15.996	-13030	3875.4	-0.18564	0.95921	0.2198
0.134	16.003	-13023	3876.3	-0.18437	0.95902	0.22097
0.136	16.004	-13016	3877	-0.1831	0.95882	0.22214
0.138	16.004	-13014	3877.8	-0.18183	0.95863	0.22331
0.14	16.012	-13013	3878.5	-0.18056	0.95843	0.22448
0.142	16.01	-13018	3879.2	-0.18124	0.96165	0.22419
0.144	15.995	-13023	3879.9	-0.18193	0.96487	0.22389
0.146	15.976	-13030	3880.5	-0.18261	0.96809	0.2236
0.148	15.969	-13036	3881	-0.18329	0.97132	0.22331
0.15	15.981	-13033	3881.4	-0.18398	0.97454	0.22302
0.152	15.994	-13030	3881.8	-0.18329	0.97132	0.22224
0.154	15.993	-13031	3882.2	-0.18261	0.96809	0.22145
0.156	15.995	-13032	3882.5	-0.18193	0.96487	0.22067
0.158	16.01	-13024	3882.7	-0.18124	0.96165	0.21989
0.16	16.025	-13017	3882.9	-0.18056	0.95843	0.21911
0.162	16.024	-13019	3882.7	-0.18173	0.9597	0.2198
0.164	16.015	-13021	3882.4	-0.1829	0.96097	0.22048
0.166	16.009	-13025	3882.2	-0.18407	0.96224	0.22116
0.168	16.012	-13030	3881.8	-0.18524	0.96351	0.22184
0.17	15.998	-13026	3881.5	-0.18642	0.96478	0.22253
0.172	16.004	-13022	3881.1	-0.18534	0.96282	0.22087
0.174	16.01	-13022	3880.8	-0.18427	0.96087	0.21921
0.176	16.002	-13021	3880.3	-0.1832	0.95892	0.21755
0.178	16.011	-13022	3879.8	-0.18212	0.95697	0.21589
0.18	16.014	-13022	3879.3	-0.18105	0.95502	0.21423
0.182	15.999	-13024	3878.2	-0.18085	0.95443	0.2155
0.184	16.001	-13026	3877.1	-0.18066	0.95384	0.21677
0.186	15.999	-13023	3876.2	-0.18046	0.95326	0.21804
0.188	16.003	-13019	3875.5	-0.18027	0.95267	0.21931
0.19	15.994	-13022	3874.8	-0.18007	0.95209	0.22058
0.192	15.989	-13024	3874.2	-0.17919	0.95424	0.21814
0.194	15.978	-13023	3873.6	-0.17832	0.95638	0.2157
0.196	15.98	-13023	3872.8	-0.17744	0.95853	0.21326
0.198	15.975	-13022	3871.9	-0.17656	0.96068	0.21082
0.2	15.978	-13021	3870.9	-0.17568	0.96282	0.20838
0.202	15.99	-13025	3870.2	-0.17656	0.96116	0.20945
0.204	15.977	-13029	3869.4	-0.17744	0.95951	0.21052
0.206	15.956	-13023	3868.7	-0.17832	0.95785	0.2116
0.208	15.953	-13017	3868.2	-0.17919	0.95619	0.21267
0.21	15.991	-13017	3867.6	-0.18007	0.95453	0.21374
0.212	15.997	-13017	3866.5	-0.17851	0.95658	0.21257
0.214	15.981	-13023	3865.4	-0.17695	0.95863	0.2114
0.216	15.959	-13028	3864.3	-0.17539	0.96068	0.21023
0.218	15.941	-13027	3863.1	-0.17383	0.96273	0.20906
0.22	15.93	-13026	3862	-0.17226	0.96478	0.20789
0.222	15.927	-13020	3861	-0.17226	0.96195	0.20642
0.224	15.919	-13013	3860.1	-0.17226	0.95912	0.20496
0.226	15.907	-13015	3859.3	-0.17226	0.95628	0.2035
0.228	15.91	-13018	3858.6	-0.17226	0.95345	0.20203
0.23	15.918	-13020	3857.9	-0.17226	0.95062	0.20057
0.232	15.92	-13023	3857.3	-0.17373	0.95258	0.20018
0.234	15.927	-13022	3856.6	-0.17519	0.95453	0.19979
0.236	15.932	-13022	3856.2	-0.17666	0.95648	0.1994
0.238	15.932	-13024	3856	-0.17812	0.95843	0.19901
0.24	15.935	-13026	3855.7	-0.17958	0.96038	0.19862
0.242	15.929	-13021	3856.2	-0.17832	0.96029	0.19725
0.244	15.922	-13016	3856.7	-0.17705	0.96019	0.19588
0.246	15.923	-13019	3857	-0.17578	0.96009	0.19452
0.248	15.923	-13021	3857.3	-0.17451	0.95999	0.19315
0.25	15.92	-13022	3857.5	-0.17324	0.9599	0.19178
0.252	15.912	-13022	3858	-0.17422	0.96068	0.19266
0.254	15.916	-13018	3858.4	-0.17519	0.96146	0.19354
0.256	15.924	-13014	3858.8	-0.17617	0.96224	0.19442
0.258	15.932	-13023	3859.1	-0.17714	0.96302	0.1953
0.26	15.936	-13031	3859.5	-0.17812	0.9638	0.19618
0.262	15.941	-13026	3859.9	-0.17851	0.96243	0.19705
0.264	15.952	-13021	3860.3	-0.1789	0.96107	0.19793
0.266	15.996	-13018	3860.6	-0.17929	0.9597	0.19881
0.268	16.02	-13015	3860.8	-0.17968	0.95833	0.19969
0.27	16.032	-13021	3861	-0.18007	0.95697	0.20057
0.272	16.073	-13026	3860.9	-0.17753	0.95853	0.20154
0.274	16.072	-13020	3860.9	-0.175	0.96009	0.20252
0.276	16.056	-13014	3860.8	-0.17246	0.96165	0.2035
0.278	16.043	-13018	3860.7	-0.16992	0.96321	0.20447
0.28	16.04	-13022	3860.6	-0.16738	0.96478	0.20545
0.282	16.035	-13027	3860.3	-0.16904	0.96292	0.20408
0.284	16.03	-13031	3860	-0.1707	0.96107	0.20272
0.286	16.018	-13031	3859.8	-0.17236	0.95921	0.20135
0.288	16.016	-13031	3859.8	-0.17402	0.95736	0.19998
0.29	16.033	-13024	3859.7	-0.17568	0.9555	0.19862
0.292	16.053	-13017	3859.7	-0.17558	0.95541	0.19979
0.294	16.062	-13014	3859.8	-0.17548	0.95531	0.20096
0.296	16.067	-13012	3860	-0.17539	0.95521	0.20213
0.298	16.062	-13012	3860.2	-0.17529	0.95511	0.2033
0.3	16.053	-13013	3860.5	-0.17519	0.95502	0.20447
0.302	16.045	-13020	3860.3	-0.17597	0.95277	0.2035
0.304	16.047	-13026	3860.1	-0.17675	0.95053	0.20252
0.306	16.051	-13022	3860.1	-0.17753	0.94828	0.20154
0.308	16.053	-13018	3860.3	-0.17832	0.94604	0.20057
0.31	16.053	-13016	3860.4	-0.1791	0.94379	0.19959
0.312	16.055	-13015	3860.6	-0.17666	0.94399	0.19735
0.314	16.059	-13016	3860.7	-0.17422	0.94418	0.1951
0.316	16.071	-13017	3860.9	-0.17178	0.94438	0.19286
0.318	16.091	-13019	3861.2	-0.16934	0.94457	0.19061
0.32	16.089	-13020	3861.6	-0.1669	0.94477	0.18837
0.322	16.063	-13029	3861.8	-0.1667	0.94408	0.18905
0.324	16.059	-13039	3862	-0.16651	0.9434	0.18973
0.326	16.06	-13036	3862	-0.16631	0.94272	0.19042
0.328	16.039	-13033	3861.9	-0.16612	0.94204	0.1911
0.33	16.033	-13027	3861.7	-0.16592	0.94135	0.19178
0.332	16.034	-13022	3861.7	-0.16641	0.94194	0.19139
0.334	16.022	-13021	3861.6	-0.1669	0.94252	0.191
0.336	16.028	-13020	3861.4	-0.16738	0.94311	0.19061
0.338	16.032	-13017	3861.1	-0.16787	0.94369	0.19022
0.34	16.032	-13015	3860.8	-0.16836	0.94428	0.18983
0.342	16.033	-13015	3860	-0.16797	0.94643	0.19081
0.344	16.039	-13014	3859.1	-0.16758	0.94857	0.19178
0.346	16.037	-13019	3858.2	-0.16719	0.95072	0.19276
0.348	16.03	-13023	3857.2	-0.1668	0.95287	0.19374
0.35	16.036	-13021	3856.2	-0.16641	0.95502	0.19471
0.352	16.057	-13018	3855.1	-0.16738	0.95619	0.19432
0.354	16.057	-13016	3854.1	-0.16836	0.95736	0.19393
0.356	16.059	-13013	3853	-0.16934	0.95853	0.19354
0.358	16.041	-13011	3852	-0.17031	0.9597	0.19315
0.36	16.036	-13009	3850.9	-0.17129	0.96087	0.19276
0.362	16.033	-13007	3850	-0.17168	0.96126	0.19296
0.364	16.037	-13006	3849	-0.17207	0.96165	0.19315
0.366	16.026	-13008	3848.2	-0.17246	0.96204	0.19335
0.368	16.005	-13009	3847.5	-0.17285	0.96243	0.19354
0.37	15.981	-13011	3846.9	-0.17324	0.96282	0.19374
0.372	15.972	-13013	3846.7	-0.17217	0.96234	0.19374
0.374	15.979	-13015	3846.4	-0.17109	0.96185	0.19374
0.376	15.989	-13017	3846.5	-0.17002	0.96136	0.19374
0.378	15.997	-13018	3846.7	-0.16895	0.96087	0.19374
0.38	15.989	-13018	3846.9	-0.16787	0.96038	0.19374
0.382	15.983	-13020	3847.5	-0.16875	0.96097	0.19403
0.384	15.982	-13021	3848	-0.16963	0.96156	0.19432
0.386	15.978	-13022	3848.8	-0.17051	0.96214	0.19461
0.388	15.981	-13022	3849.7	-0.17139	0.96273	0.19491
0.39	15.986	-13021	3850.6	-0.17226	0.96331	0.1952
0.392	15.976	-13020	3851.6	-0.17246	0.96341	0.1951
0.394	15.959	-13018	3852.6	-0.17265	0.96351	0.195
0.396	15.935	-13016	3853.6	-0.17285	0.9636	0.19491
0.398	15.902	-13015	3854.7	-0.17304	0.9637	0.19481
0.4	15.859	-13014	3855.7	-0.17324	0.9638	0.19471
0.402	15.791	-13014	3856.8	-0.17402	0.96439	0.19598
0.404	15.71	-13013	3858	-0.1748	0.96497	0.19725
0.406	15.653	-13006	3859.1	-0.17558	0.96556	0.19852
0.408	15.625	-13000	3860.3	-0.17636	0.96614	0.19979
0.41	15.617	-13005	3861.4	-0.17714	0.96673	0.20106
0.412	15.634	-13010	3862.4	-0.17724	0.96634	0.20125
0.414	15.651	-13015	3863.3	-0.17734	0.96595	0.20145
0.416	15.657	-13019	3864.2	-0.17744	0.96556	0.20164
0.418	15.646	-13015	3865	-0.17753	0.96517	0.20184
0.42	15.622	-13010	3865.8	-0.17763	0.96478	0.20203
0.422	15.611	-13009	3866.4	-0.17656	0.964	0.20203
0.424	15.598	-13008	3867	-0.17548	0.96321	0.20203
0.426	15.58	-13007	3867.5	-0.17441	0.96243	0.20203
0.428	15.564	-13005	3867.8	-0.17334	0.96165	0.20203
0.43	15.515	-13006	3868.1	-0.17226	0.96087	0.20203
0.432	15.488	-13007	3868.1	-0.17236	0.96116	0.20203
0.434	15.458	-13007	3868	-0.17246	0.96146	0.20203
0.436	15.436	-13007	3867.7	-0.17256	0.96175	0.20203
0.438	15.43	-13007	3867.2	-0.17265	0.96204	0.20203
0.44	15.43	-13007	3866.7	-0.17275	0.96234	0.20203
0.442	15.428	-13010	3865.7	-0.17168	0.96136	0.20272
0.444	15.447	-13013	3864.7	-0.1706	0.96038	0.2034
0.446	15.468	-13015	3863.6	-0.16953	0.95941	0.20408
0.448	15.489	-13017	3862.3	-0.16846	0.95843	0.20476
0.45	15.526	-13014	3861	-0.16738	0.95746	0.20545
0.452	15.585	-13011	3859.5	-0.16758	0.95755	0.20516
0.454	15.635	-13012	3857.9	-0.16777	0.95765	0.20486
0.456	15.702	-13012	3856.2	-0.16797	0.95775	0.20457
0.458	15.758	-13012	3854.4	-0.16816	0.95785	0.20428
0.46	15.797	-13012	3852.6	-0.16836	0.95794	0.20398
0.462	15.834	-13015	3850.4	-0.16846	0.95853	0.2035
0.464	15.871	-13018	3848.3	-0.16856	0.95912	0.20301
0.466	15.904	-13018	3846.1	-0.16865	0.9597	0.20252
0.468	15.938	-13018	3843.9	-0.16875	0.96029	0.20203
0.47	15.968	-13017	3841.6	-0.16885	0.96087	0.20154
0.472	15.995	-13017	3839.3	-0.16982	0.96156	0.20076
0.474	16.01	-13015	3836.9	-0.1708	0.96224	0.19998
0.476	16.018	-13013	3834.6	-0.17178	0.96292	0.1992
0.478	16.026	-13014	3832.2	-0.17275	0.9636	0.19842
0.48	16.036	-13015	3829.8	-0.17373	0.96429	0.19764
0.482	16.046	-13011	3827.7	-0.17265	0.96282	0.19676
0.484	16.052	-13008	3825.5	-0.17158	0.96136	0.19588
0.486	16.055	-13015	3823.4	-0.17051	0.9599	0.195
0.488	16.054	-13022	3821.3	-0.16943	0.95843	0.19413
0.49	16.046	-13018	3819.2	-0.16836	0.95697	0.19325
0.492	16.036	-13014	3817.4	-0.16836	0.95697	0.19325
0.494	16.032	-13008	3815.6	-0.16836	0.95697	0.19325
0.496	16.037	-13002	3813.9	-0.16836	0.95697	0.19325
0.498	16.047	-13011	3812.3	-0.16836	0.95697	0.19325
0.5	16.058	-13020	3810.7	-0.16836	0.95697	0.19325
0.502	16.054	-13023	3809.2	-0.16748	0.95736	0.19266
0.504	16.053	-13026	3807.7	-0.1666	0.95775	0.19208
0.506	16.06	-13018	3806.3	-0.16572	0.95814	0.19149
0.508	16.055	-13010	3804.9	-0.16485	0.95853	0.19091
0.51	16.044	-13016	3803.5	-0.16397	0.95892	0.19032
0.512	16.037	-13022	3802.2	-0.16485	0.95824	0.19061
0.514	16.023	-13016	3800.9	-0.16572	0.95755	0.19091
0.516	16.018	-13010	3799.6	-0.1666	0.95687	0.1912
0.518	16.022	-13008	3798.4	-0.16748	0.95619	0.19149
0.52	16.041	-13005	3797.1	-0.16836	0.9555	0.19178
0.522	16.053	-13008	3796	-0.16719	0.95638	0.19139
0.524	16.044	-13011	3794.8	-0.16602	0.95726	0.191
0.526	16.044	-13011	3793.8	-0.16485	0.95814	0.19061
0.528	16.023	-13011	3792.7	-0.16368	0.95902	0.19022
0.53	16.017	-13013	3791.7	-0.1625	0.9599	0.18983
0.532	16.013	-13016	3790.8	-0.16309	0.9596	0.18983
0.534	16.015	-13011	3789.8	-0.16368	0.95931	0.18983
0.536	16.061	-13007	3788.9	-0.16426	0.95902	0.18983
0.538	16.045	-13008	3788	-0.16485	0.95872	0.18983
0.54	16.02	-13009	3787.2	-0.16543	0.95843	0.18983
0.542	16.017	-13016	3786.5	-0.16407	0.95765	0.19052
0.544	16.017	-13023	3785.9	-0.1627	0.95687	0.1912
0.546	16.017	-13016	3786.5	-0.16133	0.95609	0.19188
0.548	16.012	-13008	3788.5	-0.15997	0.95531	0.19256
0.55	16.01	-13012	3790.5	-0.1586	0.95453	0.19325
0.552	16.001	-13015	3789.9	-0.1627	0.9556	0.19266
0.554	16.003	-13021	3789.4	-0.1668	0.95668	0.19208
0.556	16.004	-13027	3789	-0.1709	0.95775	0.19149
0.558	15.991	-13021	3788.9	-0.175	0.95882	0.19091
0.56	15.983	-13015	3788.8	-0.1791	0.9599	0.19032
0.562	15.998	-13012	3788.8	-0.17666	0.95853	0.19042
0.564	16.008	-13010	3788.9	-0.17422	0.95716	0.19052
0.566	15.999	-13006	3789.1	-0.17178	0.9558	0.19061
0.568	15.987	-13001	3789.4	-0.16934	0.95443	0.19071
0.57	15.977	-13007	3789.6	-0.1669	0.95306	0.19081
0.572	15.97	-13013	3789.9	-0.16738	0.95384	0.1912
0.574	15.973	-13011	3790.2	-0.16787	0.95463	0.19159
0.576	15.985	-13010	3790.5	-0.16836	0.95541	0.19198
0.578	15.995	-13005	3790.9	-0.16885	0.95619	0.19237
0.58	15.987	-13000	3791.3	-0.16934	0.95697	0.19276
0.582	15.977	-13004	3791.6	-0.16904	0.95746	0.19305
0.584	15.981	-13009	3791.8	-0.16875	0.95794	0.19335
0.586	15.988	-13011	3792.2	-0.16846	0.95843	0.19364
0.588	15.986	-13014	3792.5	-0.16816	0.95892	0.19393
0.59	15.979	-13010	3792.8	-0.16787	0.95941	0.19422
0.592	15.982	-13007	3793.1	-0.16982	0.96126	0.195
0.594	15.989	-13011	3793.3	-0.17178	0.96312	0.19579
0.596	16.019	-13015	3793.6	-0.17373	0.96497	0.19657
0.598	16.035	-13010	3793.8	-0.17568	0.96683	0.19735
0.6	16.028	-13004	3794.1	-0.17763	0.96868	0.19813
0.602	16.007	-13007	3794.6	-0.17841	0.96761	0.19823
0.604	15.997	-13011	3795.1	-0.17919	0.96653	0.19832
0.606	16	-13016	3795.7	-0.17997	0.96546	0.19842
0.608	16.002	-13021	3796.4	-0.18076	0.96439	0.19852
0.61	16.031	-13015	3797.2	-0.18154	0.96331	0.19862
0.612	16.034	-13009	3798.2	-0.18085	0.96439	0.19774
0.614	16.033	-13009	3799.2	-0.18017	0.96546	0.19686
0.616	16.034	-13009	3800.2	-0.17949	0.96653	0.19598
0.618	16.03	-13008	3801.3	-0.1788	0.96761	0.1951
0.62	16.012	-13008	3802.3	-0.17812	0.96868	0.19422
0.622	16.012	-13006	3803.7	-0.17783	0.9677	0.19413
0.624	16.02	-13005	3805	-0.17753	0.96673	0.19403
0.626	16.024	-13003	3806.3	-0.17724	0.96575	0.19393
0.628	16.024	-13001	3807.6	-0.17695	0.96478	0.19383
0.63	16.024	-13013	3809	-0.17666	0.9638	0.19374
0.632	16.024	-13024	3810.4	-0.17714	0.96439	0.19422
0.634	16.015	-13021	3811.8	-0.17763	0.96497	0.19471
0.636	16.018	-13019	3813.2	-0.17812	0.96556	0.1952
0.638	16.021	-13021	3814.6	-0.17861	0.96614	0.19569
0.64	16.017	-13024	3816	-0.1791	0.96673	0.19618
0.642	16.017	-13014	3817.4	-0.17841	0.96653	0.19598
0.644	16.01	-13004	3818.7	-0.17773	0.96634	0.19579
0.646	15.99	-13008	3820.1	-0.17705	0.96614	0.19559
0.648	15.972	-13013	3821.4	-0.17636	0.96595	0.1954
0.65	15.965	-13011	3822.6	-0.17568	0.96575	0.1952
0.652	15.958	-13009	3823.9	-0.17656	0.96595	0.19549
0.654	15.955	-13008	3825.1	-0.17744	0.96614	0.19579
0.656	15.971	-13007	3826.4	-0.17832	0.96634	0.19608
0.658	15.987	-13005	3827.7	-0.17919	0.96653	0.19637
0.66	15.978	-13003	3829	-0.18007	0.96673	0.19666
0.662	15.963	-13010	3830.2	-0.17812	0.96526	0.1954
0.664	15.959	-13016	3831.5	-0.17617	0.9638	0.19413
0.666	15.962	-13009	3832.7	-0.17422	0.96234	0.19286
0.668	15.959	-13001	3833.9	-0.17226	0.96087	0.19159
0.67	15.946	-13007	3835.1	-0.17031	0.95941	0.19032
0.672	15.932	-13013	3836	-0.17021	0.9597	0.19071
0.674	15.931	-13010	3837	-0.17012	0.95999	0.1911
0.676	15.935	-13008	3837.9	-0.17002	0.96029	0.19149
0.678	15.924	-13012	3838.7	-0.16992	0.96058	0.19188
0.68	15.916	-13016	3839.4	-0.16982	0.96087	0.19227
0.682	15.923	-13008	3840.1	-0.16953	0.96077	0.19227
0.684	15.942	-13000	3840.8	-0.16924	0.96068	0.19227
0.686	15.948	-13007	3841.4	-0.16895	0.96058	0.19227
0.688	15.927	-13013	3842	-0.16865	0.96048	0.19227
0.69	15.915	-13009	3842.5	-0.16836	0.96038	0.19227
0.692	15.908	-13005	3843.1	-0.16875	0.96009	0.19256
0.694	15.914	-13006	3843.6	-0.16914	0.9598	0.19286
0.696	15.922	-13007	3844	-0.16953	0.95951	0.19315
0.698	15.913	-13011	3844.4	-0.16992	0.95921	0.19344
0.7	15.933	-13014	3844.8	-0.17031	0.95892	0.19374
0.702	15.924	-13015	3845.1	-0.17051	0.95999	0.19315
0.704	15.949	-13016	3845.3	-0.1707	0.96107	0.19256
0.706	15.943	-13009	3845.6	-0.1709	0.96214	0.19198
0.708	15.946	-13003	3845.8	-0.17109	0.96321	0.19139
0.71	15.959	-13008	3846	-0.17129	0.96429	0.19081
0.712	15.971	-13013	3846.2	-0.1707	0.96331	0.19091
0.714	15.983	-13009	3846.4	-0.17012	0.96234	0.191
0.716	15.983	-13005	3846.7	-0.16953	0.96136	0.1911
0.718	15.983	-13004	3846.9	-0.16895	0.96038	0.1912
0.72	15.979	-13003	3847.2	-0.16836	0.95941	0.1913
0.722	15.969	-13005	3847.4	-0.16934	0.95921	0.19237
0.724	15.964	-13006	3847.7	-0.17031	0.95902	0.19344
0.726	15.982	-13005	3847.9	-0.17129	0.95882	0.19452
0.728	15.99	-13003	3848.1	-0.17226	0.95863	0.19559
0.73	15.985	-13003	3848.3	-0.17324	0.95843	0.19666
0.732	16	-13003	3848.5	-0.17314	0.95902	0.19637
0.734	16.01	-13004	3848.7	-0.17304	0.9596	0.19608
0.736	16.002	-13004	3848.8	-0.17295	0.96019	0.19579
0.738	15.993	-13004	3848.8	-0.17285	0.96077	0.19549
0.74	15.976	-13004	3848.8	-0.17275	0.96136	0.1952
0.742	15.964	-13000	3848.6	-0.17363	0.96077	0.19549
0.744	15.963	-12997	3848.4	-0.17451	0.96019	0.19579
0.746	15.969	-13003	3848.2	-0.17539	0.9596	0.19608
0.748	15.982	-13010	3847.8	-0.17627	0.95902	0.19637
0.75	15.999	-13009	3847.5	-0.17714	0.95843	0.19666
0.752	16.014	-13008	3847	-0.17656	0.95863	0.19657
0.754	16.007	-13004	3846.6	-0.17597	0.95882	0.19647
0.756	16.007	-12999	3846.1	-0.17539	0.95902	0.19637
0.758	16.018	-13001	3845.5	-0.1748	0.95921	0.19627
0.76	16.014	-13003	3845	-0.17422	0.95941	0.19618
0.762	16.002	-13004	3844.4	-0.17539	0.95931	0.19618
0.764	16	-13006	3843.8	-0.17656	0.95921	0.19618
0.766	15.997	-13005	3843.2	-0.17773	0.95912	0.19618
0.768	15.998	-13005	3842.4	-0.1789	0.95902	0.19618
0.77	15.994	-12997	3841.7	-0.18007	0.95892	0.19618
0.772	15.99	-12989	3841	-0.17919	0.95912	0.19637
0.774	16.002	-12997	3840.3	-0.17832	0.95931	0.19657
0.776	16.022	-13005	3839.5	-0.17744	0.95951	0.19676
0.778	16.021	-13001	3838.7	-0.17656	0.9597	0.19696
0.78	16.003	-12998	3837.9	-0.17568	0.9599	0.19715
0.782	15.984	-12998	3836.9	-0.17548	0.9597	0.19764
0.784	16.014	-12999	3836	-0.17529	0.95951	0.19813
0.786	16.038	-12996	3835	-0.17509	0.95931	0.19862
0.788	16.016	-12994	3833.9	-0.1749	0.95912	0.1991
0.79	15.997	-12996	3832.8	-0.1747	0.95892	0.19959
0.792	15.991	-12999	3831.5	-0.17353	0.95765	0.20037
0.794	15.958	-13002	3830.3	-0.17236	0.95638	0.20115
0.796	15.979	-13005	3829	-0.17119	0.95511	0.20193
0.798	16.004	-12999	3827.7	-0.17002	0.95384	0.20272
0.8	15.998	-12992	3826.3	-0.16885	0.95258	0.2035
0.802	15.975	-12994	3824.8	-0.17051	0.95365	0.20311
0.804	15.968	-12996	3823.4	-0.17217	0.95472	0.20272
0.806	15.977	-12992	3821.9	-0.17383	0.9558	0.20232
0.808	15.997	-12988	3820.5	-0.17548	0.95687	0.20193
0.81	15.994	-12994	3819.1	-0.17714	0.95794	0.20154
0.812	15.984	-12999	3817.7	-0.17753	0.95853	0.20106
0.814	15.987	-12998	3816.4	-0.17792	0.95912	0.20057
0.816	15.991	-12998	3815.1	-0.17832	0.9597	0.20008
0.818	15.989	-12998	3813.8	-0.17871	0.96029	0.19959
0.82	15.997	-12999	3812.6	-0.1791	0.96087	0.1991
0.822	16.006	-12999	3811.5	-0.17929	0.96195	0.19871
0.824	16.004	-12999	3810.3	-0.17949	0.96302	0.19832
0.826	15.988	-12993	3809.2	-0.17968	0.96409	0.19793
0.828	15.973	-12987	3808.2	-0.17988	0.96517	0.19754
0.83	15.971	-12989	3807.1	-0.18007	0.96624	0.19715
0.832	15.957	-12992	3806.2	-0.18027	0.96556	0.19744
0.834	15.933	-12993	3805.2	-0.18046	0.96487	0.19774
0.836	15.949	-12995	3804.3	-0.18066	0.96419	0.19803
0.838	15.991	-12992	3803.4	-0.18085	0.96351	0.19832
0.84	16.002	-12990	3802.6	-0.18105	0.96282	0.19862
0.842	16.001	-12994	3801.8	-0.18115	0.96536	0.19901
0.844	16.004	-12998	3801.1	-0.18124	0.9679	0.1994
0.846	16.012	-12996	3800	-0.18134	0.97044	0.19979
0.848	16.002	-12994	3798.4	-0.18144	0.97297	0.20018
0.85	15.98	-12995	3796.9	-0.18154	0.97551	0.20057
0.852	15.979	-12995	3796.1	-0.18017	0.9758	0.20115
0.854	15.996	-12995	3795.3	-0.1788	0.9761	0.20174
0.856	16.004	-12995	3794.6	-0.17744	0.97639	0.20232
0.858	15.995	-12994	3793.9	-0.17607	0.97668	0.20291
0.86	15.986	-12992	3793.3	-0.1747	0.97698	0.2035
0.862	15.98	-12987	3792.6	-0.17373	0.97541	0.20476
0.864	15.986	-12982	3792	-0.17275	0.97385	0.20603
0.866	15.976	-12985	3791.5	-0.17178	0.97229	0.2073
0.868	15.961	-12989	3791.1	-0.1708	0.97073	0.20857
0.87	15.94	-12993	3790.8	-0.16982	0.96917	0.20984
0.872	15.941	-12997	3790.5	-0.17021	0.96897	0.20896
0.874	15.943	-12991	3790.2	-0.1706	0.96878	0.20808
0.876	15.945	-12986	3790	-0.171	0.96858	0.2072
0.878	15.952	-12985	3789.9	-0.17139	0.96839	0.20633
0.88	15.954	-12984	3789.8	-0.17178	0.96819	0.20545
0.882	15.956	-12984	3789.8	-0.17197	0.96897	0.20564
0.884	15.941	-12984	3789.8	-0.17217	0.96975	0.20584
0.886	15.95	-12986	3789.7	-0.17236	0.97053	0.20603
0.888	15.941	-12988	3789.7	-0.17256	0.97132	0.20623
0.89	15.934	-12992	3789.6	-0.17275	0.9721	0.20642
0.892	15.934	-12996	3789.5	-0.17275	0.97102	0.20681
0.894	15.927	-12997	3789.4	-0.17275	0.96995	0.2072
0.896	15.91	-12997	3789.3	-0.17275	0.96888	0.2076
0.898	15.886	-12996	3789.2	-0.17275	0.9678	0.20799
0.9	15.854	-12995	3789.1	-0.17275	0.96673	0.20838
0.902	15.867	-12994	3789	-0.17265	0.96595	0.20808
0.904	15.892	-12993	3788.8	-0.17256	0.96517	0.20779
0.906	15.891	-12992	3788.8	-0.17246	0.96439	0.2075
0.908	15.882	-12991	3788.8	-0.17236	0.9636	0.2072
0.91	15.876	-12991	3788.8	-0.17226	0.96282	0.20691
0.912	15.875	-12991	3788.6	-0.17168	0.96204	0.20613
0.914	15.875	-12991	3788.5	-0.17109	0.96126	0.20535
0.916	15.865	-12991	3788.4	-0.17051	0.96048	0.20457
0.918	15.851	-12994	3788.4	-0.16992	0.9597	0.20379
0.92	15.858	-12996	3788.5	-0.16934	0.95892	0.20301
0.922	15.88	-12990	3788.2	-0.16973	0.95794	0.20457
0.924	15.894	-12984	3787.9	-0.17012	0.95697	0.20613
0.926	15.899	-12985	3787.5	-0.17051	0.95599	0.20769
0.928	15.882	-12986	3786.9	-0.1709	0.95502	0.20925
0.93	15.881	-12987	3786.4	-0.17129	0.95404	0.21082
0.932	15.895	-12988	3785.9	-0.17178	0.95404	0.21023
0.934	15.897	-12988	3785.5	-0.17226	0.95404	0.20964
0.936	15.904	-12987	3785	-0.17275	0.95404	0.20906
0.938	15.918	-12985	3784.6	-0.17324	0.95404	0.20847
0.94	15.935	-12984	3784.1	-0.17373	0.95404	0.20789
0.942	15.96	-12982	3783.7	-0.17304	0.95404	0.20711
0.944	15.974	-12981	3783.3	-0.17236	0.95404	0.20633
0.946	15.958	-12986	3782.9	-0.17168	0.95404	0.20555
0.948	15.947	-12990	3782.4	-0.171	0.95404	0.20476
0.95	15.953	-12993	3781.8	-0.17031	0.95404	0.20398
0.952	15.991	-12996	3781.1	-0.17031	0.95365	0.20525
0.954	16.015	-13000	3780.4	-0.17031	0.95326	0.20652
0.956	16.001	-13003	3779.7	-0.17031	0.95287	0.20779
0.958	15.964	-13000	3779.2	-0.17031	0.95248	0.20906
0.96	15.98	-12997	3778.6	-0.17031	0.95209	0.21033
0.962	16.008	-12998	3778.1	-0.17002	0.95033	0.20857
0.964	15.984	-12999	3777.6	-0.16973	0.94857	0.20681
0.966	15.983	-12993	3776.9	-0.16943	0.94682	0.20506
0.968	15.987	-12986	3775.8	-0.16914	0.94506	0.2033
0.97	15.99	-12986	3774.7	-0.16885	0.9433	0.20154
0.972	15.992	-12987	3773.9	-0.16924	0.94184	0.20203
0.974	15.992	-12986	3773.1	-0.16963	0.94038	0.20252
0.976	15.989	-12986	3772.2	-0.17002	0.93891	0.20301
0.978	15.989	-12986	3771.3	-0.17041	0.93745	0.2035
0.98	15.984	-12985	3770.3	-0.1708	0.93598	0.20398
0.982	15.988	-12986	3769.4	-0.17197	0.93745	0.20311
0.984	16.002	-12986	3768.6	-0.17314	0.93891	0.20223
0.986	16.005	-12990	3767.8	-0.17431	0.94038	0.20135
0.988	16.001	-12993	3767.1	-0.17548	0.94184	0.20047
0.99	15.993	-12991	3766.4	-0.17666	0.9433	0.19959
0.992	15.984	-12990	3765.3	-0.17548	0.94301	0.19735
0.994	15.98	-12990	3764.2	-0.17431	0.94272	0.1951
0.996	15.976	-12991	3763.1	-0.17314	0.94243	0.19286
0.998	15.96	-12987	3762	-0.17197	0.94213	0.19061
1	15.965	-12984	3760.9	-0.1708	0.94184	0.18837
1.002	15.997	-12983	3760.2	-0.1707	0.94223	0.18886
1.004	16.005	-12981	3759.5	-0.1706	0.94262	0.18934
1.006	15.997	-12986	3758.8	-0.17051	0.94301	0.18983
1.008	15.991	-12991	3757.9	-0.17041	0.9434	0.19032
1.01	15.99	-12991	3757.1	-0.17031	0.94379	0.19081
1.012	16.002	-12992	3756.4	-0.1708	0.94604	0.191
1.014	16.02	-12990	3755.7	-0.17129	0.94828	0.1912
1.016	16.029	-12987	3755.1	-0.17178	0.95053	0.19139
1.018	16.028	-12986	3754.7	-0.17226	0.95277	0.19159
1.02	16.018	-12985	3754.2	-0.17275	0.95502	0.19178
1.022	15.993	-12985	3754	-0.17207	0.95414	0.191
1.024	15.981	-12984	3753.8	-0.17139	0.95326	0.19022
1.026	15.986	-12984	3753.6	-0.1707	0.95238	0.18944
1.028	15.992	-12984	3753.5	-0.17002	0.9515	0.18866
1.03	15.993	-12985	3753.3	-0.16934	0.95062	0.18788
1.032	16.003	-12987	3753.1	-0.17002	0.95228	0.18778
1.034	15.984	-12986	3752.9	-0.1707	0.95394	0.18768
1.036	15.961	-12985	3752.9	-0.17139	0.9556	0.18759
1.038	15.958	-12981	3752.9	-0.17207	0.95726	0.18749
1.04	15.92	-12977	3752.9	-0.17275	0.95892	0.18739
1.042	15.926	-12983	3753.2	-0.17451	0.95833	0.18642
1.044	15.94	-12989	3753.4	-0.17627	0.95775	0.18544
1.046	15.962	-12995	3753.8	-0.17802	0.95716	0.18446
1.048	15.964	-13000	3754.1	-0.17978	0.95658	0.18349
1.05	15.967	-13004	3754.5	-0.18154	0.95599	0.18251
1.052	15.965	-13007	3754.9	-0.18144	0.95628	0.18193
1.054	15.963	-13000	3755.3	-0.18134	0.95658	0.18134
1.056	15.952	-12992	3755.7	-0.18124	0.95687	0.18076
1.058	15.937	-12994	3756.2	-0.18115	0.95716	0.18017
1.06	15.917	-12995	3756.7	-0.18105	0.95746	0.17958
1.062	15.902	-12995	3757.3	-0.18085	0.95843	0.17939
1.064	15.897	-12995	3757.8	-0.18066	0.95941	0.17919
1.066	15.891	-13001	3758.4	-0.18046	0.96038	0.179
1.068	15.876	-13006	3758.9	-0.18027	0.96136	0.1788
1.07	15.825	-13007	3759.5	-0.18007	0.96234	0.17861
1.072	15.757	-13008	3760.1	-0.17949	0.96302	0.17968
1.074	15.705	-13008	3760.8	-0.1789	0.9637	0.18076
1.076	15.644	-13008	3761.4	-0.17832	0.96439	0.18183
1.078	15.581	-13000	3762.1	-0.17773	0.96507	0.1829
1.08	15.541	-12991	3762.7	-0.17714	0.96575	0.18398
1.082	15.522	-12985	3763.5	-0.17695	0.96673	0.18505
1.084	15.523	-12978	3764.2	-0.17675	0.9677	0.18612
1.086	15.54	-12984	3764.9	-0.17656	0.96868	0.1872
1.088	15.556	-12989	3765.7	-0.17636	0.96966	0.18827
1.09	15.559	-12986	3766.5	-0.17617	0.97063	0.18934
1.092	15.558	-12982	3767.4	-0.17548	0.96848	0.19032
1.094	15.561	-12981	3768.3	-0.1748	0.96634	0.1913
1.096	15.561	-12980	3769.3	-0.17412	0.96419	0.19227
1.098	15.542	-12980	3770.2	-0.17344	0.96204	0.19325
1.1	15.503	-12979	3771.2	-0.17275	0.9599	0.19422
1.102	15.443	-12987	3772	-0.17275	0.96087	0.19364
1.104	15.384	-12995	3772.9	-0.17275	0.96185	0.19305
1.106	15.386	-12988	3773.7	-0.17275	0.96282	0.19247
1.108	15.39	-12982	3774.4	-0.17275	0.9638	0.19188
1.11	15.373	-12985	3775.1	-0.17275	0.96478	0.1913
1.112	15.395	-12988	3775.7	-0.17334	0.96458	0.1913
1.114	15.423	-12989	3776.3	-0.17392	0.96439	0.1913
1.116	15.425	-12990	3776.9	-0.17451	0.96419	0.1913
1.118	15.427	-12988	3777.5	-0.17509	0.964	0.1913
1.12	15.446	-12986	3778.1	-0.17568	0.9638	0.1913
1.122	15.464	-12982	3778.7	-0.17568	0.96429	0.19217
1.124	15.502	-12978	3779.2	-0.17568	0.96478	0.19305
1.126	15.54	-12980	3779.7	-0.17568	0.96526	0.19393
1.128	15.598	-12982	3780.2	-0.17568	0.96575	0.19481
1.13	15.675	-12982	3780.6	-0.17568	0.96624	0.19569
1.132	15.746	-12982	3781.1	-0.17695	0.96487	0.19627
1.134	15.789	-12981	3781.5	-0.17822	0.96351	0.19686
1.136	15.833	-12981	3781.9	-0.17949	0.96214	0.19744
1.138	15.876	-12991	3782.2	-0.18076	0.96077	0.19803
1.14	15.9	-13001	3782.5	-0.18202	0.95941	0.19862
1.142	15.911	-13000	3782.8	-0.18163	0.9597	0.1991
1.144	15.927	-12999	3783.1	-0.18124	0.95999	0.19959
1.146	15.957	-12999	3783.3	-0.18085	0.96029	0.20008
1.148	15.975	-12998	3783.4	-0.18046	0.96058	0.20057
1.15	15.985	-12994	3783.4	-0.18007	0.96087	0.20106
1.152	15.988	-12989	3783.3	-0.17968	0.96077	0.20164
1.154	16.007	-12988	3783.2	-0.17929	0.96068	0.20223
1.156	16.024	-12988	3783.1	-0.1789	0.96058	0.20281
1.158	16.032	-12991	3782.9	-0.17851	0.96048	0.2034
1.16	16.026	-12994	3782.7	-0.17812	0.96038	0.20398
1.162	16.014	-12999	3782.6	-0.17949	0.95999	0.2033
1.164	16.006	-13003	3782.5	-0.18085	0.9596	0.20262
1.166	16.002	-12996	3782.5	-0.18222	0.95921	0.20193
1.168	15.992	-12989	3782.4	-0.18359	0.95882	0.20125
1.17	15.995	-12987	3782.4	-0.18495	0.95843	0.20057
1.172	16.021	-12985	3782.3	-0.18388	0.95863	0.20106
1.174	16.03	-12989	3782.3	-0.1828	0.95882	0.20154
1.176	16.02	-12993	3782.1	-0.18173	0.95902	0.20203
1.178	16.013	-12990	3781.9	-0.18066	0.95921	0.20252
1.18	16.008	-12986	3781.6	-0.17958	0.95941	0.20301
1.182	16.005	-12984	3781.3	-0.18017	0.95912	0.2032
1.184	16.031	-12982	3781	-0.18076	0.95882	0.2034
1.186	16.039	-12988	3780.8	-0.18134	0.95853	0.20359
1.188	16.035	-12995	3780.5	-0.18193	0.95824	0.20379
1.19	16.022	-12995	3780.2	-0.18251	0.95794	0.20398
1.192	16.022	-12996	3780.1	-0.18271	0.95814	0.20359
1.194	16.031	-12988	3779.9	-0.1829	0.95833	0.2032
1.196	16.033	-12980	3779.8	-0.1831	0.95853	0.20281
1.198	16.025	-12981	3779.8	-0.18329	0.95872	0.20242
1.2	16.019	-12983	3779.8	-0.18349	0.95892	0.20203
1.202	16.024	-12991	3780	-0.18378	0.95882	0.20125
1.204	16.042	-12999	3780.1	-0.18407	0.95872	0.20047
1.206	16.029	-12991	3780.3	-0.18437	0.95863	0.19969
1.208	16.018	-12984	3780.4	-0.18466	0.95853	0.19891
1.21	16.02	-12989	3780.6	-0.18495	0.95843	0.19813
1.212	16.003	-12995	3780.9	-0.18544	0.95872	0.19842
1.214	15.993	-12992	3781.1	-0.18593	0.95902	0.19871
1.216	16	-12989	3781.3	-0.18642	0.95931	0.19901
1.218	15.992	-12988	3781.6	-0.1869	0.9596	0.1993
1.22	16.002	-12986	3781.8	-0.18739	0.9599	0.19959
1.222	15.999	-12984	3782.2	-0.187	0.95912	0.19959
1.224	15.984	-12982	3782.5	-0.18661	0.95833	0.19959
1.226	15.997	-12986	3782.8	-0.18622	0.95755	0.19959
1.228	15.979	-12989	3783.1	-0.18583	0.95677	0.19959
1.23	15.982	-12992	3783.4	-0.18544	0.95599	0.19959
1.232	16	-12995	3783.7	-0.18564	0.95609	0.19988
1.234	15.996	-12993	3784	-0.18583	0.95619	0.20018
1.236	15.98	-12992	3784.4	-0.18603	0.95628	0.20047
1.238	15.974	-12990	3784.8	-0.18622	0.95638	0.20076
1.24	15.97	-12988	3785.3	-0.18642	0.95648	0.20106
1.242	15.961	-12989	3785.8	-0.18573	0.95658	0.20115
1.244	15.968	-12990	3786.4	-0.18505	0.95668	0.20125
1.246	15.985	-12987	3787	-0.18437	0.95677	0.20135
1.248	16.006	-12985	3787.6	-0.18368	0.95687	0.20145
1.25	16.017	-12989	3788.2	-0.183	0.95697	0.20154
1.252	16.011	-12992	3788.8	-0.18378	0.9597	0.20106
1.254	16.006	-12990	3789.4	-0.18456	0.96243	0.20057
1.256	16.001	-12988	3789.7	-0.18534	0.96517	0.20008
1.258	15.989	-12989	3789.8	-0.18612	0.9679	0.19959
1.26	15.981	-12989	3789.8	-0.1869	0.97063	0.1991
1.262	15.978	-12990	3790.2	-0.18485	0.97014	0.20008
1.264	15.963	-12992	3790.6	-0.1828	0.96966	0.20106
1.266	15.947	-12992	3790.9	-0.18076	0.96917	0.20203
1.268	15.971	-12991	3791.2	-0.17871	0.96868	0.20301
1.27	15.99	-12988	3791.5	-0.17666	0.96819	0.20398
1.272	16.022	-12985	3791.6	-0.17763	0.96741	0.20291
1.274	16.009	-12987	3791.8	-0.17861	0.96663	0.20184
1.276	16.001	-12990	3792	-0.17958	0.96585	0.20076
1.278	15.998	-12990	3792.2	-0.18056	0.96507	0.19969
1.28	15.993	-12991	3792.4	-0.18154	0.96429	0.19862
1.282	16.001	-12989	3792.8	-0.18134	0.9636	0.1992
1.284	16	-12988	3793.2	-0.18115	0.96292	0.19979
1.286	15.996	-12986	3793.7	-0.18095	0.96224	0.20037
1.288	16.009	-12985	3794.2	-0.18076	0.96156	0.20096
1.29	16.017	-12980	3794.8	-0.18056	0.96087	0.20154
1.292	16.019	-12975	3795.5	-0.18056	0.95872	0.20106
1.294	16.01	-12979	3796.1	-0.18056	0.95658	0.20057
1.296	16.024	-12984	3796.9	-0.18056	0.95443	0.20008
1.298	16.014	-12985	3797.8	-0.18056	0.95228	0.19959
1.3	16	-12987	3798.7	-0.18056	0.95014	0.1991
1.302	16.001	-12987	3799.5	-0.18163	0.94984	0.1991
1.304	15.996	-12987	3800.3	-0.18271	0.94955	0.1991
1.306	16	-12981	3801.1	-0.18378	0.94926	0.1991
1.308	16.003	-12974	3802	-0.18485	0.94896	0.1991
1.31	15.994	-12980	3802.8	-0.18593	0.94867	0.1991
1.312	15.984	-12985	3803.6	-0.18554	0.94857	0.19881
1.314	15.977	-12982	3804.4	-0.18515	0.94848	0.19852
1.316	15.973	-12980	3805.2	-0.18476	0.94838	0.19823
1.318	15.983	-12988	3806.1	-0.18437	0.94828	0.19793
1.32	16.002	-12996	3807	-0.18398	0.94818	0.19764
1.322	16.011	-12987	3807.8	-0.1832	0.94945	0.19813
1.324	16.001	-12978	3808.6	-0.18241	0.95072	0.19862
1.326	15.975	-12988	3809.5	-0.18163	0.95199	0.1991
1.328	15.953	-12998	3810.5	-0.18085	0.95326	0.19959
1.33	15.933	-12996	3811.4	-0.18007	0.95453	0.20008
1.332	15.921	-12994	3812.3	-0.17988	0.95541	0.20008
1.334	15.939	-12987	3813.1	-0.17968	0.95628	0.20008
1.336	15.948	-12981	3814	-0.17949	0.95716	0.20008
1.338	15.931	-12986	3814.9	-0.17929	0.95804	0.20008
1.34	15.913	-12991	3815.8	-0.1791	0.95892	0.20008
1.342	15.908	-12989	3816.6	-0.18007	0.95785	0.19988
1.344	15.92	-12986	3817.4	-0.18105	0.95677	0.19969
1.346	15.934	-12983	3818.2	-0.18202	0.9557	0.19949
1.348	15.946	-12979	3818.9	-0.183	0.95463	0.1993
1.35	15.942	-12982	3819.7	-0.18398	0.95355	0.1991
1.352	15.909	-12986	3820.4	-0.18349	0.95492	0.19881
1.354	15.914	-12985	3821.1	-0.183	0.95628	0.19852
1.356	15.913	-12984	3821.9	-0.18251	0.95765	0.19823
1.358	15.911	-12977	3822.6	-0.18202	0.95902	0.19793
1.36	15.915	-12969	3823.4	-0.18154	0.96038	0.19764
1.362	15.916	-12971	3824.1	-0.18095	0.96009	0.19735
1.364	15.913	-12973	3824.7	-0.18036	0.9598	0.19705
1.366	15.914	-12973	3825.4	-0.17978	0.95951	0.19676
1.368	15.924	-12972	3826.1	-0.17919	0.95921	0.19647
1.37	15.923	-12976	3826.8	-0.17861	0.95892	0.19618
1.372	15.941	-12980	3827.6	-0.17753	0.95999	0.1951
1.374	15.936	-12980	3828.3	-0.17646	0.96107	0.19403
1.376	15.918	-12981	3829.1	-0.17539	0.96214	0.19296
1.378	15.957	-12978	3829.8	-0.17431	0.96321	0.19188
1.38	15.954	-12976	3830.5	-0.17324	0.96429	0.19081
1.382	15.943	-12978	3831.1	-0.17304	0.9636	0.19091
1.384	15.934	-12980	3831.8	-0.17285	0.96292	0.191
1.386	15.94	-12981	3832.3	-0.17265	0.96224	0.1911
1.388	15.954	-12983	3832.8	-0.17246	0.96156	0.1912
1.39	15.971	-12983	3833.2	-0.17226	0.96087	0.1913
1.392	15.981	-12983	3833.7	-0.17275	0.96136	0.19208
1.394	15.987	-12987	3834.1	-0.17324	0.96185	0.19286
1.396	15.99	-12991	3834.6	-0.17373	0.96234	0.19364
1.398	15.988	-12990	3835	-0.17422	0.96282	0.19442
1.4	15.966	-12989	3835.4	-0.1747	0.96331	0.1952
1.402	15.952	-12985	3835.6	-0.17402	0.96546	0.19657
1.404	15.972	-12980	3835.8	-0.17334	0.96761	0.19793
1.406	15.989	-12980	3836	-0.17265	0.96975	0.1993
1.408	15.977	-12980	3836.1	-0.17197	0.9719	0.20067
1.41	15.973	-12979	3836.2	-0.17129	0.97405	0.20203
1.412	15.986	-12977	3835.8	-0.17402	0.97171	0.20125
1.414	15.982	-12973	3835.3	-0.17675	0.96936	0.20047
1.416	15.963	-12968	3835	-0.17949	0.96702	0.19969
1.418	15.951	-12973	3834.7	-0.18222	0.96468	0.19891
1.42	15.956	-12977	3834.5	-0.18495	0.96234	0.19813
1.422	15.962	-12982	3834.3	-0.1829	0.96263	0.19666
1.424	15.961	-12986	3834	-0.18085	0.96292	0.1952
1.426	15.96	-12973	3833.9	-0.1788	0.96321	0.19374
1.428	15.95	-12960	3833.8	-0.17675	0.96351	0.19227
1.43	15.962	-12963	3833.8	-0.1747	0.9638	0.19081
1.432	15.992	-12966	3833.7	-0.17461	0.9637	0.1912
1.434	15.986	-12971	3833.5	-0.17451	0.9636	0.19159
1.436	15.98	-12976	3833.3	-0.17441	0.96351	0.19198
1.438	15.974	-12979	3832.9	-0.17431	0.96341	0.19237
1.44	15.979	-12981	3832.5	-0.17422	0.96331	0.19276
1.442	15.995	-12981	3831.9	-0.17363	0.96282	0.19559
1.444	15.998	-12981	3831.2	-0.17304	0.96234	0.19842
1.446	15.983	-12980	3830.5	-0.17246	0.96185	0.20125
1.448	15.973	-12978	3829.6	-0.17187	0.96136	0.20408
1.45	15.973	-12978	3828.7	-0.17129	0.96087	0.20691
1.452	15.979	-12979	3828	-0.17217	0.96204	0.20428
1.454	15.987	-12981	3827.4	-0.17304	0.96321	0.20164
1.456	15.972	-12983	3826.7	-0.17392	0.96439	0.19901
1.458	15.957	-12984	3825.9	-0.1748	0.96556	0.19637
1.46	15.972	-12984	3825.1	-0.17568	0.96673	0.19374
1.462	15.97	-12977	3824.6	-0.17451	0.96565	0.19344
1.464	15.986	-12970	3824.1	-0.17334	0.96458	0.19315
1.466	16.003	-12970	3823.7	-0.17217	0.96351	0.19286
1.468	15.974	-12969	3823.4	-0.171	0.96243	0.19256
1.47	15.971	-12970	3823	-0.16982	0.96136	0.19227
1.472	15.976	-12971	3822.6	-0.17041	0.96243	0.19374
1.474	15.978	-12976	3822.2	-0.171	0.96351	0.1952
1.476	15.977	-12981	3821.7	-0.17158	0.96458	0.19666
1.478	15.983	-12982	3821.1	-0.17217	0.96565	0.19813
1.48	15.983	-12983	3820.5	-0.17275	0.96673	0.19959
1.482	15.99	-12979	3820	-0.17402	0.96546	0.19959
1.484	15.992	-12975	3819.4	-0.17529	0.96419	0.19959
1.486	15.98	-12973	3819	-0.17656	0.96292	0.19959
1.488	15.973	-12972	3818.6	-0.17783	0.96165	0.19959
1.49	15.95	-12970	3818.1	-0.1791	0.96038	0.19959
1.492	15.934	-12968	3817.7	-0.1788	0.96136	0.1992
1.494	15.975	-12967	3817.3	-0.17851	0.96234	0.19881
1.496	15.968	-12965	3817	-0.17822	0.96331	0.19842
1.498	15.95	-12971	3816.7	-0.17792	0.96429	0.19803
1.5	15.962	-12977	3816.4	-0.17763	0.96526	0.19764
1.502	15.98	-12977	3816.1	-0.17675	0.96604	0.19949
1.504	15.985	-12977	3815.7	-0.17588	0.96683	0.20135
1.506	15.97	-12976	3815.3	-0.175	0.96761	0.2032
1.508	15.962	-12974	3814.9	-0.17412	0.96839	0.20506
1.51	15.984	-12973	3814.5	-0.17324	0.96917	0.20691
1.512	16	-12972	3813.9	-0.17373	0.9679	0.20555
1.514	15.988	-12974	3813.2	-0.17422	0.96663	0.20418
1.516	15.981	-12976	3812.7	-0.1747	0.96536	0.20281
1.518	15.99	-12972	3812.4	-0.17519	0.96409	0.20145
1.52	15.987	-12968	3812.2	-0.17568	0.96282	0.20008
1.522	15.971	-12972	3811.9	-0.17646	0.96204	0.19979
1.524	15.975	-12976	3811.6	-0.17724	0.96126	0.19949
1.526	15.98	-12978	3811.5	-0.17802	0.96048	0.1992
1.528	15.971	-12979	3811.5	-0.1788	0.9597	0.19891
1.53	15.957	-12972	3811.5	-0.17958	0.95892	0.19862
1.532	15.961	-12964	3811.3	-0.1788	0.95882	0.1994
1.534	15.954	-12966	3811.2	-0.17802	0.95872	0.20018
1.536	15.945	-12967	3810.9	-0.17724	0.95863	0.20096
1.538	15.941	-12969	3810.4	-0.17646	0.95853	0.20174
1.54	15.939	-12971	3810	-0.17568	0.95843	0.20252
1.542	15.956	-12970	3809.9	-0.17666	0.95785	0.20184
1.544	15.94	-12968	3809.9	-0.17763	0.95726	0.20115
1.546	15.935	-12972	3809.8	-0.17861	0.95668	0.20047
1.548	15.939	-12977	3809.7	-0.17958	0.95609	0.19979
1.55	15.941	-12980	3809.5	-0.18056	0.9555	0.1991
1.552	15.942	-12984	3809.5	-0.18163	0.95443	0.1991
1.554	15.921	-12985	3809.5	-0.18271	0.95336	0.1991
1.556	15.906	-12985	3809.5	-0.18378	0.95228	0.1991
1.558	15.893	-12981	3809.7	-0.18485	0.95121	0.1991
1.56	15.883	-12976	3809.8	-0.18593	0.95014	0.1991
1.562	15.887	-12977	3809.9	-0.18495	0.9518	0.19871
1.564	15.886	-12978	3809.9	-0.18398	0.95345	0.19832
1.566	15.887	-12972	3810	-0.183	0.95511	0.19793
1.568	15.887	-12967	3809.9	-0.18202	0.95677	0.19754
1.57	15.891	-12967	3809.9	-0.18105	0.95843	0.19715
1.572	15.894	-12967	3809.6	-0.18163	0.95736	0.19852
1.574	15.889	-12973	3809.3	-0.18222	0.95628	0.19988
1.576	15.896	-12980	3809.1	-0.1828	0.95521	0.20125
1.578	15.902	-12972	3809.1	-0.18339	0.95414	0.20262
1.58	15.889	-12964	3809.2	-0.18398	0.95306	0.20398
1.582	15.883	-12958	3808.9	-0.1829	0.95472	0.2034
1.584	15.885	-12951	3808.7	-0.18183	0.95638	0.20281
1.586	15.889	-12950	3808.6	-0.18076	0.95804	0.20223
1.588	15.895	-12950	3808.8	-0.17968	0.9597	0.20164
1.59	15.897	-12961	3808.9	-0.17861	0.96136	0.20106
1.592	15.901	-12973	3809	-0.17841	0.96224	0.20018
1.594	15.9	-12968	3809.1	-0.17822	0.96312	0.1993
1.596	15.923	-12963	3809.1	-0.17802	0.964	0.19842
1.598	15.964	-12969	3809.1	-0.17783	0.96487	0.19754
1.6	15.982	-12975	3809	-0.17763	0.96575	0.19666
1.602	15.991	-12976	3808.8	-0.17548	0.96585	0.19793
1.604	15.992	-12978	3808.6	-0.17334	0.96595	0.1992
1.606	16.003	-12974	3808.3	-0.17119	0.96604	0.20047
1.608	16.007	-12970	3808	-0.16904	0.96614	0.20174
1.61	15.993	-12968	3807.7	-0.1669	0.96624	0.20301
1.612	15.988	-12966	3807.4	-0.16856	0.96624	0.20154
1.614	15.99	-12969	3807	-0.17021	0.96624	0.20008
1.616	16.006	-12972	3806.7	-0.17187	0.96624	0.19862
1.618	16.011	-12969	3806.4	-0.17353	0.96624	0.19715
1.62	16.01	-12966	3806.1	-0.17519	0.96624	0.19569
1.622	16	-12973	3806	-0.175	0.9636	0.19618
1.624	15.99	-12979	3805.9	-0.1748	0.96097	0.19666
1.626	15.988	-12974	3805.8	-0.17461	0.95833	0.19715
1.628	15.998	-12970	3805.7	-0.17441	0.9557	0.19764
1.63	15.989	-12971	3805.6	-0.17422	0.95306	0.19813
1.632	15.974	-12973	3805.6	-0.1749	0.95336	0.19862
1.634	15.984	-12973	3805.5	-0.17558	0.95365	0.1991
1.636	15.988	-12974	3805.1	-0.17627	0.95394	0.19959
1.638	16.005	-12969	3804.4	-0.17695	0.95424	0.20008
1.64	15.984	-12963	3803.7	-0.17763	0.95453	0.20057
1.642	15.966	-12969	3803.5	-0.17675	0.95472	0.19901
1.644	15.962	-12974	3803.3	-0.17588	0.95492	0.19744
1.646	15.978	-12972	3803.1	-0.175	0.95511	0.19588
1.648	16.002	-12969	3802.8	-0.17412	0.95531	0.19432
1.65	15.993	-12971	3802.5	-0.17324	0.9555	0.19276
1.652	15.983	-12973	3802.3	-0.1748	0.95521	0.19383
1.654	16.004	-12974	3802.2	-0.17636	0.95492	0.19491
1.656	16.021	-12976	3802.1	-0.17792	0.95463	0.19598
1.658	16.021	-12968	3802	-0.17949	0.95433	0.19705
1.66	16.019	-12961	3801.9	-0.18105	0.95404	0.19813
1.662	16.018	-12965	3801.8	-0.18046	0.95404	0.19803
1.664	16.018	-12968	3801.8	-0.17988	0.95404	0.19793
1.666	16.008	-12969	3801.6	-0.17929	0.95404	0.19784
1.668	16.004	-12971	3801.4	-0.17871	0.95404	0.19774
1.67	16.007	-12971	3801.2	-0.17812	0.95404	0.19764
1.672	15.998	-12971	3801	-0.17822	0.95472	0.19774
1.674	15.993	-12967	3800.8	-0.17832	0.95541	0.19784
1.676	15.998	-12964	3800.2	-0.17841	0.95609	0.19793
1.678	16.003	-12969	3799.4	-0.17851	0.95677	0.19803
1.68	16.005	-12973	3798.6	-0.17861	0.95746	0.19813
1.682	16.001	-12970	3797.9	-0.17646	0.95716	0.19754
1.684	16.001	-12967	3797.3	-0.17431	0.95687	0.19696
1.686	16.006	-12968	3796.8	-0.17217	0.95658	0.19637
1.688	16.001	-12968	3796.3	-0.17002	0.95628	0.19579
1.69	15.996	-12969	3795.8	-0.16787	0.95599	0.1952
1.692	15.997	-12970	3795.5	-0.16992	0.95658	0.19549
1.694	15.985	-12970	3795.1	-0.17197	0.95716	0.19579
1.696	15.977	-12971	3794.9	-0.17402	0.95775	0.19608
1.698	15.988	-12968	3794.6	-0.17607	0.95833	0.19637
1.7	15.979	-12965	3794.4	-0.17812	0.95892	0.19666
1.702	15.958	-12964	3794.1	-0.17753	0.95833	0.19637
1.704	15.949	-12964	3793.7	-0.17695	0.95775	0.19608
1.706	15.96	-12966	3793.4	-0.17636	0.95716	0.19579
1.708	15.987	-12968	3793	-0.17578	0.95658	0.19549
1.71	15.998	-12964	3792.7	-0.17519	0.95599	0.1952
1.712	15.989	-12959	3792.4	-0.17646	0.95482	0.1954
1.714	15.966	-12962	3792	-0.17773	0.95365	0.19559
1.716	15.955	-12964	3791.7	-0.179	0.95248	0.19579
1.718	15.946	-12966	3791.4	-0.18027	0.95131	0.19598
1.72	15.935	-12968	3791.1	-0.18154	0.95014	0.19618
1.722	15.96	-12968	3790.8	-0.18124	0.9515	0.19666
1.724	15.969	-12969	3790.5	-0.18095	0.95287	0.19715
1.726	15.955	-12966	3790.3	-0.18066	0.95424	0.19764
1.728	15.917	-12964	3790	-0.18036	0.9556	0.19813
1.73	15.851	-12966	3789.8	-0.18007	0.95697	0.19862
1.732	15.794	-12968	3789.6	-0.18017	0.95599	0.19832
1.734	15.777	-12969	3789.5	-0.18027	0.95502	0.19803
1.736	15.723	-12970	3789.3	-0.18036	0.95404	0.19774
1.738	15.65	-12968	3789.2	-0.18046	0.95306	0.19744
1.74	15.618	-12966	3789.1	-0.18056	0.95209	0.19715
1.742	15.613	-12968	3789.1	-0.18046	0.95277	0.19774
1.744	15.601	-12969	3789.2	-0.18036	0.95345	0.19832
1.746	15.603	-12968	3789.3	-0.18027	0.95414	0.19891
1.748	15.613	-12967	3789.4	-0.18017	0.95482	0.19949
1.75	15.612	-12970	3789.5	-0.18007	0.9555	0.20008
1.752	15.6	-12972	3789.7	-0.18115	0.9555	0.20018
1.754	15.589	-12967	3789.9	-0.18222	0.9555	0.20028
1.756	15.573	-12963	3790	-0.18329	0.9555	0.20037
1.758	15.552	-12973	3790.2	-0.18437	0.9555	0.20047
1.76	15.538	-12983	3790.4	-0.18544	0.9555	0.20057
1.762	15.52	-12975	3790.5	-0.18466	0.95511	0.20018
1.764	15.492	-12967	3790.6	-0.18388	0.95472	0.19979
1.766	15.48	-12960	3790.7	-0.1831	0.95433	0.1994
1.768	15.477	-12954	3790.7	-0.18232	0.95394	0.19901
1.77	15.465	-12963	3790.7	-0.18154	0.95355	0.19862
1.772	15.471	-12973	3790.7	-0.18154	0.95424	0.1992
1.774	15.495	-12974	3790.7	-0.18154	0.95492	0.19979
1.776	15.499	-12975	3790.6	-0.18154	0.9556	0.20037
1.778	15.483	-12971	3790.4	-0.18154	0.95628	0.20096
1.78	15.494	-12967	3790.3	-0.18154	0.95697	0.20154
1.782	15.565	-12967	3790	-0.18066	0.95668	0.20154
1.784	15.59	-12967	3789.6	-0.17978	0.95638	0.20154
1.786	15.611	-12964	3789.2	-0.1789	0.95609	0.20154
1.788	15.678	-12962	3788.7	-0.17802	0.9558	0.20154
1.79	15.749	-12959	3788.2	-0.17714	0.9555	0.20154
1.792	15.799	-12956	3787.7	-0.17695	0.95589	0.20125
1.794	15.838	-12957	3787.1	-0.17675	0.95628	0.20096
1.796	15.86	-12958	3786.4	-0.17656	0.95668	0.20067
1.798	15.879	-12962	3785.8	-0.17636	0.95707	0.20037
1.8	15.899	-12966	3785.1	-0.17617	0.95746	0.20008
1.802	15.924	-12967	3784.4	-0.17695	0.95765	0.20008
1.804	15.932	-12967	3783.8	-0.17773	0.95785	0.20008
1.806	15.952	-12963	3783.1	-0.17851	0.95804	0.20008
1.808	15.973	-12959	3782.4	-0.17929	0.95824	0.20008
1.81	15.987	-12961	3781.8	-0.18007	0.95843	0.20008
1.812	15.999	-12963	3781.2	-0.17939	0.95941	0.19842
1.814	15.992	-12968	3780.6	-0.17871	0.96038	0.19676
1.816	16.002	-12972	3780	-0.17802	0.96136	0.1951
1.818	15.999	-12969	3779.3	-0.17734	0.96234	0.19344
1.82	15.991	-12967	3778.7	-0.17666	0.96331	0.19178
1.822	16.002	-12967	3778.1	-0.17588	0.964	0.19188
1.824	16.012	-12967	3777.5	-0.17509	0.96468	0.19198
1.826	16.011	-12968	3776.9	-0.17431	0.96536	0.19208
1.828	15.997	-12968	3776.3	-0.17353	0.96604	0.19217
1.83	15.997	-12967	3775.8	-0.17275	0.96673	0.19227
1.832	16.007	-12965	3775.3	-0.17217	0.96624	0.19208
1.834	16.017	-12967	3774.8	-0.17158	0.96575	0.19188
1.836	16.016	-12970	3774.4	-0.171	0.96526	0.19169
1.838	16.022	-12969	3774	-0.17041	0.96478	0.19149
1.84	16.021	-12968	3773.6	-0.16982	0.96429	0.1913
1.842	16.01	-12961	3773.3	-0.17051	0.96468	0.19081
1.844	16.005	-12954	3773	-0.17119	0.96507	0.19032
1.846	16.004	-12956	3772.8	-0.17187	0.96546	0.18983
1.848	16.012	-12957	3772.7	-0.17256	0.96585	0.18934
1.85	16.025	-12958	3772.6	-0.17324	0.96624	0.18886
1.852	16.021	-12958	3772.7	-0.17392	0.96644	0.18895
1.854	16.005	-12958	3772.9	-0.17461	0.96663	0.18905
1.856	15.997	-12958	3773.2	-0.17529	0.96683	0.18915
1.858	15.997	-12959	3773.5	-0.17597	0.96702	0.18925
1.86	15.998	-12960	3773.9	-0.17666	0.96722	0.18934
1.862	15.991	-12961	3774.5	-0.17617	0.96751	0.19032
1.864	15.985	-12961	3775	-0.17568	0.9678	0.1913
1.866	15.999	-12964	3775.6	-0.17519	0.96809	0.19227
1.868	16.02	-12966	3776.1	-0.1747	0.96839	0.19325
1.87	15.999	-12961	3776.7	-0.17422	0.96868	0.19422
1.872	15.972	-12955	3777.1	-0.17548	0.96702	0.1952
1.874	15.996	-12958	3777.6	-0.17675	0.96536	0.19618
1.876	15.995	-12961	3777.9	-0.17802	0.9637	0.19715
1.878	15.972	-12961	3778.1	-0.17929	0.96204	0.19813
1.88	15.971	-12962	3778.3	-0.18056	0.96038	0.1991
1.882	15.988	-12963	3778.3	-0.18017	0.96058	0.19803
1.884	15.988	-12965	3778.3	-0.17978	0.96077	0.19696
1.886	15.998	-12963	3778.3	-0.17939	0.96097	0.19588
1.888	15.979	-12960	3778.3	-0.179	0.96116	0.19481
1.89	15.963	-12964	3778.3	-0.17861	0.96136	0.19374
1.892	15.97	-12968	3778.2	-0.17832	0.96175	0.19354
1.894	15.963	-12967	3778.1	-0.17802	0.96214	0.19335
1.896	15.978	-12966	3778.1	-0.17773	0.96253	0.19315
1.898	15.98	-12965	3778	-0.17744	0.96292	0.19296
1.9	15.944	-12963	3778	-0.17714	0.96331	0.19276
1.902	15.91	-12961	3777.9	-0.17841	0.96224	0.19422
1.904	15.966	-12959	3777.9	-0.17968	0.96116	0.19569
1.906	15.989	-12963	3777.8	-0.18095	0.96009	0.19715
1.908	15.989	-12968	3777.7	-0.18222	0.95902	0.19862
1.91	15.983	-12965	3777.6	-0.18349	0.95794	0.20008
1.912	15.982	-12963	3777.5	-0.18261	0.95814	0.20086
1.914	15.981	-12964	3777.4	-0.18173	0.95833	0.20164
1.916	15.97	-12965	3777.3	-0.18085	0.95853	0.20242
1.918	15.956	-12964	3777.3	-0.17997	0.95872	0.2032
1.92	15.96	-12962	3777.2	-0.1791	0.95892	0.20398
1.922	15.97	-12961	3777.2	-0.1789	0.95882	0.20389
1.924	15.975	-12960	3777.2	-0.17871	0.95872	0.20379
1.926	15.974	-12961	3777.2	-0.17851	0.95863	0.20369
1.928	15.969	-12961	3777.3	-0.17832	0.95853	0.20359
1.93	15.973	-12962	3777.5	-0.17812	0.95843	0.2035
1.932	15.986	-12963	3777.8	-0.17861	0.95775	0.20311
1.934	15.991	-12961	3778.1	-0.1791	0.95707	0.20272
1.936	15.986	-12959	3778.6	-0.17958	0.95638	0.20232
1.938	15.98	-12957	3779	-0.18007	0.9557	0.20193
1.94	15.974	-12956	3779.5	-0.18056	0.95502	0.20154
1.942	15.971	-12962	3780.2	-0.18154	0.95521	0.20164
1.944	15.979	-12967	3781	-0.18251	0.95541	0.20174
1.946	15.995	-12967	3781.8	-0.18349	0.9556	0.20184
1.948	16.004	-12967	3782.7	-0.18446	0.9558	0.20193
1.95	16.011	-12966	3783.7	-0.18544	0.95599	0.20203
1.952	16.01	-12965	3784.8	-0.18417	0.95658	0.20223
1.954	15.993	-12966	3785.9	-0.1829	0.95716	0.20242
1.956	15.974	-12966	3787.1	-0.18163	0.95775	0.20262
1.958	15.979	-12963	3788.2	-0.18036	0.95833	0.20281
1.96	15.992	-12961	3789.4	-0.1791	0.95892	0.20301
1.962	16.025	-12959	3790.5	-0.1788	0.95882	0.20311
1.964	16.015	-12958	3791.6	-0.17851	0.95872	0.2032
1.966	16.011	-12963	3792.6	-0.17822	0.95863	0.2033
1.968	16.01	-12967	3793.6	-0.17792	0.95853	0.2034
1.97	16.019	-12966	3794.6	-0.17763	0.95843	0.2035
1.972	16.018	-12965	3795.7	-0.17812	0.95824	0.2034
1.974	16.014	-12966	3796.8	-0.17861	0.95804	0.2033
1.976	15.995	-12966	3797.8	-0.1791	0.95785	0.2032
1.978	15.987	-12966	3798.9	-0.17958	0.95765	0.20311
1.98	15.994	-12967	3800	-0.18007	0.95746	0.20301
1.982	15.992	-12964	3801.1	-0.18085	0.95687	0.20213
1.984	15.983	-12961	3802.2	-0.18163	0.95628	0.20125
1.986	15.971	-12961	3803.3	-0.18241	0.9557	0.20037
1.988	15.954	-12961	3804.6	-0.1832	0.95511	0.19949
1.99	15.95	-12963	3805.8	-0.18398	0.95453	0.19862
1.992	15.957	-12966	3807.2	-0.18378	0.95433	0.19842
1.994	15.955	-12964	3808.5	-0.18359	0.95414	0.19823
1.996	15.954	-12962	3809.8	-0.18339	0.95394	0.19803
1.998	15.95	-12961	3811.2	-0.1832	0.95375	0.19784
2	15.949	-12960	3812.6	-0.183	0.95355	0.19764
2.002	15.938	-12960	3814	-0.18251	0.95424	0.19725
2.004	15.922	-12960	3815.4	-0.18202	0.95492	0.19686
2.006	15.909	-12959	3816.7	-0.18154	0.9556	0.19647
2.008	15.908	-12959	3818.1	-0.18105	0.95628	0.19608
2.01	15.909	-12959	3819.4	-0.18056	0.95697	0.19569
2.012	15.913	-12960	3820.5	-0.179	0.95833	0.19481
2.014	15.925	-12966	3821.6	-0.17744	0.9597	0.19393
2.016	15.921	-12972	3822.7	-0.17588	0.96107	0.19305
2.018	15.911	-12969	3823.8	-0.17431	0.96243	0.19217
2.02	15.917	-12966	3824.9	-0.17275	0.9638	0.1913
2.022	15.922	-12963	3825.9	-0.17363	0.9637	0.19149
2.024	15.918	-12961	3826.8	-0.17451	0.9636	0.19169
2.026	15.923	-12961	3827.8	-0.17539	0.96351	0.19188
2.028	15.94	-12961	3828.7	-0.17627	0.96341	0.19208
2.03	15.946	-12959	3829.6	-0.17714	0.96331	0.19227
2.032	15.928	-12957	3830.5	-0.17695	0.9637	0.19266
2.034	15.918	-12951	3831.3	-0.17675	0.96409	0.19305
2.036	15.935	-12945	3832	-0.17656	0.96448	0.19344
2.038	15.932	-12952	3832.7	-0.17636	0.96487	0.19383
2.04	15.918	-12958	3833.4	-0.17617	0.96526	0.19422
2.042	15.929	-12959	3834.1	-0.17627	0.96536	0.19461
2.044	15.95	-12960	3834.7	-0.17636	0.96546	0.195
2.046	15.963	-12962	3835.3	-0.17646	0.96556	0.1954
2.048	15.977	-12963	3835.9	-0.17656	0.96565	0.19579
2.05	15.977	-12961	3836.4	-0.17666	0.96575	0.19618
2.052	15.976	-12959	3836.9	-0.17714	0.96585	0.19588
2.054	15.957	-12960	3837.4	-0.17763	0.96595	0.19559
2.056	15.951	-12960	3837.9	-0.17812	0.96604	0.1953
2.058	15.964	-12960	3838.4	-0.17861	0.96614	0.195
2.06	15.966	-12960	3838.9	-0.1791	0.96624	0.19471
2.062	15.96	-12959	3839.4	-0.17871	0.96614	0.19461
2.064	15.969	-12958	3839.8	-0.17832	0.96604	0.19452
2.066	15.972	-12961	3840.2	-0.17792	0.96595	0.19442
2.068	15.957	-12964	3840.6	-0.17753	0.96585	0.19432
2.07	15.991	-12967	3841	-0.17714	0.96575	0.19422
2.072	15.982	-12969	3841	-0.17832	0.96595	0.19461
2.074	15.975	-12971	3841.1	-0.17949	0.96614	0.195
2.076	15.98	-12973	3841	-0.18066	0.96634	0.1954
2.078	15.993	-12966	3840.7	-0.18183	0.96653	0.19579
2.08	15.995	-12959	3840.5	-0.183	0.96673	0.19618
2.082	15.983	-12957	3840.1	-0.18212	0.9678	0.19598
2.084	15.985	-12956	3839.8	-0.18124	0.96888	0.19579
2.086	15.992	-12955	3839.4	-0.18036	0.96995	0.19559
2.088	15.992	-12954	3838.9	-0.17949	0.97102	0.1954
2.09	15.995	-12954	3838.5	-0.17861	0.9721	0.1952
2.092	15.995	-12955	3838	-0.17812	0.97112	0.19432
2.094	15.986	-12954	3837.6	-0.17763	0.97014	0.19344
2.096	15.979	-12952	3837.1	-0.17714	0.96917	0.19256
2.098	15.978	-12951	3836.6	-0.17666	0.96819	0.19169
2.1	15.98	-12950	3836.1	-0.17617	0.96722	0.19081
2.102	15.989	-12950	3835.6	-0.17529	0.96683	0.1912
2.104	15.99	-12950	3835	-0.17441	0.96644	0.19159
2.106	15.977	-12951	3834.5	-0.17353	0.96604	0.19198
2.108	15.973	-12953	3833.9	-0.17265	0.96565	0.19237
2.11	15.983	-12949	3833.3	-0.17178	0.96526	0.19276
2.112	15.987	-12946	3832.6	-0.17226	0.96497	0.19315
2.114	15.987	-12947	3832	-0.17275	0.96468	0.19354
2.116	16.001	-12947	3831.4	-0.17324	0.96439	0.19393
2.118	16.001	-12948	3830.7	-0.17373	0.96409	0.19432
2.12	15.98	-12950	3830.1	-0.17422	0.9638	0.19471
2.122	15.964	-12950	3829.4	-0.17422	0.964	0.19481
2.124	15.961	-12949	3828.7	-0.17422	0.96419	0.19491
2.126	15.971	-12950	3828	-0.17422	0.96439	0.195
2.128	15.983	-12951	3827.4	-0.17422	0.96458	0.1951
2.13	15.988	-12951	3826.7	-0.17422	0.96478	0.1952
2.132	16.003	-12950	3826	-0.17431	0.96419	0.19559
2.134	16.023	-12949	3825.3	-0.17441	0.9636	0.19598
2.136	16.02	-12948	3824.7	-0.17451	0.96302	0.19637
2.138	16.009	-12953	3824	-0.17461	0.96243	0.19676
2.14	15.993	-12957	3823.3	-0.1747	0.96185	0.19715
2.142	15.975	-12951	3822.6	-0.17461	0.96234	0.19666
2.144	15.985	-12945	3821.9	-0.17451	0.96282	0.19618
2.146	15.992	-12945	3821.2	-0.17441	0.96331	0.19569
2.148	15.999	-12946	3820.6	-0.17431	0.9638	0.1952
2.15	15.978	-12949	3819.9	-0.17422	0.96429	0.19471
2.152	15.99	-12953	3819.3	-0.17392	0.9638	0.19452
2.154	16.004	-12952	3818.7	-0.17363	0.96331	0.19432
2.156	15.981	-12951	3818.1	-0.17334	0.96282	0.19413
2.158	15.973	-12958	3817.6	-0.17304	0.96234	0.19393
2.16	15.996	-12965	3817	-0.17275	0.96185	0.19374
2.162	15.993	-12965	3816.5	-0.17402	0.96204	0.19393
2.164	15.967	-12966	3816	-0.17529	0.96224	0.19413
2.166	15.976	-12967	3815.4	-0.17656	0.96243	0.19432
2.168	15.977	-12968	3814.9	-0.17783	0.96263	0.19452
2.17	15.967	-12963	3814.4	-0.1791	0.96282	0.19471
2.172	15.986	-12958	3813.9	-0.17997	0.96204	0.19618
2.174	15.99	-12960	3813.4	-0.18085	0.96126	0.19764
2.176	15.986	-12962	3812.7	-0.18173	0.96048	0.1991
2.178	15.985	-12961	3811.8	-0.18261	0.9597	0.20057
2.18	15.978	-12959	3811	-0.18349	0.95892	0.20203
2.182	15.972	-12962	3810.4	-0.18036	0.95921	0.1993
2.184	15.984	-12965	3809.8	-0.17724	0.95951	0.19657
2.186	15.997	-12963	3809.4	-0.17412	0.9598	0.19383
2.188	15.989	-12962	3809.2	-0.171	0.96009	0.1911
2.19	15.968	-12963	3809	-0.16787	0.96038	0.18837
2.192	15.956	-12964	3809	-0.16895	0.96107	0.18905
2.194	15.958	-12956	3808.9	-0.17002	0.96175	0.18973
2.196	15.958	-12947	3808.9	-0.17109	0.96243	0.19042
2.198	15.95	-12947	3808.9	-0.17217	0.96312	0.1911
2.2	15.938	-12946	3809	-0.17324	0.9638	0.19178
2.202	15.934	-12945	3809	-0.17431	0.96341	0.19247
2.204	15.95	-12944	3809	-0.17539	0.96302	0.19315
2.206	15.964	-12952	3808.7	-0.17646	0.96263	0.19383
2.208	15.953	-12960	3808.2	-0.17753	0.96224	0.19452
2.21	15.957	-12958	3807.7	-0.17861	0.96185	0.1952
2.212	15.953	-12956	3807.6	-0.17588	0.96302	0.19422
2.214	15.93	-12951	3807.4	-0.17314	0.96419	0.19325
2.216	15.908	-12946	3807.3	-0.17041	0.96536	0.19227
2.218	15.909	-12950	3807.2	-0.16768	0.96653	0.1913
2.22	15.917	-12954	3807	-0.16494	0.9677	0.19032
2.222	15.91	-12947	3807.1	-0.16592	0.96595	0.19149
2.224	15.914	-12940	3807.2	-0.1669	0.96419	0.19266
2.226	15.909	-12947	3807.2	-0.16787	0.96243	0.19383
2.228	15.901	-12954	3807.3	-0.16885	0.96068	0.195
2.23	15.89	-12952	3807.3	-0.16982	0.95892	0.19618
2.232	15.893	-12949	3807.2	-0.17129	0.95921	0.19588
2.234	15.903	-12951	3807.1	-0.17275	0.95951	0.19559
2.236	15.918	-12953	3807.1	-0.17422	0.9598	0.1953
2.238	15.926	-12956	3807	-0.17568	0.96009	0.195
2.24	15.906	-12958	3807	-0.17714	0.96038	0.19471
2.242	15.929	-12960	3806.8	-0.1748	0.96126	0.19374
2.244	15.933	-12963	3806.5	-0.17246	0.96214	0.19276
2.246	15.928	-12957	3806.5	-0.17012	0.96302	0.19178
2.248	15.95	-12952	3806.7	-0.16777	0.9639	0.19081
2.25	15.975	-12954	3807	-0.16543	0.96478	0.18983
2.252	15.989	-12956	3807.1	-0.16553	0.964	0.19061
2.254	15.992	-12951	3807.3	-0.16563	0.96321	0.19139
2.256	15.991	-12947	3807.3	-0.16572	0.96243	0.19217
2.258	15.989	-12947	3807.1	-0.16582	0.96165	0.19296
2.26	15.988	-12947	3807	-0.16592	0.96087	0.19374
2.262	16.001	-12953	3807.1	-0.16748	0.96146	0.19247
2.264	16.015	-12959	3807.2	-0.16904	0.96204	0.1912
2.266	16.012	-12952	3807.3	-0.1706	0.96263	0.18993
2.268	16.006	-12945	3807.3	-0.17217	0.96321	0.18866
2.27	16.021	-12949	3807.3	-0.17373	0.9638	0.18739
2.272	16.027	-12953	3807.7	-0.17246	0.9639	0.18915
2.274	16.014	-12952	3808.1	-0.17119	0.964	0.19091
2.276	16.01	-12951	3808.5	-0.16992	0.96409	0.19266
2.278	16.009	-12957	3808.9	-0.16865	0.96419	0.19442
2.28	16.008	-12962	3809.3	-0.16738	0.96429	0.19618
2.282	16.004	-12956	3809.1	-0.171	0.96195	0.19579
2.284	16.006	-12950	3808.8	-0.17461	0.9596	0.1954
2.286	16.022	-12955	3808.7	-0.17822	0.95726	0.195
2.288	16.016	-12960	3808.8	-0.18183	0.95492	0.19461
2.29	16.007	-12960	3808.9	-0.18544	0.95258	0.19422
2.292	16.003	-12960	3809.2	-0.18329	0.95394	0.1952
2.294	16.005	-12950	3809.6	-0.18115	0.95531	0.19618
2.296	16.011	-12940	3809.9	-0.179	0.95668	0.19715
2.298	16.01	-12945	3810.3	-0.17685	0.95804	0.19813
2.3	16.015	-12951	3810.6	-0.1747	0.95941	0.1991
2.302	16.014	-12950	3811	-0.175	0.96058	0.1992
2.304	16.004	-12950	3811.4	-0.17529	0.96175	0.1993
2.306	15.997	-12956	3811.5	-0.17558	0.96292	0.1994
2.308	15.982	-12961	3811.3	-0.17588	0.96409	0.19949
2.31	15.98	-12961	3811.1	-0.17617	0.96526	0.19959
2.312	15.982	-12960	3811.2	-0.17597	0.9636	0.1991
2.314	16.002	-12958	3811.3	-0.17578	0.96195	0.19862
2.316	16.007	-12956	3811.3	-0.17558	0.96029	0.19813
2.318	16.01	-12950	3811.3	-0.17539	0.95863	0.19764
2.32	16.01	-12943	3811.3	-0.17519	0.95697	0.19715
2.322	16.014	-12943	3811.3	-0.17578	0.95824	0.19871
2.324	16.013	-12944	3811.4	-0.17636	0.95951	0.20028
2.326	16.005	-12947	3811.5	-0.17695	0.96077	0.20184
2.328	16.006	-12951	3811.6	-0.17753	0.96204	0.2034
2.33	15.998	-12952	3811.8	-0.17812	0.96331	0.20496
2.332	16.001	-12953	3811.4	-0.17822	0.96136	0.20506
2.334	16.004	-12955	3810.9	-0.17832	0.95941	0.20516
2.336	16.018	-12957	3810.5	-0.17841	0.95746	0.20525
2.338	16.017	-12953	3810.2	-0.17851	0.9555	0.20535
2.34	16.017	-12948	3809.8	-0.17861	0.95355	0.20545
2.342	16.024	-12951	3809.3	-0.17871	0.95463	0.20467
2.344	16.003	-12954	3808.7	-0.1788	0.9557	0.20389
2.346	16.014	-12954	3808.1	-0.1789	0.95677	0.20311
2.348	16.017	-12955	3807.7	-0.179	0.95785	0.20232
2.35	16.003	-12949	3807.2	-0.1791	0.95892	0.20154
2.352	15.989	-12944	3806.9	-0.17812	0.95941	0.20223
2.354	15.98	-12955	3806.6	-0.17714	0.9599	0.20291
2.356	15.972	-12967	3805.9	-0.17617	0.96038	0.20359
2.358	15.975	-12963	3804.8	-0.17519	0.96087	0.20428
2.36	15.983	-12959	3803.8	-0.17422	0.96136	0.20496
2.362	15.984	-12950	3802.9	-0.17509	0.96038	0.2032
2.364	15.991	-12941	3802	-0.17597	0.95941	0.20145
2.366	15.999	-12944	3801.2	-0.17685	0.95843	0.19969
2.368	15.995	-12948	3800.5	-0.17773	0.95746	0.19793
2.37	15.984	-12948	3799.7	-0.17861	0.95648	0.19618
2.372	15.969	-12948	3799	-0.17841	0.95687	0.19784
2.374	15.967	-12946	3798.3	-0.17822	0.95726	0.19949
2.376	15.976	-12943	3797.8	-0.17802	0.95765	0.20115
2.378	15.969	-12941	3797.4	-0.17783	0.95804	0.20281
2.38	15.953	-12938	3797	-0.17763	0.95843	0.20447
2.382	15.914	-12943	3795.9	-0.17929	0.95736	0.2032
2.384	15.879	-12948	3794.9	-0.18095	0.95628	0.20193
2.386	15.834	-12949	3794	-0.18261	0.95521	0.20067
2.388	15.784	-12949	3793.3	-0.18427	0.95414	0.1994
2.39	15.737	-12945	3792.5	-0.18593	0.95306	0.19813
2.392	15.69	-12941	3791.8	-0.18446	0.95394	0.19813
2.394	15.632	-12944	3791.1	-0.183	0.95482	0.19813
2.396	15.609	-12946	3790.5	-0.18154	0.9557	0.19813
2.398	15.603	-12944	3789.8	-0.18007	0.95658	0.19813
2.4	15.6	-12942	3789.2	-0.17861	0.95746	0.19813
2.402	15.615	-12942	3789	-0.18056	0.95716	0.19823
2.404	15.635	-12941	3788.8	-0.18251	0.95687	0.19832
2.406	15.629	-12944	3788.5	-0.18446	0.95658	0.19842
2.408	15.613	-12946	3788.2	-0.18642	0.95628	0.19852
2.41	15.596	-12950	3788	-0.18837	0.95599	0.19862
2.412	15.599	-12954	3788	-0.18534	0.95716	0.19705
2.414	15.603	-12950	3787.9	-0.18232	0.95833	0.19549
2.416	15.597	-12945	3787.8	-0.17929	0.95951	0.19393
2.418	15.551	-12941	3787.5	-0.17627	0.96068	0.19237
2.42	15.517	-12937	3787.2	-0.17324	0.96185	0.19081
2.422	15.497	-12937	3787.3	-0.17509	0.96068	0.19042
2.424	15.474	-12936	3787.4	-0.17695	0.95951	0.19003
2.426	15.464	-12944	3787.5	-0.1788	0.95833	0.18964
2.428	15.486	-12952	3787.4	-0.18066	0.95716	0.18925
2.43	15.517	-12945	3787.3	-0.18251	0.95599	0.18886
2.432	15.538	-12937	3787.8	-0.18154	0.95638	0.18993
2.434	15.557	-12941	3788.2	-0.18056	0.95677	0.191
2.436	15.58	-12945	3788.7	-0.17958	0.95716	0.19208
2.438	15.608	-12946	3789.4	-0.17861	0.95755	0.19315
2.44	15.638	-12946	3790	-0.17763	0.95794	0.19422
2.442	15.679	-12946	3790.7	-0.17636	0.95687	0.19432
2.444	15.746	-12947	3791.5	-0.17509	0.9558	0.19442
2.446	15.802	-12945	3792.2	-0.17383	0.95472	0.19452
2.448	15.827	-12944	3792.8	-0.17256	0.95365	0.19461
2.45	15.856	-12944	3793.5	-0.17129	0.95258	0.19471
2.452	15.892	-12944	3794.2	-0.17295	0.95404	0.1952
2.454	15.921	-12944	3794.9	-0.17461	0.9555	0.19569
2.456	15.935	-12943	3795.7	-0.17627	0.95697	0.19618
2.458	15.942	-12945	3796.4	-0.17792	0.95843	0.19666
2.46	15.958	-12946	3797.2	-0.17958	0.9599	0.19715
2.462	15.977	-12951	3797.9	-0.1789	0.95931	0.19852
2.464	15.986	-12956	3798.6	-0.17822	0.95872	0.19988
2.466	15.981	-12957	3799.3	-0.17753	0.95814	0.20125
2.468	15.975	-12957	3800	-0.17685	0.95755	0.20262
2.47	15.999	-12947	3800.8	-0.17617	0.95697	0.20398
2.472	16.008	-12937	3801.3	-0.17627	0.95707	0.2035
2.474	15.994	-12937	3801.9	-0.17636	0.95716	0.20301
2.476	15.994	-12938	3802.4	-0.17646	0.95726	0.20252
2.478	16.007	-12942	3802.7	-0.17656	0.95736	0.20203
2.48	16.036	-12945	3803.1	-0.17666	0.95746	0.20154
2.482	16.057	-12944	3803.4	-0.17588	0.95736	0.20164
2.484	16.056	-12943	3803.7	-0.17509	0.95726	0.20174
2.486	16.033	-12943	3803.9	-0.17431	0.95716	0.20184
2.488	16.018	-12944	3804	-0.17353	0.95707	0.20193
2.49	16.015	-12946	3804.1	-0.17275	0.95697	0.20203
2.492	16.023	-12948	3804.1	-0.17314	0.95619	0.20193
2.494	16.025	-12947	3804.1	-0.17353	0.95541	0.20184
2.496	16.027	-12945	3804	-0.17392	0.95463	0.20174
2.498	16.026	-12945	3803.8	-0.17431	0.95384	0.20164
2.5	16.025	-12946	3803.7	-0.1747	0.95306	0.20154
2.502	16.032	-12948	3803.4	-0.1749	0.95326	0.20203
2.504	16.027	-12951	3803.1	-0.17509	0.95345	0.20252
2.506	16.023	-12951	3802.7	-0.17529	0.95365	0.20301
2.508	16.031	-12950	3802.2	-0.17548	0.95384	0.2035
2.51	16.036	-12945	3801.8	-0.17568	0.95404	0.20398
2.512	16.036	-12939	3801.2	-0.17509	0.95375	0.20389
2.514	16.027	-12940	3800.6	-0.17451	0.95345	0.20379
2.516	16.022	-12940	3799.9	-0.17392	0.95316	0.20369
2.518	16.028	-12947	3799.2	-0.17334	0.95287	0.20359
2.52	16.026	-12953	3798.4	-0.17275	0.95258	0.2035
2.522	16.017	-12950	3797.6	-0.17344	0.95287	0.2035
2.524	16.008	-12946	3796.7	-0.17412	0.95316	0.2035
2.526	16.013	-12944	3795.8	-0.1748	0.95345	0.2035
2.528	16.026	-12943	3794.8	-0.17548	0.95375	0.2035
2.53	16.029	-12944	3793.9	-0.17617	0.95404	0.2035
2.532	16.028	-12945	3792.9	-0.17568	0.95384	0.20379
2.534	16.028	-12944	3791.9	-0.17519	0.95365	0.20408
2.536	16.019	-12942	3790.9	-0.1747	0.95345	0.20437
2.538	16.009	-12942	3789.9	-0.17422	0.95326	0.20467
2.54	16.003	-12942	3788.9	-0.17373	0.95306	0.20496
2.542	15.986	-12944	3787.9	-0.17548	0.95267	0.20476
2.544	15.97	-12945	3786.9	-0.17724	0.95228	0.20457
2.546	15.985	-12944	3785.9	-0.179	0.95189	0.20437
2.548	16.011	-12943	3785	-0.18076	0.9515	0.20418
2.55	16.021	-12942	3784.1	-0.18251	0.95111	0.20398
2.552	16.022	-12942	3783.3	-0.18241	0.95033	0.20213
2.554	16.03	-12939	3782.6	-0.18232	0.94955	0.20028
2.556	16.015	-12937	3781.9	-0.18222	0.94877	0.19842
2.558	16.008	-12937	3781.2	-0.18212	0.94799	0.19657
2.56	15.999	-12938	3780.6	-0.18202	0.94721	0.19471
2.562	15.999	-12939	3780.2	-0.18232	0.94799	0.1953
2.564	15.999	-12941	3779.8	-0.18261	0.94877	0.19588
2.566	15.989	-12946	3779.4	-0.1829	0.94955	0.19647
2.568	16.013	-12950	3779.2	-0.1832	0.95033	0.19705
2.57	16.027	-12949	3779	-0.18349	0.95111	0.19764
2.572	16.03	-12948	3779.1	-0.1828	0.9518	0.19725
2.574	16.032	-12946	3779.2	-0.18212	0.95248	0.19686
2.576	16.044	-12944	3779.5	-0.18144	0.95316	0.19647
2.578	16.048	-12945	3779.9	-0.18076	0.95384	0.19608
2.58	16.038	-12945	3780.4	-0.18007	0.95453	0.19569
2.582	16.035	-12944	3781.1	-0.18036	0.95394	0.19491
2.584	16.038	-12942	3781.9	-0.18066	0.95336	0.19413
2.586	16.047	-12942	3782.8	-0.18095	0.95277	0.19335
2.588	16.043	-12941	3783.9	-0.18124	0.95219	0.19256
2.59	16.029	-12944	3784.9	-0.18154	0.9516	0.19178
2.592	16.04	-12946	3786.3	-0.18046	0.95394	0.19227
2.594	16.041	-12946	3787.7	-0.17939	0.95628	0.19276
2.596	16.044	-12945	3789.2	-0.17832	0.95863	0.19325
2.598	16.047	-12946	3790.8	-0.17724	0.96097	0.19374
2.6	16.051	-12947	3792.5	-0.17617	0.96331	0.19422
2.602	16.055	-12940	3794.2	-0.17744	0.96253	0.19471
2.604	16.053	-12933	3795.9	-0.17871	0.96175	0.1952
2.606	16.049	-12941	3797.7	-0.17997	0.96097	0.19569
2.608	16.046	-12949	3799.5	-0.18124	0.96019	0.19618
2.61	16.047	-12947	3801.4	-0.18251	0.95941	0.19666
2.612	16.049	-12945	3803.2	-0.18271	0.95912	0.19813
2.614	16.053	-12942	3805	-0.1829	0.95882	0.19959
2.616	16.063	-12938	3806.9	-0.1831	0.95853	0.20106
2.618	16.079	-12945	3808.7	-0.18329	0.95824	0.20252
2.62	16.094	-12951	3810.5	-0.18349	0.95794	0.20398
2.622	16.101	-12944	3812.4	-0.18398	0.95804	0.20291
2.624	16.093	-12936	3814.3	-0.18446	0.95814	0.20184
2.626	16.077	-12941	3816.2	-0.18495	0.95824	0.20076
2.628	16.067	-12947	3818	-0.18544	0.95833	0.19969
2.63	16.058	-12951	3819.8	-0.18593	0.95843	0.19862
2.632	16.045	-12956	3821.7	-0.18593	0.95921	0.19852
2.634	16.046	-12949	3823.5	-0.18593	0.95999	0.19842
2.636	16.054	-12942	3825.4	-0.18593	0.96077	0.19832
2.638	16.045	-12943	3827.2	-0.18593	0.96156	0.19823
2.64	16.035	-12943	3829	-0.18593	0.96234	0.19813
2.642	16.042	-12938	3830.8	-0.1872	0.96282	0.19852
2.644	16.036	-12933	3832.6	-0.18847	0.96331	0.19891
2.646	16.032	-12934	3834.4	-0.18973	0.9638	0.1993
2.648	16.033	-12935	3836.1	-0.191	0.96429	0.19969
2.65	16.027	-12936	3837.8	-0.19227	0.96478	0.20008
2.652	16.02	-12938	3839.4	-0.1911	0.96468	0.20057
2.654	16.011	-12937	3841.1	-0.18993	0.96458	0.20106
2.656	16.008	-12936	3842.6	-0.18876	0.96448	0.20154
2.658	15.998	-12935	3844.1	-0.18759	0.96439	0.20203
2.66	15.987	-12933	3845.5	-0.18642	0.96429	0.20252
2.662	15.973	-12933	3846.9	-0.18651	0.96321	0.20291
2.664	15.994	-12933	3848.2	-0.18661	0.96214	0.2033
2.666	16.003	-12935	3849.4	-0.18671	0.96107	0.20369
2.668	15.983	-12937	3850.6	-0.18681	0.95999	0.20408
2.67	15.974	-12937	3851.7	-0.1869	0.95892	0.20447
2.672	15.973	-12937	3852.9	-0.18681	0.95931	0.20457
2.674	15.97	-12939	3854.1	-0.18671	0.9597	0.20467
2.676	15.969	-12941	3855.1	-0.18661	0.96009	0.20476
2.678	15.979	-12946	3856	-0.18651	0.96048	0.20486
2.68	15.972	-12951	3856.8	-0.18642	0.96087	0.20496
2.682	15.97	-12946	3857.5	-0.18603	0.96058	0.20535
2.684	15.993	-12941	3858.2	-0.18564	0.96029	0.20574
2.686	16.001	-12942	3858.9	-0.18524	0.95999	0.20613
2.688	15.997	-12943	3859.4	-0.18485	0.9597	0.20652
2.69	15.99	-12941	3859.9	-0.18446	0.95941	0.20691
2.692	15.984	-12938	3860.5	-0.18583	0.96029	0.2074
2.694	15.992	-12939	3861	-0.1872	0.96116	0.20789
2.696	16.011	-12941	3861.4	-0.18856	0.96204	0.20838
2.698	16.028	-12940	3861.6	-0.18993	0.96292	0.20886
2.7	16.042	-12939	3861.9	-0.1913	0.9638	0.20935
2.702	16.047	-12940	3862.1	-0.191	0.96263	0.21013
2.704	16.04	-12941	3862.3	-0.19071	0.96146	0.21091
2.706	16.034	-12939	3862.4	-0.19042	0.96029	0.21169
2.708	16.029	-12938	3862.3	-0.19012	0.95912	0.21248
2.71	16.018	-12936	3862.1	-0.18983	0.95794	0.21326
2.712	16.019	-12935	3862.2	-0.18905	0.95804	0.21208
2.714	16.036	-12934	3862.2	-0.18827	0.95814	0.21091
2.716	16.05	-12932	3862.1	-0.18749	0.95824	0.20974
2.718	16.05	-12939	3861.7	-0.18671	0.95833	0.20857
2.72	16.049	-12946	3861.4	-0.18593	0.95843	0.2074
2.722	16.057	-12944	3861.1	-0.18593	0.95755	0.20769
2.724	16.057	-12941	3860.7	-0.18593	0.95668	0.20799
2.726	16.059	-12938	3860.2	-0.18593	0.9558	0.20828
2.728	16.064	-12934	3859.5	-0.18593	0.95492	0.20857
2.73	16.059	-12935	3858.8	-0.18593	0.95404	0.20886
2.732	16.051	-12936	3858.1	-0.18573	0.95306	0.20808
2.734	16.055	-12939	3857.3	-0.18554	0.95209	0.2073
2.736	16.072	-12942	3856.4	-0.18534	0.95111	0.20652
2.738	16.066	-12937	3855.4	-0.18515	0.95014	0.20574
2.74	16.058	-12931	3854.3	-0.18495	0.94916	0.20496
2.742	16.049	-12937	3853.3	-0.18622	0.94994	0.20398
2.744	16.051	-12943	3852.2	-0.18749	0.95072	0.20301
2.746	16.051	-12941	3851.1	-0.18876	0.9515	0.20203
2.748	16.06	-12939	3850	-0.19003	0.95228	0.20106
2.75	16.062	-12932	3848.8	-0.1913	0.95306	0.20008
2.752	16.063	-12925	3847.8	-0.19159	0.95433	0.1993
2.754	16.057	-12937	3846.8	-0.19188	0.9556	0.19852
2.756	16.048	-12950	3845.7	-0.19217	0.95687	0.19774
2.758	16.029	-12944	3844.6	-0.19247	0.95814	0.19696
2.76	16.016	-12938	3843.5	-0.19276	0.95941	0.19618
2.762	16.015	-12939	3842.6	-0.19296	0.95951	0.19676
2.764	16.035	-12940	3841.7	-0.19315	0.9596	0.19735
2.766	16.066	-12937	3840.8	-0.19335	0.9597	0.19793
2.768	16.081	-12934	3839.8	-0.19354	0.9598	0.19852
2.77	16.07	-12933	3838.9	-0.19374	0.9599	0.1991
2.772	16.061	-12933	3838.1	-0.19296	0.96068	0.19871
2.774	16.051	-12930	3837.4	-0.19217	0.96146	0.19832
2.776	16.065	-12928	3836.6	-0.19139	0.96224	0.19793
2.778	16.076	-12933	3835.9	-0.19061	0.96302	0.19754
2.78	16.072	-12938	3835.2	-0.18983	0.9638	0.19715
2.782	16.061	-12932	3834.6	-0.18964	0.96282	0.19784
2.784	16.07	-12926	3833.9	-0.18944	0.96185	0.19852
2.786	16.075	-12929	3833.3	-0.18925	0.96087	0.1992
2.788	16.058	-12932	3832.6	-0.18905	0.9599	0.19988
2.79	16.049	-12930	3831.9	-0.18886	0.95892	0.20057
2.792	16.049	-12929	3831.4	-0.18847	0.96009	0.19959
2.794	16.06	-12925	3830.8	-0.18808	0.96126	0.19862
2.796	16.075	-12922	3830.3	-0.18768	0.96243	0.19764
2.798	16.076	-12925	3829.7	-0.18729	0.9636	0.19666
2.8	16.074	-12929	3829.1	-0.1869	0.96478	0.19569
2.802	16.069	-12931	3828.7	-0.18642	0.96419	0.19598
2.804	16.071	-12933	3828.3	-0.18593	0.9636	0.19627
2.806	16.073	-12932	3827.8	-0.18544	0.96302	0.19657
2.808	16.08	-12931	3827.3	-0.18495	0.96243	0.19686
2.81	16.079	-12932	3826.8	-0.18446	0.96185	0.19715
2.812	16.076	-12932	3826.5	-0.18564	0.96243	0.19705
2.814	16.08	-12932	3826.2	-0.18681	0.96302	0.19696
2.816	16.077	-12931	3825.8	-0.18798	0.9636	0.19686
2.818	16.074	-12931	3825.3	-0.18915	0.96419	0.19676
2.82	16.078	-12931	3824.9	-0.19032	0.96478	0.19666
2.822	16.063	-12924	3824.7	-0.19032	0.96487	0.19705
2.824	16.053	-12916	3824.5	-0.19032	0.96497	0.19744
2.826	16.054	-12929	3824.3	-0.19032	0.96507	0.19784
2.828	16.061	-12941	3824	-0.19032	0.96517	0.19823
2.83	16.069	-12938	3823.8	-0.19032	0.96526	0.19862
2.832	16.065	-12934	3823.8	-0.19012	0.96507	0.19823
2.834	16.046	-12933	3823.7	-0.18993	0.96487	0.19784
2.836	16.028	-12933	3823.7	-0.18973	0.96468	0.19744
2.838	16.024	-12935	3823.6	-0.18954	0.96448	0.19705
2.84	16.051	-12937	3823.4	-0.18934	0.96429	0.19666
2.842	16.075	-12935	3823.5	-0.18925	0.96429	0.19696
2.844	16.077	-12934	3823.6	-0.18915	0.96429	0.19725
2.846	16.067	-12931	3823.7	-0.18905	0.96429	0.19754
2.848	16.059	-12929	3823.8	-0.18895	0.96429	0.19784
2.85	16.058	-12931	3823.8	-0.18886	0.96429	0.19813
2.852	16.059	-12932	3824.1	-0.18876	0.96312	0.1993
2.854	16.064	-12933	3824.3	-0.18866	0.96195	0.20047
2.856	16.055	-12933	3824.6	-0.18856	0.96077	0.20164
2.858	16.034	-12930	3824.7	-0.18847	0.9596	0.20281
2.86	16.024	-12928	3824.9	-0.18837	0.95843	0.20398
2.862	16.019	-12933	3825.3	-0.18788	0.95794	0.20398
2.864	16.009	-12938	3825.6	-0.18739	0.95746	0.20398
2.866	15.989	-12937	3825.9	-0.1869	0.95697	0.20398
2.868	15.987	-12936	3826.2	-0.18642	0.95648	0.20398
2.87	16.015	-12933	3826.6	-0.18593	0.95599	0.20398
2.872	16.026	-12931	3826.8	-0.18515	0.95541	0.20506
2.874	16.008	-12929	3827.1	-0.18437	0.95482	0.20613
2.876	16.002	-12928	3827.4	-0.18359	0.95424	0.2072
2.878	15.994	-12929	3827.6	-0.1828	0.95365	0.20828
2.88	15.978	-12929	3827.8	-0.18202	0.95306	0.20935
2.882	15.984	-12932	3828	-0.18222	0.95267	0.20847
2.884	15.989	-12935	3828.1	-0.18241	0.95228	0.2076
2.886	15.981	-12938	3828.2	-0.18261	0.95189	0.20672
2.888	15.982	-12942	3828.1	-0.1828	0.9515	0.20584
2.89	15.992	-12941	3828.1	-0.183	0.95111	0.20496
2.892	15.999	-12941	3828.1	-0.1831	0.95111	0.20535
2.894	16	-12936	3828	-0.1832	0.95111	0.20574
2.896	16.007	-12931	3827.9	-0.18329	0.95111	0.20613
2.898	16.018	-12929	3827.7	-0.18339	0.95111	0.20652
2.9	16.031	-12928	3827.5	-0.18349	0.95111	0.20691
2.902	16.033	-12930	3827.4	-0.18437	0.9515	0.20584
2.904	16.034	-12933	3827.2	-0.18524	0.95189	0.20476
2.906	16.04	-12936	3826.9	-0.18612	0.95228	0.20369
2.908	16.045	-12938	3826.5	-0.187	0.95267	0.20262
2.91	16.055	-12936	3826.1	-0.18788	0.95306	0.20154
2.912	16.072	-12935	3825.8	-0.18671	0.95375	0.20232
2.914	16.087	-12931	3825.5	-0.18554	0.95443	0.20311
2.916	16.106	-12928	3824.9	-0.18437	0.95511	0.20389
2.918	16.113	-12931	3824.2	-0.1832	0.9558	0.20467
2.92	16.105	-12933	3823.4	-0.18202	0.95648	0.20545
2.922	16.094	-12936	3822.9	-0.18368	0.95531	0.20428
2.924	16.084	-12940	3822.4	-0.18534	0.95414	0.20311
2.926	16.067	-12934	3821.8	-0.187	0.95297	0.20193
2.928	16.075	-12928	3821.1	-0.18866	0.9518	0.20076
2.93	16.1	-12928	3820.3	-0.19032	0.95062	0.19959
2.932	16.113	-12928	3819.7	-0.18983	0.9515	0.20028
2.934	16.105	-12932	3819	-0.18934	0.95238	0.20096
2.936	16.095	-12936	3818.3	-0.18886	0.95326	0.20164
2.938	16.094	-12935	3817.6	-0.18837	0.95414	0.20232
2.94	16.09	-12934	3816.9	-0.18788	0.95502	0.20301
2.942	16.093	-12934	3816.5	-0.18866	0.95521	0.20281
2.944	16.107	-12934	3816	-0.18944	0.95541	0.20262
2.946	16.107	-12931	3815.5	-0.19022	0.9556	0.20242
2.948	16.09	-12929	3815.1	-0.191	0.9558	0.20223
2.95	16.075	-12924	3814.6	-0.19178	0.95599	0.20203
2.952	16.087	-12919	3814.3	-0.19091	0.95589	0.20174
2.954	16.112	-12929	3814.1	-0.19003	0.9558	0.20145
2.956	16.108	-12939	3813.8	-0.18915	0.9557	0.20115
2.958	16.091	-12937	3813.5	-0.18827	0.9556	0.20086
2.96	16.086	-12935	3813.2	-0.18739	0.9555	0.20057
2.962	16.082	-12934	3813.1	-0.18847	0.95619	0.20086
2.964	16.081	-12934	3813	-0.18954	0.95687	0.20115
2.966	16.087	-12935	3812.9	-0.19061	0.95755	0.20145
2.968	16.077	-12936	3812.8	-0.19169	0.95824	0.20174
2.97	16.071	-12936	3812.6	-0.19276	0.95892	0.20203
2.972	16.095	-12936	3812.7	-0.19139	0.95843	0.20184
2.974	16.099	-12933	3812.7	-0.19003	0.95794	0.20164
2.976	16.111	-12930	3812.7	-0.18866	0.95746	0.20145
2.978	16.123	-12933	3812.6	-0.18729	0.95697	0.20125
2.98	16.127	-12935	3812.6	-0.18593	0.95648	0.20106
2.982	16.122	-12929	3812.6	-0.18651	0.95648	0.20145
2.984	16.121	-12923	3812.5	-0.1871	0.95648	0.20184
2.986	16.108	-12922	3812.5	-0.18768	0.95648	0.20223
2.988	16.095	-12921	3812.4	-0.18827	0.95648	0.20262
2.99	16.101	-12924	3812.3	-0.18886	0.95648	0.20301
2.992	16.1	-12927	3812.1	-0.18866	0.95687	0.20193
2.994	16.094	-12928	3812	-0.18847	0.95726	0.20086
2.996	16.083	-12929	3811.9	-0.18827	0.95765	0.19979
2.998	16.09	-12926	3811.9	-0.18808	0.95804	0.19871
3	16.094	-12924	3812	-0.18788	0.95843	0.19764
3.002	16.09	-12927	3812.1	-0.18788	0.95912	0.19735
3.004	16.079	-12930	3812.2	-0.18788	0.9598	0.19705
3.006	16.07	-12930	3812.4	-0.18788	0.96048	0.19676
3.008	16.058	-12930	3812.7	-0.18788	0.96116	0.19647
3.01	16.061	-12930	3813	-0.18788	0.96185	0.19618
3.012	16.066	-12930	3813	-0.18827	0.96136	0.19637
3.014	16.071	-12930	3813	-0.18866	0.96087	0.19657
3.016	16.068	-12929	3813.1	-0.18905	0.96038	0.19676
3.018	16.07	-12926	3813.3	-0.18944	0.9599	0.19696
3.02	16.063	-12924	3813.4	-0.18983	0.95941	0.19715
3.022	16.052	-12925	3813.4	-0.18964	0.95951	0.19764
3.024	16.044	-12926	3813.4	-0.18944	0.9596	0.19813
3.026	16.041	-12927	3813.4	-0.18925	0.9597	0.19862
3.028	16.047	-12928	3813.3	-0.18905	0.9598	0.1991
3.03	16.051	-12929	3813.2	-0.18886	0.9599	0.19959
3.032	16.024	-12929	3813.1	-0.18934	0.9598	0.19979
3.034	15.981	-12928	3812.9	-0.18983	0.9597	0.19998
3.036	15.929	-12926	3812.7	-0.19032	0.9596	0.20018
3.038	15.869	-12925	3812.3	-0.19081	0.95951	0.20037
3.04	15.819	-12923	3811.9	-0.1913	0.95941	0.20057
3.042	15.772	-12922	3811.6	-0.19032	0.95892	0.20125
3.044	15.715	-12922	3811.2	-0.18934	0.95843	0.20193
3.046	15.671	-12920	3810.8	-0.18837	0.95794	0.20262
3.048	15.659	-12918	3810.4	-0.18739	0.95746	0.2033
3.05	15.664	-12918	3809.9	-0.18642	0.95697	0.20398
3.052	15.674	-12918	3809.4	-0.18622	0.95541	0.2034
3.054	15.68	-12922	3808.9	-0.18603	0.95384	0.20281
3.056	15.676	-12926	3808.4	-0.18583	0.95228	0.20223
3.058	15.661	-12927	3807.9	-0.18564	0.95072	0.20164
3.06	15.649	-12929	3807.4	-0.18544	0.94916	0.20106
3.062	15.646	-12929	3807.1	-0.18632	0.95092	0.20028
3.064	15.633	-12929	3806.7	-0.1872	0.95267	0.19949
3.066	15.637	-12928	3806.1	-0.18808	0.95443	0.19871
3.068	15.617	-12928	3805.3	-0.18895	0.95619	0.19793
3.07	15.575	-12926	3804.5	-0.18983	0.95794	0.19715
3.072	15.535	-12924	3803.8	-0.18934	0.95716	0.19764
3.074	15.522	-12923	3803.1	-0.18886	0.95638	0.19813
3.076	15.518	-12923	3802.6	-0.18837	0.9556	0.19862
3.078	15.52	-12926	3802.3	-0.18788	0.95482	0.1991
3.08	15.531	-12930	3801.9	-0.18739	0.95404	0.19959
3.082	15.552	-12931	3801.4	-0.18856	0.95463	0.19979
3.084	15.578	-12933	3800.9	-0.18973	0.95521	0.19998
3.086	15.605	-12929	3800.5	-0.19091	0.9558	0.20018
3.088	15.598	-12925	3800.3	-0.19208	0.95638	0.20037
3.09	15.618	-12925	3800	-0.19325	0.95697	0.20057
3.092	15.651	-12925	3799.7	-0.19256	0.95814	0.20008
3.094	15.715	-12929	3799.4	-0.19188	0.95931	0.19959
3.096	15.811	-12933	3799.2	-0.1912	0.96048	0.1991
3.098	15.897	-12930	3799.1	-0.19052	0.96165	0.19862
3.1	15.946	-12926	3799	-0.18983	0.96282	0.19813
3.102	15.968	-12922	3798.9	-0.18954	0.96312	0.19764
3.104	15.992	-12918	3798.8	-0.18925	0.96341	0.19715
3.106	16.024	-12922	3798.6	-0.18895	0.9637	0.19666
3.108	16.051	-12926	3798.5	-0.18866	0.964	0.19618
3.11	16.066	-12927	3798.4	-0.18837	0.96429	0.19569
3.112	16.078	-12928	3798.3	-0.18827	0.96419	0.19666
3.114	16.09	-12928	3798.2	-0.18817	0.96409	0.19764
3.116	16.099	-12928	3798.1	-0.18808	0.964	0.19862
3.118	16.103	-12931	3797.9	-0.18798	0.9639	0.19959
3.12	16.11	-12934	3797.6	-0.18788	0.9638	0.20057
3.122	16.108	-12937	3797.4	-0.18768	0.96273	0.19979
3.124	16.103	-12941	3797.3	-0.18749	0.96165	0.19901
3.126	16.103	-12933	3797	-0.18729	0.96058	0.19823
3.128	16.094	-12925	3796.8	-0.1871	0.95951	0.19744
3.13	16.086	-12925	3796.6	-0.1869	0.95843	0.19666
3.132	16.096	-12925	3796.5	-0.18661	0.95882	0.19647
3.134	16.124	-12924	3796.4	-0.18632	0.95921	0.19627
3.136	16.152	-12924	3796.4	-0.18603	0.9596	0.19608
3.138	16.16	-12929	3796.5	-0.18573	0.95999	0.19588
3.14	16.149	-12934	3796.7	-0.18544	0.96038	0.19569
3.142	16.138	-12930	3796.8	-0.18622	0.96136	0.19559
3.144	16.119	-12927	3796.9	-0.187	0.96234	0.19549
3.146	16.108	-12928	3797.2	-0.18778	0.96331	0.1954
3.148	16.127	-12929	3797.6	-0.18856	0.96429	0.1953
3.15	16.153	-12929	3797.9	-0.18934	0.96526	0.1952
3.152	16.147	-12929	3798.5	-0.18856	0.96409	0.19569
3.154	16.135	-12925	3799.1	-0.18778	0.96292	0.19618
3.156	16.134	-12921	3799.8	-0.187	0.96175	0.19666
3.158	16.139	-12919	3800.4	-0.18622	0.96058	0.19715
3.16	16.138	-12918	3801.1	-0.18544	0.95941	0.19764
3.162	16.127	-12927	3801.9	-0.18417	0.96009	0.19666
3.164	16.133	-12935	3802.7	-0.1829	0.96077	0.19569
3.166	16.144	-12931	3803.5	-0.18163	0.96146	0.19471
3.168	16.121	-12927	3804.4	-0.18036	0.96214	0.19374
3.17	16.139	-12928	3805.2	-0.1791	0.96282	0.19276
3.172	16.134	-12928	3805.5	-0.18241	0.96458	0.19344
3.174	16.138	-12929	3805.9	-0.18573	0.96634	0.19413
3.176	16.128	-12931	3806.3	-0.18905	0.96809	0.19481
3.178	16.115	-12931	3806.9	-0.19237	0.96985	0.19549
3.18	16.116	-12931	3807.5	-0.19569	0.97161	0.19618
3.182	16.11	-12930	3808.1	-0.19354	0.96858	0.19764
3.184	16.104	-12928	3808.7	-0.19139	0.96556	0.1991
3.186	16.099	-12928	3809.2	-0.18925	0.96253	0.20057
3.188	16.102	-12929	3809.6	-0.1871	0.95951	0.20203
3.19	16.093	-12933	3809.9	-0.18495	0.95648	0.2035
3.192	16.085	-12937	3810.3	-0.18515	0.95482	0.2034
3.194	16.09	-12936	3810.8	-0.18534	0.95316	0.2033
3.196	16.095	-12935	3811.2	-0.18554	0.9515	0.2032
3.198	16.091	-12930	3811.5	-0.18573	0.94984	0.20311
3.2	16.084	-12925	3811.9	-0.18593	0.94818	0.20301
3.202	16.077	-12924	3812	-0.18524	0.94809	0.20359
3.204	16.083	-12923	3812.1	-0.18456	0.94799	0.20418
3.206	16.084	-12926	3812.2	-0.18388	0.94789	0.20476
3.208	16.092	-12930	3812.2	-0.1832	0.94779	0.20535
3.21	16.1	-12929	3812.2	-0.18251	0.9477	0.20594
3.212	16.092	-12929	3812.1	-0.18232	0.9475	0.20574
3.214	16.089	-12925	3812	-0.18212	0.94731	0.20555
3.216	16.097	-12920	3811.9	-0.18193	0.94711	0.20535
3.218	16.097	-12922	3811.7	-0.18173	0.94692	0.20516
3.22	16.088	-12923	3811.6	-0.18154	0.94672	0.20496
3.222	16.086	-12927	3811.6	-0.18183	0.94594	0.20623
3.224	16.093	-12931	3811.6	-0.18212	0.94516	0.2075
3.226	16.099	-12927	3811.5	-0.18241	0.94438	0.20877
3.228	16.1	-12923	3811.4	-0.18271	0.9436	0.21004
3.23	16.106	-12925	3811.2	-0.183	0.94282	0.2113
3.232	16.1	-12928	3811.2	-0.18368	0.9434	0.21013
3.234	16.096	-12929	3811.1	-0.18437	0.94399	0.20896
3.236	16.106	-12930	3811	-0.18505	0.94457	0.20779
3.238	16.107	-12932	3811	-0.18573	0.94516	0.20662
3.24	16.107	-12934	3810.9	-0.18642	0.94574	0.20545
3.242	16.118	-12929	3810.8	-0.18603	0.94565	0.20555
3.244	16.123	-12925	3810.7	-0.18564	0.94555	0.20564
3.246	16.114	-12927	3810.6	-0.18524	0.94545	0.20574
3.248	16.098	-12930	3810.4	-0.18485	0.94535	0.20584
3.25	16.115	-12927	3810.3	-0.18446	0.94526	0.20594
3.252	16.148	-12924	3810.1	-0.18456	0.94613	0.20555
3.254	16.136	-12927	3809.8	-0.18466	0.94701	0.20516
3.256	16.136	-12930	3809.6	-0.18476	0.94789	0.20476
3.258	16.128	-12927	3809.5	-0.18485	0.94877	0.20437
3.26	16.131	-12924	3809.3	-0.18495	0.94965	0.20398
3.262	16.119	-12927	3809.2	-0.18446	0.95043	0.20447
3.264	16.136	-12930	3809	-0.18398	0.95121	0.20496
3.266	16.112	-12929	3808.9	-0.18349	0.95199	0.20545
3.268	16.102	-12928	3808.8	-0.183	0.95277	0.20594
3.27	16.12	-12928	3808.7	-0.18251	0.95355	0.20642
3.272	16.137	-12928	3808.7	-0.18359	0.95394	0.20584
3.274	16.14	-12929	3808.7	-0.18466	0.95433	0.20525
3.276	16.135	-12930	3808.8	-0.18573	0.95472	0.20467
3.278	16.129	-12921	3809.1	-0.18681	0.95511	0.20408
3.28	16.125	-12913	3809.3	-0.18788	0.9555	0.2035
3.282	16.129	-12926	3809.9	-0.18817	0.95589	0.20291
3.284	16.123	-12938	3810.5	-0.18847	0.95628	0.20232
3.286	16.111	-12944	3811.3	-0.18876	0.95668	0.20174
3.288	16.102	-12949	3812.2	-0.18905	0.95707	0.20115
3.29	16.1	-12948	3813.1	-0.18934	0.95746	0.20057
3.292	16.101	-12947	3814.2	-0.18993	0.95755	0.20008
3.294	16.096	-12939	3815.3	-0.19052	0.95765	0.19959
3.296	16.089	-12931	3816.5	-0.1911	0.95775	0.1991
3.298	16.09	-12933	3817.8	-0.19169	0.95785	0.19862
3.3	16.085	-12935	3819.1	-0.19227	0.95794	0.19813
3.302	16.07	-12936	3820.7	-0.19071	0.95511	0.19686
3.304	16.06	-12937	3822.3	-0.18915	0.95228	0.19559
3.306	16.058	-12945	3824.2	-0.18759	0.94945	0.19432
3.308	16.049	-12953	3826.3	-0.18603	0.94662	0.19305
3.31	16.045	-12950	3828.4	-0.18446	0.94379	0.19178
3.312	16.048	-12947	3830	-0.18398	0.94555	0.19169
3.314	16.036	-12944	3831.5	-0.18349	0.94731	0.19159
3.316	16.031	-12941	3833.2	-0.183	0.94906	0.19149
3.318	16.027	-12929	3834.9	-0.18251	0.95082	0.19139
3.32	16.025	-12917	3836.7	-0.18202	0.95258	0.1913
3.322	16.015	-12917	3838.3	-0.1832	0.95336	0.19247
3.324	16.013	-12916	3839.9	-0.18437	0.95414	0.19364
3.326	16.016	-12924	3841.3	-0.18554	0.95492	0.19481
3.328	16.019	-12931	3842.6	-0.18671	0.9557	0.19598
3.33	16.026	-12925	3843.9	-0.18788	0.95648	0.19715
3.332	16.035	-12920	3844.9	-0.18768	0.95658	0.19793
3.334	16.027	-12916	3845.9	-0.18749	0.95668	0.19871
3.336	16.003	-12912	3846.6	-0.18729	0.95677	0.19949
3.338	15.985	-12913	3847	-0.1871	0.95687	0.20028
3.34	15.99	-12913	3847.5	-0.1869	0.95697	0.20106
3.342	16.035	-12915	3847.4	-0.18583	0.95541	0.20164
3.344	16.047	-12917	3847.4	-0.18476	0.95384	0.20223
3.346	16.061	-12918	3847.1	-0.18368	0.95228	0.20281
3.348	16.072	-12919	3846.6	-0.18261	0.95072	0.2034
3.35	16.063	-12921	3846.2	-0.18154	0.94916	0.20398
3.352	16.049	-12923	3845.4	-0.18261	0.94916	0.20262
3.354	16.048	-12918	3844.6	-0.18368	0.94916	0.20125
3.356	16.064	-12914	3843.8	-0.18476	0.94916	0.19988
3.358	16.071	-12913	3843	-0.18583	0.94916	0.19852
3.36	16.081	-12911	3842.2	-0.1869	0.94916	0.19715
3.362	16.074	-12914	3841.4	-0.18729	0.94994	0.19784
3.364	16.08	-12917	3840.5	-0.18768	0.95072	0.19852
3.366	16.088	-12925	3839.6	-0.18808	0.9515	0.1992
3.368	16.087	-12933	3838.9	-0.18847	0.95228	0.19988
3.37	16.08	-12927	3838.1	-0.18886	0.95306	0.20057
3.372	16.082	-12921	3837.3	-0.18847	0.95238	0.19959
3.374	16.093	-12925	3836.5	-0.18808	0.9517	0.19862
3.376	16.081	-12929	3835.6	-0.18768	0.95101	0.19764
3.378	16.088	-12928	3834.6	-0.18729	0.95033	0.19666
3.38	16.104	-12928	3833.6	-0.1869	0.94965	0.19569
3.382	16.111	-12922	3832.4	-0.18837	0.95092	0.19627
3.384	16.111	-12915	3831.2	-0.18983	0.95219	0.19686
3.386	16.104	-12918	3830	-0.1913	0.95345	0.19744
3.388	16.101	-12921	3828.8	-0.19276	0.95472	0.19803
3.39	16.094	-12920	3827.6	-0.19422	0.95599	0.19862
3.392	16.078	-12919	3826.6	-0.1951	0.95648	0.19871
3.394	16.075	-12918	3825.6	-0.19598	0.95697	0.19881
3.396	16.083	-12918	3824.5	-0.19686	0.95746	0.19891
3.398	16.075	-12920	3823.4	-0.19774	0.95794	0.19901
3.4	16.062	-12921	3822.3	-0.19862	0.95843	0.1991
3.402	16.065	-12917	3821.6	-0.19901	0.96136	0.19988
3.404	16.07	-12914	3820.9	-0.1994	0.96429	0.20067
3.406	16.079	-12920	3820.3	-0.19979	0.96722	0.20145
3.408	16.082	-12926	3819.9	-0.20018	0.97014	0.20223
3.41	16.081	-12927	3819.4	-0.20057	0.97307	0.20301
3.412	16.08	-12928	3819.4	-0.1991	0.97395	0.20232
3.414	16.079	-12925	3819.3	-0.19764	0.97483	0.20164
3.416	16.09	-12922	3819.4	-0.19618	0.97571	0.20096
3.418	16.104	-12924	3819.7	-0.19471	0.97659	0.20028
3.42	16.116	-12925	3820	-0.19325	0.97746	0.19959
3.422	16.124	-12917	3820.8	-0.19227	0.97746	0.20028
3.424	16.122	-12909	3821.5	-0.1913	0.97746	0.20096
3.426	16.132	-12915	3822.4	-0.19032	0.97746	0.20164
3.428	16.122	-12921	3823.3	-0.18934	0.97746	0.20232
3.43	16.105	-12923	3824.2	-0.18837	0.97746	0.20301
3.432	16.103	-12925	3825.4	-0.18729	0.97424	0.2035
3.434	16.111	-12922	3826.5	-0.18622	0.97102	0.20398
3.436	16.118	-12919	3827.5	-0.18515	0.9678	0.20447
3.438	16.111	-12916	3828.5	-0.18407	0.96458	0.20496
3.44	16.103	-12913	3829.5	-0.183	0.96136	0.20545
3.442	16.095	-12913	3830.3	-0.183	0.96068	0.20594
3.444	16.092	-12912	3831.1	-0.183	0.95999	0.20642
3.446	16.091	-12919	3831.9	-0.183	0.95931	0.20691
3.448	16.107	-12925	3832.6	-0.183	0.95863	0.2074
3.45	16.129	-12926	3833.3	-0.183	0.95794	0.20789
3.452	16.134	-12927	3834	-0.1832	0.95687	0.20701
3.454	16.118	-12923	3834.7	-0.18339	0.9558	0.20613
3.456	16.112	-12920	3835.4	-0.18359	0.95472	0.20525
3.458	16.11	-12915	3836	-0.18378	0.95365	0.20437
3.46	16.11	-12911	3836.6	-0.18398	0.95258	0.2035
3.462	16.109	-12913	3837.1	-0.18437	0.95326	0.20389
3.464	16.108	-12915	3837.6	-0.18476	0.95394	0.20428
3.466	16.11	-12921	3837.8	-0.18515	0.95463	0.20467
3.468	16.111	-12927	3837.9	-0.18554	0.95531	0.20506
3.47	16.107	-12930	3838	-0.18593	0.95599	0.20545
3.472	16.098	-12934	3837.8	-0.18505	0.95511	0.20564
3.474	16.085	-12924	3837.6	-0.18417	0.95424	0.20584
3.476	16.084	-12915	3837.1	-0.18329	0.95336	0.20603
3.478	16.092	-12916	3836.3	-0.18241	0.95248	0.20623
3.48	16.093	-12918	3835.6	-0.18154	0.9516	0.20642
3.482	16.097	-12917	3834.4	-0.1828	0.95219	0.20613
3.484	16.103	-12916	3833.2	-0.18407	0.95277	0.20584
3.486	16.107	-12914	3831.9	-0.18534	0.95336	0.20555
3.488	16.103	-12912	3830.3	-0.18661	0.95394	0.20525
3.49	16.101	-12916	3828.7	-0.18788	0.95453	0.20496
3.492	16.096	-12920	3826.9	-0.18847	0.95394	0.20447
3.494	16.09	-12918	3825.1	-0.18905	0.95336	0.20398
3.496	16.088	-12916	3823.3	-0.18964	0.95277	0.2035
3.498	16.086	-12918	3821.4	-0.19022	0.95219	0.20301
3.5	16.083	-12920	3819.6	-0.19081	0.9516	0.20252
3.502	16.079	-12915	3817.9	-0.19032	0.95189	0.20262
3.504	16.084	-12910	3816.2	-0.18983	0.95219	0.20272
3.506	16.081	-12914	3814.6	-0.18934	0.95248	0.20281
3.508	16.087	-12917	3813.1	-0.18886	0.95277	0.20291
3.51	16.102	-12916	3811.7	-0.18837	0.95306	0.20301
3.512	16.107	-12914	3810.5	-0.18817	0.95365	0.2035
3.514	16.097	-12914	3809.4	-0.18798	0.95424	0.20398
3.516	16.086	-12914	3808.3	-0.18778	0.95482	0.20447
3.518	16.082	-12913	3807.5	-0.18759	0.95541	0.20496
3.52	16.103	-12913	3806.6	-0.18739	0.95599	0.20545
3.522	16.095	-12910	3805.9	-0.18671	0.9555	0.20564
3.524	16.085	-12908	3805.2	-0.18603	0.95502	0.20584
3.526	16.084	-12911	3804.6	-0.18534	0.95453	0.20603
3.528	16.082	-12913	3804.1	-0.18466	0.95404	0.20623
3.53	16.07	-12917	3803.6	-0.18398	0.95355	0.20642
3.532	16.068	-12921	3803.2	-0.18446	0.95345	0.20642
3.534	16.071	-12921	3802.7	-0.18495	0.95336	0.20642
3.536	16.051	-12921	3802.4	-0.18544	0.95326	0.20642
3.538	16.029	-12919	3802	-0.18593	0.95316	0.20642
3.54	16.016	-12917	3801.7	-0.18642	0.95306	0.20642
3.542	16.004	-12916	3801.5	-0.18642	0.95336	0.20633
3.544	16.006	-12915	3801.4	-0.18642	0.95365	0.20623
3.546	16.019	-12911	3801.3	-0.18642	0.95394	0.20613
3.548	16.029	-12907	3801.2	-0.18642	0.95424	0.20603
3.55	16.024	-12905	3801.2	-0.18642	0.95453	0.20594
3.552	16.033	-12903	3801.3	-0.18632	0.95443	0.20594
3.554	16.038	-12909	3801.3	-0.18622	0.95433	0.20594
3.556	16.029	-12915	3801.4	-0.18612	0.95424	0.20594
3.558	16.021	-12918	3801.4	-0.18603	0.95414	0.20594
3.56	16.011	-12920	3801.5	-0.18593	0.95404	0.20594
3.562	16.005	-12922	3801.7	-0.18642	0.95472	0.20545
3.564	16.003	-12923	3801.9	-0.1869	0.95541	0.20496
3.566	16.012	-12920	3802.2	-0.18739	0.95609	0.20447
3.568	16.021	-12918	3802.5	-0.18788	0.95677	0.20398
3.57	16.025	-12911	3802.9	-0.18837	0.95746	0.2035
3.572	16.037	-12905	3803.4	-0.18759	0.95736	0.20418
3.574	16.054	-12907	3803.9	-0.18681	0.95726	0.20486
3.576	16.079	-12910	3804.4	-0.18603	0.95716	0.20555
3.578	16.097	-12912	3804.9	-0.18524	0.95707	0.20623
3.58	16.108	-12915	3805.5	-0.18446	0.95697	0.20691
3.582	16.113	-12915	3806.2	-0.18466	0.95668	0.20633
3.584	16.102	-12915	3806.9	-0.18485	0.95638	0.20574
3.586	16.103	-12910	3807.6	-0.18505	0.95609	0.20516
3.588	16.099	-12906	3808.2	-0.18524	0.9558	0.20457
3.59	16.101	-12906	3808.9	-0.18544	0.9555	0.20398
3.592	16.103	-12907	3809.5	-0.1953	0.94652	0.2072
3.594	16.096	-12911	3810	-0.20516	0.93755	0.21043
3.596	16.094	-12915	3810.5	-0.21501	0.92857	0.21365
3.598	16.108	-12914	3810.9	-0.22487	0.91959	0.21687
3.6	16.152	-12913	3811.3	-0.23473	0.91061	0.22009
3.602	16.163	-12915	3812.6	-0.22175	0.92222	0.21579
3.604	16.14	-12916	3814	-0.20877	0.93384	0.2115
3.606	16.132	-12918	3814.7	-0.19579	0.94545	0.2072
3.608	16.129	-12919	3814.8	-0.1828	0.95707	0.20291
3.61	16.132	-12919	3814.9	-0.16982	0.96868	0.19862
3.612	16.122	-12918	3816	-0.17256	0.96702	0.19998
3.614	16.117	-12916	3817.1	-0.17529	0.96536	0.20135
3.616	16.122	-12914	3817.8	-0.17802	0.9637	0.20272
3.618	16.128	-12912	3818.3	-0.18076	0.96204	0.20408
3.62	16.123	-12909	3818.8	-0.18349	0.96038	0.20545
3.622	16.112	-12906	3819	-0.18398	0.9599	0.20603
3.624	16.107	-12903	3819.2	-0.18446	0.95941	0.20662
3.626	16.104	-12907	3819.3	-0.18495	0.95892	0.2072
3.628	16.104	-12910	3819.3	-0.18544	0.95843	0.20779
3.63	16.112	-12915	3819.2	-0.18593	0.95794	0.20838
3.632	16.115	-12920	3818.9	-0.18612	0.95677	0.20789
3.634	16.11	-12920	3818.7	-0.18632	0.9556	0.2074
3.636	16.117	-12920	3818.3	-0.18651	0.95443	0.20691
3.638	16.115	-12919	3817.9	-0.18671	0.95326	0.20642
3.64	16.122	-12917	3817.6	-0.1869	0.95209	0.20594
3.642	16.137	-12913	3816.9	-0.1869	0.95189	0.20545
3.644	16.13	-12909	3816.3	-0.1869	0.9517	0.20496
3.646	16.124	-12907	3815.6	-0.1869	0.9515	0.20447
3.648	16.119	-12905	3814.8	-0.1869	0.95131	0.20398
3.65	16.118	-12907	3814	-0.1869	0.95111	0.2035
3.652	16.117	-12910	3813.4	-0.18671	0.95131	0.20408
3.654	16.114	-12913	3812.7	-0.18651	0.9515	0.20467
3.656	16.104	-12916	3812	-0.18632	0.9517	0.20525
3.658	16.092	-12917	3811.3	-0.18612	0.95189	0.20584
3.66	16.088	-12919	3810.7	-0.18593	0.95209	0.20642
3.662	16.097	-12919	3810.1	-0.18661	0.95238	0.20535
3.664	16.092	-12919	3809.5	-0.18729	0.95267	0.20428
3.666	16.085	-12911	3809	-0.18798	0.95297	0.2032
3.668	16.088	-12903	3808.4	-0.18866	0.95326	0.20213
3.67	16.105	-12904	3807.9	-0.18934	0.95355	0.20106
3.672	16.105	-12904	3807.4	-0.18847	0.95365	0.20232
3.674	16.088	-12906	3807	-0.18759	0.95375	0.20359
3.676	16.102	-12908	3806.5	-0.18671	0.95384	0.20486
3.678	16.111	-12908	3806	-0.18583	0.95394	0.20613
3.68	16.13	-12908	3805.6	-0.18495	0.95404	0.2074
3.682	16.143	-12910	3805.2	-0.18593	0.95404	0.20652
3.684	16.122	-12912	3804.8	-0.1869	0.95404	0.20564
3.686	16.119	-12909	3804.6	-0.18788	0.95404	0.20476
3.688	16.115	-12905	3804.3	-0.18886	0.95404	0.20389
3.69	16.1	-12907	3804.1	-0.18983	0.95404	0.20301
3.692	16.097	-12908	3804.1	-0.18934	0.95306	0.20281
3.694	16.085	-12910	3804	-0.18886	0.95209	0.20262
3.696	16.096	-12911	3804	-0.18837	0.95111	0.20242
3.698	16.109	-12910	3804	-0.18788	0.95014	0.20223
3.7	16.11	-12909	3804.1	-0.18739	0.94916	0.20203
3.702	16.093	-12907	3804.2	-0.18759	0.94965	0.20223
3.704	16.058	-12905	3804.2	-0.18778	0.95014	0.20242
3.706	15.988	-12908	3804.4	-0.18798	0.95062	0.20262
3.708	15.919	-12912	3804.6	-0.18817	0.95111	0.20281
3.71	15.859	-12904	3804.8	-0.18837	0.9516	0.20301
3.712	15.797	-12897	3805.1	-0.18905	0.95238	0.20291
3.714	15.729	-12904	3805.4	-0.18973	0.95316	0.20281
3.716	15.7	-12910	3805.7	-0.19042	0.95394	0.20272
3.718	15.702	-12905	3805.9	-0.1911	0.95472	0.20262
3.72	15.7	-12901	3806.2	-0.19178	0.9555	0.20252
3.722	15.688	-12904	3806.6	-0.19071	0.95502	0.20359
3.724	15.679	-12907	3807	-0.18964	0.95453	0.20467
3.726	15.685	-12909	3807.4	-0.18856	0.95404	0.20574
3.728	15.693	-12910	3807.8	-0.18749	0.95355	0.20681
3.73	15.685	-12913	3808.2	-0.18642	0.95306	0.20789
3.732	15.672	-12917	3808.6	-0.1872	0.95345	0.20701
3.734	15.665	-12917	3809.1	-0.18798	0.95384	0.20613
3.736	15.662	-12917	3809.5	-0.18876	0.95424	0.20525
3.738	15.638	-12906	3809.9	-0.18954	0.95463	0.20437
3.74	15.591	-12895	3810.3	-0.19032	0.95502	0.2035
3.742	15.569	-12902	3810.6	-0.18876	0.95424	0.20408
3.744	15.585	-12908	3810.9	-0.1872	0.95345	0.20467
3.746	15.571	-12907	3811.1	-0.18564	0.95267	0.20525
3.748	15.562	-12907	3811.2	-0.18407	0.95189	0.20584
3.75	15.578	-12904	3811.4	-0.18251	0.95111	0.20642
3.752	15.582	-12902	3811.5	-0.18339	0.95228	0.20633
3.754	15.578	-12902	3811.7	-0.18427	0.95345	0.20623
3.756	15.597	-12903	3811.9	-0.18515	0.95463	0.20613
3.758	15.638	-12906	3812.1	-0.18603	0.9558	0.20603
3.76	15.672	-12910	3812.3	-0.1869	0.95697	0.20594
3.762	15.703	-12910	3812.6	-0.18603	0.95619	0.20564
3.764	15.746	-12910	3813	-0.18515	0.95541	0.20535
3.766	15.813	-12910	3813.2	-0.18427	0.95463	0.20506
3.768	15.873	-12911	3813.5	-0.18339	0.95384	0.20476
3.77	15.934	-12911	3813.7	-0.18251	0.95306	0.20447
3.772	15.969	-12912	3813.8	-0.18241	0.95365	0.20447
3.774	16.007	-12912	3813.8	-0.18232	0.95424	0.20447
3.776	16.025	-12911	3813.7	-0.18222	0.95482	0.20447
3.778	16.039	-12912	3813.5	-0.18212	0.95541	0.20447
3.78	16.058	-12913	3813.4	-0.18202	0.95599	0.20447
3.782	16.069	-12911	3813	-0.18232	0.9556	0.20467
3.784	16.07	-12908	3812.7	-0.18261	0.95521	0.20486
3.786	16.077	-12904	3812.3	-0.1829	0.95482	0.20506
3.788	16.087	-12899	3811.8	-0.1832	0.95443	0.20525
3.79	16.104	-12905	3811.4	-0.18349	0.95404	0.20545
3.792	16.12	-12912	3810.9	-0.18359	0.95384	0.20584
3.794	16.113	-12907	3810.3	-0.18368	0.95365	0.20623
3.796	16.121	-12902	3809.8	-0.18378	0.95345	0.20662
3.798	16.147	-12906	3809.3	-0.18388	0.95326	0.20701
3.8	16.148	-12909	3808.8	-0.18398	0.95306	0.2074
3.802	16.137	-12911	3808.3	-0.18437	0.95375	0.20789
3.804	16.139	-12913	3807.8	-0.18476	0.95443	0.20838
3.806	16.134	-12916	3807.4	-0.18515	0.95511	0.20886
3.808	16.119	-12919	3806.9	-0.18554	0.9558	0.20935
3.81	16.115	-12911	3806.4	-0.18593	0.95648	0.20984
3.812	16.115	-12902	3805.8	-0.18632	0.95785	0.20925
3.814	16.114	-12904	3805.2	-0.18671	0.95921	0.20867
3.816	16.123	-12907	3804.7	-0.1871	0.96058	0.20808
3.818	16.125	-12903	3804.3	-0.18749	0.96195	0.2075
3.82	16.112	-12900	3803.9	-0.18788	0.96331	0.20691
3.822	16.104	-12904	3803.5	-0.18808	0.96331	0.20691
3.824	16.109	-12909	3803.2	-0.18827	0.96331	0.20691
3.826	16.131	-12909	3802.9	-0.18847	0.96331	0.20691
3.828	16.144	-12909	3802.7	-0.18866	0.96331	0.20691
3.83	16.142	-12909	3802.5	-0.18886	0.96331	0.20691
3.832	16.13	-12909	3802.2	-0.19042	0.96351	0.20711
3.834	16.104	-12913	3801.9	-0.19198	0.9637	0.2073
3.836	16.107	-12916	3801.3	-0.19354	0.9639	0.2075
3.838	16.115	-12918	3800.3	-0.1951	0.96409	0.20769
3.84	16.115	-12920	3799.4	-0.19666	0.96429	0.20789
3.842	16.116	-12911	3799.1	-0.19569	0.96107	0.20847
3.844	16.123	-12902	3798.9	-0.19471	0.95785	0.20906
3.846	16.131	-12901	3798.5	-0.19374	0.95463	0.20964
3.848	16.139	-12899	3798	-0.19276	0.9514	0.21023
3.85	16.135	-12901	3797.5	-0.19178	0.94818	0.21082
3.852	16.134	-12903	3796.8	-0.19178	0.94857	0.21062
3.854	16.12	-12901	3796.2	-0.19178	0.94896	0.21043
3.856	16.095	-12900	3795.5	-0.19178	0.94936	0.21023
3.858	16.112	-12902	3794.7	-0.19178	0.94975	0.21004
3.86	16.101	-12905	3794	-0.19178	0.95014	0.20984
3.862	16.091	-12910	3793.4	-0.1912	0.94994	0.20945
3.864	16.095	-12914	3792.8	-0.19061	0.94975	0.20906
3.866	16.109	-12909	3792.2	-0.19003	0.94955	0.20867
3.868	16.118	-12903	3791.7	-0.18944	0.94936	0.20828
3.87	16.118	-12904	3791.2	-0.18886	0.94916	0.20789
3.872	16.106	-12906	3790.9	-0.18895	0.95014	0.20847
3.874	16.094	-12906	3790.6	-0.18905	0.95111	0.20906
3.876	16.091	-12906	3790.5	-0.18915	0.95209	0.20964
3.878	16.085	-12908	3790.5	-0.18925	0.95306	0.21023
3.88	16.092	-12910	3790.6	-0.18934	0.95404	0.21082
3.882	16.11	-12907	3791	-0.18973	0.95482	0.21072
3.884	16.109	-12904	3791.3	-0.19012	0.9556	0.21062
3.886	16.104	-12908	3791.9	-0.19052	0.95638	0.21052
3.888	16.106	-12912	3792.5	-0.19091	0.95716	0.21043
3.89	16.102	-12905	3793.2	-0.1913	0.95794	0.21033
3.892	16.098	-12898	3794.1	-0.19052	0.95794	0.21043
3.894	16.094	-12906	3795	-0.18973	0.95794	0.21052
3.896	16.094	-12914	3796	-0.18895	0.95794	0.21062
3.898	16.093	-12914	3797.1	-0.18817	0.95794	0.21072
3.9	16.092	-12914	3798.2	-0.18739	0.95794	0.21082
3.902	16.097	-12909	3799.4	-0.18808	0.95902	0.20916
3.904	16.103	-12904	3800.7	-0.18876	0.96009	0.2075
3.906	16.106	-12904	3802	-0.18944	0.96116	0.20584
3.908	16.105	-12904	3803.5	-0.19012	0.96224	0.20418
3.91	16.109	-12909	3804.9	-0.19081	0.96331	0.20252
3.912	16.117	-12915	3806.5	-0.1912	0.96341	0.20145
3.914	16.128	-12909	3808	-0.19159	0.96351	0.20037
3.916	16.136	-12902	3809.7	-0.19198	0.9636	0.1993
3.918	16.141	-12907	3811.5	-0.19237	0.9637	0.19823
3.92	16.165	-12911	3813.3	-0.19276	0.9638	0.19715
3.922	16.149	-12908	3815.1	-0.19276	0.96331	0.19744
3.924	16.134	-12906	3816.9	-0.19276	0.96282	0.19774
3.926	16.133	-12911	3818.7	-0.19276	0.96234	0.19803
3.928	16.132	-12916	3820.5	-0.19276	0.96185	0.19832
3.93	16.133	-12914	3822.3	-0.19276	0.96136	0.19862
3.932	16.141	-12912	3824.1	-0.19208	0.96136	0.19784
3.934	16.147	-12912	3826	-0.19139	0.96136	0.19705
3.936	16.148	-12911	3827.9	-0.19071	0.96136	0.19627
3.938	16.141	-12909	3829.7	-0.19003	0.96136	0.19549
3.94	16.145	-12906	3831.6	-0.18934	0.96136	0.19471
3.942	16.17	-12904	3833.3	-0.18964	0.96136	0.1952
3.944	16.145	-12903	3835	-0.18993	0.96136	0.19569
3.946	16.135	-12906	3836.6	-0.19022	0.96136	0.19618
3.948	16.134	-12909	3838	-0.19052	0.96136	0.19666
3.95	16.134	-12912	3839.4	-0.19081	0.96136	0.19715
3.952	16.133	-12916	3840.6	-0.19012	0.96038	0.19832
3.954	16.12	-12915	3841.8	-0.18944	0.95941	0.19949
3.956	16.106	-12914	3842.7	-0.18876	0.95843	0.20067
3.958	16.096	-12908	3843.5	-0.18808	0.95746	0.20184
3.96	16.094	-12902	3844.2	-0.18739	0.95648	0.20301
3.962	16.096	-12909	3844.6	-0.1872	0.95541	0.20223
3.964	16.108	-12916	3844.9	-0.187	0.95433	0.20145
3.966	16.114	-12916	3845.2	-0.18681	0.95326	0.20067
3.968	16.11	-12915	3845.3	-0.18661	0.95219	0.19988
3.97	16.099	-12910	3845.4	-0.18642	0.95111	0.1991
3.972	16.077	-12905	3845.3	-0.1869	0.95189	0.1993
3.974	16.056	-12899	3845.2	-0.18739	0.95267	0.19949
3.976	16.056	-12894	3844.9	-0.18788	0.95345	0.19969
3.978	16.06	-12903	3844.6	-0.18837	0.95424	0.19988
3.98	16.052	-12912	3844.3	-0.18886	0.95502	0.20008
3.982	16.039	-12909	3843.9	-0.18925	0.95541	0.1994
3.984	16.035	-12905	3843.5	-0.18964	0.9558	0.19871
3.986	16.038	-12906	3843.1	-0.19003	0.95619	0.19803
3.988	16.035	-12907	3842.8	-0.19042	0.95658	0.19735
3.99	16.036	-12911	3842.4	-0.19081	0.95697	0.19666
3.992	16.044	-12915	3842.2	-0.191	0.95765	0.19705
3.994	16.042	-12911	3841.9	-0.1912	0.95833	0.19744
3.996	16.032	-12907	3841.7	-0.19139	0.95902	0.19784
3.998	16.034	-12908	3841.5	-0.19159	0.9597	0.19823
4	16.043	-12910	3841.3	-0.19178	0.96038	0.19862
4.002	16.052	-12907	3841.2	-0.19091	0.9598	0.19832
4.004	16.054	-12904	3841.2	-0.19003	0.95921	0.19803
4.006	16.056	-12902	3841.2	-0.18915	0.95863	0.19774
4.008	16.049	-12899	3841.2	-0.18827	0.95804	0.19744
4.01	16.032	-12902	3841.2	-0.18739	0.95746	0.19715
4.012	16.034	-12904	3841.4	-0.18749	0.95765	0.19705
4.014	16.041	-12906	3841.6	-0.18759	0.95785	0.19696
4.016	16.055	-12907	3841.8	-0.18768	0.95804	0.19686
4.018	16.069	-12906	3842.1	-0.18778	0.95824	0.19676
4.02	16.068	-12905	3842.4	-0.18788	0.95843	0.19666
4.022	16.087	-12905	3842.8	-0.18895	0.95902	0.19676
4.024	16.08	-12904	3843.2	-0.19003	0.9596	0.19686
4.026	16.067	-12902	3843.6	-0.1911	0.96019	0.19696
4.028	16.08	-12900	3844	-0.19217	0.96077	0.19705
4.03	16.103	-12900	3844.4	-0.19325	0.96136	0.19715
4.032	16.082	-12900	3844.9	-0.19266	0.96097	0.19705
4.034	16.074	-12899	3845.4	-0.19208	0.96058	0.19696
4.036	16.072	-12898	3845.9	-0.19149	0.96019	0.19686
4.038	16.074	-12902	3846.4	-0.19091	0.9598	0.19676
4.04	16.089	-12905	3846.8	-0.19032	0.95941	0.19666
4.042	16.098	-12903	3847.3	-0.19071	0.95912	0.19735
4.044	16.106	-12901	3847.7	-0.1911	0.95882	0.19803
4.046	16.104	-12901	3848	-0.19149	0.95853	0.19871
4.048	16.098	-12902	3848.3	-0.19188	0.95824	0.1994
4.05	16.093	-12901	3848.5	-0.19227	0.95794	0.20008
4.052	16.08	-12899	3848.9	-0.18993	0.95853	0.19881
4.054	16.086	-12899	3849.4	-0.18759	0.95912	0.19754
4.056	16.104	-12899	3849.6	-0.18524	0.9597	0.19627
4.058	16.108	-12899	3849.7	-0.1829	0.96029	0.195
4.06	16.119	-12899	3849.8	-0.18056	0.96087	0.19374
4.062	16.127	-12901	3849.8	-0.18339	0.95902	0.19491
4.064	16.118	-12902	3849.8	-0.18622	0.95716	0.19608
4.066	16.104	-12896	3849.8	-0.18905	0.95531	0.19725
4.068	16.095	-12890	3849.8	-0.19188	0.95345	0.19842
4.07	16.091	-12892	3849.8	-0.19471	0.9516	0.19959
4.072	16.087	-12894	3849.7	-0.19296	0.95287	0.1991
4.074	16.101	-12898	3849.5	-0.1912	0.95414	0.19862
4.076	16.123	-12901	3849.3	-0.18944	0.95541	0.19813
4.078	16.119	-12897	3848.9	-0.18768	0.95668	0.19764
4.08	16.108	-12894	3848.5	-0.18593	0.95794	0.19715
4.082	16.11	-12894	3848	-0.1869	0.95892	0.19725
4.084	16.109	-12895	3847.5	-0.18788	0.9599	0.19735
4.086	16.104	-12896	3847.1	-0.18886	0.96087	0.19744
4.088	16.102	-12896	3846.7	-0.18983	0.96185	0.19754
4.09	16.098	-12897	3846.3	-0.19081	0.96282	0.19764
4.092	16.102	-12897	3845.8	-0.19071	0.96331	0.19862
4.094	16.111	-12899	3845.2	-0.19061	0.9638	0.19959
4.096	16.104	-12901	3844.6	-0.19052	0.96429	0.20057
4.098	16.083	-12901	3843.9	-0.19042	0.96478	0.20154
4.1	16.062	-12901	3843.2	-0.19032	0.96526	0.20252
4.102	16.082	-12897	3842.5	-0.19042	0.96556	0.20272
4.104	16.102	-12894	3841.8	-0.19052	0.96585	0.20291
4.106	16.106	-12894	3841	-0.19061	0.96614	0.20311
4.108	16.095	-12894	3840.3	-0.19071	0.96644	0.2033
4.11	16.08	-12895	3839.5	-0.19081	0.96673	0.2035
4.112	16.092	-12896	3838.7	-0.191	0.96614	0.20281
4.114	16.084	-12898	3837.9	-0.1912	0.96556	0.20213
4.116	16.077	-12900	3837.1	-0.19139	0.96497	0.20145
4.118	16.08	-12898	3836.2	-0.19159	0.96439	0.20076
4.12	16.096	-12896	3835.3	-0.19178	0.9638	0.20008
4.122	16.079	-12895	3834.5	-0.19237	0.96351	0.19979
4.124	16.086	-12895	3833.7	-0.19296	0.96321	0.19949
4.126	16.093	-12897	3832.9	-0.19354	0.96292	0.1992
4.128	16.082	-12899	3832.2	-0.19413	0.96263	0.19891
4.13	16.082	-12900	3831.5	-0.19471	0.96234	0.19862
4.132	16.089	-12900	3830.8	-0.19422	0.96204	0.19891
4.134	16.101	-12898	3830.2	-0.19374	0.96175	0.1992
4.136	16.11	-12896	3829.5	-0.19325	0.96146	0.19949
4.138	16.111	-12895	3829	-0.19276	0.96116	0.19979
4.14	16.101	-12894	3828.4	-0.19227	0.96087	0.20008
4.142	16.091	-12895	3827.8	-0.19286	0.96116	0.20057
4.144	16.093	-12895	3827.2	-0.19344	0.96146	0.20106
4.146	16.102	-12894	3826.6	-0.19403	0.96175	0.20154
4.148	16.112	-12894	3825.9	-0.19461	0.96204	0.20203
4.15	16.117	-12898	3825.3	-0.1952	0.96234	0.20252
4.152	16.117	-12902	3824.7	-0.19432	0.96165	0.20291
4.154	16.115	-12899	3824	-0.19344	0.96097	0.2033
4.156	16.111	-12897	3823.4	-0.19256	0.96029	0.20369
4.158	16.103	-12894	3822.8	-0.19169	0.9596	0.20408
4.16	16.091	-12891	3822.1	-0.19081	0.95892	0.20447
4.162	16.079	-12896	3821.6	-0.19022	0.95853	0.20437
4.164	16.079	-12901	3821	-0.18964	0.95814	0.20428
4.166	16.087	-12902	3820.5	-0.18905	0.95775	0.20418
4.168	16.091	-12902	3820	-0.18847	0.95736	0.20408
4.17	16.101	-12902	3819.5	-0.18788	0.95697	0.20398
4.172	16.1	-12902	3819.1	-0.18837	0.95755	0.20359
4.174	16.087	-12901	3818.6	-0.18886	0.95814	0.2032
4.176	16.076	-12900	3818.1	-0.18934	0.95872	0.20281
4.178	16.08	-12898	3817.7	-0.18983	0.95931	0.20242
4.18	16.093	-12896	3817.3	-0.19032	0.9599	0.20203
4.182	16.087	-12895	3817	-0.19061	0.95951	0.20223
4.184	16.081	-12894	3816.6	-0.19091	0.95912	0.20242
4.186	16.068	-12893	3816.3	-0.1912	0.95872	0.20262
4.188	16.06	-12892	3815.9	-0.19149	0.95833	0.20281
4.19	16.067	-12894	3815.5	-0.19178	0.95794	0.20301
4.192	16.074	-12896	3815.2	-0.19139	0.95843	0.20272
4.194	16.061	-12899	3814.9	-0.191	0.95892	0.20242
4.196	16.046	-12902	3814.6	-0.19061	0.95941	0.20213
4.198	16.073	-12901	3814.2	-0.19022	0.9599	0.20184
4.2	16.05	-12900	3813.9	-0.18983	0.96038	0.20154
4.202	16.039	-12903	3813.5	-0.1911	0.9597	0.20174
4.204	16.049	-12907	3813	-0.19237	0.95902	0.20193
4.206	16.048	-12903	3812.6	-0.19364	0.95833	0.20213
4.208	16.037	-12899	3812.1	-0.19491	0.95765	0.20232
4.21	16.04	-12896	3811.6	-0.19618	0.95697	0.20252
4.212	16.042	-12893	3811.1	-0.1953	0.95736	0.20252
4.214	16.039	-12892	3810.6	-0.19442	0.95775	0.20252
4.216	16.037	-12890	3810.1	-0.19354	0.95814	0.20252
4.218	16.035	-12897	3809.5	-0.19266	0.95853	0.20252
4.22	16.036	-12903	3808.9	-0.19178	0.95892	0.20252
4.222	16.025	-12904	3808.3	-0.19217	0.95775	0.20262
4.224	16	-12904	3807.7	-0.19256	0.95658	0.20272
4.226	15.978	-12901	3807.2	-0.19296	0.95541	0.20281
4.228	15.978	-12897	3806.7	-0.19335	0.95424	0.20291
4.23	15.985	-12895	3806.2	-0.19374	0.95306	0.20301
4.232	15.982	-12892	3805.7	-0.19256	0.95326	0.2033
4.234	15.971	-12894	3805.3	-0.19139	0.95345	0.20359
4.236	15.969	-12896	3804.9	-0.19022	0.95365	0.20389
4.238	15.971	-12891	3804.5	-0.18905	0.95384	0.20418
4.24	15.974	-12886	3804.2	-0.18788	0.95404	0.20447
4.242	15.986	-12894	3804.1	-0.18983	0.95482	0.2033
4.244	15.998	-12901	3804	-0.19178	0.9556	0.20213
4.246	16.012	-12897	3804	-0.19374	0.95638	0.20096
4.248	16.042	-12893	3804.2	-0.19569	0.95716	0.19979
4.25	16.075	-12889	3804.3	-0.19764	0.95794	0.19862
4.252	16.091	-12886	3804.7	-0.19696	0.95814	0.19842
4.254	16.097	-12887	3805.1	-0.19627	0.95833	0.19823
4.256	16.102	-12888	3805.5	-0.19559	0.95853	0.19803
4.258	16.104	-12892	3806	-0.19491	0.95872	0.19784
4.26	16.087	-12896	3806.5	-0.19422	0.95892	0.19764
4.262	16.082	-12898	3807	-0.19374	0.95892	0.19813
4.264	16.092	-12900	3807.6	-0.19325	0.95892	0.19862
4.266	16.102	-12896	3808.2	-0.19276	0.95892	0.1991
4.268	16.099	-12891	3808.8	-0.19227	0.95892	0.19959
4.27	16.099	-12890	3809.4	-0.19178	0.95892	0.20008
4.272	16.096	-12889	3809.9	-0.19149	0.95941	0.19949
4.274	16.092	-12896	3810.4	-0.1912	0.9599	0.19891
4.276	16.081	-12903	3810.9	-0.19091	0.96038	0.19832
4.278	16.097	-12896	3811.4	-0.19061	0.96087	0.19774
4.28	16.089	-12890	3811.9	-0.19032	0.96136	0.19715
4.282	16.099	-12890	3812.2	-0.19061	0.96136	0.19744
4.284	16.095	-12890	3812.6	-0.19091	0.96136	0.19774
4.286	16.087	-12882	3812.8	-0.1912	0.96136	0.19803
4.288	16.083	-12875	3813	-0.19149	0.96136	0.19832
4.29	16.119	-12883	3813.1	-0.19178	0.96136	0.19862
4.292	16.114	-12892	3813.1	-0.19198	0.96058	0.1991
4.294	16.091	-12892	3813.1	-0.19217	0.9598	0.19959
4.296	16.076	-12892	3813	-0.19237	0.95902	0.20008
4.298	16.088	-12891	3812.7	-0.19256	0.95824	0.20057
4.3	16.128	-12891	3812.4	-0.19276	0.95746	0.20106
4.302	16.122	-12891	3811.8	-0.19169	0.95746	0.20193
4.304	16.109	-12891	3811.3	-0.19061	0.95746	0.20281
4.306	16.099	-12896	3810.6	-0.18954	0.95746	0.20369
4.308	16.091	-12901	3809.7	-0.18847	0.95746	0.20457
4.31	16.09	-12901	3808.9	-0.18739	0.95746	0.20545
4.312	16.085	-12902	3807.8	-0.18768	0.95755	0.20476
4.314	16.087	-12895	3806.8	-0.18798	0.95765	0.20408
4.316	16.11	-12888	3805.6	-0.18827	0.95775	0.2034
4.318	16.139	-12887	3804.4	-0.18856	0.95785	0.20272
4.32	16.148	-12887	3803.1	-0.18886	0.95794	0.20203
4.322	16.14	-12897	3801.9	-0.18973	0.95843	0.20223
4.324	16.135	-12906	3800.7	-0.19061	0.95892	0.20242
4.326	16.134	-12902	3799.4	-0.19149	0.95941	0.20262
4.328	16.131	-12898	3798.2	-0.19237	0.9599	0.20281
4.33	16.116	-12901	3797	-0.19325	0.96038	0.20301
4.332	16.1	-12904	3795.9	-0.19296	0.95902	0.20252
4.334	16.098	-12895	3794.8	-0.19266	0.95765	0.20203
4.336	16.105	-12886	3793.9	-0.19237	0.95628	0.20154
4.338	16.11	-12888	3793.1	-0.19208	0.95492	0.20106
4.34	16.103	-12890	3792.4	-0.19178	0.95355	0.20057
4.342	16.096	-12893	3792.2	-0.19091	0.95853	0.19774
4.344	16.091	-12897	3792	-0.19003	0.96351	0.19491
4.346	16.109	-12891	3791.2	-0.18915	0.96848	0.19208
4.348	16.099	-12886	3789.9	-0.18827	0.97346	0.18925
4.35	16.091	-12889	3788.6	-0.18739	0.97844	0.18642
4.352	16.09	-12892	3788.6	-0.18729	0.976	0.18759
4.354	16.105	-12892	3788.6	-0.1872	0.97356	0.18876
4.356	16.123	-12891	3788.3	-0.1871	0.97112	0.18993
4.358	16.119	-12891	3787.9	-0.187	0.96868	0.1911
4.36	16.102	-12890	3787.4	-0.1869	0.96624	0.19227
4.362	16.096	-12886	3787.3	-0.18671	0.96448	0.19286
4.364	16.099	-12881	3787.1	-0.18651	0.96273	0.19344
4.366	16.092	-12888	3787	-0.18632	0.96097	0.19403
4.368	16.082	-12895	3786.8	-0.18612	0.95921	0.19461
4.37	16.074	-12891	3786.7	-0.18593	0.95746	0.1952
4.372	16.071	-12888	3786.8	-0.18632	0.95824	0.19481
4.374	16.064	-12888	3786.8	-0.18671	0.95902	0.19442
4.376	16.04	-12889	3786.8	-0.1871	0.9598	0.19403
4.378	16.021	-12893	3786.8	-0.18749	0.96058	0.19364
4.38	15.96	-12897	3786.8	-0.18788	0.96136	0.19325
4.382	15.892	-12887	3786.8	-0.18798	0.96009	0.19403
4.384	15.829	-12877	3786.8	-0.18808	0.95882	0.19481
4.386	15.767	-12880	3786.8	-0.18817	0.95755	0.19559
4.388	15.714	-12884	3786.8	-0.18827	0.95628	0.19637
4.39	15.689	-12884	3786.8	-0.18837	0.95502	0.19715
4.392	15.677	-12884	3786.7	-0.1871	0.95482	0.19647
4.394	15.67	-12896	3786.6	-0.18583	0.95463	0.19579
4.396	15.68	-12907	3786.5	-0.18456	0.95443	0.1951
4.398	15.701	-12900	3786.3	-0.18329	0.95424	0.19442
4.4	15.701	-12893	3786.1	-0.18202	0.95404	0.19374
4.402	15.682	-12891	3786	-0.18261	0.95443	0.19432
4.404	15.665	-12889	3786	-0.1832	0.95482	0.19491
4.406	15.646	-12890	3785.8	-0.18378	0.95521	0.19549
4.408	15.622	-12890	3785.6	-0.18437	0.9556	0.19608
4.41	15.598	-12884	3785.4	-0.18495	0.95599	0.19666
4.412	15.57	-12878	3785	-0.18612	0.95677	0.19696
4.414	15.546	-12891	3784.7	-0.18729	0.95755	0.19725
4.416	15.54	-12905	3784.3	-0.18847	0.95833	0.19754
4.418	15.539	-12899	3783.8	-0.18964	0.95912	0.19784
4.42	15.542	-12893	3783.3	-0.19081	0.9599	0.19813
4.422	15.559	-12905	3782.8	-0.19012	0.95902	0.19764
4.424	15.576	-12917	3782.3	-0.18944	0.95814	0.19715
4.426	15.57	-12916	3781.7	-0.18876	0.95726	0.19666
4.428	15.564	-12915	3781.1	-0.18808	0.95638	0.19618
4.43	15.588	-12911	3780.4	-0.18739	0.9555	0.19569
4.432	15.607	-12908	3780	-0.187	0.95726	0.19461
4.434	15.676	-12906	3779.5	-0.18661	0.95902	0.19354
4.436	15.74	-12904	3779	-0.18622	0.96077	0.19247
4.438	15.794	-12904	3778.5	-0.18583	0.96253	0.19139
4.44	15.848	-12905	3778.1	-0.18544	0.96429	0.19032
4.442	15.894	-12907	3777.8	-0.18564	0.9637	0.1911
4.444	15.942	-12909	3777.6	-0.18583	0.96312	0.19188
4.446	15.973	-12908	3777.4	-0.18603	0.96253	0.19266
4.448	16.01	-12908	3777.4	-0.18622	0.96195	0.19344
4.45	16.05	-12903	3777.4	-0.18642	0.96136	0.19422
4.452	16.076	-12897	3777.6	-0.18632	0.96156	0.19403
4.454	16.068	-12892	3777.8	-0.18622	0.96175	0.19383
4.456	16.072	-12887	3778.2	-0.18612	0.96195	0.19364
4.458	16.08	-12884	3778.6	-0.18603	0.96214	0.19344
4.46	16.087	-12882	3779	-0.18593	0.96234	0.19325
4.462	16.082	-12884	3779.5	-0.18642	0.96214	0.19393
4.464	16.077	-12886	3779.9	-0.1869	0.96195	0.19461
4.466	16.088	-12892	3780.4	-0.18739	0.96175	0.1953
4.468	16.112	-12898	3780.9	-0.18788	0.96156	0.19598
4.47	16.135	-12895	3781.5	-0.18837	0.96136	0.19666
4.472	16.124	-12893	3781.9	-0.18856	0.96234	0.19676
4.474	16.119	-12889	3782.3	-0.18876	0.96331	0.19686
4.476	16.128	-12886	3782.7	-0.18895	0.96429	0.19696
4.478	16.141	-12889	3783.1	-0.18915	0.96526	0.19705
4.48	16.153	-12892	3783.5	-0.18934	0.96624	0.19715
4.482	16.153	-12892	3783.7	-0.18964	0.96526	0.19696
4.484	16.158	-12893	3784	-0.18993	0.96429	0.19676
4.486	16.153	-12894	3784.1	-0.19022	0.96331	0.19657
4.488	16.141	-12895	3784.2	-0.19052	0.96234	0.19637
4.49	16.137	-12894	3784.2	-0.19081	0.96136	0.19618
4.492	16.142	-12894	3784	-0.1913	0.96156	0.19686
4.494	16.137	-12893	3783.8	-0.19178	0.96175	0.19754
4.496	16.131	-12892	3783.5	-0.19227	0.96195	0.19823
4.498	16.131	-12894	3783.2	-0.19276	0.96214	0.19891
4.5	16.125	-12896	3782.9	-0.19325	0.96234	0.19959
4.502	16.117	-12895	3782.4	-0.19383	0.96234	0.1992
4.504	16.116	-12893	3781.9	-0.19442	0.96234	0.19881
4.506	16.12	-12892	3781.4	-0.195	0.96234	0.19842
4.508	16.12	-12890	3780.8	-0.19559	0.96234	0.19803
4.51	16.103	-12892	3780.3	-0.19618	0.96234	0.19764
4.512	16.093	-12893	3779.7	-0.19481	0.96185	0.19696
4.514	16.092	-12894	3779.2	-0.19344	0.96136	0.19627
4.516	16.094	-12895	3778.6	-0.19208	0.96087	0.19559
4.518	16.106	-12897	3778.1	-0.19071	0.96038	0.19491
4.52	16.118	-12898	3777.5	-0.18934	0.9599	0.19422
4.522	16.11	-12896	3777	-0.18983	0.95999	0.19569
4.524	16.091	-12895	3776.5	-0.19032	0.96009	0.19715
4.526	16.104	-12890	3775.9	-0.19081	0.96019	0.19862
4.528	16.116	-12886	3775.3	-0.1913	0.96029	0.20008
4.53	16.101	-12887	3774.7	-0.19178	0.96038	0.20154
4.532	16.118	-12887	3774.1	-0.19188	0.96087	0.20057
4.534	16.124	-12892	3773.4	-0.19198	0.96136	0.19959
4.536	16.137	-12897	3772.8	-0.19208	0.96185	0.19862
4.538	16.127	-12899	3772.2	-0.19217	0.96234	0.19764
4.54	16.093	-12900	3771.6	-0.19227	0.96282	0.19666
4.542	16.062	-12898	3771.2	-0.19286	0.96175	0.19764
4.544	16.058	-12896	3770.8	-0.19344	0.96068	0.19862
4.546	16.07	-12893	3770.5	-0.19403	0.9596	0.19959
4.548	16.075	-12891	3770.4	-0.19461	0.95853	0.20057
4.55	16.084	-12893	3770.2	-0.1952	0.95746	0.20154
4.552	16.083	-12895	3770.3	-0.19588	0.95716	0.20096
4.554	16.084	-12892	3770.4	-0.19657	0.95687	0.20037
4.556	16.08	-12888	3770.8	-0.19725	0.95658	0.19979
4.558	16.072	-12891	3771.3	-0.19793	0.95628	0.1992
4.56	16.066	-12895	3771.8	-0.19862	0.95599	0.19862
4.562	16.068	-12903	3772.7	-0.19803	0.95609	0.19891
4.564	16.088	-12911	3773.6	-0.19744	0.95619	0.1992
4.566	16.076	-12908	3774.6	-0.19686	0.95628	0.19949
4.568	16.081	-12906	3775.9	-0.19627	0.95638	0.19979
4.57	16.104	-12900	3777.1	-0.19569	0.95648	0.20008
4.572	16.11	-12895	3778.5	-0.19432	0.95658	0.20037
4.574	16.11	-12889	3780	-0.19296	0.95668	0.20067
4.576	16.116	-12882	3781.5	-0.19159	0.95677	0.20096
4.578	16.114	-12884	3783.1	-0.19022	0.95687	0.20125
4.58	16.099	-12886	3784.7	-0.18886	0.95697	0.20154
4.582	16.087	-12886	3786.3	-0.18934	0.95697	0.20135
4.584	16.087	-12886	3787.9	-0.18983	0.95697	0.20115
4.586	16.088	-12894	3789.5	-0.19032	0.95697	0.20096
4.588	16.093	-12902	3791.1	-0.19081	0.95697	0.20076
4.59	16.111	-12900	3792.8	-0.1913	0.95697	0.20057
4.592	16.123	-12898	3794.4	-0.19198	0.95716	0.20047
4.594	16.119	-12895	3796	-0.19266	0.95736	0.20037
4.596	16.112	-12892	3797.6	-0.19335	0.95755	0.20028
4.598	16.112	-12892	3799.2	-0.19403	0.95775	0.20018
4.6	16.107	-12893	3800.8	-0.19471	0.95794	0.20008
4.602	16.106	-12892	3802.5	-0.19374	0.95775	0.20008
4.604	16.122	-12892	3804.2	-0.19276	0.95755	0.20008
4.606	16.142	-12890	3805.8	-0.19178	0.95736	0.20008
4.608	16.123	-12888	3807.4	-0.19081	0.95716	0.20008
4.61	16.114	-12890	3808.9	-0.18983	0.95697	0.20008
4.612	16.123	-12892	3810.2	-0.18934	0.95668	0.19969
4.614	16.128	-12893	3811.4	-0.18886	0.95638	0.1993
4.616	16.126	-12893	3812.7	-0.18837	0.95609	0.19891
4.618	16.117	-12892	3813.8	-0.18788	0.9558	0.19852
4.62	16.105	-12891	3815	-0.18739	0.9555	0.19813
4.622	16.115	-12887	3816	-0.1872	0.9556	0.19754
4.624	16.124	-12883	3817	-0.187	0.9557	0.19696
4.626	16.11	-12881	3817.9	-0.18681	0.9558	0.19637
4.628	16.096	-12880	3818.8	-0.18661	0.95589	0.19579
4.63	16.094	-12881	3819.7	-0.18642	0.95599	0.1952
4.632	16.093	-12882	3820.4	-0.18573	0.95541	0.1954
4.634	16.087	-12882	3821.2	-0.18505	0.95482	0.19559
4.636	16.081	-12883	3821.9	-0.18437	0.95424	0.19579
4.638	16.059	-12887	3822.6	-0.18368	0.95365	0.19598
4.64	16.046	-12891	3823.3	-0.183	0.95306	0.19618
4.642	16.053	-12888	3823.9	-0.18232	0.95394	0.19579
4.644	16.047	-12885	3824.5	-0.18163	0.95482	0.1954
4.646	16.028	-12886	3825.2	-0.18095	0.9557	0.195
4.648	16.025	-12888	3825.8	-0.18027	0.95658	0.19461
4.65	16.035	-12889	3826.5	-0.17958	0.95746	0.19422
4.652	16.049	-12890	3827.1	-0.18036	0.95668	0.19452
4.654	16.046	-12885	3827.8	-0.18115	0.95589	0.19481
4.656	16.035	-12881	3828.4	-0.18193	0.95511	0.1951
4.658	16.029	-12885	3829.1	-0.18271	0.95433	0.1954
4.66	16.026	-12890	3829.7	-0.18349	0.95355	0.19569
4.662	16.02	-12891	3830.3	-0.18368	0.95414	0.19559
4.664	16.019	-12893	3831	-0.18388	0.95472	0.19549
4.666	16.024	-12894	3831.6	-0.18407	0.95531	0.1954
4.668	16.028	-12895	3832.2	-0.18427	0.95589	0.1953
4.67	16.022	-12896	3832.9	-0.18446	0.95648	0.1952
4.672	16.003	-12896	3833.4	-0.18544	0.95677	0.19598
4.674	15.99	-12897	3834	-0.18642	0.95707	0.19676
4.676	15.995	-12897	3834.6	-0.18739	0.95736	0.19754
4.678	16.005	-12892	3835.1	-0.18837	0.95765	0.19832
4.68	16.018	-12888	3835.6	-0.18934	0.95794	0.1991
4.682	16.037	-12887	3836.1	-0.18973	0.95794	0.19979
4.684	16.048	-12886	3836.5	-0.19012	0.95794	0.20047
4.686	16.05	-12887	3837	-0.19052	0.95794	0.20115
4.688	16.042	-12888	3837.4	-0.19091	0.95794	0.20184
4.69	16.042	-12886	3837.8	-0.1913	0.95794	0.20252
4.692	16.045	-12885	3838.1	-0.19061	0.95833	0.20135
4.694	16.045	-12885	3838.4	-0.18993	0.95872	0.20018
