t	ekg	optical	pressure	accel_x	accel_y	accel_z
0	97.534	-23109	2233.3	0.2805	-0.071346	0.97678
0.002	97.517	-23112	2233.3	0.28031	-0.071053	0.97737
0.004	97.457	-23115	2233.3	0.28011	-0.07076	0.97795
0.006	97.441	-23116	2233.3	0.27992	-0.070467	0.97854
0.008	97.448	-23116	2233.3	0.27972	-0.070174	0.97912
0.01	97.409	-23117	2233.4	0.27953	-0.069882	0.97971
0.012	97.359	-23119	2233.4	0.27933	-0.069589	0.98029
0.014	97.351	-23110	2233.4	0.27914	-0.069296	0.98088
0.016	97.357	-23100	2233.3	0.2804	-0.069003	0.97932
0.018	97.391	-23104	2233.2	0.28167	-0.06871	0.97776
0.02	97.445	-23108	2233.2	0.28294	-0.068418	0.9762
0.022	97.468	-23114	2233	0.28421	-0.068125	0.97463
0.024	97.447	-23121	2232.9	0.28548	-0.067832	0.97307
0.026	97.426	-23114	2232.8	0.28558	-0.067734	0.97161
0.028	97.409	-23107	2232.8	0.28568	-0.067637	0.97014
0.03	97.384	-23108	2232.7	0.28577	-0.067539	0.96868
0.032	97.401	-23108	2232.6	0.28587	-0.067442	0.96722
0.034	97.421	-23113	2232.5	0.28597	-0.067344	0.96575
0.036	97.393	-23118	2232.4	0.2847	-0.068027	0.96526
0.038	97.376	-23120	2232.4	0.28343	-0.06871	0.96478
0.04	97.391	-23122	2232.2	0.28216	-0.069394	0.96429
0.042	97.408	-23118	2232.1	0.28089	-0.070077	0.9638
0.044	97.409	-23114	2232	0.27962	-0.07076	0.96331
0.046	97.419	-23107	2231.9	0.27972	-0.071053	0.96409
0.048	97.449	-23100	2231.8	0.27982	-0.071346	0.96487
0.05	97.497	-23105	2231.8	0.27992	-0.071638	0.96565
0.052	97.575	-23110	2231.7	0.28001	-0.071931	0.96644
0.054	97.523	-23108	2231.7	0.28011	-0.072224	0.96722
0.056	97.509	-23106	2231.7	0.28109	-0.072126	0.9677
0.058	97.556	-23117	2231.8	0.28206	-0.072029	0.96819
0.06	97.514	-23128	2231.8	0.28304	-0.071931	0.96868
0.062	97.518	-23124	2231.9	0.28402	-0.071834	0.96917
0.064	97.479	-23121	2232	0.28499	-0.071736	0.96966
0.066	97.489	-23126	2232	0.28577	-0.071541	0.96946
0.068	97.532	-23130	2232	0.28655	-0.071346	0.96927
0.07	97.558	-23128	2232	0.28733	-0.07115	0.96907
0.072	97.561	-23126	2231.9	0.28812	-0.070955	0.96888
0.074	97.508	-23125	2231.9	0.2889	-0.07076	0.96868
0.076	97.456	-23123	2231.8	0.28597	-0.07037	0.96819
0.078	97.516	-23124	2231.8	0.28304	-0.069979	0.9677
0.08	97.566	-23125	2231.8	0.28011	-0.069589	0.96722
0.082	97.571	-23124	2231.7	0.27718	-0.069198	0.96673
0.084	97.575	-23123	2231.6	0.27426	-0.068808	0.96624
0.086	97.571	-23123	2231.5	0.27504	-0.068125	0.96673
0.088	97.538	-23123	2231.5	0.27582	-0.067442	0.96722
0.09	97.481	-23122	2231.4	0.2766	-0.066758	0.9677
0.092	97.487	-23122	2231.2	0.27738	-0.066075	0.96819
0.094	97.551	-23126	2231.1	0.27816	-0.065392	0.96868
0.096	97.544	-23129	2231	0.27933	-0.066954	0.96907
0.098	97.502	-23134	2230.8	0.2805	-0.068515	0.96946
0.1	97.498	-23139	2230.7	0.28167	-0.070077	0.96985
0.102	97.509	-23137	2230.6	0.28284	-0.071638	0.97024
0.104	97.555	-23135	2230.5	0.28402	-0.0732	0.97063
0.106	97.593	-23132	2230.5	0.2845	-0.0732	0.97092
0.108	97.58	-23128	2230.5	0.28499	-0.0732	0.97122
0.11	97.555	-23128	2230.5	0.28548	-0.0732	0.97151
0.112	97.53	-23127	2230.4	0.28597	-0.0732	0.9718
0.114	97.533	-23129	2230.3	0.28646	-0.0732	0.9721
0.116	97.544	-23131	2230.1	0.28441	-0.072517	0.97034
0.118	97.508	-23130	2229.9	0.28236	-0.071834	0.96858
0.12	97.492	-23129	2229.7	0.28031	-0.07115	0.96683
0.122	97.543	-23131	2229.5	0.27826	-0.070467	0.96507
0.124	97.593	-23133	2229.3	0.27621	-0.069784	0.96331
0.126	97.605	-23127	2229.2	0.27699	-0.069198	0.96185
0.128	97.585	-23120	2229.1	0.27777	-0.068613	0.96038
0.13	97.554	-23126	2228.9	0.27855	-0.068027	0.95892
0.132	97.561	-23132	2228.8	0.27933	-0.067442	0.95746
0.134	97.577	-23130	2228.7	0.28011	-0.066856	0.95599
0.136	97.574	-23128	2228.7	0.27992	-0.065587	0.95638
0.138	97.537	-23131	2228.6	0.27972	-0.064318	0.95677
0.14	97.495	-23134	2228.5	0.27953	-0.06305	0.95716
0.142	97.456	-23138	2228.4	0.27933	-0.061781	0.95755
0.144	97.505	-23142	2228.2	0.27914	-0.060512	0.95794
0.146	97.483	-23141	2228.1	0.27738	-0.062074	0.95824
0.148	97.423	-23140	2227.9	0.27562	-0.063635	0.95853
0.15	97.436	-23141	2227.8	0.27387	-0.065197	0.95882
0.152	97.507	-23143	2227.6	0.27211	-0.066758	0.95912
0.154	97.575	-23145	2227.4	0.27035	-0.06832	0.95941
0.156	97.601	-23146	2227.3	0.27045	-0.068906	0.9596
0.158	97.533	-23144	2227.1	0.27055	-0.069491	0.9598
0.16	97.475	-23142	2226.9	0.27064	-0.070077	0.95999
0.162	97.549	-23141	2226.8	0.27074	-0.070662	0.96019
0.164	97.571	-23140	2226.6	0.27084	-0.071248	0.96038
0.166	97.541	-23149	2226.5	0.27104	-0.070858	0.96204
0.168	97.438	-23157	2226.3	0.27123	-0.070467	0.9637
0.17	97.372	-23157	2226.2	0.27143	-0.070077	0.96536
0.172	97.411	-23158	2226.1	0.27162	-0.069686	0.96702
0.174	97.482	-23156	2226	0.27182	-0.069296	0.96868
0.176	97.494	-23155	2225.9	0.27172	-0.069003	0.96839
0.178	97.425	-23153	2225.8	0.27162	-0.06871	0.96809
0.18	97.367	-23151	2225.6	0.27152	-0.068418	0.9678
0.182	97.362	-23152	2225.5	0.27143	-0.068125	0.96751
0.184	97.318	-23154	2225.4	0.27133	-0.067832	0.96722
0.186	97.265	-23156	2225.2	0.27172	-0.068125	0.9678
0.188	97.205	-23159	2225	0.27211	-0.068418	0.96839
0.19	97.117	-23156	2224.8	0.2725	-0.06871	0.96897
0.192	97.065	-23152	2224.7	0.27289	-0.069003	0.96956
0.194	97.046	-23156	2224.5	0.27328	-0.069296	0.97014
0.196	97.012	-23159	2224.4	0.27416	-0.068515	0.96839
0.198	97.002	-23160	2224.2	0.27504	-0.067734	0.96663
0.2	97.029	-23161	2224.1	0.27592	-0.066954	0.96487
0.202	97.019	-23166	2224	0.27679	-0.066173	0.96312
0.204	96.997	-23171	2223.8	0.27767	-0.065392	0.96136
0.206	97.026	-23166	2223.7	0.27689	-0.065197	0.96146
0.208	97.054	-23161	2223.6	0.27611	-0.065002	0.96156
0.21	97.044	-23161	2223.4	0.27533	-0.064806	0.96165
0.212	97.023	-23162	2223.3	0.27455	-0.064611	0.96175
0.214	97.037	-23169	2223.1	0.27377	-0.064416	0.96185
0.216	97.033	-23175	2223	0.27338	-0.065782	0.96234
0.218	96.95	-23175	2222.8	0.27299	-0.067149	0.96282
0.22	96.898	-23175	2222.7	0.2726	-0.068515	0.96331
0.222	96.888	-23171	2222.6	0.27221	-0.069882	0.9638
0.224	96.893	-23167	2222.4	0.27182	-0.071248	0.96429
0.226	96.904	-23169	2222.3	0.27221	-0.071931	0.96526
0.228	96.929	-23172	2222.2	0.2726	-0.072614	0.96624
0.23	96.962	-23175	2222.1	0.27299	-0.073298	0.96722
0.232	97.015	-23178	2221.9	0.27338	-0.073981	0.96819
0.234	97.002	-23179	2221.7	0.27377	-0.074664	0.96917
0.236	96.997	-23180	2221.5	0.27445	-0.0732	0.96673
0.238	97.026	-23179	2221.4	0.27513	-0.071736	0.96429
0.24	97.193	-23178	2221.2	0.27582	-0.070272	0.96185
0.242	97.278	-23176	2221.1	0.2765	-0.068808	0.95941
0.244	97.277	-23174	2221	0.27718	-0.067344	0.95697
0.246	97.37	-23171	2220.9	0.27767	-0.06793	0.95794
0.248	97.419	-23168	2220.8	0.27816	-0.068515	0.95892
0.25	97.448	-23168	2220.7	0.27865	-0.069101	0.9599
0.252	97.492	-23167	2220.6	0.27914	-0.069686	0.96087
0.254	97.49	-23170	2220.6	0.27962	-0.070272	0.96185
0.256	97.53	-23172	2220.6	0.27884	-0.069686	0.96195
0.258	97.55	-23171	2220.6	0.27806	-0.069101	0.96204
0.26	97.525	-23170	2220.6	0.27728	-0.068515	0.96214
0.262	97.531	-23167	2220.6	0.2765	-0.06793	0.96224
0.264	97.549	-23163	2220.5	0.27572	-0.067344	0.96234
0.266	97.53	-23166	2220.5	0.27582	-0.066954	0.96175
0.268	97.511	-23168	2220.5	0.27592	-0.066563	0.96116
0.27	97.533	-23175	2220.5	0.27601	-0.066173	0.96058
0.272	97.575	-23182	2220.4	0.27611	-0.065782	0.95999
0.274	97.591	-23182	2220.3	0.27621	-0.065392	0.95941
0.276	97.567	-23183	2220.2	0.27582	-0.06549	0.96019
0.278	97.539	-23183	2220.1	0.27543	-0.065587	0.96097
0.28	97.541	-23183	2220	0.27504	-0.065685	0.96175
0.282	97.571	-23185	2219.9	0.27465	-0.065782	0.96253
0.284	97.601	-23187	2219.8	0.27426	-0.06588	0.96331
0.286	97.606	-23190	2219.6	0.27504	-0.066368	0.96429
0.288	97.598	-23194	2219.4	0.27582	-0.066856	0.96526
0.29	97.601	-23195	2219.2	0.2766	-0.067344	0.96624
0.292	97.579	-23196	2219.1	0.27738	-0.067832	0.96722
0.294	97.543	-23197	2219.1	0.27816	-0.06832	0.96819
0.296	97.541	-23197	2219	0.27806	-0.067344	0.9678
0.298	97.528	-23199	2218.9	0.27796	-0.066368	0.96741
0.3	97.495	-23202	2218.9	0.27787	-0.065392	0.96702
0.302	97.488	-23203	2218.8	0.27777	-0.064416	0.96663
0.304	97.567	-23205	2218.8	0.27767	-0.06344	0.96624
0.306	97.631	-23205	2218.7	0.27826	-0.064611	0.96722
0.308	97.632	-23205	2218.7	0.27884	-0.065782	0.96819
0.31	97.637	-23207	2218.6	0.27943	-0.066954	0.96917
0.312	97.568	-23210	2218.5	0.28001	-0.068125	0.97014
0.314	97.507	-23210	2218.4	0.2806	-0.069296	0.97112
0.316	97.5	-23211	2218.3	0.28148	-0.069979	0.97132
0.318	97.45	-23211	2218.1	0.28236	-0.070662	0.97151
0.32	97.484	-23212	2218	0.28324	-0.071346	0.97171
0.322	97.545	-23211	2217.9	0.28411	-0.072029	0.9719
0.324	97.539	-23211	2217.8	0.28499	-0.072712	0.9721
0.326	97.589	-23210	2217.7	0.28314	-0.072419	0.97151
0.328	97.544	-23209	2217.7	0.28128	-0.072126	0.97092
0.33	97.596	-23211	2217.6	0.27943	-0.071834	0.97034
0.332	97.604	-23212	2217.5	0.27757	-0.071541	0.96975
0.334	97.563	-23212	2217.4	0.27572	-0.071248	0.96917
0.336	97.533	-23211	2217.3	0.27387	-0.071053	0.9677
0.338	97.494	-23212	2217.1	0.27201	-0.070858	0.96624
0.34	97.507	-23212	2217.1	0.27016	-0.070662	0.96478
0.342	97.526	-23219	2217	0.2683	-0.070467	0.96331
0.344	97.563	-23225	2217	0.26645	-0.070272	0.96185
0.346	97.534	-23228	2216.9	0.26645	-0.070662	0.96146
0.348	97.478	-23232	2216.8	0.26645	-0.071053	0.96107
0.35	97.484	-23231	2216.8	0.26645	-0.071443	0.96068
0.352	97.49	-23230	2216.8	0.26645	-0.071834	0.96029
0.354	97.487	-23226	2216.8	0.26645	-0.072224	0.9599
0.356	97.464	-23223	2216.9	0.26576	-0.071834	0.96048
0.358	97.504	-23225	2217	0.26508	-0.071443	0.96107
0.36	97.553	-23227	2217.2	0.2644	-0.071053	0.96165
0.362	97.561	-23228	2217.5	0.26372	-0.070662	0.96224
0.364	97.547	-23229	2217.8	0.26303	-0.070272	0.96282
0.366	97.541	-23242	2218.1	0.26323	-0.070077	0.96312
0.368	97.547	-23255	2218.5	0.26342	-0.069882	0.96341
0.37	97.528	-23258	2218.9	0.26362	-0.069686	0.9637
0.372	97.5	-23262	2219.5	0.26381	-0.069491	0.964
0.374	97.522	-23261	2220.1	0.26401	-0.069296	0.96429
0.376	97.574	-23261	2220.7	0.26489	-0.069589	0.96487
0.378	97.572	-23259	2221.4	0.26576	-0.069882	0.96546
0.38	97.539	-23258	2222.1	0.26664	-0.070174	0.96604
0.382	97.545	-23258	2222.9	0.26752	-0.070467	0.96663
0.384	97.535	-23258	2223.7	0.2684	-0.07076	0.96722
0.386	97.535	-23260	2224.6	0.26723	-0.069979	0.96624
0.388	97.539	-23263	2225.5	0.26606	-0.069198	0.96526
0.39	97.522	-23264	2226.5	0.26489	-0.068418	0.96429
0.392	97.502	-23264	2227.4	0.26372	-0.067637	0.96331
0.394	97.507	-23258	2228.4	0.26254	-0.066856	0.96234
0.396	97.515	-23251	2229.3	0.26401	-0.068125	0.96243
0.398	97.522	-23253	2230.2	0.26547	-0.069394	0.96253
0.4	97.516	-23254	2231.1	0.26694	-0.070662	0.96263
0.402	97.463	-23255	2232	0.2684	-0.071931	0.96273
0.404	97.454	-23256	2232.8	0.26986	-0.0732	0.96282
0.406	97.521	-23256	2233.7	0.26938	-0.073493	0.96273
0.408	97.587	-23256	2234.5	0.26889	-0.073786	0.96263
0.41	97.551	-23258	2235.3	0.2684	-0.074078	0.96253
0.412	97.49	-23261	2236.1	0.26791	-0.074371	0.96243
0.414	97.451	-23258	2237	0.26742	-0.074664	0.96234
0.416	97.438	-23255	2237.7	0.26703	-0.074078	0.96214
0.418	97.568	-23254	2238.5	0.26664	-0.073493	0.96195
0.42	97.633	-23253	2239.2	0.26625	-0.072907	0.96175
0.422	97.615	-23249	2239.8	0.26586	-0.072322	0.96156
0.424	97.603	-23245	2240.5	0.26547	-0.071736	0.96136
0.426	97.598	-23245	2241	0.26576	-0.071931	0.96165
0.428	97.527	-23245	2241.4	0.26606	-0.072126	0.96195
0.43	97.482	-23238	2241.9	0.26635	-0.072322	0.96224
0.432	97.507	-23231	2242.4	0.26664	-0.072517	0.96253
0.434	97.569	-23229	2242.9	0.26694	-0.072712	0.96282
0.436	97.603	-23227	2243.3	0.26772	-0.073298	0.96253
0.438	97.574	-23224	2243.7	0.2685	-0.073883	0.96224
0.44	97.488	-23222	2244.1	0.26928	-0.074469	0.96195
0.442	97.442	-23220	2244.5	0.27006	-0.075054	0.96165
0.444	97.421	-23218	2244.9	0.27084	-0.07564	0.96136
0.446	97.444	-23215	2245.3	0.2723	-0.075542	0.96175
0.448	97.463	-23213	2245.7	0.27377	-0.075445	0.96214
0.45	97.445	-23204	2246	0.27523	-0.075347	0.96253
0.452	97.473	-23196	2246.2	0.2767	-0.07525	0.96292
0.454	97.541	-23193	2246.5	0.27816	-0.075152	0.96331
0.456	97.552	-23190	2246.8	0.27806	-0.074078	0.96565
0.458	97.501	-23191	2247.1	0.27796	-0.073005	0.968
0.46	97.447	-23191	2247.4	0.27787	-0.071931	0.97034
0.462	97.425	-23186	2247.8	0.27777	-0.070858	0.97268
0.464	97.444	-23180	2248.1	0.27767	-0.069784	0.97502
0.466	97.473	-23176	2248.3	0.27601	-0.070955	0.9759
0.468	97.462	-23172	2248.5	0.27435	-0.072126	0.97678
0.47	97.441	-23168	2248.6	0.27269	-0.073298	0.97766
0.472	97.452	-23164	2248.7	0.27104	-0.074469	0.97854
0.474	97.454	-23160	2248.8	0.26938	-0.07564	0.97942
0.476	97.432	-23156	2248.9	0.27113	-0.07564	0.97912
0.478	97.447	-23154	2249	0.27289	-0.07564	0.97883
0.48	97.474	-23152	2249.1	0.27465	-0.07564	0.97854
0.482	97.483	-23150	2249.2	0.2764	-0.07564	0.97824
0.484	97.428	-23149	2249.3	0.27816	-0.07564	0.97795
0.486	97.389	-23139	2249.4	0.27914	-0.076226	0.97649
0.488	97.422	-23130	2249.5	0.28011	-0.076811	0.97502
0.49	97.435	-23126	2249.5	0.28109	-0.077397	0.97356
0.492	97.417	-23122	2249.4	0.28206	-0.077982	0.9721
0.494	97.451	-23123	2249.3	0.28304	-0.078568	0.97063
0.496	97.417	-23124	2249.2	0.2847	-0.07769	0.97083
0.498	97.452	-23126	2249	0.28636	-0.076811	0.97102
0.5	97.538	-23127	2248.8	0.28802	-0.075933	0.97122
0.502	97.588	-23121	2248.7	0.28968	-0.075054	0.97141
0.504	97.597	-23114	2248.5	0.29134	-0.074176	0.97161
0.506	97.558	-23114	2248.4	0.29085	-0.074078	0.97307
0.508	97.517	-23114	2248.3	0.29036	-0.073981	0.97454
0.51	97.564	-23105	2248.2	0.28987	-0.073883	0.976
0.512	97.567	-23097	2248.1	0.28938	-0.073786	0.97746
0.514	97.531	-23101	2248	0.2889	-0.073688	0.97893
0.516	97.533	-23104	2247.9	0.28753	-0.074274	0.97873
0.518	97.513	-23099	2247.7	0.28616	-0.074859	0.97854
0.52	97.487	-23094	2247.6	0.2848	-0.075445	0.97834
0.522	97.501	-23085	2247.4	0.28343	-0.07603	0.97815
0.524	97.518	-23075	2247.2	0.28206	-0.076616	0.97795
0.526	97.535	-23080	2246.9	0.28099	-0.075835	0.97824
0.528	97.55	-23084	2246.6	0.27992	-0.075054	0.97854
0.53	97.524	-23079	2246.2	0.27884	-0.074274	0.97883
0.532	97.494	-23074	2245.8	0.27777	-0.073493	0.97912
0.534	97.503	-23073	2245.4	0.2767	-0.072712	0.97942
0.536	97.516	-23071	2245	0.27699	-0.072419	0.97795
0.538	97.519	-23071	2244.6	0.27728	-0.072126	0.97649
0.54	97.498	-23070	2244.2	0.27757	-0.071834	0.97502
0.542	97.45	-23060	2243.8	0.27787	-0.071541	0.97356
0.544	97.419	-23050	2243.4	0.27816	-0.071248	0.9721
0.546	97.44	-23053	2242.9	0.2767	-0.071248	0.97132
0.548	97.491	-23055	2242.5	0.27523	-0.071248	0.97053
0.55	97.539	-23054	2242	0.27377	-0.071248	0.96975
0.552	97.567	-23054	2241.5	0.2723	-0.071248	0.96897
0.554	97.557	-23049	2241	0.27084	-0.071248	0.96819
0.556	97.581	-23043	2240.5	0.27094	-0.071053	0.9679
0.558	97.538	-23038	2240	0.27104	-0.070858	0.96761
0.56	97.431	-23034	2239.3	0.27113	-0.070662	0.96731
0.562	97.504	-23035	2238.6	0.27123	-0.070467	0.96702
0.564	97.541	-23037	2237.9	0.27133	-0.070272	0.96673
0.566	97.526	-23043	2237.2	0.27289	-0.069979	0.96819
0.568	97.525	-23048	2236.6	0.27445	-0.069686	0.96966
0.57	97.53	-23044	2236	0.27601	-0.069394	0.97112
0.572	97.535	-23040	2235.5	0.27757	-0.069101	0.97258
0.574	97.466	-23042	2234.9	0.27914	-0.068808	0.97405
0.576	97.488	-23045	2234.5	0.27884	-0.067734	0.97278
0.578	97.478	-23042	2234.1	0.27855	-0.066661	0.97151
0.58	97.479	-23039	2233.7	0.27826	-0.065587	0.97024
0.582	97.46	-23031	2233.3	0.27796	-0.064514	0.96897
0.584	97.428	-23022	2233	0.27767	-0.06344	0.9677
0.586	97.461	-23027	2232.8	0.27845	-0.064026	0.96546
0.588	97.573	-23031	2232.6	0.27923	-0.064611	0.96321
0.59	97.601	-23029	2232.4	0.28001	-0.065197	0.96097
0.592	97.581	-23027	2232.3	0.2808	-0.065782	0.95872
0.594	97.579	-23025	2232.2	0.28158	-0.066368	0.95648
0.596	97.572	-23023	2232.2	0.27992	-0.06588	0.95599
0.598	97.561	-23032	2232.2	0.27826	-0.065392	0.9555
0.6	97.532	-23040	2232.1	0.2766	-0.064904	0.95502
0.602	97.51	-23036	2231.9	0.27494	-0.064416	0.95453
0.604	97.517	-23033	2231.8	0.27328	-0.063928	0.95404
0.606	97.482	-23035	2231.6	0.27035	-0.064416	0.95541
0.608	97.466	-23038	2231.4	0.26742	-0.064904	0.95677
0.61	97.497	-23039	2231.2	0.2645	-0.065392	0.95814
0.612	97.532	-23039	2231	0.26157	-0.06588	0.95951
0.614	97.528	-23040	2230.8	0.25864	-0.066368	0.96087
0.616	97.515	-23040	2230.7	0.25913	-0.066368	0.96214
0.618	97.523	-23042	2230.6	0.25962	-0.066368	0.96341
0.62	97.516	-23043	2230.6	0.2601	-0.066368	0.96468
0.622	97.532	-23039	2230.6	0.26059	-0.066368	0.96595
0.624	97.568	-23036	2230.6	0.26108	-0.066368	0.96722
0.626	97.559	-23043	2230.7	0.26362	-0.066856	0.96751
0.628	97.518	-23050	2230.9	0.26616	-0.067344	0.9678
0.63	97.518	-23042	2231	0.26869	-0.067832	0.96809
0.632	97.528	-23035	2231.2	0.27123	-0.06832	0.96839
0.634	97.479	-23036	2231.3	0.27377	-0.068808	0.96868
0.636	97.442	-23036	2231.4	0.27221	-0.068125	0.96761
0.638	97.423	-23037	2231.5	0.27064	-0.067442	0.96653
0.64	97.427	-23038	2231.6	0.26908	-0.066758	0.96546
0.642	97.48	-23038	2231.6	0.26752	-0.066075	0.96439
0.644	97.506	-23038	2231.6	0.26596	-0.065392	0.96331
0.646	97.532	-23042	2231.5	0.26733	-0.066173	0.96292
0.648	97.581	-23045	2231.4	0.26869	-0.066954	0.96253
0.65	97.546	-23045	2231.2	0.27006	-0.067734	0.96214
0.652	97.481	-23044	2231	0.27143	-0.068515	0.96175
0.654	97.503	-23041	2230.8	0.27279	-0.069296	0.96136
0.656	97.541	-23038	2230.6	0.27494	-0.068613	0.96097
0.658	97.514	-23050	2230.4	0.27709	-0.06793	0.96058
0.66	97.473	-23062	2230.2	0.27923	-0.067246	0.96019
0.662	97.462	-23051	2230.1	0.28138	-0.066563	0.9598
0.664	97.464	-23041	2230	0.28353	-0.06588	0.95941
0.666	97.471	-23047	2230.1	0.28324	-0.06549	0.95931
0.668	97.435	-23052	2230.1	0.28294	-0.065099	0.95921
0.67	97.382	-23054	2230.2	0.28265	-0.064709	0.95912
0.672	97.319	-23056	2230.2	0.28236	-0.064318	0.95902
0.674	97.298	-23053	2230.3	0.28206	-0.063928	0.95892
0.676	97.342	-23051	2230.4	0.28187	-0.064611	0.95912
0.678	97.395	-23048	2230.4	0.28167	-0.065294	0.95931
0.68	97.406	-23045	2230.5	0.28148	-0.065978	0.95951
0.682	97.467	-23050	2230.6	0.28128	-0.066661	0.9597
0.684	97.53	-23054	2230.6	0.28109	-0.067344	0.9599
0.686	97.55	-23061	2230.7	0.2808	-0.066563	0.96019
0.688	97.496	-23069	2230.7	0.2805	-0.065782	0.96048
0.69	97.441	-23064	2230.7	0.28021	-0.065002	0.96077
0.692	97.448	-23060	2230.7	0.27992	-0.064221	0.96107
0.694	97.465	-23061	2230.7	0.27962	-0.06344	0.96136
0.696	97.489	-23062	2230.8	0.27953	-0.064026	0.96156
0.698	97.496	-23065	2230.8	0.27943	-0.064611	0.96175
0.7	97.48	-23068	2230.9	0.27933	-0.065197	0.96195
0.702	97.443	-23064	2230.9	0.27923	-0.065782	0.96214
0.704	97.444	-23060	2231	0.27914	-0.066368	0.96234
0.706	97.487	-23067	2231	0.27982	-0.067149	0.96273
0.708	97.517	-23074	2231	0.2805	-0.06793	0.96312
0.71	97.505	-23072	2230.9	0.28119	-0.06871	0.96351
0.712	97.505	-23070	2230.8	0.28187	-0.069491	0.9639
0.714	97.531	-23064	2230.7	0.28255	-0.070272	0.96429
0.716	97.53	-23058	2230.8	0.28353	-0.070077	0.96663
0.718	97.519	-23063	2230.8	0.2845	-0.069882	0.96897
0.72	97.541	-23068	2230.9	0.28548	-0.069686	0.97132
0.722	97.583	-23069	2230.9	0.28646	-0.069491	0.97366
0.724	97.604	-23070	2230.9	0.28743	-0.069296	0.976
0.726	97.594	-23069	2230.9	0.28568	-0.069296	0.9761
0.728	97.552	-23068	2230.9	0.28392	-0.069296	0.9762
0.73	97.536	-23066	2230.9	0.28216	-0.069296	0.97629
0.732	97.542	-23064	2230.8	0.2804	-0.069296	0.97639
0.734	97.511	-23070	2230.7	0.27865	-0.069296	0.97649
0.736	97.482	-23075	2230.6	0.27699	-0.069589	0.97454
0.738	97.469	-23076	2230.5	0.27533	-0.069882	0.97258
0.74	97.527	-23076	2230.4	0.27367	-0.070174	0.97063
0.742	97.607	-23080	2230.2	0.27201	-0.070467	0.96868
0.744	97.527	-23083	2230	0.27035	-0.07076	0.96673
0.746	97.529	-23082	2229.7	0.27191	-0.07037	0.96565
0.748	97.651	-23080	2229.4	0.27348	-0.069979	0.96458
0.75	97.646	-23074	2229.2	0.27504	-0.069589	0.96351
0.752	97.582	-23068	2229	0.2766	-0.069198	0.96243
0.754	97.525	-23071	2228.8	0.27816	-0.068808	0.96136
0.756	97.523	-23074	2228.7	0.2767	-0.06871	0.96175
0.758	97.557	-23075	2228.7	0.27523	-0.068613	0.96214
0.76	97.629	-23077	2228.6	0.27377	-0.068515	0.96253
0.762	97.589	-23076	2228.6	0.2723	-0.068418	0.96292
0.764	97.577	-23075	2228.6	0.27084	-0.06832	0.96331
0.766	97.615	-23082	2228.6	0.26938	-0.068515	0.96351
0.768	97.597	-23089	2228.5	0.26791	-0.06871	0.9637
0.77	97.587	-23090	2228.5	0.26645	-0.068906	0.9639
0.772	97.592	-23092	2228.4	0.26498	-0.069101	0.96409
0.774	97.581	-23091	2228.4	0.26352	-0.069296	0.96429
0.776	97.589	-23090	2228.3	0.26352	-0.069003	0.96478
0.778	97.603	-23085	2228.2	0.26352	-0.06871	0.96526
0.78	97.621	-23079	2228.1	0.26352	-0.068418	0.96575
0.782	97.595	-23088	2228.1	0.26352	-0.068125	0.96624
0.784	97.595	-23096	2228.1	0.26352	-0.067832	0.96673
0.786	97.58	-23094	2228.1	0.2643	-0.069198	0.96839
0.788	97.502	-23093	2228	0.26508	-0.070565	0.97005
0.79	97.485	-23088	2228	0.26586	-0.071931	0.97171
0.792	97.51	-23083	2228	0.26664	-0.073298	0.97336
0.794	97.534	-23085	2227.9	0.26742	-0.074664	0.97502
0.796	97.567	-23087	2227.9	0.26713	-0.074859	0.97532
0.798	97.564	-23089	2227.8	0.26684	-0.075054	0.97561
0.8	97.562	-23091	2227.7	0.26655	-0.07525	0.9759
0.802	97.595	-23093	2227.6	0.26625	-0.075445	0.9762
0.804	97.601	-23096	2227.6	0.26596	-0.07564	0.97649
0.806	97.57	-23099	2227.6	0.26664	-0.075445	0.9759
0.808	97.57	-23103	2227.7	0.26733	-0.07525	0.97532
0.81	97.626	-23103	2227.8	0.26801	-0.075054	0.97473
0.812	97.592	-23103	2228	0.26869	-0.074859	0.97415
0.814	97.477	-23101	2228.1	0.26938	-0.074664	0.97356
0.816	97.451	-23099	2228.2	0.27016	-0.074371	0.97327
0.818	97.49	-23100	2228.3	0.27094	-0.074078	0.97297
0.82	97.533	-23102	2228.4	0.27172	-0.073786	0.97268
0.822	97.558	-23104	2228.5	0.2725	-0.073493	0.97239
0.824	97.55	-23107	2228.6	0.27328	-0.0732	0.9721
0.826	97.514	-23104	2228.6	0.27308	-0.073395	0.9719
0.828	97.491	-23100	2228.6	0.27289	-0.07359	0.97171
0.83	97.525	-23102	2228.6	0.27269	-0.073786	0.97151
0.832	97.54	-23104	2228.4	0.2725	-0.073981	0.97132
0.834	97.5	-23103	2228.3	0.2723	-0.074176	0.97112
0.836	97.413	-23101	2228.1	0.27152	-0.074762	0.97132
0.838	97.321	-23101	2228	0.27074	-0.075347	0.97151
0.84	97.29	-23100	2227.8	0.26996	-0.075933	0.97171
0.842	97.286	-23103	2227.6	0.26918	-0.076518	0.9719
0.844	97.226	-23107	2227.4	0.2684	-0.077104	0.9721
0.846	97.096	-23114	2227.1	0.26918	-0.076128	0.97073
0.848	97.118	-23121	2226.9	0.26996	-0.075152	0.96936
0.85	97.129	-23120	2226.6	0.27074	-0.074176	0.968
0.852	97.121	-23120	2226.5	0.27152	-0.0732	0.96663
0.854	97.163	-23120	2226.3	0.2723	-0.072224	0.96526
0.856	97.176	-23120	2226.1	0.27064	-0.07281	0.96517
0.858	97.166	-23124	2226	0.26899	-0.073395	0.96507
0.86	97.106	-23129	2225.9	0.26733	-0.073981	0.96497
0.862	97.093	-23125	2225.8	0.26567	-0.074566	0.96487
0.864	97.092	-23122	2225.7	0.26401	-0.075152	0.96478
0.866	97.06	-23120	2225.6	0.26381	-0.073981	0.96429
0.868	97.064	-23118	2225.5	0.26362	-0.07281	0.9638
0.87	97.026	-23127	2225.4	0.26342	-0.071638	0.96331
0.872	96.997	-23135	2225.3	0.26323	-0.070467	0.96282
0.874	96.994	-23135	2225.2	0.26303	-0.069296	0.96234
0.876	97.005	-23134	2225	0.26362	-0.069882	0.96214
0.878	97.043	-23132	2224.9	0.2642	-0.070467	0.96195
0.88	97.025	-23131	2224.7	0.26479	-0.071053	0.96175
0.882	96.967	-23135	2224.5	0.26537	-0.071638	0.96156
0.884	96.967	-23139	2224.3	0.26596	-0.072224	0.96136
0.886	96.973	-23138	2224.2	0.26674	-0.0732	0.96214
0.888	96.952	-23137	2224.1	0.26752	-0.074176	0.96292
0.89	96.962	-23137	2224	0.2683	-0.075152	0.9637
0.892	97.027	-23137	2224	0.26908	-0.076128	0.96448
0.894	97.142	-23141	2224	0.26986	-0.077104	0.96526
0.896	97.214	-23144	2224	0.27074	-0.07603	0.96644
0.898	97.222	-23139	2224	0.27162	-0.074957	0.96761
0.9	97.252	-23134	2224	0.2725	-0.073883	0.96878
0.902	97.301	-23133	2224	0.27338	-0.07281	0.96995
0.904	97.38	-23131	2224	0.27426	-0.071736	0.97112
0.906	97.435	-23137	2223.9	0.27426	-0.071443	0.97053
0.908	97.479	-23143	2223.9	0.27426	-0.07115	0.96995
0.91	97.48	-23142	2223.8	0.27426	-0.070858	0.96936
0.912	97.458	-23142	2223.7	0.27426	-0.070565	0.96878
0.914	97.456	-23142	2223.7	0.27426	-0.070272	0.96819
0.916	97.525	-23141	2223.6	0.27552	-0.071248	0.96819
0.918	97.615	-23147	2223.5	0.27679	-0.072224	0.96819
0.92	97.636	-23152	2223.4	0.27806	-0.0732	0.96819
0.922	97.577	-23154	2223.3	0.27933	-0.074176	0.96819
0.924	97.618	-23155	2223.2	0.2806	-0.075152	0.96819
0.926	97.627	-23158	2223	0.28167	-0.075347	0.96858
0.928	97.56	-23161	2222.8	0.28275	-0.075542	0.96897
0.93	97.579	-23165	2222.6	0.28382	-0.075738	0.96936
0.932	97.581	-23169	2222.4	0.28489	-0.075933	0.96975
0.934	97.542	-23166	2222.2	0.28597	-0.076128	0.97014
0.936	97.57	-23163	2222	0.28607	-0.075835	0.97063
0.938	97.582	-23158	2221.7	0.28616	-0.075542	0.97112
0.94	97.582	-23153	2221.6	0.28626	-0.07525	0.97161
0.942	97.614	-23152	2221.4	0.28636	-0.074957	0.9721
0.944	97.641	-23152	2221.3	0.28646	-0.074664	0.97258
0.946	97.666	-23159	2221.2	0.28509	-0.07359	0.97122
0.948	97.671	-23167	2221.1	0.28372	-0.072517	0.96985
0.95	97.611	-23169	2221	0.28236	-0.071443	0.96848
0.952	97.559	-23172	2220.9	0.28099	-0.07037	0.96712
0.954	97.553	-23176	2220.7	0.27962	-0.069296	0.96575
0.956	97.555	-23179	2220.6	0.27826	-0.069491	0.96585
0.958	97.544	-23182	2220.4	0.27689	-0.069686	0.96595
0.96	97.574	-23185	2220.4	0.27552	-0.069882	0.96604
0.962	97.609	-23185	2220.4	0.27416	-0.070077	0.96614
0.964	97.607	-23184	2220.5	0.27279	-0.070272	0.96624
0.966	97.587	-23180	2220.4	0.27211	-0.069491	0.96673
0.968	97.556	-23176	2220.4	0.27143	-0.06871	0.96722
0.97	97.542	-23176	2220.4	0.27074	-0.06793	0.9677
0.972	97.559	-23176	2220.4	0.27006	-0.067149	0.96819
0.974	97.557	-23179	2220.4	0.26938	-0.066368	0.96868
0.976	97.529	-23181	2220.4	0.27113	-0.066758	0.96819
0.978	97.527	-23183	2220.4	0.27289	-0.067149	0.9677
0.98	97.55	-23185	2220.4	0.27465	-0.067539	0.96722
0.982	97.579	-23186	2220.4	0.2764	-0.06793	0.96673
0.984	97.599	-23188	2220.4	0.27816	-0.06832	0.96624
0.986	97.571	-23189	2220.4	0.27865	-0.068418	0.96683
0.988	97.529	-23191	2220.4	0.27914	-0.068515	0.96741
0.99	97.51	-23191	2220.4	0.27962	-0.068613	0.968
0.992	97.531	-23191	2220.5	0.28011	-0.06871	0.96858
0.994	97.558	-23193	2220.5	0.2806	-0.068808	0.96917
0.996	97.585	-23195	2220.6	0.28167	-0.069491	0.96975
0.998	97.606	-23194	2220.7	0.28275	-0.070174	0.97034
1	97.61	-23194	2220.7	0.28382	-0.070858	0.97092
1.002	97.623	-23195	2220.7	0.28489	-0.071541	0.97151
1.004	97.599	-23196	2220.7	0.28597	-0.072224	0.9721
1.006	97.555	-23201	2220.6	0.28392	-0.071248	0.97083
1.008	97.535	-23206	2220.4	0.28187	-0.070272	0.96956
1.01	97.499	-23205	2220.4	0.27982	-0.069296	0.96829
1.012	97.499	-23204	2220.4	0.27777	-0.06832	0.96702
1.014	97.499	-23207	2220.4	0.27572	-0.067344	0.96575
1.016	97.539	-23210	2220.5	0.27601	-0.066856	0.96517
1.018	97.607	-23203	2220.6	0.27631	-0.066368	0.96458
1.02	97.556	-23197	2220.7	0.2766	-0.06588	0.964
1.022	97.508	-23201	2221	0.27689	-0.065392	0.96341
1.024	97.532	-23205	2221.2	0.27718	-0.064904	0.96282
1.026	97.537	-23208	2221.6	0.27728	-0.065294	0.96224
1.028	97.496	-23211	2222	0.27738	-0.065685	0.96165
1.03	97.467	-23218	2222.5	0.27748	-0.066075	0.96107
1.032	97.514	-23224	2223.1	0.27757	-0.066466	0.96048
1.034	97.566	-23219	2223.7	0.27767	-0.066856	0.9599
1.036	97.602	-23214	2224.3	0.27718	-0.067246	0.9599
1.038	97.673	-23213	2225	0.2767	-0.067637	0.9599
1.04	97.688	-23211	2225.8	0.27621	-0.068027	0.9599
1.042	97.586	-23213	2226.6	0.27572	-0.068418	0.9599
1.044	97.479	-23214	2227.4	0.27523	-0.068808	0.9599
1.046	97.47	-23218	2228.3	0.27631	-0.068808	0.95921
1.048	97.501	-23222	2229.2	0.27738	-0.068808	0.95853
1.05	97.478	-23221	2230.2	0.27845	-0.068808	0.95785
1.052	97.473	-23220	2231.2	0.27953	-0.068808	0.95716
1.054	97.523	-23215	2232.2	0.2806	-0.068808	0.95648
1.056	97.567	-23210	2233.3	0.2804	-0.069589	0.95755
1.058	97.581	-23221	2234.4	0.28021	-0.07037	0.95863
1.06	97.578	-23233	2235.4	0.28001	-0.07115	0.9597
1.062	97.604	-23229	2236.5	0.27982	-0.071931	0.96077
1.064	97.625	-23226	2237.6	0.27962	-0.072712	0.96185
1.066	97.592	-23224	2238.6	0.27982	-0.071248	0.96097
1.068	97.529	-23223	2239.7	0.28001	-0.069784	0.96009
1.07	97.539	-23225	2240.7	0.28021	-0.06832	0.95921
1.072	97.565	-23227	2241.7	0.2804	-0.066856	0.95833
1.074	97.509	-23221	2242.7	0.2806	-0.065392	0.95746
1.076	97.545	-23216	2243.6	0.28031	-0.066075	0.95833
1.078	97.589	-23222	2244.5	0.28001	-0.066758	0.95921
1.08	97.577	-23229	2245.4	0.27972	-0.067442	0.96009
1.082	97.572	-23226	2246.2	0.27943	-0.068125	0.96097
1.084	97.561	-23224	2247.1	0.27914	-0.068808	0.96185
1.086	97.563	-23215	2247.9	0.27777	-0.06871	0.96243
1.088	97.595	-23206	2248.7	0.2764	-0.068613	0.96302
1.09	97.619	-23205	2249.5	0.27504	-0.068515	0.9636
1.092	97.583	-23203	2250.1	0.27367	-0.068418	0.96419
1.094	97.572	-23203	2250.8	0.2723	-0.06832	0.96478
1.096	97.597	-23204	2251.4	0.27328	-0.067832	0.96526
1.098	97.567	-23200	2252	0.27426	-0.067344	0.96575
1.1	97.465	-23196	2252.5	0.27523	-0.066856	0.96624
1.102	97.512	-23198	2253	0.27621	-0.066368	0.96673
1.104	97.552	-23201	2253.4	0.27718	-0.06588	0.96722
1.106	97.52	-23201	2253.7	0.27718	-0.065978	0.96702
1.108	97.483	-23201	2254.1	0.27718	-0.066075	0.96683
1.11	97.5	-23191	2254.4	0.27718	-0.066173	0.96663
1.112	97.489	-23181	2254.7	0.27718	-0.06627	0.96644
1.114	97.443	-23180	2255	0.27718	-0.066368	0.96624
1.116	97.434	-23178	2255.3	0.27728	-0.065685	0.96595
1.118	97.44	-23175	2255.6	0.27738	-0.065002	0.96565
1.12	97.416	-23171	2255.9	0.27748	-0.064318	0.96536
1.122	97.418	-23169	2256.1	0.27757	-0.063635	0.96507
1.124	97.45	-23166	2256.4	0.27767	-0.062952	0.96478
1.126	97.472	-23162	2256.5	0.27914	-0.065392	0.96419
1.128	97.514	-23157	2256.7	0.2806	-0.067832	0.9636
1.13	97.526	-23156	2256.7	0.28206	-0.070272	0.96302
1.132	97.469	-23154	2256.7	0.28353	-0.072712	0.96243
1.134	97.439	-23156	2256.8	0.28499	-0.075152	0.96185
1.136	97.46	-23158	2256.7	0.28324	-0.074274	0.96175
1.138	97.506	-23148	2256.6	0.28148	-0.073395	0.96165
1.14	97.53	-23139	2256.5	0.27972	-0.072517	0.96156
1.142	97.519	-23136	2256.5	0.27796	-0.071638	0.96146
1.144	97.514	-23133	2256.4	0.27621	-0.07076	0.96136
1.146	97.496	-23134	2256.4	0.2766	-0.069979	0.96077
1.148	97.469	-23134	2256.3	0.27699	-0.069198	0.96019
1.15	97.45	-23132	2256.3	0.27738	-0.068418	0.9596
1.152	97.46	-23130	2256.2	0.27777	-0.067637	0.95902
1.154	97.462	-23134	2256.2	0.27816	-0.066856	0.95843
1.156	97.508	-23137	2256.1	0.2805	-0.068418	0.95863
1.158	97.544	-23131	2256	0.28284	-0.069979	0.95882
1.16	97.512	-23124	2255.9	0.28519	-0.071541	0.95902
1.162	97.509	-23113	2255.8	0.28753	-0.073102	0.95921
1.164	97.543	-23101	2255.7	0.28987	-0.074664	0.95941
1.166	97.556	-23101	2255.6	0.28919	-0.074176	0.95892
1.168	97.538	-23101	2255.6	0.28851	-0.073688	0.95843
1.17	97.537	-23101	2255.5	0.28782	-0.0732	0.95794
1.172	97.542	-23100	2255.4	0.28714	-0.072712	0.95746
1.174	97.539	-23098	2255.3	0.28646	-0.072224	0.95697
1.176	97.568	-23095	2255	0.28509	-0.071053	0.95726
1.178	97.494	-23094	2254.8	0.28372	-0.069882	0.95755
1.18	97.454	-23094	2254.5	0.28236	-0.06871	0.95785
1.182	97.523	-23088	2254.1	0.28099	-0.067539	0.95814
1.184	97.558	-23082	2253.8	0.27962	-0.066368	0.95843
1.186	97.555	-23087	2253.3	0.27845	-0.066075	0.95931
1.188	97.564	-23091	2252.8	0.27728	-0.065782	0.96019
1.19	97.564	-23082	2252.3	0.27611	-0.06549	0.96107
1.192	97.525	-23072	2251.7	0.27494	-0.065197	0.96195
1.194	97.482	-23070	2251.1	0.27377	-0.064904	0.96282
1.196	97.58	-23067	2250.6	0.27445	-0.065294	0.96321
1.198	97.613	-23071	2250	0.27513	-0.065685	0.9636
1.2	97.555	-23074	2249.5	0.27582	-0.066075	0.964
1.202	97.541	-23072	2249.1	0.2765	-0.066466	0.96439
1.204	97.569	-23070	2248.6	0.27718	-0.066856	0.96478
1.206	97.592	-23068	2248.1	0.2764	-0.066173	0.96409
1.208	97.583	-23066	2247.7	0.27562	-0.06549	0.96341
1.21	97.536	-23069	2247.2	0.27484	-0.064806	0.96273
1.212	97.545	-23071	2246.8	0.27406	-0.064123	0.96204
1.214	97.571	-23063	2246.3	0.27328	-0.06344	0.96136
1.216	97.568	-23056	2245.8	0.27504	-0.063538	0.96019
1.218	97.547	-23059	2245.3	0.27679	-0.063635	0.95902
1.22	97.547	-23061	2244.8	0.27855	-0.063733	0.95785
1.222	97.561	-23059	2244.3	0.28031	-0.06383	0.95668
1.224	97.539	-23057	2243.9	0.28206	-0.063928	0.9555
1.226	97.516	-23059	2243.4	0.28158	-0.064806	0.95531
1.228	97.518	-23062	2243	0.28109	-0.065685	0.95511
1.23	97.526	-23060	2242.7	0.2806	-0.066563	0.95492
1.232	97.525	-23058	2242.3	0.28011	-0.067442	0.95472
1.234	97.471	-23056	2242	0.27962	-0.06832	0.95453
1.236	97.433	-23055	2241.7	0.27816	-0.067344	0.95511
1.238	97.489	-23052	2241.3	0.2767	-0.066368	0.9557
1.24	97.536	-23049	2241	0.27523	-0.065392	0.95628
1.242	97.541	-23053	2240.8	0.27377	-0.064416	0.95687
1.244	97.558	-23056	2240.5	0.2723	-0.06344	0.95746
1.246	97.589	-23062	2240.3	0.27269	-0.062757	0.95843
1.248	97.597	-23068	2240.2	0.27308	-0.062074	0.95941
1.25	97.552	-23065	2240.1	0.27348	-0.06139	0.96038
1.252	97.555	-23061	2240.1	0.27387	-0.060707	0.96136
1.254	97.566	-23060	2240.1	0.27426	-0.060024	0.96234
1.256	97.58	-23060	2240.1	0.27318	-0.060902	0.96312
1.258	97.573	-23057	2240.2	0.27211	-0.061781	0.9639
1.26	97.554	-23054	2240.2	0.27104	-0.062659	0.96468
1.262	97.512	-23057	2240.2	0.26996	-0.063538	0.96546
1.264	97.464	-23061	2240.2	0.26889	-0.064416	0.96624
1.266	97.394	-23062	2240.1	0.2685	-0.063928	0.96673
1.268	97.437	-23063	2240	0.26811	-0.06344	0.96722
1.27	97.524	-23060	2239.9	0.26772	-0.062952	0.9677
1.272	97.546	-23057	2239.8	0.26733	-0.062464	0.96819
1.274	97.617	-23060	2239.8	0.26694	-0.061976	0.96868
1.276	97.681	-23064	2239.8	0.26791	-0.062854	0.96907
1.278	97.701	-23064	2239.8	0.26889	-0.063733	0.96946
1.28	97.634	-23064	2239.7	0.26986	-0.064611	0.96985
1.282	97.576	-23059	2239.7	0.27084	-0.06549	0.97024
1.284	97.556	-23055	2239.6	0.27182	-0.066368	0.97063
1.286	97.55	-23053	2239.6	0.27269	-0.065002	0.9721
1.288	97.539	-23052	2239.6	0.27357	-0.063635	0.97356
1.29	97.504	-23060	2239.6	0.27445	-0.062269	0.97502
1.292	97.478	-23069	2239.5	0.27533	-0.060902	0.97649
1.294	97.479	-23067	2239.4	0.27621	-0.059536	0.97795
1.296	97.499	-23065	2239.4	0.27533	-0.061	0.97795
1.298	97.506	-23069	2239.3	0.27445	-0.062464	0.97795
1.3	97.521	-23073	2239.3	0.27357	-0.063928	0.97795
1.302	97.558	-23075	2239.2	0.27269	-0.065392	0.97795
1.304	97.592	-23076	2239.2	0.27182	-0.066856	0.97795
1.306	97.599	-23075	2239.1	0.2725	-0.06588	0.97873
1.308	97.564	-23075	2239.1	0.27318	-0.064904	0.97951
1.31	97.524	-23071	2239.1	0.27387	-0.063928	0.98029
1.312	97.521	-23067	2239.2	0.27455	-0.062952	0.98108
1.314	97.502	-23071	2239.2	0.27523	-0.061976	0.98186
1.316	97.45	-23075	2239.3	0.2765	-0.062464	0.98039
1.318	97.401	-23072	2239.3	0.27777	-0.062952	0.97893
1.32	97.358	-23068	2239.3	0.27904	-0.06344	0.97746
1.322	97.366	-23071	2239.4	0.28031	-0.063928	0.976
1.324	97.426	-23075	2239.5	0.28158	-0.064416	0.97454
1.326	97.437	-23075	2239.5	0.28206	-0.064806	0.97229
1.328	97.423	-23075	2239.4	0.28255	-0.065197	0.97005
1.33	97.439	-23081	2239.5	0.28304	-0.065587	0.9678
1.332	97.462	-23088	2239.6	0.28353	-0.065978	0.96556
1.334	97.507	-23086	2239.7	0.28402	-0.066368	0.96331
1.336	97.522	-23084	2239.9	0.2846	-0.067149	0.96214
1.338	97.506	-23081	2240	0.28519	-0.06793	0.96097
1.34	97.528	-23079	2240.2	0.28577	-0.06871	0.9598
1.342	97.531	-23083	2240.4	0.28636	-0.069491	0.95863
1.344	97.432	-23086	2240.6	0.28694	-0.070272	0.95746
1.346	97.376	-23086	2240.8	0.28714	-0.069589	0.95755
1.348	97.434	-23085	2241	0.28733	-0.068906	0.95765
1.35	97.451	-23085	2241.1	0.28753	-0.068222	0.95775
1.352	97.476	-23085	2241.1	0.28772	-0.067539	0.95785
1.354	97.499	-23088	2241.1	0.28792	-0.066856	0.95794
1.356	97.442	-23091	2241.1	0.28792	-0.067344	0.96019
1.358	97.48	-23088	2241.1	0.28792	-0.067832	0.96243
1.36	97.526	-23086	2241.1	0.28792	-0.06832	0.96468
1.362	97.512	-23091	2241.1	0.28792	-0.068808	0.96692
1.364	97.491	-23096	2241.2	0.28792	-0.069296	0.96917
1.366	97.48	-23089	2241.2	0.28724	-0.069491	0.96878
1.368	97.514	-23082	2241.3	0.28655	-0.069686	0.96839
1.37	97.523	-23082	2241.4	0.28587	-0.069882	0.968
1.372	97.548	-23082	2241.5	0.28519	-0.070077	0.96761
1.374	97.598	-23089	2241.6	0.2845	-0.070272	0.96722
1.376	97.663	-23095	2241.5	0.28372	-0.070077	0.96673
1.378	97.676	-23097	2241.4	0.28294	-0.069882	0.96624
1.38	97.61	-23099	2241.4	0.28216	-0.069686	0.96575
1.382	97.541	-23096	2241.3	0.28138	-0.069491	0.96526
1.384	97.534	-23094	2241.3	0.2806	-0.069296	0.96478
1.386	97.596	-23093	2241.1	0.28187	-0.07037	0.96429
1.388	97.614	-23093	2240.9	0.28314	-0.071443	0.9638
1.39	97.568	-23098	2240.7	0.28441	-0.072517	0.96331
1.392	97.538	-23103	2240.5	0.28568	-0.07359	0.96282
1.394	97.552	-23102	2240.3	0.28694	-0.074664	0.96234
1.396	97.561	-23101	2240.1	0.28772	-0.073688	0.96058
1.398	97.543	-23098	2239.8	0.28851	-0.072712	0.95882
1.4	97.554	-23095	2239.6	0.28929	-0.071736	0.95707
1.402	97.593	-23095	2239.3	0.29007	-0.07076	0.95531
1.404	97.594	-23094	2239.1	0.29085	-0.069784	0.95355
1.406	97.577	-23098	2238.9	0.29104	-0.069784	0.95365
1.408	97.579	-23102	2238.8	0.29124	-0.069784	0.95375
1.41	97.564	-23101	2238.7	0.29143	-0.069784	0.95384
1.412	97.58	-23099	2238.5	0.29163	-0.069784	0.95394
1.414	97.609	-23104	2238.4	0.29182	-0.069784	0.95404
1.416	97.595	-23109	2238.3	0.29036	-0.070858	0.95472
1.418	97.596	-23108	2238.3	0.2889	-0.071931	0.95541
1.42	97.593	-23108	2238.2	0.28743	-0.073005	0.95609
1.422	97.634	-23107	2238.2	0.28597	-0.074078	0.95677
1.424	97.727	-23106	2238.2	0.2845	-0.075152	0.95746
1.426	97.694	-23105	2238.1	0.28489	-0.075738	0.95775
1.428	97.599	-23103	2238	0.28528	-0.076323	0.95804
1.43	97.542	-23103	2237.9	0.28568	-0.076909	0.95833
1.432	97.547	-23103	2237.9	0.28607	-0.077494	0.95863
1.434	97.549	-23107	2237.9	0.28646	-0.07808	0.95892
1.436	97.546	-23111	2237.9	0.28626	-0.078275	0.95951
1.438	97.582	-23112	2237.9	0.28607	-0.07847	0.96009
1.44	97.601	-23113	2238	0.28587	-0.078666	0.96068
1.442	97.582	-23113	2238.2	0.28568	-0.078861	0.96126
1.444	97.573	-23113	2238.3	0.28548	-0.079056	0.96185
1.446	97.569	-23112	2238.4	0.28216	-0.078568	0.96312
1.448	97.56	-23111	2238.4	0.27884	-0.07808	0.96439
1.45	97.495	-23115	2238.5	0.27552	-0.077592	0.96565
1.452	97.502	-23119	2238.6	0.27221	-0.077104	0.96692
1.454	97.528	-23119	2238.7	0.26889	-0.076616	0.96819
1.456	97.584	-23119	2238.5	0.2682	-0.076616	0.96956
1.458	97.615	-23115	2238.4	0.26752	-0.076616	0.97092
1.46	97.589	-23112	2238.2	0.26684	-0.076616	0.97229
1.462	97.552	-23117	2238.1	0.26616	-0.076616	0.97366
1.464	97.534	-23122	2237.9	0.26547	-0.076616	0.97502
1.466	97.568	-23123	2237.8	0.26645	-0.076909	0.97512
1.468	97.6	-23124	2237.6	0.26742	-0.077202	0.97522
1.47	97.594	-23123	2237.4	0.2684	-0.077494	0.97532
1.472	97.584	-23123	2237.3	0.26938	-0.077787	0.97541
1.474	97.586	-23121	2237.1	0.27035	-0.07808	0.97551
1.476	97.558	-23118	2237.1	0.27084	-0.077299	0.97522
1.478	97.518	-23118	2237	0.27133	-0.076518	0.97493
1.48	97.528	-23117	2236.9	0.27182	-0.075738	0.97463
1.482	97.533	-23122	2236.8	0.2723	-0.074957	0.97434
1.484	97.494	-23127	2236.6	0.27279	-0.074176	0.97405
1.486	97.494	-23129	2236.5	0.27289	-0.073981	0.97444
1.488	97.554	-23130	2236.3	0.27299	-0.073786	0.97483
1.49	97.617	-23131	2236.1	0.27308	-0.07359	0.97522
1.492	97.609	-23131	2235.9	0.27318	-0.073395	0.97561
1.494	97.514	-23132	2235.7	0.27328	-0.0732	0.976
1.496	97.391	-23134	2235.4	0.27016	-0.072614	0.97649
1.498	97.251	-23134	2235.2	0.26703	-0.072029	0.97698
1.5	97.18	-23134	2234.9	0.26391	-0.071443	0.97746
1.502	97.179	-23133	2234.7	0.26079	-0.070858	0.97795
1.504	97.143	-23132	2234.4	0.25766	-0.070272	0.97844
1.506	97.099	-23137	2234.2	0.26001	-0.071638	0.97737
1.508	97.1	-23142	2233.9	0.26235	-0.073005	0.97629
1.51	97.111	-23141	2233.7	0.26469	-0.074371	0.97522
1.512	97.123	-23139	2233.5	0.26703	-0.075738	0.97415
1.514	97.143	-23136	2233.3	0.26938	-0.077104	0.97307
1.516	97.122	-23134	2233.2	0.26928	-0.076128	0.97171
1.518	97.17	-23136	2233.2	0.26918	-0.075152	0.97034
1.52	97.224	-23138	2233.1	0.26908	-0.074176	0.96897
1.522	97.172	-23140	2233.1	0.26899	-0.0732	0.96761
1.524	97.121	-23143	2233.1	0.26889	-0.072224	0.96624
1.526	97.121	-23142	2233.1	0.26811	-0.071248	0.96439
1.528	97.052	-23142	2233.2	0.26733	-0.070272	0.96253
1.53	96.993	-23142	2233.2	0.26655	-0.069296	0.96068
1.532	96.976	-23142	2233.2	0.26576	-0.06832	0.95882
1.534	96.947	-23143	2233.2	0.26498	-0.067344	0.95697
1.536	96.903	-23144	2233.1	0.26391	-0.067149	0.95843
1.538	96.91	-23145	2233.1	0.26284	-0.066954	0.9599
1.54	96.927	-23147	2233.1	0.26176	-0.066758	0.96136
1.542	96.911	-23149	2233	0.26069	-0.066563	0.96282
1.544	96.972	-23151	2233	0.25962	-0.066368	0.96429
1.546	97.029	-23152	2232.9	0.26098	-0.066954	0.96409
1.548	97.035	-23153	2232.8	0.26235	-0.067539	0.9639
1.55	97.086	-23156	2232.7	0.26372	-0.068125	0.9637
1.552	97.164	-23159	2232.6	0.26508	-0.06871	0.96351
1.554	97.222	-23152	2232.5	0.26645	-0.069296	0.96331
1.556	97.313	-23144	2232.5	0.27045	-0.069882	0.96526
1.558	97.398	-23145	2232.4	0.27445	-0.070467	0.96722
1.56	97.439	-23145	2232.3	0.27845	-0.071053	0.96917
1.562	97.47	-23152	2232.3	0.28245	-0.071638	0.97112
1.564	97.485	-23159	2232.2	0.28646	-0.072224	0.97307
1.566	97.498	-23155	2232.2	0.28724	-0.071541	0.97278
1.568	97.533	-23151	2232.2	0.28802	-0.070858	0.97249
1.57	97.561	-23152	2232.1	0.2888	-0.070174	0.97219
1.572	97.572	-23152	2232.1	0.28958	-0.069491	0.9719
1.574	97.587	-23158	2232.1	0.29036	-0.068808	0.97161
1.576	97.604	-23164	2232	0.28899	-0.069198	0.96975
1.578	97.603	-23166	2231.9	0.28763	-0.069589	0.9679
1.58	97.626	-23167	2231.8	0.28626	-0.069979	0.96604
1.582	97.623	-23165	2231.7	0.28489	-0.07037	0.96419
1.584	97.562	-23162	2231.7	0.28353	-0.07076	0.96234
1.586	97.505	-23163	2231.6	0.28431	-0.07037	0.96126
1.588	97.519	-23165	2231.5	0.28509	-0.069979	0.96019
1.59	97.613	-23170	2231.4	0.28587	-0.069589	0.95912
1.592	97.594	-23176	2231.3	0.28665	-0.069198	0.95804
1.594	97.594	-23177	2231.2	0.28743	-0.068808	0.95697
1.596	97.655	-23178	2231	0.28772	-0.067734	0.95775
1.598	97.647	-23175	2230.9	0.28802	-0.066661	0.95853
1.6	97.635	-23171	2230.8	0.28831	-0.065587	0.95931
1.602	97.623	-23176	2230.8	0.2886	-0.064514	0.96009
1.604	97.592	-23181	2230.7	0.2889	-0.06344	0.96087
1.606	97.577	-23183	2230.7	0.28782	-0.063245	0.96263
1.608	97.575	-23184	2230.6	0.28675	-0.06305	0.96439
1.61	97.563	-23185	2230.6	0.28568	-0.062854	0.96614
1.612	97.611	-23186	2230.6	0.2846	-0.062659	0.9679
1.614	97.603	-23182	2230.6	0.28353	-0.062464	0.96966
1.616	97.543	-23179	2230.6	0.28528	-0.061586	0.97063
1.618	97.571	-23183	2230.5	0.28704	-0.060707	0.97161
1.62	97.603	-23187	2230.5	0.2888	-0.059829	0.97258
1.622	97.581	-23190	2230.5	0.29056	-0.05895	0.97356
1.624	97.565	-23193	2230.5	0.29231	-0.058072	0.97454
1.626	97.609	-23195	2230.4	0.29348	-0.05856	0.97376
1.628	97.643	-23198	2230.4	0.29465	-0.059048	0.97297
1.63	97.625	-23203	2230.3	0.29583	-0.059536	0.97219
1.632	97.586	-23207	2230.3	0.297	-0.060024	0.97141
1.634	97.555	-23203	2230.3	0.29817	-0.060512	0.97063
1.636	97.554	-23200	2230.3	0.29758	-0.060414	0.96975
1.638	97.583	-23200	2230.3	0.297	-0.060317	0.96888
1.64	97.618	-23200	2230.3	0.29641	-0.060219	0.968
1.642	97.6	-23198	2230.2	0.29583	-0.060122	0.96712
1.644	97.556	-23196	2230.1	0.29524	-0.060024	0.96624
1.646	97.532	-23204	2230.1	0.29251	-0.061098	0.96575
1.648	97.557	-23212	2230	0.28977	-0.062171	0.96526
1.65	97.609	-23214	2230	0.28704	-0.063245	0.96478
1.652	97.613	-23216	2229.9	0.28431	-0.064318	0.96429
1.654	97.58	-23215	2229.9	0.28158	-0.065392	0.9638
1.656	97.553	-23215	2229.9	0.28167	-0.064806	0.96468
1.658	97.522	-23213	2229.8	0.28177	-0.064221	0.96556
1.66	97.499	-23210	2229.8	0.28187	-0.063635	0.96644
1.662	97.499	-23213	2229.7	0.28197	-0.06305	0.96731
1.664	97.52	-23216	2229.6	0.28206	-0.062464	0.96819
1.666	97.559	-23216	2229.7	0.28099	-0.062269	0.96829
1.668	97.545	-23217	2229.8	0.27992	-0.062074	0.96839
1.67	97.507	-23218	2229.9	0.27884	-0.061878	0.96848
1.672	97.511	-23219	2230	0.27777	-0.061683	0.96858
1.674	97.503	-23221	2230.1	0.2767	-0.061488	0.96868
1.676	97.482	-23223	2230.3	0.27738	-0.061098	0.96878
1.678	97.518	-23224	2230.5	0.27806	-0.060707	0.96888
1.68	97.577	-23224	2230.8	0.27875	-0.060317	0.96897
1.682	97.578	-23224	2231.2	0.27943	-0.059926	0.96907
1.684	97.574	-23223	2231.5	0.28011	-0.059536	0.96917
1.686	97.554	-23222	2232	0.28001	-0.05895	0.96848
1.688	97.543	-23220	2232.6	0.27992	-0.058365	0.9678
1.69	97.59	-23222	2233.2	0.27982	-0.057779	0.96712
1.692	97.512	-23224	2234	0.27972	-0.057194	0.96644
1.694	97.498	-23232	2234.7	0.27962	-0.056608	0.96575
1.696	97.573	-23241	2235.6	0.27933	-0.05612	0.96478
1.698	97.593	-23239	2236.5	0.27904	-0.055632	0.9638
1.7	97.6	-23238	2237.5	0.27875	-0.055144	0.96282
1.702	97.605	-23243	2238.4	0.27845	-0.054656	0.96185
1.704	97.57	-23249	2239.4	0.27816	-0.054168	0.96087
1.706	97.608	-23244	2240.4	0.27621	-0.054656	0.96204
1.708	97.584	-23240	2241.4	0.27426	-0.055144	0.96321
1.71	97.527	-23245	2242.3	0.2723	-0.055632	0.96439
1.712	97.504	-23251	2243.3	0.27035	-0.05612	0.96556
1.714	97.478	-23244	2244.3	0.2684	-0.056608	0.96673
1.716	97.499	-23237	2245.2	0.27084	-0.055925	0.96526
1.718	97.566	-23241	2246.2	0.27328	-0.055242	0.9638
1.72	97.635	-23245	2247.1	0.27572	-0.054558	0.96234
1.722	97.596	-23252	2248.1	0.27816	-0.053875	0.96087
1.724	97.557	-23259	2249	0.2806	-0.053192	0.95941
1.726	97.578	-23257	2250	0.27865	-0.052606	0.96038
1.728	97.575	-23256	2251.1	0.2767	-0.052021	0.96136
1.73	97.558	-23254	2252	0.27474	-0.051435	0.96234
1.732	97.531	-23251	2253	0.27279	-0.05085	0.96331
1.734	97.468	-23247	2253.9	0.27084	-0.050264	0.96429
1.736	97.459	-23242	2254.7	0.2724	-0.049971	0.96644
1.738	97.54	-23238	2255.5	0.27396	-0.049678	0.96858
1.74	97.586	-23233	2256.2	0.27552	-0.049386	0.97073
1.742	97.564	-23236	2256.8	0.27709	-0.049093	0.97288
1.744	97.552	-23239	2257.5	0.27865	-0.0488	0.97502
1.746	97.559	-23238	2258.1	0.2766	-0.04919	0.9758
1.748	97.577	-23238	2258.7	0.27455	-0.049581	0.97659
1.75	97.563	-23240	2259.3	0.2725	-0.049971	0.97737
1.752	97.523	-23242	2259.9	0.27045	-0.050362	0.97815
1.754	97.517	-23239	2260.4	0.2684	-0.050752	0.97893
1.756	97.527	-23236	2260.9	0.27006	-0.050557	0.97951
1.758	97.498	-23234	2261.5	0.27172	-0.050362	0.9801
1.76	97.474	-23232	2262	0.27338	-0.050166	0.98068
1.762	97.441	-23222	2262.5	0.27504	-0.049971	0.98127
1.764	97.417	-23213	2263	0.2767	-0.049776	0.98186
1.766	97.498	-23214	2263.5	0.27757	-0.049874	0.9799
1.768	97.518	-23214	2263.9	0.27845	-0.049971	0.97795
1.77	97.551	-23214	2264.3	0.27933	-0.050069	0.976
1.772	97.548	-23214	2264.7	0.28021	-0.050166	0.97405
1.774	97.496	-23212	2265	0.28109	-0.050264	0.9721
1.776	97.496	-23210	2265.1	0.28089	-0.051533	0.972
1.778	97.479	-23202	2265.3	0.2807	-0.052802	0.9719
1.78	97.452	-23194	2265.5	0.2805	-0.05407	0.9718
1.782	97.383	-23197	2265.6	0.28031	-0.055339	0.97171
1.784	97.37	-23199	2265.8	0.28011	-0.056608	0.97161
1.786	97.425	-23196	2265.9	0.27806	-0.056218	0.96985
1.788	97.587	-23193	2266.1	0.27601	-0.055827	0.96809
1.79	97.588	-23189	2266.2	0.27396	-0.055437	0.96634
1.792	97.513	-23186	2266.2	0.27191	-0.055046	0.96458
1.794	97.425	-23186	2266.3	0.26986	-0.054656	0.96282
1.796	97.408	-23185	2266.3	0.26986	-0.055632	0.96312
1.798	97.44	-23177	2266.4	0.26986	-0.056608	0.96341
1.8	97.46	-23168	2266.4	0.26986	-0.057584	0.9637
1.802	97.463	-23170	2266.4	0.26986	-0.05856	0.964
1.804	97.449	-23173	2266.4	0.26986	-0.059536	0.96429
1.806	97.417	-23173	2266.5	0.26889	-0.059341	0.96478
1.808	97.443	-23172	2266.5	0.26791	-0.059146	0.96526
1.81	97.461	-23167	2266.4	0.26694	-0.05895	0.96575
1.812	97.482	-23162	2266.3	0.26596	-0.058755	0.96624
1.814	97.551	-23160	2266.2	0.26498	-0.05856	0.96673
1.816	97.588	-23159	2266	0.26645	-0.059438	0.96634
1.818	97.578	-23154	2265.8	0.26791	-0.060317	0.96595
1.82	97.544	-23150	2265.6	0.26938	-0.061195	0.96556
1.822	97.495	-23147	2265.4	0.27084	-0.062074	0.96517
1.824	97.472	-23144	2265.2	0.2723	-0.062952	0.96478
1.826	97.494	-23141	2264.9	0.27328	-0.062659	0.96429
1.828	97.514	-23139	2264.7	0.27426	-0.062366	0.9638
1.83	97.524	-23139	2264.5	0.27523	-0.062074	0.96331
1.832	97.566	-23139	2264.3	0.27621	-0.061781	0.96282
1.834	97.566	-23137	2264	0.27718	-0.061488	0.96234
1.836	97.536	-23134	2263.9	0.27689	-0.062854	0.9599
1.838	97.547	-23135	2263.8	0.2766	-0.064221	0.95746
1.84	97.61	-23137	2263.6	0.27631	-0.065587	0.95502
1.842	97.611	-23136	2263.3	0.27601	-0.066954	0.95258
1.844	97.547	-23136	2263	0.27572	-0.06832	0.95014
1.846	97.522	-23126	2262.5	0.2767	-0.068808	0.94867
1.848	97.542	-23116	2262.1	0.27767	-0.069296	0.94721
1.85	97.532	-23124	2261.7	0.27865	-0.069784	0.94574
1.852	97.526	-23131	2261.2	0.27962	-0.070272	0.94428
1.854	97.56	-23126	2260.7	0.2806	-0.07076	0.94282
1.856	97.606	-23121	2260.2	0.28031	-0.070858	0.94282
1.858	97.546	-23121	2259.7	0.28001	-0.070955	0.94282
1.86	97.526	-23122	2259.2	0.27972	-0.071053	0.94282
1.862	97.542	-23126	2258.6	0.27943	-0.07115	0.94282
1.864	97.536	-23130	2258.1	0.27914	-0.071248	0.94282
1.866	97.555	-23120	2257.6	0.27884	-0.071248	0.94243
1.868	97.52	-23110	2257.1	0.27855	-0.071248	0.94204
1.87	97.522	-23116	2256.5	0.27826	-0.071248	0.94164
1.872	97.502	-23122	2256	0.27796	-0.071248	0.94125
1.874	97.514	-23119	2255.5	0.27767	-0.071248	0.94086
1.876	97.572	-23116	2255.1	0.27601	-0.072419	0.94213
1.878	97.548	-23115	2254.8	0.27435	-0.07359	0.9434
1.88	97.502	-23115	2254.4	0.27269	-0.074762	0.94467
1.882	97.514	-23115	2254	0.27104	-0.075933	0.94594
1.884	97.521	-23115	2253.6	0.26938	-0.077104	0.94721
1.886	97.54	-23112	2253.2	0.26899	-0.07769	0.94692
1.888	97.57	-23109	2252.8	0.2686	-0.078275	0.94662
1.89	97.578	-23115	2252.5	0.2682	-0.078861	0.94633
1.892	97.549	-23122	2252.1	0.26781	-0.079446	0.94604
1.894	97.49	-23112	2251.8	0.26742	-0.080032	0.94574
1.896	97.516	-23103	2251.4	0.26869	-0.079446	0.94711
1.898	97.56	-23110	2251.1	0.26996	-0.078861	0.94848
1.9	97.579	-23117	2250.8	0.27123	-0.078275	0.94984
1.902	97.586	-23117	2250.5	0.2725	-0.07769	0.95121
1.904	97.583	-23117	2250.2	0.27377	-0.077104	0.95258
1.906	97.551	-23117	2249.9	0.27377	-0.077397	0.95287
1.908	97.505	-23117	2249.7	0.27377	-0.07769	0.95316
1.91	97.501	-23117	2249.5	0.27377	-0.077982	0.95345
1.912	97.51	-23118	2249.3	0.27377	-0.078275	0.95375
1.914	97.489	-23120	2249.1	0.27377	-0.078568	0.95404
1.916	97.477	-23122	2249	0.27269	-0.07808	0.95414
1.918	97.533	-23119	2248.8	0.27162	-0.077592	0.95424
1.92	97.634	-23116	2248.7	0.27055	-0.077104	0.95433
1.922	97.632	-23124	2248.5	0.26947	-0.076616	0.95443
1.924	97.551	-23132	2248.3	0.2684	-0.076128	0.95453
1.926	97.529	-23131	2248.1	0.26879	-0.076909	0.95589
1.928	97.517	-23129	2247.8	0.26918	-0.07769	0.95726
1.93	97.522	-23130	2247.6	0.26957	-0.07847	0.95863
1.932	97.525	-23130	2247.5	0.26996	-0.079251	0.95999
1.934	97.539	-23130	2247.4	0.27035	-0.080032	0.96136
1.936	97.618	-23130	2247.3	0.27006	-0.079349	0.96273
1.938	97.561	-23130	2247.2	0.26977	-0.078666	0.96409
1.94	97.505	-23131	2247.1	0.26947	-0.077982	0.96546
1.942	97.499	-23131	2247.2	0.26918	-0.077299	0.96683
1.944	97.502	-23132	2247.3	0.26889	-0.076616	0.96819
1.946	97.535	-23132	2247.4	0.26801	-0.075835	0.96868
1.948	97.523	-23131	2247.5	0.26713	-0.075054	0.96917
1.95	97.533	-23133	2247.6	0.26625	-0.074274	0.96966
1.952	97.56	-23135	2247.7	0.26537	-0.073493	0.97014
1.954	97.561	-23136	2247.8	0.2645	-0.072712	0.97063
1.956	97.456	-23136	2247.8	0.26606	-0.073005	0.97132
1.958	97.482	-23141	2247.8	0.26762	-0.073298	0.972
1.96	97.562	-23146	2247.8	0.26918	-0.07359	0.97268
1.962	97.588	-23144	2247.8	0.27074	-0.073883	0.97336
1.964	97.52	-23143	2247.8	0.2723	-0.074176	0.97405
1.966	97.475	-23140	2247.9	0.27406	-0.073786	0.97395
1.968	97.522	-23136	2247.9	0.27582	-0.073395	0.97385
1.97	97.564	-23138	2248	0.27757	-0.073005	0.97376
1.972	97.54	-23140	2248.1	0.27933	-0.072614	0.97366
1.974	97.478	-23145	2248.2	0.28109	-0.072224	0.97356
1.976	97.436	-23149	2248.3	0.2805	-0.071834	0.97415
1.978	97.44	-23143	2248.4	0.27992	-0.071443	0.97473
1.98	97.464	-23137	2248.4	0.27933	-0.071053	0.97532
1.982	97.471	-23144	2248.5	0.27875	-0.070662	0.9759
1.984	97.453	-23151	2248.5	0.27816	-0.070272	0.97649
1.986	97.451	-23153	2248.6	0.27855	-0.070467	0.97785
1.988	97.462	-23155	2248.6	0.27894	-0.070662	0.97922
1.99	97.45	-23159	2248.6	0.27933	-0.070858	0.98059
1.992	97.454	-23164	2248.7	0.27972	-0.071053	0.98195
1.994	97.481	-23163	2248.7	0.28011	-0.071248	0.98332
1.996	97.484	-23163	2248.6	0.2807	-0.071443	0.98254
1.998	97.474	-23165	2248.4	0.28128	-0.071638	0.98176
2	97.441	-23168	2248.2	0.28187	-0.071834	0.98098
2.002	97.376	-23166	2248	0.28245	-0.072029	0.9802
2.004	97.361	-23163	2247.8	0.28304	-0.072224	0.97942
2.006	97.432	-23162	2247.7	0.28382	-0.072322	0.97922
2.008	97.452	-23161	2247.6	0.2846	-0.072419	0.97903
2.01	97.422	-23166	2247.5	0.28538	-0.072517	0.97883
2.012	97.429	-23171	2247.3	0.28616	-0.072614	0.97864
2.014	97.454	-23167	2247.2	0.28694	-0.072712	0.97844
2.016	97.47	-23162	2247	0.2886	-0.071443	0.97727
2.018	97.476	-23163	2246.9	0.29026	-0.070174	0.9761
2.02	97.489	-23163	2246.8	0.29192	-0.068906	0.97493
2.022	97.518	-23169	2246.7	0.29358	-0.067637	0.97376
2.024	97.526	-23176	2246.5	0.29524	-0.066368	0.97258
2.026	97.533	-23177	2246.2	0.29436	-0.066954	0.97092
2.028	97.538	-23178	2245.9	0.29348	-0.067539	0.96927
2.03	97.592	-23178	2245.6	0.2926	-0.068125	0.96761
2.032	97.604	-23179	2245.3	0.29173	-0.06871	0.96595
2.034	97.588	-23180	2245.1	0.29085	-0.069296	0.96429
2.036	97.55	-23182	2245	0.29143	-0.069394	0.96458
2.038	97.544	-23184	2244.9	0.29202	-0.069491	0.96487
2.04	97.576	-23186	2244.9	0.2926	-0.069589	0.96517
2.042	97.57	-23188	2244.9	0.29319	-0.069686	0.96546
2.044	97.595	-23190	2245	0.29378	-0.069784	0.96575
2.046	97.566	-23190	2245	0.29378	-0.069589	0.96497
2.048	97.556	-23189	2245.1	0.29378	-0.069394	0.96419
2.05	97.552	-23186	2245.1	0.29378	-0.069198	0.96341
2.052	97.594	-23182	2245.1	0.29378	-0.069003	0.96263
2.054	97.65	-23183	2245.1	0.29378	-0.068808	0.96185
2.056	97.647	-23184	2245.1	0.29339	-0.069101	0.96234
2.058	97.592	-23188	2245	0.293	-0.069394	0.96282
2.06	97.565	-23192	2245	0.2926	-0.069686	0.96331
2.062	97.517	-23193	2244.9	0.29221	-0.069979	0.9638
2.064	97.501	-23195	2244.9	0.29182	-0.070272	0.96429
2.066	97.538	-23196	2244.8	0.2926	-0.070077	0.96517
2.068	97.591	-23197	2244.7	0.29339	-0.069882	0.96604
2.07	97.623	-23196	2244.7	0.29417	-0.069686	0.96692
2.072	97.643	-23195	2244.6	0.29495	-0.069491	0.9678
2.074	97.645	-23195	2244.6	0.29573	-0.069296	0.96868
2.076	97.592	-23195	2244.6	0.29573	-0.069296	0.96858
2.078	97.521	-23196	2244.6	0.29573	-0.069296	0.96848
2.08	97.541	-23196	2244.6	0.29573	-0.069296	0.96839
2.082	97.615	-23205	2244.6	0.29573	-0.069296	0.96829
2.084	97.609	-23214	2244.6	0.29573	-0.069296	0.96819
2.086	97.564	-23213	2244.6	0.29622	-0.069882	0.96946
2.088	97.564	-23212	2244.5	0.2967	-0.070467	0.97073
2.09	97.584	-23211	2244.5	0.29719	-0.071053	0.972
2.092	97.536	-23209	2244.5	0.29768	-0.071638	0.97327
2.094	97.495	-23207	2244.4	0.29817	-0.072224	0.97454
2.096	97.521	-23204	2244.4	0.29592	-0.073493	0.97336
2.098	97.585	-23207	2244.3	0.29368	-0.074762	0.97219
2.1	97.599	-23210	2244.2	0.29143	-0.07603	0.97102
2.102	97.559	-23212	2244.2	0.28919	-0.077299	0.96985
2.104	97.532	-23214	2244.1	0.28694	-0.078568	0.96868
2.106	97.548	-23212	2244	0.28626	-0.078275	0.96888
2.108	97.647	-23209	2244	0.28558	-0.077982	0.96907
2.11	97.694	-23210	2243.8	0.28489	-0.07769	0.96927
2.112	97.598	-23211	2243.7	0.28421	-0.077397	0.96946
2.114	97.516	-23212	2243.6	0.28353	-0.077104	0.96966
2.116	97.501	-23212	2243.4	0.28177	-0.075835	0.96868
2.118	97.553	-23216	2243.1	0.28001	-0.074566	0.9677
2.12	97.549	-23220	2242.9	0.27826	-0.073298	0.96673
2.122	97.554	-23223	2242.7	0.2765	-0.072029	0.96575
2.124	97.575	-23225	2242.5	0.27474	-0.07076	0.96478
2.126	97.541	-23226	2242.3	0.27426	-0.070662	0.96517
2.128	97.555	-23227	2242.1	0.27377	-0.070565	0.96556
2.13	97.513	-23231	2241.9	0.27328	-0.070467	0.96595
2.132	97.479	-23235	2241.7	0.27279	-0.07037	0.96634
2.134	97.541	-23235	2241.5	0.2723	-0.070272	0.96673
2.136	97.594	-23235	2241.5	0.2726	-0.069979	0.9677
2.138	97.579	-23233	2241.4	0.27289	-0.069686	0.96868
2.14	97.58	-23232	2241.3	0.27318	-0.069394	0.96966
2.142	97.545	-23232	2241.3	0.27348	-0.069101	0.97063
2.144	97.522	-23232	2241.2	0.27377	-0.068808	0.97161
2.146	97.494	-23231	2241.2	0.27172	-0.069198	0.97112
2.148	97.445	-23231	2241.2	0.26967	-0.069589	0.97063
2.15	97.403	-23234	2241.2	0.26762	-0.069979	0.97014
2.152	97.384	-23238	2241.2	0.26557	-0.07037	0.96966
2.154	97.367	-23239	2241.1	0.26352	-0.07076	0.96917
2.156	97.328	-23239	2241.1	0.2642	-0.071443	0.96702
2.158	97.261	-23240	2241.1	0.26489	-0.072126	0.96487
2.16	97.17	-23240	2241	0.26557	-0.07281	0.96273
2.162	97.108	-23242	2241	0.26625	-0.073493	0.96058
2.164	97.098	-23243	2241	0.26694	-0.074176	0.95843
2.166	97.114	-23244	2240.9	0.26625	-0.074371	0.95902
2.168	97.108	-23246	2240.9	0.26557	-0.074566	0.9596
2.17	97.105	-23248	2240.9	0.26489	-0.074762	0.96019
2.172	97.164	-23251	2240.8	0.2642	-0.074957	0.96077
2.174	97.182	-23254	2240.8	0.26352	-0.075152	0.96136
2.176	97.142	-23257	2240.7	0.26284	-0.074078	0.96292
2.178	97.07	-23255	2240.7	0.26215	-0.073005	0.96448
2.18	97.041	-23253	2240.7	0.26147	-0.071931	0.96604
2.182	97.066	-23254	2240.7	0.26079	-0.070858	0.96761
2.184	97.07	-23255	2240.6	0.2601	-0.069784	0.96917
2.186	96.993	-23264	2240.6	0.25942	-0.071541	0.96809
2.188	96.935	-23272	2240.5	0.25874	-0.073298	0.96702
2.19	96.98	-23276	2240.4	0.25805	-0.075054	0.96595
2.192	96.935	-23279	2240.4	0.25737	-0.076811	0.96487
2.194	96.848	-23282	2240.3	0.25669	-0.078568	0.9638
2.196	96.902	-23284	2240.2	0.25805	-0.077397	0.96487
2.198	96.957	-23284	2240.2	0.25942	-0.076226	0.96595
2.2	96.971	-23284	2240.1	0.26079	-0.075054	0.96702
2.202	96.974	-23282	2240.1	0.26215	-0.073883	0.96809
2.204	97	-23281	2240.1	0.26352	-0.072712	0.96917
2.206	97.056	-23286	2240	0.26323	-0.07281	0.96946
2.208	97.108	-23291	2240	0.26293	-0.072907	0.96975
2.21	97.114	-23289	2240	0.26264	-0.073005	0.97005
2.212	97.16	-23288	2239.9	0.26235	-0.073102	0.97034
2.214	97.229	-23292	2239.8	0.26206	-0.0732	0.97063
2.216	97.285	-23296	2239.7	0.26274	-0.0732	0.97132
2.218	97.349	-23296	2239.5	0.26342	-0.0732	0.972
2.22	97.435	-23296	2239.3	0.26411	-0.0732	0.97268
2.222	97.482	-23300	2239.1	0.26479	-0.0732	0.97336
2.224	97.491	-23303	2238.9	0.26547	-0.0732	0.97405
2.226	97.482	-23304	2238.7	0.26586	-0.073786	0.97395
2.228	97.405	-23305	2238.4	0.26625	-0.074371	0.97385
2.23	97.428	-23299	2238.2	0.26664	-0.074957	0.97376
2.232	97.511	-23293	2238	0.26703	-0.075542	0.97366
2.234	97.534	-23298	2237.8	0.26742	-0.076128	0.97356
2.236	97.547	-23302	2237.8	0.26655	-0.075152	0.97493
2.238	97.615	-23306	2237.8	0.26567	-0.074176	0.97629
2.24	97.623	-23310	2237.8	0.26479	-0.0732	0.97766
2.242	97.579	-23310	2237.8	0.26391	-0.072224	0.97903
2.244	97.582	-23310	2237.9	0.26303	-0.071248	0.98039
2.246	97.623	-23303	2238	0.26323	-0.069979	0.97981
2.248	97.626	-23295	2238.1	0.26342	-0.06871	0.97922
2.25	97.593	-23299	2238.2	0.26362	-0.067442	0.97864
2.252	97.581	-23303	2238.4	0.26381	-0.066173	0.97805
2.254	97.589	-23304	2238.5	0.26401	-0.064904	0.97746
2.256	97.586	-23304	2238.6	0.26557	-0.065099	0.97659
2.258	97.581	-23302	2238.7	0.26713	-0.065294	0.97571
2.26	97.618	-23300	2238.8	0.26869	-0.06549	0.97483
2.262	97.655	-23305	2238.9	0.27025	-0.065685	0.97395
2.264	97.59	-23310	2239	0.27182	-0.06588	0.97307
2.266	97.514	-23309	2239.1	0.27299	-0.065685	0.97366
2.268	97.521	-23308	2239.2	0.27416	-0.06549	0.97424
2.27	97.545	-23306	2239.3	0.27533	-0.065294	0.97483
2.272	97.52	-23305	2239.4	0.2765	-0.065099	0.97541
2.274	97.521	-23309	2239.5	0.27767	-0.064904	0.976
2.276	97.536	-23313	2239.6	0.27787	-0.065392	0.97698
2.278	97.591	-23316	2239.8	0.27806	-0.06588	0.97795
2.28	97.642	-23319	2240	0.27826	-0.066368	0.97893
2.282	97.582	-23316	2240.2	0.27845	-0.066856	0.9799
2.284	97.571	-23313	2240.4	0.27865	-0.067344	0.98088
2.286	97.682	-23316	2240.6	0.2806	-0.068027	0.98127
2.288	97.693	-23320	2240.9	0.28255	-0.06871	0.98166
2.29	97.639	-23321	2241.1	0.2845	-0.069394	0.98205
2.292	97.617	-23322	2241.3	0.28646	-0.070077	0.98244
2.294	97.609	-23322	2241.4	0.28841	-0.07076	0.98283
2.296	97.597	-23323	2241.6	0.29007	-0.071541	0.98273
2.298	97.575	-23327	2241.8	0.29173	-0.072322	0.98264
2.3	97.549	-23331	2242	0.29339	-0.073102	0.98254
2.302	97.539	-23332	2242.1	0.29504	-0.073883	0.98244
2.304	97.498	-23334	2242.2	0.2967	-0.074664	0.98234
2.306	97.497	-23333	2242.3	0.29827	-0.073981	0.98068
2.308	97.509	-23332	2242.4	0.29983	-0.073298	0.97903
2.31	97.527	-23337	2242.5	0.30139	-0.072614	0.97737
2.312	97.522	-23343	2242.6	0.30295	-0.071931	0.97571
2.314	97.503	-23339	2242.6	0.30451	-0.071248	0.97405
2.316	97.511	-23335	2242.6	0.30354	-0.07115	0.9721
2.318	97.503	-23338	2242.5	0.30256	-0.071053	0.97014
2.32	97.523	-23340	2242.5	0.30158	-0.070955	0.96819
2.322	97.519	-23335	2242.4	0.30061	-0.070858	0.96624
2.324	97.518	-23330	2242.3	0.29963	-0.07076	0.96429
2.326	97.555	-23342	2242.3	0.29992	-0.070662	0.9636
2.328	97.575	-23354	2242.2	0.30022	-0.070565	0.96292
2.33	97.539	-23345	2242.2	0.30051	-0.070467	0.96224
2.332	97.479	-23336	2242.3	0.3008	-0.07037	0.96156
2.334	97.452	-23343	2242.5	0.3011	-0.070272	0.96087
2.336	97.468	-23350	2242.8	0.30032	-0.070174	0.95892
2.338	97.509	-23346	2243.1	0.29953	-0.070077	0.95697
2.34	97.557	-23342	2243.5	0.29875	-0.069979	0.95502
2.342	97.558	-23346	2243.9	0.29797	-0.069882	0.95306
2.344	97.516	-23350	2244.4	0.29719	-0.069784	0.95111
2.346	97.528	-23350	2245.1	0.29583	-0.068515	0.95199
2.348	97.546	-23350	2245.7	0.29446	-0.067246	0.95287
2.35	97.552	-23346	2246.4	0.29309	-0.065978	0.95375
2.352	97.561	-23342	2247.2	0.29173	-0.064709	0.95463
2.354	97.535	-23351	2247.9	0.29036	-0.06344	0.9555
2.356	97.511	-23361	2248.7	0.29056	-0.064611	0.95599
2.358	97.552	-23355	2249.4	0.29075	-0.065782	0.95648
2.36	97.625	-23349	2250.2	0.29095	-0.066954	0.95697
2.362	97.584	-23353	2251	0.29114	-0.068125	0.95746
2.364	97.508	-23357	2251.8	0.29134	-0.069296	0.95794
2.366	97.545	-23359	2252.7	0.29124	-0.068027	0.95716
2.368	97.531	-23360	2253.6	0.29114	-0.066758	0.95638
2.37	97.537	-23363	2254.5	0.29104	-0.06549	0.9556
2.372	97.575	-23367	2255.4	0.29095	-0.064221	0.95482
2.374	97.616	-23364	2256.3	0.29085	-0.062952	0.95404
2.376	97.533	-23361	2257.1	0.28909	-0.064904	0.95326
2.378	97.463	-23356	2258	0.28733	-0.066856	0.95248
2.38	97.515	-23351	2258.9	0.28558	-0.068808	0.9517
2.382	97.547	-23356	2259.7	0.28382	-0.07076	0.95092
2.384	97.602	-23362	2260.5	0.28206	-0.072712	0.95014
2.386	97.62	-23353	2261.3	0.2807	-0.072517	0.94984
2.388	97.579	-23344	2262.1	0.27933	-0.072322	0.94955
2.39	97.497	-23351	2262.8	0.27796	-0.072126	0.94926
2.392	97.527	-23358	2263.4	0.2766	-0.071931	0.94896
2.394	97.562	-23359	2264	0.27523	-0.071736	0.94867
2.396	97.525	-23360	2264.6	0.27367	-0.074371	0.94906
2.398	97.507	-23359	2265.1	0.27211	-0.077006	0.94945
2.4	97.521	-23358	2265.7	0.27055	-0.079642	0.94984
2.402	97.503	-23357	2266.2	0.26899	-0.082277	0.95023
2.404	97.5	-23356	2266.7	0.26742	-0.084912	0.95062
2.406	97.556	-23348	2267.3	0.26635	-0.083448	0.95111
2.408	97.571	-23339	2267.8	0.26528	-0.081984	0.9516
2.41	97.552	-23339	2268.3	0.2642	-0.08052	0.95209
2.412	97.532	-23340	2268.7	0.26313	-0.079056	0.95258
2.414	97.502	-23341	2269.1	0.26206	-0.077592	0.95306
2.416	97.48	-23342	2269.4	0.26235	-0.078178	0.95345
2.418	97.465	-23343	2269.7	0.26264	-0.078763	0.95384
2.42	97.443	-23343	2270.1	0.26293	-0.079349	0.95424
2.422	97.424	-23337	2270.5	0.26323	-0.079934	0.95463
2.424	97.44	-23332	2270.9	0.26352	-0.08052	0.95502
2.426	97.487	-23324	2271.2	0.26323	-0.079251	0.95511
2.428	97.479	-23316	2271.5	0.26293	-0.077982	0.95521
2.43	97.412	-23321	2271.8	0.26264	-0.076714	0.95531
2.432	97.377	-23326	2272.1	0.26235	-0.075445	0.95541
2.434	97.41	-23324	2272.3	0.26206	-0.074176	0.9555
2.436	97.445	-23321	2272.6	0.26049	-0.074176	0.95736
2.438	97.462	-23315	2272.8	0.25893	-0.074176	0.95921
2.44	97.46	-23309	2273	0.25737	-0.074176	0.96107
2.442	97.464	-23312	2273.1	0.25581	-0.074176	0.96292
2.444	97.466	-23314	2273.2	0.25425	-0.074176	0.96478
2.446	97.462	-23304	2273.4	0.25298	-0.073395	0.96536
2.448	97.437	-23295	2273.5	0.25171	-0.072614	0.96595
2.45	97.469	-23297	2273.6	0.25044	-0.071834	0.96653
2.452	97.529	-23299	2273.8	0.24917	-0.071053	0.96712
2.454	97.481	-23299	2273.9	0.2479	-0.070272	0.9677
2.456	97.445	-23298	2273.9	0.25025	-0.070272	0.96819
2.458	97.419	-23289	2273.8	0.25259	-0.070272	0.96868
2.46	97.388	-23280	2273.8	0.25493	-0.070272	0.96917
2.462	97.392	-23288	2273.9	0.25727	-0.070272	0.96966
2.464	97.454	-23296	2273.9	0.25962	-0.070272	0.97014
2.466	97.517	-23293	2273.8	0.25893	-0.071346	0.96985
2.468	97.513	-23290	2273.7	0.25825	-0.072419	0.96956
2.47	97.482	-23287	2273.6	0.25757	-0.073493	0.96927
2.472	97.48	-23284	2273.4	0.25688	-0.074566	0.96897
2.474	97.563	-23279	2273.3	0.2562	-0.07564	0.96868
2.476	97.577	-23274	2273.1	0.25542	-0.075738	0.96809
2.478	97.503	-23268	2273	0.25464	-0.075835	0.96751
2.48	97.498	-23261	2272.8	0.25386	-0.075933	0.96692
2.482	97.528	-23268	2272.7	0.25308	-0.07603	0.96634
2.484	97.509	-23274	2272.5	0.2523	-0.076128	0.96575
2.486	97.447	-23274	2272.3	0.25347	-0.074664	0.96604
2.488	97.44	-23274	2272.2	0.25464	-0.0732	0.96634
2.49	97.485	-23264	2272	0.25581	-0.071736	0.96663
2.492	97.498	-23254	2271.8	0.25698	-0.070272	0.96692
2.494	97.49	-23254	2271.6	0.25815	-0.068808	0.96722
2.496	97.458	-23255	2271.3	0.25893	-0.069882	0.96722
2.498	97.437	-23253	2271	0.25971	-0.070955	0.96722
2.5	97.472	-23251	2270.7	0.26049	-0.072029	0.96722
2.502	97.501	-23251	2270.4	0.26128	-0.073102	0.96722
2.504	97.502	-23250	2270.1	0.26206	-0.074176	0.96722
2.506	97.505	-23244	2270	0.26284	-0.075347	0.96604
2.508	97.554	-23238	2269.8	0.26362	-0.076518	0.96487
2.51	97.618	-23240	2269.6	0.2644	-0.07769	0.9637
2.512	97.587	-23242	2269.4	0.26518	-0.078861	0.96253
2.514	97.518	-23243	2269.2	0.26596	-0.080032	0.96136
2.516	97.478	-23245	2268.9	0.26596	-0.080032	0.96156
2.518	97.451	-23241	2268.6	0.26596	-0.080032	0.96175
2.52	97.484	-23237	2268.3	0.26596	-0.080032	0.96195
2.522	97.535	-23237	2267.9	0.26596	-0.080032	0.96214
2.524	97.564	-23237	2267.5	0.26596	-0.080032	0.96234
2.526	97.594	-23235	2267	0.26781	-0.079544	0.96351
2.528	97.585	-23233	2266.5	0.26967	-0.079056	0.96468
2.53	97.417	-23233	2266	0.27152	-0.078568	0.96585
2.532	97.373	-23234	2265.5	0.27338	-0.07808	0.96702
2.534	97.444	-23236	2265.1	0.27523	-0.077592	0.96819
2.536	97.54	-23237	2264.7	0.27914	-0.076323	0.96907
2.538	97.534	-23237	2264.3	0.28304	-0.075054	0.96995
2.54	97.512	-23236	2264	0.28694	-0.073786	0.97083
2.542	97.514	-23230	2263.6	0.29085	-0.072517	0.97171
2.544	97.526	-23224	2263.2	0.29475	-0.071248	0.97258
2.546	97.494	-23232	2263	0.29378	-0.071346	0.972
2.548	97.482	-23240	2262.7	0.2928	-0.071443	0.97141
2.55	97.579	-23239	2262.5	0.29182	-0.071541	0.97083
2.552	97.608	-23238	2262.3	0.29085	-0.071638	0.97024
2.554	97.566	-23235	2262	0.28987	-0.071736	0.96966
2.556	97.537	-23231	2261.8	0.28919	-0.072517	0.96946
2.558	97.467	-23229	2261.6	0.28851	-0.073298	0.96927
2.56	97.451	-23228	2261.4	0.28782	-0.074078	0.96907
2.562	97.464	-23232	2261.2	0.28714	-0.074859	0.96888
2.564	97.51	-23237	2261	0.28646	-0.07564	0.96868
2.566	97.489	-23238	2260.7	0.28577	-0.075152	0.96829
2.568	97.435	-23240	2260.4	0.28509	-0.074664	0.9679
2.57	97.484	-23242	2260.2	0.28441	-0.074176	0.96751
2.572	97.524	-23244	2259.9	0.28372	-0.073688	0.96712
2.574	97.556	-23243	2259.7	0.28304	-0.0732	0.96673
2.576	97.555	-23242	2259.5	0.28333	-0.07281	0.96692
2.578	97.558	-23247	2259.4	0.28363	-0.072419	0.96712
2.58	97.559	-23252	2259.3	0.28392	-0.072029	0.96731
2.582	97.516	-23252	2259.1	0.28421	-0.071638	0.96751
2.584	97.455	-23252	2258.9	0.2845	-0.071248	0.9677
2.586	97.427	-23250	2258.8	0.28577	-0.070174	0.96731
2.588	97.456	-23248	2258.8	0.28704	-0.069101	0.96692
2.59	97.502	-23247	2258.7	0.28831	-0.068027	0.96653
2.592	97.502	-23246	2258.7	0.28958	-0.066954	0.96614
2.594	97.49	-23252	2258.6	0.29085	-0.06588	0.96575
2.596	97.545	-23258	2258.6	0.28948	-0.066563	0.96536
2.598	97.605	-23259	2258.6	0.28812	-0.067246	0.96497
2.6	97.564	-23261	2258.6	0.28675	-0.06793	0.96458
2.602	97.483	-23260	2258.6	0.28538	-0.068613	0.96419
2.604	97.473	-23258	2258.6	0.28402	-0.069296	0.9638
2.606	97.491	-23256	2258.6	0.28528	-0.068027	0.96546
2.608	97.463	-23254	2258.6	0.28655	-0.066758	0.96712
2.61	97.441	-23254	2258.6	0.28782	-0.06549	0.96878
2.612	97.442	-23254	2258.6	0.28909	-0.064221	0.97044
2.614	97.445	-23252	2258.6	0.29036	-0.062952	0.9721
2.616	97.455	-23251	2258.4	0.28977	-0.063538	0.97122
2.618	97.473	-23252	2258.2	0.28919	-0.064123	0.97034
2.62	97.568	-23253	2258	0.2886	-0.064709	0.96946
2.622	97.519	-23258	2257.8	0.28802	-0.065294	0.96858
2.624	97.423	-23262	2257.6	0.28743	-0.06588	0.9677
2.626	97.475	-23259	2257.4	0.28812	-0.066173	0.96829
2.628	97.426	-23255	2257.2	0.2888	-0.066466	0.96888
2.63	97.389	-23256	2257	0.28948	-0.066758	0.96946
2.632	97.374	-23257	2256.9	0.29016	-0.067051	0.97005
2.634	97.419	-23260	2256.8	0.29085	-0.067344	0.97063
2.636	97.419	-23264	2256.6	0.29016	-0.067442	0.97112
2.638	97.413	-23265	2256.5	0.28948	-0.067539	0.97161
2.64	97.412	-23266	2256.4	0.2888	-0.067637	0.9721
2.642	97.411	-23269	2256.3	0.28812	-0.067734	0.97258
2.644	97.393	-23272	2256.2	0.28743	-0.067832	0.97307
2.646	97.373	-23270	2256	0.28694	-0.067539	0.97385
2.648	97.41	-23268	2255.9	0.28646	-0.067246	0.97463
2.65	97.432	-23269	2255.7	0.28597	-0.066954	0.97541
2.652	97.423	-23270	2255.5	0.28548	-0.066661	0.9762
2.654	97.458	-23270	2255.3	0.28499	-0.066368	0.97698
2.656	97.471	-23271	2255.1	0.28548	-0.066173	0.97678
2.658	97.464	-23272	2254.9	0.28597	-0.065978	0.97659
2.66	97.431	-23273	2254.7	0.28646	-0.065782	0.97639
2.662	97.432	-23275	2254.4	0.28694	-0.065587	0.9762
2.664	97.422	-23276	2254.2	0.28743	-0.065392	0.976
2.666	97.391	-23279	2253.9	0.28626	-0.065099	0.97629
2.668	97.364	-23281	2253.7	0.28509	-0.064806	0.97659
2.67	97.402	-23285	2253.5	0.28392	-0.064514	0.97688
2.672	97.424	-23288	2253.3	0.28275	-0.064221	0.97717
2.674	97.407	-23286	2253.1	0.28158	-0.063928	0.97746
2.676	97.427	-23284	2253	0.2808	-0.062854	0.97785
2.678	97.427	-23285	2252.8	0.28001	-0.061781	0.97824
2.68	97.41	-23286	2252.7	0.27923	-0.060707	0.97864
2.682	97.417	-23292	2252.6	0.27845	-0.059634	0.97903
2.684	97.435	-23297	2252.5	0.27767	-0.05856	0.97942
2.686	97.454	-23297	2252.3	0.27972	-0.060414	0.97502
2.688	97.453	-23296	2252.1	0.28177	-0.062269	0.97063
2.69	97.492	-23294	2251.9	0.28382	-0.064123	0.96624
2.692	97.504	-23292	2251.8	0.28587	-0.065978	0.96185
2.694	97.488	-23295	2251.7	0.28792	-0.067832	0.95746
2.696	97.551	-23299	2251.5	0.2889	-0.066954	0.95746
2.698	97.565	-23298	2251.4	0.28987	-0.066075	0.95746
2.7	97.539	-23297	2251.3	0.29085	-0.065197	0.95746
2.702	97.538	-23296	2251.3	0.29182	-0.064318	0.95746
2.704	97.544	-23294	2251.3	0.2928	-0.06344	0.95746
2.706	97.567	-23298	2251.4	0.29124	-0.064416	0.95726
2.708	97.594	-23302	2251.4	0.28968	-0.065392	0.95707
2.71	97.585	-23302	2251.5	0.28812	-0.066368	0.95687
2.712	97.54	-23302	2251.4	0.28655	-0.067344	0.95668
2.714	97.496	-23304	2251.4	0.28499	-0.06832	0.95648
2.716	97.497	-23305	2251.3	0.28441	-0.069198	0.95892
2.718	97.582	-23307	2251.2	0.28382	-0.070077	0.96136
2.72	97.507	-23309	2251.1	0.28324	-0.070955	0.9638
2.722	97.453	-23309	2251.2	0.28265	-0.071834	0.96624
2.724	97.476	-23310	2251.2	0.28206	-0.072712	0.96868
2.726	97.508	-23310	2251.3	0.28294	-0.07281	0.96956
2.728	97.535	-23311	2251.4	0.28382	-0.072907	0.97044
2.73	97.591	-23317	2251.5	0.2847	-0.073005	0.97132
2.732	97.562	-23324	2251.5	0.28558	-0.073102	0.97219
2.734	97.542	-23326	2251.6	0.28646	-0.0732	0.97307
2.736	97.521	-23329	2251.7	0.28597	-0.07359	0.97249
2.738	97.529	-23327	2251.7	0.28548	-0.073981	0.9719
2.74	97.511	-23326	2251.8	0.28499	-0.074371	0.97132
2.742	97.499	-23323	2251.9	0.2845	-0.074762	0.97073
2.744	97.503	-23321	2252	0.28402	-0.075152	0.97014
2.746	97.539	-23320	2252.1	0.28226	-0.074176	0.96878
2.748	97.58	-23319	2252.2	0.2805	-0.0732	0.96741
2.75	97.574	-23319	2252.3	0.27875	-0.072224	0.96604
2.752	97.527	-23320	2252.3	0.27699	-0.071248	0.96468
2.754	97.514	-23326	2252.4	0.27523	-0.070272	0.96331
2.756	97.51	-23332	2252.4	0.27592	-0.069686	0.96224
2.758	97.531	-23332	2252.3	0.2766	-0.069101	0.96116
2.76	97.56	-23333	2252.3	0.27728	-0.068515	0.96009
2.762	97.526	-23335	2252.2	0.27796	-0.06793	0.95902
2.764	97.489	-23338	2252.1	0.27865	-0.067344	0.95794
2.766	97.501	-23337	2252	0.27777	-0.067637	0.95648
2.768	97.517	-23336	2252	0.27689	-0.06793	0.95502
2.77	97.485	-23329	2251.9	0.27601	-0.068222	0.95355
2.772	97.462	-23322	2251.9	0.27513	-0.068515	0.95209
2.774	97.498	-23330	2251.9	0.27426	-0.068808	0.95062
2.776	97.501	-23339	2251.9	0.27426	-0.069296	0.9515
2.778	97.491	-23338	2251.9	0.27426	-0.069784	0.95238
2.78	97.485	-23338	2252	0.27426	-0.070272	0.95326
2.782	97.501	-23337	2252.1	0.27426	-0.07076	0.95414
2.784	97.481	-23337	2252.2	0.27426	-0.071248	0.95502
2.786	97.495	-23339	2252.2	0.27387	-0.07076	0.95541
2.788	97.537	-23341	2252.3	0.27348	-0.070272	0.9558
2.79	97.555	-23342	2252.4	0.27308	-0.069784	0.95619
2.792	97.477	-23343	2252.5	0.27269	-0.069296	0.95658
2.794	97.441	-23345	2252.5	0.2723	-0.068808	0.95697
2.796	97.451	-23347	2252.6	0.2725	-0.069296	0.95668
2.798	97.446	-23351	2252.7	0.27269	-0.069784	0.95638
2.8	97.362	-23354	2252.8	0.27289	-0.070272	0.95609
2.802	97.394	-23355	2252.9	0.27308	-0.07076	0.9558
2.804	97.474	-23356	2253.1	0.27328	-0.071248	0.9555
2.806	97.474	-23361	2253.2	0.27182	-0.070955	0.95521
2.808	97.473	-23366	2253.3	0.27035	-0.070662	0.95492
2.81	97.495	-23363	2253.4	0.26889	-0.07037	0.95463
2.812	97.391	-23359	2253.3	0.26742	-0.070077	0.95433
2.814	97.256	-23362	2253.2	0.26596	-0.069784	0.95404
2.816	97.175	-23364	2253	0.2642	-0.069003	0.9558
2.818	97.1	-23370	2252.9	0.26245	-0.068222	0.95755
2.82	97.014	-23376	2252.8	0.26069	-0.067442	0.95931
2.822	96.967	-23377	2252.7	0.25893	-0.066661	0.96107
2.824	96.923	-23377	2252.6	0.25718	-0.06588	0.96282
2.826	96.953	-23377	2252.4	0.25757	-0.06588	0.96351
2.828	97.039	-23378	2252.3	0.25796	-0.06588	0.96419
2.83	97.083	-23381	2252.1	0.25835	-0.06588	0.96487
2.832	97.078	-23385	2251.9	0.25874	-0.06588	0.96556
2.834	97.037	-23380	2251.7	0.25913	-0.06588	0.96624
2.836	97.013	-23375	2251.6	0.25981	-0.06588	0.96585
2.838	96.993	-23379	2251.5	0.26049	-0.06588	0.96546
2.84	96.993	-23383	2251.3	0.26118	-0.06588	0.96507
2.842	97.001	-23383	2251.2	0.26186	-0.06588	0.96468
2.844	96.966	-23382	2251.1	0.26254	-0.06588	0.96429
2.846	96.887	-23386	2251	0.26381	-0.066954	0.96439
2.848	96.819	-23390	2251	0.26508	-0.068027	0.96448
2.85	96.816	-23391	2250.9	0.26635	-0.069101	0.96458
2.852	96.859	-23392	2250.8	0.26762	-0.070174	0.96468
2.854	96.898	-23390	2250.7	0.26889	-0.071248	0.96478
2.856	96.933	-23388	2250.6	0.26908	-0.07115	0.96487
2.858	96.974	-23388	2250.5	0.26928	-0.071053	0.96497
2.86	96.999	-23389	2250.4	0.26947	-0.070955	0.96507
2.862	96.968	-23393	2250.4	0.26967	-0.070858	0.96517
2.864	96.876	-23398	2250.4	0.26986	-0.07076	0.96526
2.866	96.806	-23399	2250.3	0.27025	-0.070272	0.9637
2.868	96.927	-23401	2250.3	0.27064	-0.069784	0.96214
2.87	97.12	-23399	2250.2	0.27104	-0.069296	0.96058
2.872	97.205	-23397	2250.1	0.27143	-0.068808	0.95902
2.874	97.27	-23399	2249.9	0.27182	-0.06832	0.95746
2.876	97.28	-23400	2249.8	0.27152	-0.068906	0.95677
2.878	97.281	-23405	2249.7	0.27123	-0.069491	0.95609
2.88	97.306	-23411	2249.6	0.27094	-0.070077	0.95541
2.882	97.432	-23407	2249.4	0.27064	-0.070662	0.95472
2.884	97.483	-23403	2249.3	0.27035	-0.071248	0.95404
2.886	97.507	-23403	2249.2	0.27055	-0.071248	0.95443
2.888	97.455	-23403	2249.1	0.27074	-0.071248	0.95482
2.89	97.386	-23405	2249	0.27094	-0.071248	0.95521
2.892	97.439	-23406	2248.9	0.27113	-0.071248	0.9556
2.894	97.586	-23408	2248.8	0.27133	-0.071248	0.95599
2.896	97.64	-23410	2248.7	0.27182	-0.070272	0.95687
2.898	97.559	-23411	2248.6	0.2723	-0.069296	0.95775
2.9	97.56	-23412	2248.5	0.27279	-0.06832	0.95863
2.902	97.56	-23410	2248.4	0.27328	-0.067344	0.95951
2.904	97.535	-23409	2248.4	0.27377	-0.066368	0.96038
2.906	97.511	-23409	2248.2	0.27445	-0.067344	0.96302
2.908	97.536	-23410	2248.1	0.27513	-0.06832	0.96565
2.91	97.531	-23414	2248	0.27582	-0.069296	0.96829
2.912	97.505	-23419	2248	0.2765	-0.070272	0.97092
2.914	97.466	-23426	2247.9	0.27718	-0.071248	0.97356
2.916	97.467	-23433	2247.8	0.2764	-0.071346	0.97444
2.918	97.505	-23425	2247.8	0.27562	-0.071443	0.97532
2.92	97.573	-23418	2247.7	0.27484	-0.071541	0.9762
2.922	97.617	-23414	2247.6	0.27406	-0.071638	0.97707
2.924	97.579	-23410	2247.4	0.27328	-0.071736	0.97795
2.926	97.53	-23422	2247.3	0.27445	-0.071541	0.97746
2.928	97.547	-23433	2247.2	0.27562	-0.071346	0.97698
2.93	97.56	-23433	2247.2	0.27679	-0.07115	0.97649
2.932	97.509	-23433	2247.1	0.27796	-0.070955	0.976
2.934	97.479	-23430	2247.1	0.27914	-0.07076	0.97551
2.936	97.499	-23427	2246.9	0.27865	-0.07037	0.97366
2.938	97.503	-23436	2246.8	0.27816	-0.069979	0.9718
2.94	97.506	-23445	2246.7	0.27767	-0.069589	0.96995
2.942	97.512	-23442	2246.6	0.27718	-0.069198	0.96809
2.944	97.498	-23438	2246.5	0.2767	-0.068808	0.96624
2.946	97.478	-23438	2246.5	0.27572	-0.069686	0.96634
2.948	97.465	-23439	2246.5	0.27474	-0.070565	0.96644
2.95	97.449	-23439	2246.5	0.27377	-0.071443	0.96653
2.952	97.477	-23440	2246.5	0.27279	-0.072322	0.96663
2.954	97.467	-23445	2246.6	0.27182	-0.0732	0.96673
2.956	97.506	-23451	2246.6	0.27221	-0.072517	0.96517
2.958	97.517	-23449	2246.7	0.2726	-0.071834	0.9636
2.96	97.552	-23448	2246.8	0.27299	-0.07115	0.96204
2.962	97.533	-23449	2246.9	0.27338	-0.070467	0.96048
2.964	97.511	-23449	2246.9	0.27377	-0.069784	0.95892
2.966	97.466	-23448	2246.9	0.2723	-0.070955	0.96136
2.968	97.376	-23447	2246.8	0.27084	-0.072126	0.9638
2.97	97.512	-23456	2246.8	0.26938	-0.073298	0.96624
2.972	97.553	-23465	2246.8	0.26791	-0.074469	0.96868
2.974	97.506	-23461	2246.8	0.26645	-0.07564	0.97112
2.976	97.503	-23457	2246.9	0.26772	-0.07564	0.97219
2.978	97.438	-23463	2246.9	0.26899	-0.07564	0.97327
2.98	97.476	-23469	2247.1	0.27025	-0.07564	0.97434
2.982	97.451	-23472	2247.3	0.27152	-0.07564	0.97541
2.984	97.413	-23476	2247.5	0.27279	-0.07564	0.97649
2.986	97.445	-23473	2247.8	0.27269	-0.076128	0.97629
2.988	97.529	-23470	2248.1	0.2726	-0.076616	0.9761
2.99	97.585	-23472	2248.5	0.2725	-0.077104	0.9759
2.992	97.519	-23475	2248.8	0.2724	-0.077592	0.97571
2.994	97.481	-23479	2249.2	0.2723	-0.07808	0.97551
2.996	97.462	-23483	2249.6	0.27338	-0.076226	0.97717
2.998	97.448	-23477	2250	0.27445	-0.074371	0.97883
3	97.484	-23470	2250.5	0.27552	-0.072517	0.98049
3.002	97.481	-23474	2251	0.2766	-0.070662	0.98215
3.004	97.472	-23479	2251.5	0.27767	-0.068808	0.98381
3.006	97.519	-23481	2252.1	0.27728	-0.068515	0.98303
3.008	97.555	-23484	2252.7	0.27689	-0.068222	0.98225
3.01	97.488	-23486	2253.3	0.2765	-0.06793	0.98147
3.012	97.429	-23488	2253.9	0.27611	-0.067637	0.98068
3.014	97.476	-23490	2254.6	0.27572	-0.067344	0.9799
3.016	97.517	-23492	2255.2	0.27923	-0.069198	0.98156
3.018	97.473	-23484	2255.9	0.28275	-0.071053	0.98322
3.02	97.432	-23477	2256.7	0.28626	-0.072907	0.98488
3.022	97.452	-23484	2257.5	0.28977	-0.074762	0.98654
3.024	97.472	-23491	2258.4	0.29329	-0.076616	0.9882
3.026	97.471	-23493	2259.3	0.2926	-0.074957	0.98654
3.028	97.484	-23495	2260.3	0.29192	-0.073298	0.98488
3.03	97.509	-23493	2261.3	0.29124	-0.071638	0.98322
3.032	97.514	-23492	2262.3	0.29056	-0.069979	0.98156
3.034	97.5	-23490	2263.2	0.28987	-0.06832	0.9799
3.036	97.475	-23489	2264.1	0.28938	-0.068418	0.97912
3.038	97.469	-23495	2265	0.2889	-0.068515	0.97834
3.04	97.481	-23501	2265.8	0.28841	-0.068613	0.97756
3.042	97.522	-23498	2266.6	0.28792	-0.06871	0.97678
3.044	97.532	-23496	2267.3	0.28743	-0.068808	0.976
3.046	97.517	-23502	2268	0.28685	-0.068418	0.97551
3.048	97.518	-23507	2268.8	0.28626	-0.068027	0.97502
3.05	97.48	-23498	2269.5	0.28568	-0.067637	0.97454
3.052	97.428	-23488	2270.1	0.28509	-0.067246	0.97405
3.054	97.431	-23486	2270.8	0.2845	-0.066856	0.97356
3.056	97.497	-23484	2271.4	0.28509	-0.067344	0.97229
3.058	97.587	-23480	2272	0.28568	-0.067832	0.97102
3.06	97.563	-23475	2272.5	0.28626	-0.06832	0.96975
3.062	97.488	-23477	2273	0.28685	-0.068808	0.96848
3.064	97.512	-23479	2273.5	0.28743	-0.069296	0.96722
3.066	97.502	-23476	2274	0.28655	-0.069784	0.96751
3.068	97.495	-23474	2274.5	0.28568	-0.070272	0.9678
3.07	97.465	-23480	2274.9	0.2848	-0.07076	0.96809
3.072	97.433	-23486	2275.4	0.28392	-0.071248	0.96839
3.074	97.452	-23483	2275.8	0.28304	-0.071736	0.96868
3.076	97.442	-23481	2276.2	0.28343	-0.070174	0.96819
3.078	97.447	-23477	2276.6	0.28382	-0.068613	0.9677
3.08	97.44	-23473	2277	0.28421	-0.067051	0.96722
3.082	97.441	-23471	2277.4	0.2846	-0.06549	0.96673
3.084	97.395	-23469	2277.7	0.28499	-0.063928	0.96624
3.086	97.389	-23467	2277.9	0.2847	-0.064904	0.96478
3.088	97.41	-23466	2278.1	0.28441	-0.06588	0.96331
3.09	97.447	-23464	2278.2	0.28411	-0.066856	0.96185
3.092	97.448	-23463	2278.3	0.28382	-0.067832	0.96038
3.094	97.388	-23458	2278.4	0.28353	-0.068808	0.95892
3.096	97.356	-23454	2278.5	0.28392	-0.069101	0.95912
3.098	97.368	-23454	2278.6	0.28431	-0.069394	0.95931
3.1	97.376	-23454	2278.7	0.2847	-0.069686	0.95951
3.102	97.383	-23450	2278.8	0.28509	-0.069979	0.9597
3.104	97.403	-23445	2278.8	0.28548	-0.070272	0.9599
3.106	97.409	-23449	2278.8	0.28392	-0.069979	0.95999
3.108	97.378	-23453	2278.7	0.28236	-0.069686	0.96009
3.11	97.355	-23450	2278.6	0.2808	-0.069394	0.96019
3.112	97.347	-23446	2278.5	0.27923	-0.069101	0.96029
3.114	97.365	-23443	2278.3	0.27767	-0.068808	0.96038
3.116	97.446	-23439	2278.1	0.2767	-0.068515	0.9598
3.118	97.468	-23431	2278	0.27572	-0.068222	0.95921
3.12	97.411	-23422	2277.8	0.27474	-0.06793	0.95863
3.122	97.459	-23428	2277.7	0.27377	-0.067637	0.95804
3.124	97.487	-23435	2277.5	0.27279	-0.067344	0.95746
3.126	97.528	-23431	2277.4	0.27396	-0.066661	0.95746
3.128	97.535	-23427	2277.3	0.27513	-0.065978	0.95746
3.13	97.47	-23426	2277.2	0.27631	-0.065294	0.95746
3.132	97.463	-23424	2277	0.27748	-0.064611	0.95746
3.134	97.454	-23423	2276.8	0.27865	-0.063928	0.95746
3.136	97.438	-23422	2276.6	0.27806	-0.064026	0.95697
3.138	97.425	-23414	2276.3	0.27748	-0.064123	0.95648
3.14	97.443	-23407	2276.1	0.27689	-0.064221	0.95599
3.142	97.45	-23407	2276	0.27631	-0.064318	0.9555
3.144	97.463	-23407	2275.9	0.27572	-0.064416	0.95502
3.146	97.419	-23408	2275.9	0.27562	-0.06383	0.95355
3.148	97.394	-23410	2276	0.27552	-0.063245	0.95209
3.15	97.445	-23412	2276	0.27543	-0.062659	0.95062
3.152	97.54	-23414	2276.1	0.27533	-0.062074	0.94916
3.154	97.6	-23411	2276.1	0.27523	-0.061488	0.9477
3.156	97.54	-23407	2276.3	0.27416	-0.061781	0.94799
3.158	97.506	-23403	2276.4	0.27308	-0.062074	0.94828
3.16	97.489	-23399	2276.5	0.27201	-0.062366	0.94857
3.162	97.465	-23399	2276.7	0.27094	-0.062659	0.94887
3.164	97.464	-23398	2276.9	0.26986	-0.062952	0.94916
3.166	97.467	-23398	2277	0.26938	-0.062562	0.95023
3.168	97.461	-23399	2277	0.26889	-0.062171	0.95131
3.17	97.468	-23398	2277	0.2684	-0.061781	0.95238
3.172	97.477	-23398	2276.9	0.26791	-0.06139	0.95345
3.174	97.508	-23397	2276.7	0.26742	-0.061	0.95453
3.176	97.529	-23396	2276.5	0.26762	-0.062659	0.95443
3.178	97.531	-23392	2276.3	0.26781	-0.064318	0.95433
3.18	97.532	-23388	2276.1	0.26801	-0.065978	0.95424
3.182	97.539	-23387	2276	0.2682	-0.067637	0.95414
3.184	97.52	-23387	2275.8	0.2684	-0.069296	0.95404
3.186	97.468	-23385	2275.6	0.2683	-0.06832	0.95609
3.188	97.417	-23384	2275.5	0.2682	-0.067344	0.95814
3.19	97.418	-23386	2275.3	0.26811	-0.066368	0.96019
3.192	97.463	-23389	2275.2	0.26801	-0.065392	0.96224
3.194	97.496	-23391	2275.1	0.26791	-0.064416	0.96429
3.196	97.554	-23394	2275	0.26957	-0.064514	0.96497
3.198	97.588	-23390	2274.8	0.27123	-0.064611	0.96565
3.2	97.532	-23387	2274.7	0.27289	-0.064709	0.96634
3.202	97.492	-23386	2274.4	0.27455	-0.064806	0.96702
3.204	97.477	-23385	2274.2	0.27621	-0.064904	0.9677
3.206	97.504	-23388	2273.9	0.27709	-0.064904	0.96624
3.208	97.523	-23391	2273.6	0.27796	-0.064904	0.96478
3.21	97.487	-23394	2273.3	0.27884	-0.064904	0.96331
3.212	97.464	-23396	2273	0.27972	-0.064904	0.96185
3.214	97.542	-23395	2272.7	0.2806	-0.064904	0.96038
3.216	97.556	-23395	2272.3	0.28138	-0.065392	0.95843
3.218	97.529	-23395	2272	0.28216	-0.06588	0.95648
3.22	97.525	-23395	2271.7	0.28294	-0.066368	0.95453
3.222	97.539	-23401	2271.3	0.28372	-0.066856	0.95258
3.224	97.538	-23406	2271	0.2845	-0.067344	0.95062
3.226	97.493	-23406	2270.6	0.28333	-0.066661	0.95053
3.228	97.459	-23406	2270.2	0.28216	-0.065978	0.95043
3.23	97.445	-23401	2269.8	0.28099	-0.065294	0.95033
3.232	97.504	-23395	2269.5	0.27982	-0.064611	0.95023
3.234	97.544	-23392	2269.1	0.27865	-0.063928	0.95014
3.236	97.494	-23388	2268.9	0.27875	-0.064026	0.94926
3.238	97.439	-23390	2268.6	0.27884	-0.064123	0.94838
3.24	97.427	-23391	2268.4	0.27894	-0.064221	0.9475
3.242	97.436	-23398	2268.2	0.27904	-0.064318	0.94662
3.244	97.467	-23406	2268	0.27914	-0.064416	0.94574
3.246	97.578	-23408	2267.9	0.28167	-0.064904	0.94555
3.248	97.619	-23410	2267.7	0.28421	-0.065392	0.94535
3.25	97.588	-23409	2267.7	0.28675	-0.06588	0.94516
3.252	97.549	-23407	2267.8	0.28929	-0.066368	0.94496
3.254	97.565	-23408	2267.8	0.29182	-0.066856	0.94477
3.256	97.582	-23408	2268	0.29095	-0.066563	0.94535
3.258	97.56	-23409	2268.1	0.29007	-0.06627	0.94594
3.26	97.546	-23411	2268.2	0.28919	-0.065978	0.94652
3.262	97.531	-23410	2268.3	0.28831	-0.065685	0.94711
3.264	97.513	-23410	2268.3	0.28743	-0.065392	0.9477
3.266	97.487	-23411	2268.4	0.28607	-0.065392	0.94994
3.268	97.458	-23412	2268.5	0.2847	-0.065392	0.95219
3.27	97.452	-23413	2268.5	0.28333	-0.065392	0.95443
3.272	97.486	-23414	2268.5	0.28197	-0.065392	0.95668
3.274	97.515	-23415	2268.6	0.2806	-0.065392	0.95892
3.276	97.523	-23416	2268.6	0.27972	-0.065002	0.96097
3.278	97.543	-23416	2268.7	0.27884	-0.064611	0.96302
3.28	97.533	-23417	2268.8	0.27796	-0.064221	0.96507
3.282	97.505	-23408	2268.8	0.27709	-0.06383	0.96712
3.284	97.512	-23399	2268.9	0.27621	-0.06344	0.96917
3.286	97.497	-23406	2268.9	0.27728	-0.064318	0.96917
3.288	97.456	-23413	2268.9	0.27836	-0.065197	0.96917
3.29	97.469	-23419	2268.8	0.27943	-0.066075	0.96917
3.292	97.467	-23425	2268.8	0.2805	-0.066954	0.96917
3.294	97.454	-23422	2268.7	0.28158	-0.067832	0.96917
3.296	97.392	-23418	2268.6	0.2808	-0.066368	0.96888
3.298	97.342	-23419	2268.5	0.28001	-0.064904	0.96858
3.3	97.419	-23419	2268.4	0.27923	-0.06344	0.96829
3.302	97.431	-23419	2268.2	0.27845	-0.061976	0.968
3.304	97.402	-23419	2268	0.27767	-0.060512	0.9677
3.306	97.459	-23422	2267.7	0.27806	-0.059926	0.96888
3.308	97.471	-23425	2267.5	0.27845	-0.059341	0.97005
3.31	97.426	-23429	2267.2	0.27884	-0.058755	0.97122
3.312	97.449	-23432	2266.9	0.27923	-0.05817	0.97239
3.314	97.544	-23434	2266.6	0.27962	-0.057584	0.97356
3.316	97.55	-23436	2266.3	0.27933	-0.058658	0.97278
3.318	97.542	-23435	2266.1	0.27904	-0.059731	0.972
3.32	97.49	-23433	2265.8	0.27875	-0.060805	0.97122
3.322	97.455	-23434	2265.6	0.27845	-0.061878	0.97044
3.324	97.384	-23434	2265.4	0.27816	-0.062952	0.96966
3.326	97.393	-23436	2265.2	0.27748	-0.061976	0.97024
3.328	97.456	-23438	2265.1	0.27679	-0.061	0.97083
3.33	97.5	-23440	2264.9	0.27611	-0.060024	0.97141
3.332	97.433	-23441	2264.8	0.27543	-0.059048	0.972
3.334	97.445	-23442	2264.6	0.27474	-0.058072	0.97258
3.336	97.49	-23444	2264.5	0.27435	-0.05895	0.97219
3.338	97.496	-23446	2264.4	0.27396	-0.059829	0.9718
3.34	97.485	-23448	2264.3	0.27357	-0.060707	0.97141
3.342	97.48	-23445	2264.2	0.27318	-0.061586	0.97102
3.344	97.478	-23443	2264.1	0.27279	-0.062464	0.97063
3.346	97.481	-23442	2264.1	0.27396	-0.062366	0.97102
3.348	97.498	-23442	2264.1	0.27513	-0.062269	0.97141
3.35	97.545	-23440	2264	0.27631	-0.062171	0.9718
3.352	97.627	-23439	2264	0.27748	-0.062074	0.97219
3.354	97.659	-23442	2264	0.27865	-0.061976	0.97258
3.356	97.626	-23445	2264	0.27748	-0.062366	0.97151
3.358	97.601	-23443	2264	0.27631	-0.062757	0.97044
3.36	97.614	-23441	2264	0.27513	-0.063147	0.96936
3.362	97.63	-23442	2264	0.27396	-0.063538	0.96829
3.364	97.607	-23443	2263.9	0.27279	-0.063928	0.96722
3.366	97.575	-23448	2263.9	0.2725	-0.065197	0.96673
3.368	97.559	-23453	2263.9	0.27221	-0.066466	0.96624
3.37	97.584	-23454	2263.8	0.27191	-0.067734	0.96575
3.372	97.622	-23455	2263.8	0.27162	-0.069003	0.96526
3.374	97.607	-23457	2263.7	0.27133	-0.070272	0.96478
3.376	97.561	-23458	2263.4	0.27113	-0.07076	0.96458
3.378	97.584	-23459	2263.2	0.27094	-0.071248	0.96439
3.38	97.593	-23460	2262.9	0.27074	-0.071736	0.96419
3.382	97.589	-23460	2262.5	0.27055	-0.072224	0.964
3.384	97.662	-23460	2262.2	0.27035	-0.072712	0.9638
3.386	97.746	-23466	2261.8	0.27182	-0.071931	0.96351
3.388	97.621	-23471	2261.5	0.27328	-0.07115	0.96321
3.39	97.552	-23468	2261.2	0.27474	-0.07037	0.96292
3.392	97.594	-23464	2260.9	0.27621	-0.069589	0.96263
3.394	97.624	-23469	2260.6	0.27767	-0.068808	0.96234
3.396	97.651	-23475	2260.4	0.27796	-0.06871	0.96234
3.398	97.622	-23471	2260.2	0.27826	-0.068613	0.96234
3.4	97.622	-23467	2260	0.27855	-0.068515	0.96234
3.402	97.665	-23470	2259.9	0.27884	-0.068418	0.96234
3.404	97.657	-23473	2259.8	0.27914	-0.06832	0.96234
3.406	97.59	-23468	2259.8	0.27806	-0.069296	0.96234
3.408	97.574	-23464	2259.9	0.27699	-0.070272	0.96234
3.41	97.592	-23470	2259.9	0.27592	-0.071248	0.96234
3.412	97.564	-23476	2259.8	0.27484	-0.072224	0.96234
3.414	97.593	-23478	2259.7	0.27377	-0.0732	0.96234
3.416	97.621	-23480	2259.7	0.27416	-0.07281	0.96331
3.418	97.602	-23480	2259.7	0.27455	-0.072419	0.96429
3.42	97.596	-23480	2259.7	0.27494	-0.072029	0.96526
3.422	97.633	-23479	2259.8	0.27533	-0.071638	0.96624
3.424	97.646	-23478	2259.9	0.27572	-0.071248	0.96722
3.426	97.668	-23480	2260.2	0.27855	-0.071541	0.96848
3.428	97.687	-23482	2260.5	0.28138	-0.071834	0.96975
3.43	97.636	-23484	2260.8	0.28421	-0.072126	0.97102
3.432	97.605	-23486	2261.1	0.28704	-0.072419	0.97229
3.434	97.611	-23486	2261.4	0.28987	-0.072712	0.97356
3.436	97.603	-23486	2261.5	0.28782	-0.072126	0.97249
3.438	97.595	-23489	2261.7	0.28577	-0.071541	0.97141
3.44	97.581	-23491	2261.8	0.28372	-0.070955	0.97034
3.442	97.598	-23489	2262	0.28167	-0.07037	0.96927
3.444	97.64	-23488	2262.1	0.27962	-0.069784	0.96819
3.446	97.646	-23489	2262.2	0.27923	-0.068808	0.96809
3.448	97.621	-23489	2262.3	0.27884	-0.067832	0.968
3.45	97.567	-23489	2262.4	0.27845	-0.066856	0.9679
3.452	97.508	-23488	2262.5	0.27806	-0.06588	0.9678
3.454	97.497	-23490	2262.5	0.27767	-0.064904	0.9677
3.456	97.556	-23491	2262.5	0.27855	-0.066368	0.9679
3.458	97.592	-23492	2262.5	0.27943	-0.067832	0.96809
3.46	97.55	-23493	2262.5	0.28031	-0.069296	0.96829
3.462	97.506	-23497	2262.5	0.28119	-0.07076	0.96848
3.464	97.545	-23501	2262.5	0.28206	-0.072224	0.96868
3.466	97.577	-23501	2262.5	0.28128	-0.071736	0.9677
3.468	97.551	-23502	2262.5	0.2805	-0.071248	0.96673
3.47	97.524	-23503	2262.4	0.27972	-0.07076	0.96575
3.472	97.425	-23503	2262.3	0.27894	-0.070272	0.96478
3.474	97.383	-23503	2262.2	0.27816	-0.069784	0.9638
3.476	97.268	-23502	2262	0.27806	-0.069882	0.96351
3.478	97.153	-23503	2261.8	0.27796	-0.069979	0.96321
3.48	97.106	-23503	2261.6	0.27787	-0.070077	0.96292
3.482	97.152	-23500	2261.4	0.27777	-0.070174	0.96263
3.484	97.206	-23497	2261.2	0.27767	-0.070272	0.96234
3.486	97.19	-23497	2261.1	0.27709	-0.069491	0.96224
3.488	97.209	-23496	2261	0.2765	-0.06871	0.96214
3.49	97.222	-23497	2260.9	0.27592	-0.06793	0.96204
3.492	97.197	-23498	2260.8	0.27533	-0.067149	0.96195
3.494	97.202	-23503	2260.7	0.27474	-0.066368	0.96185
3.496	97.151	-23509	2260.7	0.27474	-0.066368	0.96204
3.498	97.126	-23510	2260.6	0.27474	-0.066368	0.96224
3.5	97.106	-23510	2260.5	0.27474	-0.066368	0.96243
3.502	97.089	-23514	2260.4	0.27474	-0.066368	0.96263
3.504	97.092	-23518	2260.3	0.27474	-0.066368	0.96282
3.506	97.053	-23518	2260.3	0.27533	-0.066368	0.96224
3.508	97.088	-23518	2260.2	0.27592	-0.066368	0.96165
3.51	97.088	-23515	2260.2	0.2765	-0.066368	0.96107
3.512	97.059	-23512	2260.1	0.27709	-0.066368	0.96048
3.514	97.05	-23512	2260	0.27767	-0.066368	0.9599
3.516	97.032	-23512	2259.9	0.27826	-0.066758	0.95921
3.518	97.027	-23524	2259.8	0.27884	-0.067149	0.95853
3.52	97.021	-23535	2259.8	0.27943	-0.067539	0.95785
3.522	97.059	-23531	2259.7	0.28001	-0.06793	0.95716
3.524	97.141	-23528	2259.7	0.2806	-0.06832	0.95648
3.526	97.187	-23527	2259.6	0.27923	-0.068613	0.95521
3.528	97.228	-23527	2259.5	0.27787	-0.068906	0.95394
3.53	97.277	-23526	2259.3	0.2765	-0.069198	0.95267
3.532	97.29	-23525	2259.2	0.27513	-0.069491	0.9514
3.534	97.328	-23526	2259	0.27377	-0.069784	0.95014
3.536	97.416	-23527	2258.9	0.27387	-0.069491	0.95043
3.538	97.493	-23535	2258.7	0.27396	-0.069198	0.95072
3.54	97.549	-23543	2258.6	0.27406	-0.068906	0.95101
3.542	97.581	-23543	2258.5	0.27416	-0.068613	0.95131
3.544	97.604	-23542	2258.5	0.27426	-0.06832	0.9516
3.546	97.697	-23539	2258.5	0.27445	-0.06832	0.95209
3.548	97.758	-23535	2258.5	0.27465	-0.06832	0.95258
3.55	97.717	-23534	2258.4	0.27484	-0.06832	0.95306
3.552	97.7	-23533	2258.3	0.27504	-0.06832	0.95355
3.554	97.712	-23536	2258.2	0.27523	-0.06832	0.95404
3.556	97.771	-23539	2258.1	0.27552	-0.06793	0.95345
3.558	97.743	-23538	2258	0.27582	-0.067539	0.95287
3.56	97.715	-23536	2257.9	0.27611	-0.067149	0.95228
3.562	97.738	-23538	2257.8	0.2764	-0.066758	0.9517
3.564	97.74	-23540	2257.7	0.2767	-0.066368	0.95111
3.566	97.721	-23549	2257.6	0.27523	-0.06832	0.95394
3.568	97.731	-23557	2257.6	0.27377	-0.070272	0.95677
3.57	97.702	-23559	2257.5	0.2723	-0.072224	0.9596
3.572	97.727	-23560	2257.5	0.27084	-0.074176	0.96243
3.574	97.742	-23555	2257.4	0.26938	-0.076128	0.96526
3.576	97.701	-23550	2257.5	0.26879	-0.075445	0.96751
3.578	97.707	-23551	2257.5	0.2682	-0.074762	0.96975
3.58	97.714	-23552	2257.5	0.26762	-0.074078	0.972
3.582	97.739	-23553	2257.5	0.26703	-0.073395	0.97424
3.584	97.715	-23553	2257.6	0.26645	-0.072712	0.97649
3.586	97.744	-23557	2257.6	0.26674	-0.071931	0.9758
3.588	97.752	-23560	2257.7	0.26703	-0.07115	0.97512
3.59	97.767	-23565	2257.7	0.26733	-0.07037	0.97444
3.592	97.749	-23570	2257.7	0.26762	-0.069589	0.97376
3.594	97.731	-23563	2257.8	0.26791	-0.068808	0.97307
3.596	97.765	-23557	2257.7	0.26928	-0.068808	0.97327
3.598	97.753	-23570	2257.6	0.27064	-0.068808	0.97346
3.6	97.72	-23583	2257.5	0.27201	-0.068808	0.97366
3.602	97.72	-23584	2257.5	0.27338	-0.068808	0.97385
3.604	97.73	-23584	2257.4	0.27474	-0.068808	0.97405
3.606	97.702	-23578	2257.4	0.27387	-0.06871	0.97268
3.608	97.639	-23573	2257.3	0.27299	-0.068613	0.97132
3.61	97.636	-23574	2257.3	0.27211	-0.068515	0.96995
3.612	97.696	-23575	2257.2	0.27123	-0.068418	0.96858
3.614	97.728	-23575	2257.2	0.27035	-0.06832	0.96722
3.616	97.709	-23576	2257.1	0.27133	-0.068027	0.96761
3.618	97.694	-23580	2257	0.2723	-0.067734	0.968
3.62	97.737	-23584	2256.8	0.27328	-0.067442	0.96839
3.622	97.764	-23580	2256.6	0.27426	-0.067149	0.96878
3.624	97.707	-23575	2256.4	0.27523	-0.066856	0.96917
3.626	97.654	-23582	2256.2	0.27465	-0.067246	0.96809
3.628	97.626	-23589	2256	0.27406	-0.067637	0.96702
3.63	97.661	-23586	2255.8	0.27348	-0.068027	0.96595
3.632	97.767	-23584	2255.7	0.27289	-0.068418	0.96487
3.634	97.82	-23579	2255.5	0.2723	-0.068808	0.9638
3.636	97.789	-23575	2255.3	0.27143	-0.069882	0.96439
3.638	97.772	-23577	2255.1	0.27055	-0.070955	0.96497
3.64	97.763	-23579	2255	0.26967	-0.072029	0.96556
3.642	97.72	-23583	2254.9	0.26879	-0.073102	0.96614
3.644	97.731	-23588	2254.8	0.26791	-0.074176	0.96673
3.646	97.756	-23589	2254.9	0.26967	-0.073298	0.96487
3.648	97.714	-23589	2254.9	0.27143	-0.072419	0.96302
3.65	97.692	-23593	2255.1	0.27318	-0.071541	0.96116
3.652	97.785	-23596	2255.3	0.27494	-0.070662	0.95931
3.654	97.904	-23596	2255.5	0.2767	-0.069784	0.95746
3.656	97.821	-23595	2255.7	0.27592	-0.069784	0.95765
3.658	97.799	-23593	2256	0.27513	-0.069784	0.95785
3.66	97.772	-23592	2256.3	0.27435	-0.069784	0.95804
3.662	97.735	-23593	2256.6	0.27357	-0.069784	0.95824
3.664	97.757	-23593	2257	0.27279	-0.069784	0.95843
3.666	97.743	-23591	2257.4	0.27357	-0.068613	0.95892
3.668	97.755	-23589	2257.8	0.27435	-0.067442	0.95941
3.67	97.781	-23594	2258.3	0.27513	-0.06627	0.9599
3.672	97.792	-23599	2258.9	0.27592	-0.065099	0.96038
3.674	97.739	-23604	2259.4	0.2767	-0.063928	0.96087
3.676	97.721	-23609	2260.1	0.27767	-0.065978	0.96292
3.678	97.731	-23606	2260.8	0.27865	-0.068027	0.96497
3.68	97.797	-23604	2261.6	0.27962	-0.070077	0.96702
3.682	97.886	-23605	2262.4	0.2806	-0.072126	0.96907
3.684	97.907	-23607	2263.3	0.28158	-0.074176	0.97112
3.686	97.896	-23606	2264.2	0.28255	-0.074664	0.97112
3.688	97.881	-23605	2265.1	0.28353	-0.075152	0.97112
3.69	97.844	-23605	2266	0.2845	-0.07564	0.97112
3.692	97.8	-23606	2266.9	0.28548	-0.076128	0.97112
3.694	97.792	-23610	2267.8	0.28646	-0.076616	0.97112
3.696	97.793	-23615	2268.6	0.28655	-0.076128	0.97092
3.698	97.803	-23617	2269.5	0.28665	-0.07564	0.97073
3.7	97.832	-23619	2270.2	0.28675	-0.075152	0.97053
3.702	97.835	-23618	2270.9	0.28685	-0.074664	0.97034
3.704	97.828	-23617	2271.6	0.28694	-0.074176	0.97014
3.706	97.851	-23611	2272.3	0.28489	-0.074274	0.96995
3.708	97.885	-23605	2273	0.28284	-0.074371	0.96975
3.71	97.872	-23609	2273.6	0.2808	-0.074469	0.96956
3.712	97.824	-23614	2274.2	0.27875	-0.074566	0.96936
3.714	97.851	-23617	2274.7	0.2767	-0.074664	0.96917
3.716	97.867	-23620	2275.2	0.2765	-0.074469	0.96653
3.718	97.809	-23616	2275.6	0.27631	-0.074274	0.9639
3.72	97.763	-23612	2276	0.27611	-0.074078	0.96126
3.722	97.793	-23610	2276.3	0.27592	-0.073883	0.95863
3.724	97.827	-23609	2276.6	0.27572	-0.073688	0.95599
3.726	97.833	-23606	2277	0.27572	-0.073102	0.95589
3.728	97.823	-23604	2277.4	0.27572	-0.072517	0.9558
3.73	97.794	-23603	2277.8	0.27572	-0.071931	0.9557
3.732	97.839	-23602	2278.3	0.27572	-0.071346	0.9556
3.734	97.847	-23601	2278.9	0.27572	-0.07076	0.9555
3.736	97.794	-23600	2279.3	0.27377	-0.072029	0.95658
3.738	97.74	-23598	2279.7	0.27182	-0.073298	0.95765
3.74	97.747	-23597	2280.2	0.26986	-0.074566	0.95872
3.742	97.762	-23597	2280.6	0.26791	-0.075835	0.9598
3.744	97.786	-23598	2281	0.26596	-0.077104	0.96087
3.746	97.831	-23596	2281.4	0.26508	-0.075738	0.96234
3.748	97.829	-23595	2281.9	0.2642	-0.074371	0.9638
3.75	97.821	-23594	2282.3	0.26332	-0.073005	0.96526
3.752	97.782	-23592	2282.8	0.26245	-0.071638	0.96673
3.754	97.793	-23589	2283.2	0.26157	-0.070272	0.96819
3.756	97.764	-23586	2283.7	0.26049	-0.070272	0.9678
3.758	97.761	-23580	2284.1	0.25942	-0.070272	0.96741
3.76	97.739	-23574	2284.5	0.25835	-0.070272	0.96702
3.762	97.78	-23572	2284.8	0.25727	-0.070272	0.96663
3.764	97.862	-23570	2285.2	0.2562	-0.070272	0.96624
3.766	97.892	-23567	2285.5	0.25776	-0.070174	0.96683
3.768	97.887	-23565	2285.8	0.25932	-0.070077	0.96741
3.77	97.858	-23563	2286	0.26088	-0.069979	0.968
3.772	97.823	-23561	2286.3	0.26245	-0.069882	0.96858
3.774	97.814	-23560	2286.5	0.26401	-0.069784	0.96917
3.776	97.805	-23560	2286.6	0.26411	-0.06871	0.96995
3.778	97.816	-23560	2286.8	0.2642	-0.067637	0.97073
3.78	97.872	-23560	2286.9	0.2643	-0.066563	0.97151
3.782	97.881	-23563	2287	0.2644	-0.06549	0.97229
3.784	97.842	-23566	2287.1	0.2645	-0.064416	0.97307
3.786	97.834	-23562	2287	0.26147	-0.065197	0.97512
3.788	97.84	-23558	2286.9	0.25844	-0.065978	0.97717
3.79	97.852	-23559	2286.8	0.25542	-0.066758	0.97922
3.792	97.869	-23560	2286.6	0.25239	-0.067539	0.98127
3.794	97.869	-23562	2286.5	0.24937	-0.06832	0.98332
3.796	97.863	-23565	2286.3	0.25103	-0.068125	0.98381
3.798	97.847	-23556	2286.1	0.25269	-0.06793	0.9843
3.8	97.845	-23548	2285.9	0.25435	-0.067734	0.98478
3.802	97.851	-23544	2285.7	0.256	-0.067539	0.98527
3.804	97.839	-23540	2285.5	0.25766	-0.067344	0.98576
3.806	97.855	-23540	2285.3	0.25825	-0.066368	0.98615
3.808	97.876	-23539	2285.1	0.25884	-0.065392	0.98654
3.81	97.894	-23534	2284.9	0.25942	-0.064416	0.98693
3.812	97.879	-23529	2284.6	0.26001	-0.06344	0.98732
3.814	97.873	-23528	2284.4	0.26059	-0.062464	0.98771
3.816	97.973	-23526	2284.1	0.26118	-0.062757	0.98664
3.818	97.952	-23527	2283.9	0.26176	-0.06305	0.98556
3.82	97.834	-23528	2283.5	0.26235	-0.063342	0.98449
3.822	97.862	-23526	2283.1	0.26293	-0.063635	0.98342
3.824	97.995	-23524	2282.7	0.26352	-0.063928	0.98234
3.826	97.972	-23524	2282.3	0.26362	-0.064416	0.98078
3.828	97.962	-23524	2281.9	0.26372	-0.064904	0.97922
3.83	97.945	-23523	2281.4	0.26381	-0.065392	0.97766
3.832	97.904	-23523	2280.9	0.26391	-0.06588	0.9761
3.834	97.851	-23517	2280.4	0.26401	-0.066368	0.97454
3.836	97.823	-23511	2279.9	0.26411	-0.066856	0.97483
3.838	97.923	-23508	2279.5	0.2642	-0.067344	0.97512
3.84	97.975	-23505	2279	0.2643	-0.067832	0.97541
3.842	97.956	-23504	2278.5	0.2644	-0.06832	0.97571
3.844	97.977	-23503	2278	0.2645	-0.068808	0.976
3.846	98.027	-23501	2277.6	0.26586	-0.069003	0.97649
3.848	98.017	-23500	2277.1	0.26723	-0.069198	0.97698
3.85	97.988	-23498	2276.6	0.2686	-0.069394	0.97746
3.852	97.954	-23496	2276.2	0.26996	-0.069589	0.97795
3.854	97.897	-23495	2275.7	0.27133	-0.069784	0.97844
3.856	97.869	-23495	2275.3	0.27328	-0.069491	0.97766
3.858	97.912	-23495	2274.9	0.27523	-0.069198	0.97688
3.86	97.95	-23495	2274.6	0.27718	-0.068906	0.9761
3.862	97.941	-23496	2274.4	0.27914	-0.068613	0.97532
3.864	97.918	-23498	2274.2	0.28109	-0.06832	0.97454
3.866	97.933	-23499	2273.9	0.28226	-0.069394	0.97473
3.868	97.962	-23499	2273.7	0.28343	-0.070467	0.97493
3.87	97.945	-23492	2273.4	0.2846	-0.071541	0.97512
3.872	97.916	-23484	2273.2	0.28577	-0.072614	0.97532
3.874	97.912	-23485	2273	0.28694	-0.073688	0.97551
3.876	97.911	-23485	2272.8	0.28665	-0.073395	0.97385
3.878	97.907	-23489	2272.6	0.28636	-0.073102	0.97219
3.88	97.91	-23492	2272.4	0.28607	-0.07281	0.97053
3.882	97.943	-23494	2272.2	0.28577	-0.072517	0.96888
3.884	97.975	-23496	2271.9	0.28548	-0.072224	0.96722
3.886	97.975	-23495	2271.7	0.28587	-0.072224	0.96751
3.888	97.987	-23494	2271.4	0.28626	-0.072224	0.9678
3.89	97.965	-23495	2271.2	0.28665	-0.072224	0.96809
3.892	97.908	-23496	2271.1	0.28704	-0.072224	0.96839
3.894	97.967	-23494	2270.9	0.28743	-0.072224	0.96868
3.896	98.008	-23491	2270.8	0.28665	-0.072126	0.96878
3.898	97.993	-23491	2270.7	0.28587	-0.072029	0.96888
3.9	97.91	-23491	2270.6	0.28509	-0.071931	0.96897
3.902	97.893	-23496	2270.5	0.28431	-0.071834	0.96907
3.904	97.932	-23500	2270.4	0.28353	-0.071736	0.96917
3.906	97.914	-23503	2270.3	0.28294	-0.070955	0.96819
3.908	97.978	-23505	2270.3	0.28236	-0.070174	0.96722
3.91	98.023	-23506	2270.4	0.28177	-0.069394	0.96624
3.912	98.042	-23506	2270.5	0.28119	-0.068613	0.96526
3.914	98	-23504	2270.6	0.2806	-0.067832	0.96429
3.916	97.896	-23502	2270.7	0.27962	-0.067442	0.9638
3.918	97.879	-23501	2270.8	0.27865	-0.067051	0.96331
3.92	97.906	-23501	2270.8	0.27767	-0.066661	0.96282
3.922	97.978	-23501	2270.8	0.2767	-0.06627	0.96234
3.924	98.031	-23501	2270.9	0.27572	-0.06588	0.96185
3.926	98.013	-23501	2270.8	0.27513	-0.066368	0.96214
3.928	97.985	-23502	2270.8	0.27455	-0.066856	0.96243
3.93	97.965	-23502	2270.8	0.27396	-0.067344	0.96273
3.932	97.945	-23501	2270.8	0.27338	-0.067832	0.96302
3.934	97.969	-23506	2270.9	0.27279	-0.06832	0.96331
3.936	97.966	-23510	2270.8	0.27221	-0.068515	0.96448
3.938	97.925	-23513	2270.8	0.27162	-0.06871	0.96565
3.94	97.903	-23516	2270.8	0.27104	-0.068906	0.96683
3.942	97.916	-23519	2270.8	0.27045	-0.069101	0.968
3.944	97.947	-23522	2270.7	0.26986	-0.069296	0.96917
3.946	97.98	-23523	2270.7	0.27045	-0.069296	0.96946
3.948	97.988	-23525	2270.7	0.27104	-0.069296	0.96975
3.95	97.988	-23520	2270.7	0.27162	-0.069296	0.97005
3.952	97.964	-23514	2270.7	0.27221	-0.069296	0.97034
3.954	97.899	-23511	2270.7	0.27279	-0.069296	0.97063
3.956	97.832	-23508	2270.8	0.27211	-0.069003	0.97141
3.958	97.825	-23513	2270.8	0.27143	-0.06871	0.97219
3.96	97.899	-23519	2270.9	0.27074	-0.068418	0.97297
3.962	97.942	-23521	2270.9	0.27006	-0.068125	0.97376
3.964	97.901	-23523	2270.9	0.26938	-0.067832	0.97454
3.966	97.883	-23523	2271	0.26947	-0.068613	0.97473
3.968	97.864	-23523	2271	0.26957	-0.069394	0.97493
3.97	97.847	-23525	2271	0.26967	-0.070174	0.97512
3.972	97.873	-23527	2271	0.26977	-0.070955	0.97532
3.974	97.905	-23537	2271	0.26986	-0.071736	0.97551
3.976	97.914	-23548	2270.9	0.26996	-0.072126	0.97512
3.978	97.941	-23547	2270.8	0.27006	-0.072517	0.97473
3.98	97.952	-23546	2270.7	0.27016	-0.072907	0.97434
3.982	97.91	-23544	2270.7	0.27025	-0.073298	0.97395
3.984	97.9	-23541	2270.7	0.27035	-0.073688	0.97356
3.986	97.945	-23542	2270.6	0.26781	-0.072224	0.97297
3.988	97.961	-23544	2270.6	0.26528	-0.07076	0.97239
3.99	97.915	-23540	2270.5	0.26274	-0.069296	0.9718
3.992	97.91	-23537	2270.5	0.2602	-0.067832	0.97122
3.994	97.933	-23547	2270.5	0.25766	-0.066368	0.97063
3.996	97.978	-23558	2270.4	0.25786	-0.067539	0.97102
3.998	98.004	-23552	2270.3	0.25805	-0.06871	0.97141
4	98.031	-23546	2270.3	0.25825	-0.069882	0.9718
4.002	98.128	-23546	2270.2	0.25844	-0.071053	0.97219
4.004	98.028	-23547	2270.2	0.25864	-0.072224	0.97258
4.006	98.013	-23550	2270.2	0.25786	-0.072322	0.97132
4.008	98.041	-23554	2270.1	0.25708	-0.072419	0.97005
4.01	98.015	-23553	2270.1	0.2563	-0.072517	0.96878
4.012	97.973	-23552	2270	0.25552	-0.072614	0.96751
4.014	97.949	-23557	2269.9	0.25474	-0.072712	0.96624
4.016	98.03	-23561	2269.8	0.25561	-0.07281	0.96712
4.018	98.101	-23561	2269.8	0.25649	-0.072907	0.968
4.02	98.078	-23560	2269.7	0.25737	-0.073005	0.96888
4.022	98.072	-23565	2269.8	0.25825	-0.073102	0.96975
4.024	98.119	-23570	2269.8	0.25913	-0.0732	0.97063
4.026	98.154	-23562	2269.8	0.25835	-0.073688	0.97063
4.028	98.13	-23554	2269.8	0.25757	-0.074176	0.97063
4.03	98.103	-23550	2269.8	0.25679	-0.074664	0.97063
4.032	98.079	-23547	2269.9	0.256	-0.075152	0.97063
4.034	98.075	-23546	2269.9	0.25522	-0.07564	0.97063
4.036	98.092	-23545	2269.7	0.256	-0.074664	0.97024
4.038	98.09	-23544	2269.6	0.25679	-0.073688	0.96985
4.04	98.06	-23544	2269.5	0.25757	-0.072712	0.96946
4.042	98.014	-23542	2269.4	0.25835	-0.071736	0.96907
4.044	98.002	-23540	2269.2	0.25913	-0.07076	0.96868
4.046	98.054	-23545	2269	0.25864	-0.071346	0.96809
4.048	98.098	-23550	2268.8	0.25815	-0.071931	0.96751
4.05	98.066	-23552	2268.6	0.25766	-0.072517	0.96692
4.052	98.023	-23554	2268.5	0.25718	-0.073102	0.96634
4.054	98.07	-23549	2268.3	0.25669	-0.073688	0.96575
4.056	98.145	-23544	2268.2	0.25718	-0.073102	0.96614
4.058	98.14	-23544	2268.1	0.25766	-0.072517	0.96653
4.06	98.117	-23544	2268.1	0.25815	-0.071931	0.96692
4.062	98.081	-23548	2268.1	0.25864	-0.071346	0.96731
4.064	98.091	-23552	2268.1	0.25913	-0.07076	0.9677
4.066	98.112	-23560	2268.1	0.25874	-0.071736	0.96868
4.068	98.127	-23568	2268.2	0.25835	-0.072712	0.96966
4.07	98.153	-23555	2268.2	0.25796	-0.073688	0.97063
4.072	98.131	-23543	2268.3	0.25757	-0.074664	0.97161
4.074	98.168	-23548	2268.4	0.25718	-0.07564	0.97258
4.076	98.13	-23552	2268.2	0.25708	-0.075347	0.97132
4.078	98.035	-23552	2268.1	0.25698	-0.075054	0.97005
4.08	98.04	-23552	2268	0.25688	-0.074762	0.96878
4.082	98.113	-23557	2267.9	0.25679	-0.074469	0.96751
4.084	98.114	-23562	2267.8	0.25669	-0.074176	0.96624
4.086	98.154	-23560	2267.8	0.25893	-0.073688	0.96448
4.088	98.153	-23557	2267.7	0.26118	-0.0732	0.96273
4.09	98.079	-23560	2267.6	0.26342	-0.072712	0.96097
4.092	98.042	-23563	2267.5	0.26567	-0.072224	0.95921
4.094	98.033	-23564	2267.4	0.26791	-0.071736	0.95746
4.096	98.006	-23565	2267.3	0.26645	-0.071053	0.95824
4.098	97.992	-23568	2267.3	0.26498	-0.07037	0.95902
4.1	98.023	-23571	2267.2	0.26352	-0.069686	0.9598
4.102	98.007	-23570	2267.1	0.26206	-0.069003	0.96058
4.104	98.059	-23569	2267	0.26059	-0.06832	0.96136
4.106	98.099	-23569	2266.9	0.26225	-0.068808	0.96048
4.108	98.099	-23570	2266.8	0.26391	-0.069296	0.9596
4.11	98.047	-23567	2266.6	0.26557	-0.069784	0.95872
4.112	97.944	-23565	2266.5	0.26723	-0.070272	0.95785
4.114	97.909	-23574	2266.3	0.26889	-0.07076	0.95697
4.116	97.972	-23583	2266.2	0.2684	-0.070662	0.95755
4.118	98.046	-23581	2266	0.26791	-0.070565	0.95814
4.12	98.034	-23578	2265.9	0.26742	-0.070467	0.95872
4.122	97.98	-23580	2265.8	0.26694	-0.07037	0.95931
4.124	97.928	-23583	2265.8	0.26645	-0.070272	0.9599
4.126	97.885	-23579	2265.6	0.26508	-0.069979	0.96087
4.128	97.886	-23575	2265.5	0.26372	-0.069686	0.96185
4.13	97.856	-23576	2265.4	0.26235	-0.069394	0.96282
4.132	97.743	-23577	2265.3	0.26098	-0.069101	0.9638
4.134	97.623	-23578	2265.2	0.25962	-0.068808	0.96478
4.136	97.533	-23580	2265	0.26049	-0.068125	0.96439
4.138	97.529	-23577	2264.8	0.26137	-0.067442	0.964
4.14	97.663	-23574	2264.8	0.26225	-0.066758	0.9636
4.142	97.705	-23581	2264.8	0.26313	-0.066075	0.96321
4.144	97.719	-23588	2264.8	0.26401	-0.065392	0.96282
4.146	97.725	-23586	2264.9	0.26479	-0.066563	0.96273
4.148	97.668	-23583	2264.9	0.26557	-0.067734	0.96263
4.15	97.685	-23585	2265	0.26635	-0.068906	0.96253
4.152	97.727	-23588	2265.1	0.26713	-0.070077	0.96243
4.154	97.643	-23588	2265.2	0.26791	-0.071248	0.96234
4.156	97.6	-23589	2265.3	0.2684	-0.071248	0.96185
4.158	97.553	-23592	2265.3	0.26889	-0.071248	0.96136
4.16	97.506	-23595	2265.3	0.26938	-0.071248	0.96087
4.162	97.431	-23593	2265.3	0.26986	-0.071248	0.96038
4.164	97.435	-23591	2265.4	0.27035	-0.071248	0.9599
4.166	97.545	-23594	2265.4	0.27123	-0.069686	0.9599
4.168	97.533	-23597	2265.4	0.27211	-0.068125	0.9599
4.17	97.509	-23596	2265.5	0.27299	-0.066563	0.9599
4.172	97.449	-23595	2265.5	0.27387	-0.065002	0.9599
4.174	97.453	-23597	2265.5	0.27474	-0.06344	0.9599
4.176	97.523	-23598	2265.4	0.27289	-0.064123	0.96224
4.178	97.574	-23591	2265.3	0.27104	-0.064806	0.96458
4.18	97.632	-23585	2265.3	0.26918	-0.06549	0.96692
4.182	97.652	-23589	2265.3	0.26733	-0.066173	0.96927
4.184	97.714	-23593	2265.3	0.26547	-0.066856	0.97161
4.186	97.797	-23587	2265.3	0.26586	-0.066856	0.97219
4.188	97.897	-23580	2265.3	0.26625	-0.066856	0.97278
4.19	97.939	-23583	2265.2	0.26664	-0.066856	0.97336
4.192	97.937	-23586	2265.1	0.26703	-0.066856	0.97395
4.194	97.961	-23587	2265.1	0.26742	-0.066856	0.97454
4.196	98.031	-23588	2264.9	0.26616	-0.065685	0.976
4.198	98.051	-23593	2264.8	0.26489	-0.064514	0.97746
4.2	98.02	-23597	2264.6	0.26362	-0.063342	0.97893
4.202	98.034	-23595	2264.5	0.26235	-0.062171	0.98039
4.204	98.073	-23594	2264.3	0.26108	-0.061	0.98186
4.206	98.106	-23591	2264.2	0.26362	-0.062366	0.97951
4.208	98.14	-23588	2264	0.26616	-0.063733	0.97717
4.21	98.182	-23593	2264	0.26869	-0.065099	0.97483
4.212	98.191	-23597	2263.9	0.27123	-0.066466	0.97249
4.214	98.153	-23598	2263.9	0.27377	-0.067832	0.97014
4.216	98.149	-23598	2263.8	0.27152	-0.067442	0.96966
4.218	98.174	-23599	2263.7	0.26928	-0.067051	0.96917
4.22	98.172	-23600	2263.6	0.26703	-0.066661	0.96868
4.222	98.161	-23606	2263.4	0.26479	-0.06627	0.96819
4.224	98.19	-23612	2263.2	0.26254	-0.06588	0.9677
4.226	98.224	-23613	2263	0.26401	-0.066368	0.96848
4.228	98.145	-23613	2262.8	0.26547	-0.066856	0.96927
4.23	98.146	-23616	2262.7	0.26694	-0.067344	0.97005
4.232	98.218	-23619	2262.7	0.2684	-0.067832	0.97083
4.234	98.266	-23613	2262.7	0.26986	-0.06832	0.97161
4.236	98.28	-23607	2262.8	0.27045	-0.067734	0.97268
4.238	98.2	-23611	2262.9	0.27104	-0.067149	0.97376
4.24	98.155	-23614	2263	0.27162	-0.066563	0.97483
4.242	98.176	-23609	2263.2	0.27221	-0.065978	0.9759
4.244	98.163	-23604	2263.4	0.27279	-0.065392	0.97698
4.246	98.112	-23606	2263.6	0.27084	-0.064611	0.97922
4.248	98.113	-23607	2263.9	0.26889	-0.06383	0.98147
4.25	98.142	-23609	2264.2	0.26694	-0.06305	0.98371
4.252	98.239	-23612	2264.5	0.26498	-0.062269	0.98596
4.254	98.215	-23613	2264.9	0.26303	-0.061488	0.9882
4.256	98.158	-23614	2265.2	0.26401	-0.060902	0.9882
4.258	98.126	-23614	2265.5	0.26498	-0.060317	0.9882
4.26	98.138	-23614	2265.8	0.26596	-0.059731	0.9882
4.262	98.138	-23617	2266	0.26694	-0.059146	0.9882
4.264	98.142	-23619	2266.3	0.26791	-0.05856	0.9882
4.266	98.139	-23619	2266.4	0.26625	-0.059146	0.98625
4.268	98.096	-23620	2266.5	0.26459	-0.059731	0.9843
4.27	98.151	-23624	2266.7	0.26293	-0.060317	0.98234
4.272	98.176	-23629	2266.7	0.26128	-0.060902	0.98039
4.274	98.17	-23622	2266.8	0.25962	-0.061488	0.97844
4.276	98.143	-23614	2266.9	0.25913	-0.061683	0.97844
4.278	98.169	-23616	2266.9	0.25864	-0.061878	0.97844
4.28	98.197	-23617	2267	0.25815	-0.062074	0.97844
4.282	98.151	-23617	2267	0.25766	-0.062269	0.97844
4.284	98.133	-23616	2267	0.25718	-0.062464	0.97844
4.286	98.138	-23619	2267	0.25591	-0.062952	0.97883
4.288	98.143	-23621	2266.9	0.25464	-0.06344	0.97922
4.29	98.179	-23616	2266.8	0.25337	-0.063928	0.97961
4.292	98.177	-23610	2266.6	0.2521	-0.064416	0.98
4.294	98.126	-23620	2266.4	0.25083	-0.064904	0.98039
4.296	98.084	-23630	2266.3	0.25317	-0.063928	0.98098
4.298	98.077	-23629	2266.1	0.25552	-0.062952	0.98156
4.3	98.128	-23629	2266	0.25786	-0.061976	0.98215
4.302	98.175	-23630	2266	0.2602	-0.061	0.98273
4.304	98.15	-23632	2266	0.26254	-0.060024	0.98332
4.306	98.127	-23626	2266.1	0.26479	-0.060024	0.98537
4.308	98.148	-23620	2266.1	0.26703	-0.060024	0.98742
4.31	98.157	-23624	2266.3	0.26928	-0.060024	0.98947
4.312	98.152	-23628	2266.5	0.27152	-0.060024	0.99152
4.314	98.184	-23623	2266.6	0.27377	-0.060024	0.99357
4.316	98.192	-23618	2266.9	0.27611	-0.059341	0.99249
4.318	98.126	-23619	2267.2	0.27845	-0.058658	0.99142
4.32	98.091	-23621	2267.6	0.2808	-0.057974	0.99035
4.322	98.109	-23626	2268	0.28314	-0.057291	0.98927
4.324	98.12	-23632	2268.4	0.28548	-0.056608	0.9882
4.326	98.098	-23630	2268.9	0.28528	-0.057584	0.98703
4.328	98.109	-23629	2269.4	0.28509	-0.05856	0.98586
4.33	98.087	-23629	2269.9	0.28489	-0.059536	0.98469
4.332	98.088	-23629	2270.6	0.2847	-0.060512	0.98352
4.334	98.159	-23630	2271.2	0.2845	-0.061488	0.98234
4.336	98.215	-23630	2271.9	0.28431	-0.06061	0.97961
4.338	98.188	-23632	2272.7	0.28411	-0.059731	0.97688
4.34	98.121	-23635	2273.5	0.28392	-0.058853	0.97415
4.342	98.088	-23635	2274.3	0.28372	-0.057974	0.97141
4.344	98.132	-23636	2275.2	0.28353	-0.057096	0.96868
4.346	98.152	-23633	2276.1	0.28314	-0.056315	0.96575
4.348	98.158	-23629	2276.9	0.28275	-0.055534	0.96282
4.35	98.189	-23633	2277.9	0.28236	-0.054754	0.9599
4.352	98.206	-23637	2278.9	0.28197	-0.053973	0.95697
4.354	98.212	-23639	2279.9	0.28158	-0.053192	0.95404
4.356	98.186	-23641	2280.9	0.28314	-0.053875	0.95355
4.358	98.124	-23642	2281.9	0.2847	-0.054558	0.95306
4.36	98.111	-23643	2282.9	0.28626	-0.055242	0.95258
4.362	98.151	-23638	2283.9	0.28782	-0.055925	0.95209
4.364	98.145	-23633	2284.8	0.28938	-0.056608	0.9516
4.366	98.131	-23631	2285.7	0.29143	-0.056413	0.94965
4.368	98.181	-23628	2286.7	0.29348	-0.056218	0.9477
4.37	98.207	-23629	2287.6	0.29553	-0.056022	0.94574
4.372	98.172	-23629	2288.5	0.29758	-0.055827	0.94379
4.374	98.145	-23631	2289.3	0.29963	-0.055632	0.94184
4.376	98.159	-23633	2290.1	0.30158	-0.056608	0.94243
4.378	98.158	-23635	2290.8	0.30354	-0.057584	0.94301
4.38	98.139	-23636	2291.4	0.30549	-0.05856	0.9436
4.382	98.119	-23635	2291.8	0.30744	-0.059536	0.94418
4.384	98.116	-23634	2292.3	0.30939	-0.060512	0.94477
4.386	98.129	-23628	2292.7	0.30754	-0.061976	0.94418
4.388	98.11	-23621	2293.1	0.30568	-0.06344	0.9436
4.39	98.069	-23622	2293.4	0.30383	-0.064904	0.94301
4.392	98.043	-23624	2293.7	0.30197	-0.066368	0.94243
4.394	98.064	-23623	2293.9	0.30012	-0.067832	0.94184
4.396	98.094	-23622	2294.1	0.30139	-0.068515	0.94145
4.398	98.134	-23609	2294.3	0.30266	-0.069198	0.94106
4.4	98.126	-23595	2294.5	0.30393	-0.069882	0.94067
4.402	98.064	-23596	2294.6	0.3052	-0.070565	0.94028
4.404	98.049	-23597	2294.7	0.30646	-0.071248	0.93989
4.406	98.056	-23601	2294.8	0.30402	-0.072614	0.93911
4.408	98.1	-23605	2294.9	0.30158	-0.073981	0.93833
4.41	98.118	-23603	2295	0.29914	-0.075347	0.93755
4.412	98.108	-23601	2295.1	0.2967	-0.076714	0.93676
4.414	98.055	-23596	2295.2	0.29426	-0.07808	0.93598
4.416	98.025	-23590	2295.3	0.29182	-0.079056	0.93432
4.418	98.015	-23589	2295.3	0.28938	-0.080032	0.93267
4.42	98.071	-23587	2295.4	0.28694	-0.081008	0.93101
4.422	98.117	-23584	2295.4	0.2845	-0.081984	0.92935
4.424	98.119	-23582	2295.5	0.28206	-0.08296	0.92769
4.426	98.101	-23582	2295.3	0.28177	-0.08335	0.92905
4.428	98.057	-23582	2295.2	0.28148	-0.083741	0.93042
4.43	97.999	-23583	2295	0.28119	-0.084131	0.93179
4.432	98.051	-23584	2294.9	0.28089	-0.084522	0.93315
4.434	98.077	-23582	2294.7	0.2806	-0.084912	0.93452
4.436	98.066	-23579	2294.5	0.28158	-0.084034	0.93608
4.438	98.125	-23576	2294.4	0.28255	-0.083155	0.93764
4.44	98.166	-23572	2294.2	0.28353	-0.082277	0.9392
4.442	98.17	-23571	2294.2	0.2845	-0.081398	0.94077
4.444	98.149	-23570	2294.1	0.28548	-0.08052	0.94233
4.446	98.063	-23570	2294	0.28275	-0.079544	0.94477
4.448	98.017	-23569	2293.9	0.28001	-0.078568	0.94721
4.45	98.013	-23563	2293.7	0.27728	-0.077592	0.94965
4.452	98.079	-23556	2293.6	0.27455	-0.076616	0.95209
4.454	98.192	-23552	2293.4	0.27182	-0.07564	0.95453
4.456	98.241	-23549	2293.2	0.27133	-0.075738	0.9556
4.458	98.215	-23543	2293	0.27084	-0.075835	0.95668
4.46	98.161	-23538	2292.7	0.27035	-0.075933	0.95775
4.462	98.135	-23537	2292.5	0.26986	-0.07603	0.95882
4.464	98.141	-23536	2292.3	0.26938	-0.076128	0.9599
4.466	98.143	-23536	2292.1	0.26518	-0.074371	0.9599
4.468	98.143	-23536	2291.9	0.26098	-0.072614	0.9599
4.47	98.143	-23533	2291.7	0.25679	-0.070858	0.9599
4.472	98.168	-23531	2291.5	0.25259	-0.069101	0.9599
4.474	98.187	-23529	2291.3	0.24839	-0.067344	0.9599
4.476	98.142	-23526	2291	0.24654	-0.066368	0.96058
4.478	98.116	-23525	2290.8	0.24468	-0.065392	0.96126
4.48	98.131	-23524	2290.6	0.24283	-0.064416	0.96195
4.482	98.16	-23522	2290.2	0.24097	-0.06344	0.96263
4.484	98.189	-23520	2289.9	0.23912	-0.062464	0.96331
4.486	98.203	-23519	2289.5	0.23795	-0.062074	0.96585
4.488	98.171	-23517	2289.2	0.23678	-0.061683	0.96839
4.49	98.143	-23517	2288.9	0.23561	-0.061293	0.97092
4.492	98.137	-23516	2288.5	0.23444	-0.060902	0.97346
4.494	98.153	-23515	2288	0.23326	-0.060512	0.976
4.496	98.152	-23513	2287.5	0.2319	-0.060122	0.97922
4.498	98.16	-23510	2287.1	0.23053	-0.059731	0.98244
4.5	98.165	-23506	2286.6	0.22916	-0.059341	0.98566
4.502	98.177	-23505	2286.1	0.2278	-0.05895	0.98888
4.504	98.199	-23504	2285.7	0.22643	-0.05856	0.9921
4.506	98.224	-23506	2285.3	0.22468	-0.059341	0.99279
4.508	98.22	-23507	2285	0.22292	-0.060122	0.99347
4.51	98.14	-23507	2284.7	0.22116	-0.060902	0.99415
4.512	98.15	-23506	2284.4	0.2194	-0.061683	0.99484
4.514	98.126	-23504	2284.1	0.21765	-0.062464	0.99552
4.516	98.13	-23501	2283.9	0.21999	-0.061098	0.9963
4.518	98.11	-23498	2283.7	0.22233	-0.059731	0.99708
4.52	98.09	-23494	2283.5	0.22468	-0.058365	0.99786
4.522	98.082	-23504	2283.2	0.22702	-0.056998	0.99864
4.524	98.104	-23513	2283	0.22936	-0.055632	0.99942
4.526	98.195	-23510	2282.7	0.2278	-0.05651	0.99903
4.528	98.266	-23506	2282.4	0.22624	-0.057389	0.99864
4.53	98.234	-23501	2282.1	0.22468	-0.058267	0.99825
4.532	98.206	-23496	2281.9	0.22311	-0.059146	0.99786
4.534	98.198	-23492	2281.6	0.22155	-0.060024	0.99747
4.536	98.171	-23488	2281.3	0.22165	-0.060219	0.99698
4.538	98.151	-23490	2281	0.22175	-0.060414	0.9965
4.54	98.189	-23492	2280.7	0.22184	-0.06061	0.99601
4.542	98.195	-23492	2280.4	0.22194	-0.060805	0.99552
4.544	98.175	-23492	2280.2	0.22204	-0.061	0.99503
4.546	98.159	-23493	2279.9	0.22507	-0.060805	0.99396
4.548	98.149	-23493	2279.7	0.22809	-0.06061	0.99288
4.55	98.164	-23491	2279.4	0.23112	-0.060414	0.99181
4.552	98.204	-23489	2279.2	0.23414	-0.060219	0.99074
4.554	98.215	-23494	2278.9	0.23717	-0.060024	0.98966
4.556	98.182	-23498	2278.7	0.23844	-0.059536	0.98908
4.558	98.159	-23493	2278.5	0.23971	-0.059048	0.98849
4.56	98.154	-23489	2278.4	0.24097	-0.05856	0.98791
4.562	98.146	-23496	2278.4	0.24224	-0.058072	0.98732
4.564	98.133	-23504	2278.3	0.24351	-0.057584	0.98674
4.566	98.16	-23504	2278.3	0.24263	-0.057974	0.98517
4.568	98.155	-23504	2278.3	0.24176	-0.058365	0.98361
4.57	98.114	-23499	2278.3	0.24088	-0.058755	0.98205
4.572	98.082	-23494	2278.4	0.24	-0.059146	0.98049
4.574	98.066	-23500	2278.4	0.23912	-0.059536	0.97893
4.576	98.144	-23506	2278.5	0.24029	-0.059341	0.97942
4.578	98.257	-23505	2278.6	0.24146	-0.059146	0.9799
4.58	98.25	-23503	2278.6	0.24263	-0.05895	0.98039
4.582	98.229	-23508	2278.6	0.2438	-0.058755	0.98088
4.584	98.253	-23514	2278.7	0.24498	-0.05856	0.98137
4.586	98.191	-23508	2278.6	0.24624	-0.060024	0.98108
4.588	98.139	-23502	2278.6	0.24751	-0.061488	0.98078
4.59	98.132	-23502	2278.5	0.24878	-0.062952	0.98049
4.592	98.118	-23501	2278.5	0.25005	-0.064416	0.9802
4.594	98.113	-23503	2278.5	0.25132	-0.06588	0.9799
4.596	98.113	-23506	2278.5	0.25474	-0.064514	0.98098
4.598	98.129	-23505	2278.5	0.25815	-0.063147	0.98205
4.6	98.112	-23504	2278.5	0.26157	-0.061781	0.98312
4.602	98.119	-23503	2278.5	0.26498	-0.060414	0.9842
4.604	98.131	-23503	2278.4	0.2684	-0.059048	0.98527
