t	ekg	optical	pressure	accel_x	accel_y	accel_z
0	18.945	-14154	3842.2	0.18066	0.032306	1.0099
0.002	18.979	-14154	3842.3	0.17939	0.032989	1.0098
0.004	18.994	-14155	3842.3	0.17812	0.033672	1.0097
0.006	18.967	-14151	3842.4	0.17685	0.034355	1.0096
0.008	18.961	-14147	3842.4	0.17558	0.035038	1.0095
0.01	18.972	-14147	3842.5	0.17431	0.035722	1.0094
0.012	18.978	-14146	3842.5	0.17304	0.036405	1.0093
0.014	18.993	-14148	3842.5	0.17178	0.037088	1.0092
0.016	19.012	-14150	3842.5	0.17178	0.03621	1.0089
0.018	19.061	-14151	3842.5	0.17178	0.035331	1.0086
0.02	19.082	-14152	3842.4	0.17178	0.034453	1.0083
0.022	18.981	-14151	3842.4	0.17178	0.033574	1.008
0.024	18.83	-14151	3842.3	0.17178	0.032696	1.0077
0.026	18.833	-14149	3842.2	0.17148	0.033867	1.0081
0.028	18.906	-14148	3842.1	0.17119	0.035038	1.0085
0.03	18.908	-14147	3842	0.1709	0.03621	1.0089
0.032	18.912	-14147	3841.8	0.1706	0.037381	1.0093
0.034	18.99	-14152	3841.7	0.17031	0.038552	1.0097
0.036	18.978	-14158	3841.7	0.17109	0.037186	1.0088
0.038	18.932	-14161	3841.6	0.17187	0.035819	1.0079
0.04	18.898	-14164	3841.6	0.17265	0.034453	1.007
0.042	18.798	-14157	3841.5	0.17344	0.033086	1.0062
0.044	18.786	-14150	3841.4	0.17422	0.03172	1.0053
0.046	18.961	-14153	3841.2	0.17392	0.032306	1.0059
0.048	19.011	-14156	3841.1	0.17363	0.032891	1.0065
0.05	18.964	-14158	3840.9	0.17334	0.033477	1.007
0.052	18.939	-14161	3840.8	0.17304	0.034062	1.0076
0.054	18.95	-14162	3840.6	0.17275	0.034648	1.0082
0.056	18.992	-14163	3840.4	0.17207	0.035331	1.0084
0.058	18.943	-14160	3840.2	0.17139	0.036014	1.0086
0.06	18.88	-14158	3840	0.1707	0.036698	1.0088
0.062	18.9	-14153	3839.8	0.17002	0.037381	1.009
0.064	18.916	-14149	3839.6	0.16934	0.038064	1.0092
0.066	18.883	-14155	3839.5	0.17119	0.037966	1.009
0.068	18.86	-14161	3839.3	0.17304	0.037869	1.0088
0.07	18.876	-14163	3839.2	0.1749	0.037771	1.0086
0.072	18.894	-14164	3839.2	0.17675	0.037674	1.0084
0.074	18.89	-14163	3839.2	0.17861	0.037576	1.0082
0.076	18.854	-14161	3839.2	0.17822	0.03621	1.0079
0.078	18.898	-14155	3839.3	0.17783	0.034843	1.0076
0.08	18.981	-14150	3839.5	0.17744	0.033477	1.0073
0.082	18.975	-14149	3839.6	0.17705	0.03211	1.007
0.084	18.918	-14149	3839.8	0.17666	0.030744	1.0067
0.086	18.907	-14151	3839.9	0.17783	0.032208	1.006
0.088	18.928	-14154	3840	0.179	0.033672	1.0052
0.09	18.918	-14161	3840.1	0.18017	0.035136	1.0044
0.092	18.884	-14168	3840.2	0.18134	0.0366	1.0036
0.094	18.853	-14162	3840.4	0.18251	0.038064	1.0028
0.096	18.831	-14156	3840.5	0.18124	0.037576	1.0027
0.098	18.849	-14152	3840.7	0.17997	0.037088	1.0026
0.1	18.898	-14148	3840.9	0.17871	0.0366	1.0025
0.102	18.901	-14161	3841.2	0.17744	0.036112	1.0024
0.104	18.881	-14174	3841.5	0.17617	0.035624	1.0024
0.106	18.888	-14172	3841.8	0.17617	0.035234	1.0024
0.108	18.884	-14170	3842.2	0.17617	0.034843	1.0025
0.11	18.861	-14168	3842.6	0.17617	0.034453	1.0026
0.112	18.868	-14167	3843.1	0.17617	0.034062	1.0027
0.114	18.917	-14169	3843.5	0.17617	0.033672	1.0028
0.116	18.985	-14172	3844.2	0.17656	0.03416	1.0028
0.118	18.963	-14167	3844.8	0.17695	0.034648	1.0028
0.12	18.892	-14162	3845.5	0.17734	0.035136	1.0028
0.122	18.851	-14166	3846.2	0.17773	0.035624	1.0028
0.124	18.861	-14171	3846.9	0.17812	0.036112	1.0028
0.126	18.907	-14166	3847.7	0.17822	0.035819	1.0036
0.128	18.87	-14162	3848.5	0.17832	0.035526	1.0044
0.13	18.917	-14161	3849.3	0.17841	0.035234	1.0052
0.132	19.005	-14160	3850.2	0.17851	0.034941	1.006
0.134	18.906	-14165	3851.1	0.17861	0.034648	1.0067
0.136	18.936	-14170	3852	0.179	0.034843	1.0059
0.138	18.947	-14175	3853	0.17939	0.035038	1.005
0.14	18.945	-14180	3853.9	0.17978	0.035234	1.0041
0.142	18.945	-14181	3855	0.18017	0.035429	1.0032
0.144	18.847	-14182	3856	0.18056	0.035624	1.0024
0.146	18.826	-14171	3857.1	0.17949	0.035624	1.0019
0.148	18.886	-14161	3858.2	0.17841	0.035624	1.0014
0.15	18.893	-14163	3859.2	0.17734	0.035624	1.0009
0.152	18.881	-14164	3860.3	0.17627	0.035624	1.0004
0.154	18.906	-14165	3861.3	0.17519	0.035624	0.99991
0.156	18.923	-14165	3862.4	0.1748	0.035234	0.99806
0.158	18.904	-14171	3863.4	0.17441	0.034843	0.9962
0.16	18.84	-14177	3864.4	0.17402	0.034453	0.99435
0.162	18.832	-14174	3865.3	0.17363	0.034062	0.99249
0.164	18.848	-14172	3866.2	0.17324	0.033672	0.99064
0.166	18.823	-14166	3867	0.17304	0.033379	0.99035
0.168	18.795	-14159	3867.9	0.17285	0.033086	0.99005
0.17	18.806	-14167	3868.7	0.17265	0.032794	0.98976
0.172	18.84	-14174	3869.4	0.17246	0.032501	0.98947
0.174	18.875	-14166	3870.1	0.17226	0.032208	0.98918
0.176	18.845	-14158	3870.8	0.17304	0.031818	0.98908
0.178	18.798	-14160	3871.4	0.17383	0.031427	0.98898
0.18	18.817	-14161	3872	0.17461	0.031037	0.98888
0.182	18.849	-14168	3872.6	0.17539	0.030646	0.98879
0.184	18.856	-14175	3873.2	0.17617	0.030256	0.98869
0.186	18.816	-14176	3873.9	0.17588	0.031232	0.99093
0.188	18.783	-14177	3874.6	0.17558	0.032208	0.99318
0.19	18.797	-14169	3875.5	0.17529	0.033184	0.99542
0.192	18.804	-14161	3876.5	0.175	0.03416	0.99767
0.194	18.807	-14164	3877.4	0.1747	0.035136	0.99991
0.196	18.819	-14168	3878.5	0.17295	0.035429	0.99942
0.198	18.899	-14165	3879.6	0.17119	0.035722	0.99894
0.2	18.947	-14163	3880.7	0.16943	0.036014	0.99845
0.202	18.854	-14157	3881.9	0.16768	0.036307	0.99796
0.204	18.844	-14152	3883	0.16592	0.0366	0.99747
0.206	18.833	-14159	3884	0.16524	0.036405	0.99708
0.208	18.802	-14165	3885	0.16455	0.03621	0.99669
0.21	18.888	-14165	3886	0.16387	0.036014	0.9963
0.212	18.91	-14166	3886.8	0.16319	0.035819	0.99591
0.214	18.935	-14162	3887.7	0.1625	0.035624	0.99552
0.216	18.9	-14158	3888.3	0.16504	0.035038	0.99425
0.218	18.899	-14157	3889	0.16758	0.034453	0.99298
0.22	18.917	-14156	3889.6	0.17012	0.033867	0.99171
0.222	18.905	-14156	3890.2	0.17265	0.033282	0.99044
0.224	18.883	-14157	3890.7	0.17519	0.032696	0.98918
0.226	18.87	-14163	3891.1	0.17363	0.033672	0.9881
0.228	18.92	-14169	3891.4	0.17207	0.034648	0.98703
0.23	18.949	-14161	3891.7	0.17051	0.035624	0.98596
0.232	18.926	-14153	3891.9	0.16895	0.0366	0.98488
0.234	18.89	-14156	3892	0.16738	0.037576	0.98381
0.236	18.864	-14159	3892.2	0.1668	0.036698	0.98547
0.238	18.851	-14157	3892.3	0.16621	0.035819	0.98713
0.24	18.9	-14156	3892.3	0.16563	0.034941	0.98879
0.242	18.928	-14158	3892.3	0.16504	0.034062	0.99044
0.244	18.898	-14159	3892.3	0.16446	0.033184	0.9921
0.246	18.889	-14160	3892.3	0.16582	0.03416	0.9922
0.248	18.912	-14161	3892.2	0.16719	0.035136	0.9923
0.25	18.919	-14160	3892.2	0.16856	0.036112	0.9924
0.252	18.913	-14159	3892.1	0.16992	0.037088	0.99249
0.254	18.901	-14161	3892.1	0.17129	0.038064	0.99259
0.256	18.903	-14162	3892	0.17119	0.037869	0.99435
0.258	18.933	-14157	3891.9	0.17109	0.037674	0.99611
0.26	18.93	-14152	3891.8	0.171	0.037478	0.99786
0.262	18.92	-14154	3891.7	0.1709	0.037283	0.99962
0.264	18.955	-14157	3891.6	0.1708	0.037088	1.0014
0.266	18.965	-14154	3891.5	0.1706	0.036112	1.0006
0.268	18.937	-14150	3891.4	0.17041	0.035136	0.99981
0.27	18.902	-14157	3891.3	0.17021	0.03416	0.99903
0.272	18.902	-14163	3891.1	0.17002	0.033184	0.99825
0.274	18.926	-14161	3891	0.16982	0.032208	0.99747
0.276	18.871	-14160	3890.7	0.1707	0.03211	0.99659
0.278	18.824	-14157	3890.4	0.17158	0.032013	0.99572
0.28	18.863	-14155	3890.1	0.17246	0.031915	0.99484
0.282	18.922	-14152	3889.7	0.17334	0.031818	0.99396
0.284	18.919	-14149	3889.3	0.17422	0.03172	0.99308
0.286	18.905	-14152	3889	0.17548	0.03172	0.99201
0.288	18.941	-14155	3888.7	0.17675	0.03172	0.99093
0.29	18.937	-14152	3888.3	0.17802	0.03172	0.98986
0.292	18.957	-14148	3887.8	0.17929	0.03172	0.98879
0.294	19.025	-14145	3887.3	0.18056	0.03172	0.98771
0.296	18.978	-14142	3886.8	0.179	0.031134	0.98898
0.298	18.86	-14149	3886.2	0.17744	0.030549	0.99025
0.3	18.885	-14156	3885.6	0.17588	0.029963	0.99152
0.302	18.952	-14152	3884.9	0.17431	0.029378	0.99279
0.304	18.923	-14147	3884.2	0.17275	0.028792	0.99406
0.306	18.878	-14146	3883.5	0.17334	0.029182	0.99542
0.308	18.906	-14145	3882.9	0.17392	0.029573	0.99679
0.31	18.918	-14143	3882.3	0.17451	0.029963	0.99816
0.312	18.895	-14142	3881.7	0.17509	0.030354	0.99952
0.314	18.894	-14146	3881.1	0.17568	0.030744	1.0009
0.316	18.897	-14150	3880.7	0.17617	0.030451	1.0005
0.318	18.895	-14144	3880.2	0.17666	0.030158	1.0001
0.32	18.87	-14137	3879.8	0.17714	0.029866	0.99972
0.322	18.854	-14142	3879.4	0.17763	0.029573	0.99933
0.324	18.868	-14147	3879	0.17812	0.02928	0.99894
0.326	18.893	-14142	3878.7	0.17851	0.030256	1
0.328	18.919	-14137	3878.5	0.1789	0.031232	1.0011
0.33	18.951	-14139	3878.2	0.17929	0.032208	1.0022
0.332	18.965	-14142	3877.9	0.17968	0.033184	1.0032
0.334	18.969	-14140	3877.7	0.18007	0.03416	1.0043
0.336	18.976	-14138	3877.4	0.17997	0.034453	1.0046
0.338	18.936	-14136	3877.1	0.17988	0.034746	1.0049
0.34	18.88	-14134	3876.8	0.17978	0.035038	1.0052
0.342	18.851	-14138	3876.5	0.17968	0.035331	1.0055
0.344	18.869	-14141	3876.2	0.17958	0.035624	1.0058
0.346	18.955	-14144	3875.7	0.17939	0.034648	1.0052
0.348	18.95	-14147	3875.3	0.17919	0.033672	1.0046
0.35	18.856	-14143	3874.9	0.179	0.032696	1.004
0.352	18.888	-14139	3874.5	0.1788	0.03172	1.0034
0.354	18.963	-14141	3874	0.17861	0.030744	1.0028
0.356	18.924	-14144	3873.7	0.1789	0.031427	1.0029
0.358	18.835	-14143	3873.4	0.17919	0.03211	1.003
0.36	18.858	-14141	3873.1	0.17949	0.032794	1.0031
0.362	18.927	-14144	3872.8	0.17978	0.033477	1.0032
0.364	18.957	-14147	3872.6	0.18007	0.03416	1.0033
0.366	18.93	-14145	3872.4	0.17939	0.033184	1.0037
0.368	18.913	-14144	3872.2	0.17871	0.032208	1.0041
0.37	18.892	-14141	3871.9	0.17802	0.031232	1.0045
0.372	18.895	-14137	3871.7	0.17734	0.030256	1.0049
0.374	18.942	-14138	3871.5	0.17666	0.02928	1.0053
0.376	18.939	-14139	3871.3	0.17607	0.029963	1.0048
0.378	18.884	-14135	3871.1	0.17548	0.030646	1.0043
0.38	18.856	-14132	3870.8	0.1749	0.03133	1.0038
0.382	18.847	-14133	3870.6	0.17431	0.032013	1.0033
0.384	18.855	-14134	3870.3	0.17373	0.032696	1.0028
0.386	18.931	-14135	3870	0.17344	0.03172	1.0021
0.388	18.935	-14137	3869.7	0.17314	0.030744	1.0013
0.39	18.945	-14137	3869.4	0.17285	0.029768	1.0005
0.392	18.917	-14137	3869.1	0.17256	0.028792	0.99972
0.394	18.866	-14142	3868.7	0.17226	0.027816	0.99894
0.396	18.929	-14147	3868.4	0.17265	0.028206	0.99962
0.398	18.959	-14142	3868.1	0.17304	0.028597	1.0003
0.4	18.943	-14137	3867.9	0.17344	0.028987	1.001
0.402	18.889	-14137	3867.6	0.17383	0.029378	1.0017
0.404	18.892	-14138	3867.3	0.17422	0.029768	1.0024
0.406	18.949	-14146	3867	0.17256	0.030354	1.0015
0.408	18.925	-14153	3866.7	0.1709	0.030939	1.0006
0.41	18.881	-14147	3866.4	0.16924	0.031525	0.99972
0.412	18.854	-14141	3866	0.16758	0.03211	0.99884
0.414	18.869	-14137	3865.6	0.16592	0.032696	0.99796
0.416	18.954	-14132	3865.3	0.16797	0.033086	0.99962
0.418	19.024	-14137	3865	0.17002	0.033477	1.0013
0.42	18.977	-14142	3864.6	0.17207	0.033867	1.0029
0.422	18.908	-14139	3864.3	0.17412	0.034258	1.0046
0.424	18.91	-14135	3864	0.17617	0.034648	1.0063
0.426	18.915	-14135	3863.7	0.17529	0.034746	1.0067
0.428	18.885	-14134	3863.5	0.17441	0.034843	1.0072
0.43	18.88	-14135	3863.2	0.17353	0.034941	1.0077
0.432	18.896	-14135	3863.1	0.17265	0.035038	1.0082
0.434	18.905	-14137	3862.9	0.17178	0.035136	1.0087
0.436	18.886	-14139	3862.8	0.17295	0.034941	1.0077
0.438	18.828	-14138	3862.7	0.17412	0.034746	1.0067
0.44	18.812	-14137	3862.6	0.17529	0.03455	1.0058
0.442	18.857	-14141	3862.5	0.17646	0.034355	1.0048
0.444	18.866	-14145	3862.3	0.17763	0.03416	1.0038
0.446	18.8	-14139	3862.2	0.17812	0.034062	1.0037
0.448	18.765	-14133	3862	0.17861	0.033965	1.0036
0.45	18.785	-14133	3861.9	0.1791	0.033867	1.0035
0.452	18.769	-14133	3861.8	0.17958	0.03377	1.0034
0.454	18.806	-14135	3861.6	0.18007	0.033672	1.0033
0.456	18.894	-14137	3861.5	0.17763	0.032989	1.002
0.458	18.889	-14137	3861.3	0.17519	0.032306	1.0006
0.46	18.817	-14137	3861.1	0.17275	0.031622	0.99923
0.462	18.741	-14138	3860.8	0.17031	0.030939	0.99786
0.464	18.785	-14140	3860.6	0.16787	0.030256	0.9965
0.466	18.795	-14141	3860.3	0.16856	0.029963	0.9964
0.468	18.893	-14142	3860	0.16924	0.02967	0.9963
0.47	18.877	-14137	3859.7	0.16992	0.029378	0.9962
0.472	18.823	-14132	3859.3	0.1706	0.029085	0.99611
0.474	18.855	-14135	3858.9	0.17129	0.028792	0.99601
0.476	18.84	-14137	3858.6	0.17275	0.029378	0.99708
0.478	18.839	-14137	3858.2	0.17422	0.029963	0.99816
0.48	18.846	-14137	3857.9	0.17568	0.030549	0.99923
0.482	18.828	-14142	3857.6	0.17714	0.031134	1.0003
0.484	18.856	-14147	3857.3	0.17861	0.03172	1.0014
0.486	18.859	-14142	3857	0.17988	0.033184	1.0019
0.488	18.905	-14138	3856.8	0.18115	0.034648	1.0024
0.49	18.985	-14144	3856.6	0.18241	0.036112	1.0028
0.492	18.954	-14149	3856.5	0.18368	0.037576	1.0033
0.494	18.855	-14147	3856.3	0.18495	0.03904	1.0038
0.496	18.862	-14145	3856.2	0.18544	0.037869	1.004
0.498	18.964	-14142	3856.1	0.18593	0.036698	1.0042
0.5	18.982	-14140	3856	0.18642	0.035526	1.0044
0.502	18.897	-14142	3855.9	0.1869	0.034355	1.0046
0.504	18.858	-14143	3855.9	0.18739	0.033184	1.0048
0.506	18.888	-14143	3855.8	0.18729	0.032891	1.0044
0.508	18.933	-14143	3855.7	0.1872	0.032598	1.004
0.51	18.97	-14137	3855.7	0.1871	0.032306	1.0036
0.512	18.937	-14132	3855.7	0.187	0.032013	1.0032
0.514	18.895	-14137	3855.6	0.1869	0.03172	1.0028
0.516	18.92	-14141	3855.6	0.18544	0.032306	1.0018
0.518	18.945	-14139	3855.6	0.18398	0.032891	1.0007
0.52	18.926	-14137	3855.6	0.18251	0.033477	0.99962
0.522	18.922	-14141	3855.6	0.18105	0.034062	0.99855
0.524	18.942	-14145	3855.5	0.17958	0.034648	0.99747
0.526	18.922	-14144	3855.4	0.1788	0.033184	0.9964
0.528	18.901	-14144	3855.4	0.17802	0.03172	0.99532
0.53	18.957	-14142	3855.2	0.17724	0.030256	0.99425
0.532	18.988	-14141	3855	0.17646	0.028792	0.99318
0.534	18.926	-14144	3854.8	0.17568	0.027328	0.9921
0.536	18.89	-14146	3854.5	0.17529	0.026938	0.99201
0.538	18.957	-14146	3854.2	0.1749	0.026547	0.99191
0.54	18.952	-14146	3853.9	0.17451	0.026157	0.99181
0.542	18.946	-14142	3853.6	0.17412	0.025766	0.99171
0.544	18.967	-14139	3853.3	0.17373	0.025376	0.99162
0.546	18.959	-14140	3853	0.17344	0.025376	0.99171
0.548	19.035	-14142	3852.6	0.17314	0.025376	0.99181
0.55	19.006	-14140	3852.3	0.17285	0.025376	0.99191
0.552	18.858	-14138	3851.9	0.17256	0.025376	0.99201
0.554	18.911	-14135	3851.6	0.17226	0.025376	0.9921
0.556	18.957	-14133	3851.3	0.17207	0.026645	0.99269
0.558	18.947	-14133	3851.1	0.17187	0.027914	0.99328
0.56	18.891	-14133	3850.8	0.17168	0.029182	0.99386
0.562	18.895	-14132	3850.6	0.17148	0.030451	0.99445
0.564	18.878	-14132	3850.4	0.17129	0.03172	0.99503
0.566	18.933	-14136	3850.2	0.17139	0.031427	0.99591
0.568	18.986	-14140	3850.1	0.17148	0.031134	0.99679
0.57	18.993	-14142	3850.1	0.17158	0.030842	0.99767
0.572	19.007	-14145	3850.1	0.17168	0.030549	0.99855
0.574	18.967	-14143	3850.1	0.17178	0.030256	0.99942
0.576	18.956	-14141	3850.1	0.1706	0.031427	0.99894
0.578	18.948	-14141	3850.2	0.16943	0.032598	0.99845
0.58	18.929	-14141	3850.2	0.16826	0.03377	0.99796
0.582	18.887	-14143	3850.3	0.16709	0.034941	0.99747
0.584	18.849	-14146	3850.3	0.16592	0.036112	0.99698
0.586	18.833	-14149	3850.2	0.16738	0.035136	0.99581
0.588	18.809	-14151	3850.2	0.16885	0.03416	0.99464
0.59	18.873	-14152	3850.1	0.17031	0.033184	0.99347
0.592	18.93	-14154	3850.1	0.17178	0.032208	0.9923
0.594	18.854	-14151	3850	0.17324	0.031232	0.99113
0.596	18.826	-14149	3850	0.17119	0.031232	0.9924
0.598	18.871	-14151	3850	0.16914	0.031232	0.99367
0.6	18.922	-14153	3849.9	0.16709	0.031232	0.99493
0.602	18.957	-14152	3849.9	0.16504	0.031232	0.9962
0.604	18.924	-14152	3849.8	0.16299	0.031232	0.99747
0.606	18.893	-14149	3849.7	0.16387	0.031915	0.99816
0.608	18.933	-14146	3849.6	0.16475	0.032598	0.99884
0.61	18.931	-14149	3849.4	0.16563	0.033282	0.99952
0.612	18.873	-14152	3849.3	0.16651	0.033965	1.0002
0.614	18.873	-14150	3849.1	0.16738	0.034648	1.0009
0.616	18.856	-14149	3849	0.16738	0.034258	1.0004
0.618	18.797	-14152	3848.8	0.16738	0.033867	0.99991
0.62	18.755	-14156	3848.6	0.16738	0.033477	0.99942
0.622	18.729	-14158	3848.4	0.16738	0.033086	0.99894
0.624	18.704	-14161	3848.3	0.16738	0.032696	0.99845
0.626	18.611	-14157	3848.1	0.16836	0.03211	0.99816
0.628	18.543	-14154	3847.9	0.16934	0.031525	0.99786
0.63	18.575	-14152	3847.8	0.17031	0.030939	0.99757
0.632	18.515	-14149	3847.7	0.17129	0.030354	0.99728
0.634	18.467	-14150	3847.5	0.17226	0.029768	0.99698
0.636	18.517	-14150	3847.4	0.1707	0.030256	0.99659
0.638	18.55	-14151	3847.3	0.16914	0.030744	0.9962
0.64	18.518	-14152	3847.2	0.16758	0.031232	0.99581
0.642	18.544	-14153	3847.1	0.16602	0.03172	0.99542
0.644	18.521	-14154	3847	0.16446	0.032208	0.99503
0.646	18.556	-14157	3846.9	0.16621	0.031232	0.99279
0.648	18.633	-14160	3846.8	0.16797	0.030256	0.99054
0.65	18.479	-14160	3846.7	0.16973	0.02928	0.9883
0.652	18.345	-14159	3846.4	0.17148	0.028304	0.98605
0.654	18.322	-14154	3846.2	0.17324	0.027328	0.98381
0.656	18.342	-14149	3846	0.17304	0.027523	0.98391
0.658	18.306	-14149	3845.7	0.17285	0.027718	0.984
0.66	18.307	-14149	3845.5	0.17265	0.027914	0.9841
0.662	18.334	-14152	3845.2	0.17246	0.028109	0.9842
0.664	18.381	-14154	3844.9	0.17226	0.028304	0.9843
0.666	18.355	-14156	3844.8	0.17256	0.028694	0.98488
0.668	18.315	-14158	3844.6	0.17285	0.029085	0.98547
0.67	18.327	-14163	3844.4	0.17314	0.029475	0.98605
0.672	18.433	-14169	3844.2	0.17344	0.029866	0.98664
0.674	18.51	-14158	3844.1	0.17373	0.030256	0.98722
0.676	18.529	-14148	3843.9	0.17461	0.029963	0.98781
0.678	18.59	-14153	3843.8	0.17548	0.02967	0.9884
0.68	18.69	-14158	3843.7	0.17636	0.029378	0.98898
0.682	18.716	-14163	3843.6	0.17724	0.029085	0.98957
0.684	18.713	-14168	3843.6	0.17812	0.028792	0.99015
0.686	18.783	-14167	3843.5	0.17792	0.028792	0.99025
0.688	18.89	-14165	3843.5	0.17773	0.028792	0.99035
0.69	18.903	-14165	3843.3	0.17753	0.028792	0.99044
0.692	18.811	-14166	3843.2	0.17734	0.028792	0.99054
0.694	18.771	-14164	3843	0.17714	0.028792	0.99064
0.696	18.809	-14163	3842.7	0.17714	0.030451	0.99191
0.698	18.846	-14161	3842.4	0.17714	0.03211	0.99318
0.7	18.934	-14159	3842.1	0.17714	0.03377	0.99445
0.702	18.996	-14159	3841.9	0.17714	0.035429	0.99572
0.704	18.961	-14159	3841.6	0.17714	0.037088	0.99698
0.706	18.948	-14160	3841.4	0.17783	0.03699	0.99796
0.708	18.962	-14161	3841.2	0.17851	0.036893	0.99894
0.71	18.955	-14163	3841	0.17919	0.036795	0.99991
0.712	18.927	-14165	3840.9	0.17988	0.036698	1.0009
0.714	18.955	-14167	3840.7	0.18056	0.0366	1.0019
0.716	18.95	-14169	3840.6	0.18095	0.036698	1.0011
0.718	18.94	-14169	3840.5	0.18134	0.036795	1.0003
0.72	18.894	-14168	3840.3	0.18173	0.036893	0.99952
0.722	18.857	-14167	3840.2	0.18212	0.03699	0.99874
0.724	18.855	-14166	3840.1	0.18251	0.037088	0.99796
0.726	18.941	-14163	3839.9	0.18056	0.035722	0.99728
0.728	19.031	-14160	3839.8	0.17861	0.034355	0.99659
0.73	19.027	-14161	3839.6	0.17666	0.032989	0.99591
0.732	18.986	-14162	3839.5	0.1747	0.031622	0.99523
0.734	18.948	-14164	3839.3	0.17275	0.030256	0.99454
0.736	18.869	-14165	3839.2	0.17451	0.031037	0.99562
0.738	18.873	-14165	3839	0.17627	0.031818	0.99669
0.74	18.912	-14164	3838.9	0.17802	0.032598	0.99776
0.742	18.929	-14166	3838.8	0.17978	0.033379	0.99884
0.744	18.914	-14167	3838.7	0.18154	0.03416	0.99991
0.746	18.905	-14160	3838.7	0.1829	0.032794	0.99991
0.748	18.913	-14154	3838.7	0.18427	0.031427	0.99991
0.75	18.926	-14152	3838.7	0.18564	0.030061	0.99991
0.752	18.941	-14151	3838.7	0.187	0.028694	0.99991
0.754	19.031	-14157	3838.7	0.18837	0.027328	0.99991
0.756	19.039	-14164	3838.8	0.18827	0.028206	1.0008
0.758	18.963	-14166	3838.8	0.18817	0.029085	1.0017
0.76	18.877	-14168	3838.9	0.18808	0.029963	1.0025
0.762	18.86	-14167	3839	0.18798	0.030842	1.0034
0.764	18.896	-14165	3839.2	0.18788	0.03172	1.0043
0.766	18.928	-14167	3839.3	0.18798	0.031232	1.0034
0.768	18.932	-14168	3839.4	0.18808	0.030744	1.0025
0.77	18.913	-14172	3839.5	0.18817	0.030256	1.0017
0.772	18.882	-14176	3839.5	0.18827	0.029768	1.0008
0.774	18.862	-14177	3839.6	0.18837	0.02928	0.99991
0.776	18.877	-14178	3839.6	0.18856	0.029963	1.0012
0.778	18.894	-14173	3839.6	0.18876	0.030646	1.0024
0.78	18.874	-14168	3839.5	0.18895	0.03133	1.0037
0.782	18.849	-14171	3839.4	0.18915	0.032013	1.005
0.784	18.878	-14174	3839.3	0.18934	0.032696	1.0063
0.786	18.941	-14178	3839.2	0.18788	0.034062	1.0071
0.788	18.976	-14182	3839.1	0.18642	0.035429	1.008
0.79	18.947	-14178	3838.9	0.18495	0.036795	1.0089
0.792	18.913	-14174	3838.8	0.18349	0.038162	1.0098
0.794	18.869	-14172	3838.6	0.18202	0.039528	1.0106
0.796	18.839	-14171	3838.5	0.18085	0.038552	1.0111
0.798	18.843	-14175	3838.4	0.17968	0.037576	1.0116
0.8	18.868	-14179	3838.3	0.17851	0.0366	1.0121
0.802	18.86	-14167	3838.4	0.17734	0.035624	1.0126
0.804	18.831	-14155	3838.4	0.17617	0.034648	1.0131
0.806	18.863	-14177	3838.5	0.17539	0.034355	1.0119
0.808	18.885	-14200	3838.6	0.17461	0.034062	1.0107
0.81	18.896	-14193	3838.7	0.17383	0.03377	1.0096
0.812	18.932	-14186	3838.8	0.17304	0.033477	1.0084
0.814	18.964	-14188	3838.9	0.17226	0.033184	1.0072
0.816	18.909	-14190	3839	0.17285	0.032794	1.0063
0.818	18.835	-14194	3839.1	0.17344	0.032403	1.0053
0.82	18.823	-14197	3839.2	0.17402	0.032013	1.0043
0.822	18.898	-14198	3839.2	0.17461	0.031622	1.0033
0.824	18.859	-14200	3839.3	0.17519	0.031232	1.0024
0.826	18.814	-14197	3839.4	0.1747	0.03133	1.0024
0.828	18.847	-14194	3839.5	0.17422	0.031427	1.0025
0.83	18.879	-14195	3839.7	0.17373	0.031525	1.0026
0.832	18.882	-14197	3839.8	0.17324	0.031622	1.0027
0.834	18.912	-14193	3840	0.17275	0.03172	1.0028
0.836	18.956	-14189	3840.3	0.17236	0.03211	1.0037
0.838	18.874	-14179	3840.6	0.17197	0.032501	1.0046
0.84	18.8	-14169	3840.9	0.17158	0.032891	1.0055
0.842	18.843	-14182	3841.4	0.17119	0.033282	1.0064
0.844	18.933	-14195	3841.8	0.1708	0.033672	1.0072
0.846	18.946	-14186	3842.4	0.1706	0.035331	1.0062
0.848	18.932	-14178	3843	0.17041	0.03699	1.0051
0.85	18.911	-14180	3843.7	0.17021	0.03865	1.004
0.852	18.871	-14183	3844.4	0.17002	0.040309	1.0029
0.854	18.871	-14188	3845.2	0.16982	0.041968	1.0019
0.856	18.852	-14193	3846	0.17129	0.040699	1.0028
0.858	18.835	-14181	3846.9	0.17275	0.03943	1.0038
0.86	18.859	-14170	3847.7	0.17422	0.038162	1.0048
0.862	18.865	-14182	3848.6	0.17568	0.036893	1.0058
0.864	18.899	-14193	3849.6	0.17714	0.035624	1.0067
0.866	18.955	-14191	3850.6	0.17714	0.034355	1.0057
0.868	18.96	-14188	3851.6	0.17714	0.033086	1.0046
0.87	18.913	-14188	3852.6	0.17714	0.031818	1.0035
0.872	18.875	-14187	3853.7	0.17714	0.030549	1.0024
0.874	18.904	-14188	3854.7	0.17714	0.02928	1.0014
0.876	18.904	-14188	3855.8	0.17675	0.029182	0.99981
0.878	18.888	-14191	3856.8	0.17636	0.029085	0.99825
0.88	18.88	-14194	3857.8	0.17597	0.028987	0.99669
0.882	18.817	-14189	3858.6	0.17558	0.02889	0.99513
0.884	18.767	-14184	3859.5	0.17519	0.028792	0.99357
0.886	18.809	-14190	3860.3	0.17607	0.02967	0.99406
0.888	18.829	-14197	3861.1	0.17695	0.030549	0.99454
0.89	18.816	-14197	3861.9	0.17783	0.031427	0.99503
0.892	18.853	-14196	3862.7	0.17871	0.032306	0.99552
0.894	18.936	-14191	3863.5	0.17958	0.033184	0.99601
0.896	18.954	-14187	3864.4	0.17958	0.033086	0.99679
0.898	18.884	-14191	3865.2	0.17958	0.032989	0.99757
0.9	18.813	-14195	3866	0.17958	0.032891	0.99835
0.902	18.807	-14193	3866.7	0.17958	0.032794	0.99913
0.904	18.888	-14192	3867.4	0.17958	0.032696	0.99991
0.906	18.907	-14189	3868.2	0.17978	0.032306	0.99933
0.908	18.905	-14185	3868.9	0.17997	0.031915	0.99874
0.91	18.775	-14188	3869.6	0.18017	0.031525	0.99816
0.912	18.705	-14190	3870.1	0.18036	0.031134	0.99757
0.914	18.753	-14190	3870.7	0.18056	0.030744	0.99698
0.916	18.749	-14190	3871.2	0.18173	0.031232	0.99728
0.918	18.791	-14190	3871.8	0.1829	0.03172	0.99757
0.92	18.836	-14190	3872.4	0.18407	0.032208	0.99786
0.922	18.812	-14183	3873	0.18524	0.032696	0.99816
0.924	18.778	-14177	3873.7	0.18642	0.033184	0.99845
0.926	18.87	-14181	3874.3	0.18446	0.032013	0.99786
0.928	18.967	-14186	3875	0.18251	0.030842	0.99728
0.93	18.895	-14184	3875.6	0.18056	0.02967	0.99669
0.932	18.868	-14182	3876.1	0.17861	0.028499	0.99611
0.934	18.849	-14183	3876.7	0.17666	0.027328	0.99552
0.936	18.835	-14185	3877.2	0.17773	0.028304	0.99386
0.938	18.898	-14185	3877.7	0.1788	0.02928	0.9922
0.94	18.932	-14184	3878.1	0.17988	0.030256	0.99054
0.942	18.92	-14181	3878.6	0.18095	0.031232	0.98888
0.944	18.911	-14178	3879	0.18202	0.032208	0.98722
0.946	18.907	-14182	3879.3	0.18105	0.031232	0.98615
0.948	18.883	-14186	3879.7	0.18007	0.030256	0.98508
0.95	18.808	-14184	3880	0.1791	0.02928	0.984
0.952	18.765	-14182	3880.2	0.17812	0.028304	0.98293
0.954	18.806	-14179	3880.5	0.17714	0.027328	0.98186
0.956	18.859	-14176	3880.7	0.17627	0.027621	0.98254
0.958	18.878	-14182	3880.9	0.17539	0.027914	0.98322
0.96	18.873	-14189	3881	0.17451	0.028206	0.98391
0.962	18.886	-14184	3881.2	0.17363	0.028499	0.98459
0.964	18.943	-14179	3881.3	0.17275	0.028792	0.98527
0.966	18.982	-14185	3881.4	0.17285	0.02928	0.98742
0.968	19.042	-14190	3881.6	0.17295	0.029768	0.98957
0.97	19.001	-14184	3881.8	0.17304	0.030256	0.99171
0.972	18.971	-14177	3881.9	0.17314	0.030744	0.99386
0.974	18.97	-14176	3882.1	0.17324	0.031232	0.99601
0.976	18.924	-14175	3882.2	0.17217	0.032306	0.99611
0.978	18.83	-14176	3882.3	0.17109	0.033379	0.9962
0.98	18.848	-14176	3882.4	0.17002	0.034453	0.9963
0.982	18.886	-14179	3882.5	0.16895	0.035526	0.9964
0.984	18.92	-14181	3882.6	0.16787	0.0366	0.9965
0.986	18.929	-14180	3882.6	0.16875	0.035038	0.99435
0.988	18.906	-14178	3882.6	0.16963	0.033477	0.9922
0.99	18.841	-14174	3882.5	0.17051	0.031915	0.99005
0.992	18.83	-14171	3882.4	0.17139	0.030354	0.98791
0.994	18.883	-14172	3882.2	0.17226	0.028792	0.98576
0.996	18.862	-14174	3881.9	0.17265	0.028206	0.98322
0.998	18.862	-14172	3881.7	0.17304	0.027621	0.98068
1	18.969	-14170	3881.3	0.17344	0.027035	0.97815
1.002	19.069	-14167	3880.9	0.17383	0.02645	0.97561
1.004	18.993	-14165	3880.5	0.17422	0.025864	0.97307
1.006	18.951	-14163	3880	0.1748	0.025083	0.97385
1.008	18.968	-14160	3879.5	0.17539	0.024302	0.97463
1.01	18.936	-14166	3879	0.17597	0.023522	0.97541
1.012	18.889	-14172	3878.4	0.17656	0.022741	0.9762
1.014	18.888	-14172	3877.7	0.17714	0.02196	0.97698
1.016	18.91	-14172	3877	0.17617	0.022936	0.97649
1.018	18.919	-14166	3876.3	0.17519	0.023912	0.976
1.02	18.923	-14161	3875.7	0.17422	0.024888	0.97551
1.022	18.9	-14165	3875	0.17324	0.025864	0.97502
1.024	18.908	-14169	3874.4	0.17226	0.02684	0.97454
1.026	18.932	-14162	3873.8	0.17187	0.026059	0.9759
1.028	18.902	-14154	3873.3	0.17148	0.025278	0.97727
1.03	18.841	-14165	3872.9	0.17109	0.024498	0.97864
1.032	18.852	-14176	3872.5	0.1707	0.023717	0.98
1.034	18.944	-14173	3872.1	0.17031	0.022936	0.98137
1.036	18.967	-14169	3871.7	0.17051	0.024205	0.98225
1.038	18.916	-14165	3871.4	0.1707	0.025474	0.98312
1.04	18.911	-14161	3871.2	0.1709	0.026742	0.984
1.042	18.916	-14160	3870.9	0.17109	0.028011	0.98488
1.044	18.898	-14160	3870.7	0.17129	0.02928	0.98576
1.046	18.92	-14162	3870.5	0.17012	0.029182	0.98478
1.048	18.922	-14164	3870.4	0.16895	0.029085	0.98381
1.05	18.891	-14169	3870.2	0.16777	0.028987	0.98283
1.052	18.849	-14175	3870.1	0.1666	0.02889	0.98186
1.054	18.846	-14173	3869.9	0.16543	0.028792	0.98088
1.056	18.836	-14172	3869.7	0.16719	0.029085	0.98156
1.058	18.886	-14170	3869.5	0.16895	0.029378	0.98225
1.06	18.982	-14168	3869.3	0.1707	0.02967	0.98293
1.062	18.96	-14165	3869.2	0.17246	0.029963	0.98361
1.064	18.91	-14162	3869	0.17422	0.030256	0.9843
1.066	18.903	-14161	3868.8	0.1748	0.030256	0.98469
1.068	18.951	-14159	3868.7	0.17539	0.030256	0.98508
1.07	18.875	-14160	3868.5	0.17597	0.030256	0.98547
1.072	18.926	-14161	3868.2	0.17656	0.030256	0.98586
1.074	19.004	-14161	3867.9	0.17714	0.030256	0.98625
1.076	18.939	-14162	3867.6	0.17783	0.031232	0.98752
1.078	18.955	-14162	3867.3	0.17851	0.032208	0.98879
1.08	18.941	-14161	3867.1	0.17919	0.033184	0.99005
1.082	18.896	-14159	3866.8	0.17988	0.03416	0.99132
1.084	18.9	-14157	3866.5	0.18056	0.035136	0.99259
1.086	18.907	-14158	3866.3	0.17939	0.034453	0.99328
1.088	18.912	-14159	3866	0.17822	0.03377	0.99396
1.09	18.9	-14160	3865.8	0.17705	0.033086	0.99464
1.092	18.911	-14161	3865.7	0.17588	0.032403	0.99532
1.094	18.901	-14160	3865.5	0.1747	0.03172	0.99601
1.096	18.851	-14160	3865.3	0.17392	0.032891	0.99611
1.098	18.859	-14156	3865.1	0.17314	0.034062	0.9962
1.1	18.898	-14153	3865	0.17236	0.035234	0.9963
1.102	18.912	-14155	3864.8	0.17158	0.036405	0.9964
1.104	18.898	-14156	3864.6	0.1708	0.037576	0.9965
1.106	18.879	-14159	3864.5	0.171	0.03699	0.9964
1.108	18.896	-14161	3864.4	0.17119	0.036405	0.9963
1.11	18.906	-14160	3864.3	0.17139	0.035819	0.9962
1.112	18.923	-14158	3864.2	0.17158	0.035234	0.99611
1.114	18.956	-14158	3864.1	0.17178	0.034648	0.99601
1.116	18.974	-14159	3864	0.17285	0.034746	0.99689
1.118	18.964	-14158	3863.9	0.17392	0.034843	0.99776
1.12	18.913	-14158	3863.8	0.175	0.034941	0.99864
1.122	18.867	-14159	3863.6	0.17607	0.035038	0.99952
1.124	18.861	-14160	3863.5	0.17714	0.035136	1.0004
1.126	18.878	-14158	3863.4	0.17792	0.036405	1.0006
1.128	18.897	-14155	3863.3	0.17871	0.037674	1.0008
1.13	18.924	-14154	3863.2	0.17949	0.038942	1.001
1.132	18.9	-14153	3863.2	0.18027	0.040211	1.0012
1.134	18.866	-14157	3863.2	0.18105	0.04148	1.0014
1.136	18.929	-14162	3863.3	0.18115	0.042261	1.0015
1.138	19.05	-14164	3863.4	0.18124	0.043042	1.0016
1.14	18.984	-14166	3863.5	0.18134	0.043822	1.0017
1.142	18.878	-14165	3863.6	0.18144	0.044603	1.0018
1.144	18.922	-14164	3863.7	0.18154	0.045384	1.0019
1.146	18.906	-14166	3863.6	0.18134	0.045091	1.0015
1.148	18.906	-14169	3863.5	0.18115	0.044798	1.0011
1.15	18.886	-14169	3863.3	0.18095	0.044506	1.0007
1.152	18.901	-14169	3863.1	0.18076	0.044213	1.0003
1.154	18.934	-14164	3862.9	0.18056	0.04392	0.99991
1.156	18.922	-14158	3862.7	0.17919	0.042651	0.99972
1.158	18.928	-14162	3862.5	0.17783	0.041382	0.99952
1.16	18.951	-14165	3862.3	0.17646	0.040114	0.99933
1.162	18.897	-14166	3862	0.17509	0.038845	0.99913
1.164	18.877	-14167	3861.8	0.17373	0.037576	0.99894
1.166	18.893	-14164	3861.5	0.17373	0.037478	0.99933
1.168	18.884	-14160	3861.2	0.17373	0.037381	0.99972
1.17	18.835	-14160	3860.9	0.17373	0.037283	1.0001
1.172	18.807	-14160	3860.6	0.17373	0.037186	1.0005
1.174	18.806	-14159	3860.3	0.17373	0.037088	1.0009
1.176	18.815	-14157	3860.1	0.17461	0.036502	1.0013
1.178	18.791	-14155	3859.8	0.17548	0.035917	1.0017
1.18	18.833	-14152	3859.6	0.17636	0.035331	1.0021
1.182	18.885	-14157	3859.4	0.17724	0.034746	1.0024
1.184	18.875	-14163	3859.3	0.17812	0.03416	1.0028
1.186	18.835	-14164	3859.2	0.17646	0.034843	1.0015
1.188	18.811	-14165	3859	0.1748	0.035526	1.0001
1.19	18.807	-14162	3858.9	0.17314	0.03621	0.99874
1.192	18.811	-14160	3858.8	0.17148	0.036893	0.99737
1.194	18.828	-14157	3858.7	0.16982	0.037576	0.99601
1.196	18.868	-14154	3858.5	0.17012	0.036893	0.99591
1.198	18.86	-14154	3858.4	0.17041	0.03621	0.99581
1.2	18.834	-14154	3858.3	0.1707	0.035526	0.99572
1.202	18.861	-14155	3858.3	0.171	0.034843	0.99562
1.204	18.851	-14156	3858.2	0.17129	0.03416	0.99552
1.206	18.823	-14159	3858.2	0.17119	0.033867	0.99464
1.208	18.838	-14162	3858.2	0.17109	0.033574	0.99376
1.21	18.828	-14164	3858.1	0.171	0.033282	0.99288
1.212	18.839	-14166	3858	0.1709	0.032989	0.99201
1.214	18.844	-14162	3857.9	0.1708	0.032696	0.99113
1.216	18.842	-14158	3857.9	0.16943	0.03211	0.98908
1.218	18.883	-14160	3857.8	0.16807	0.031525	0.98703
1.22	18.923	-14162	3857.8	0.1667	0.030939	0.98498
1.222	18.905	-14158	3857.7	0.16533	0.030354	0.98293
1.224	18.965	-14155	3857.6	0.16397	0.029768	0.98088
1.226	19.04	-14156	3857.5	0.16299	0.02928	0.9802
1.228	18.989	-14157	3857.5	0.16202	0.028792	0.97951
1.23	18.955	-14152	3857.3	0.16104	0.028304	0.97883
1.232	19.04	-14146	3857.2	0.16006	0.027816	0.97815
1.234	19.044	-14150	3857	0.15909	0.027328	0.97746
1.236	18.94	-14154	3856.7	0.16016	0.027914	0.97717
1.238	18.957	-14159	3856.5	0.16124	0.028499	0.97688
1.24	18.962	-14165	3856.2	0.16231	0.029085	0.97659
1.242	18.915	-14164	3855.9	0.16338	0.02967	0.97629
1.244	18.845	-14163	3855.5	0.16446	0.030256	0.976
1.246	18.847	-14160	3855.1	0.16348	0.029378	0.9762
1.248	18.901	-14157	3854.8	0.1625	0.028499	0.97639
1.25	18.922	-14156	3854.4	0.16153	0.027621	0.97659
1.252	18.894	-14156	3854.2	0.16055	0.026742	0.97678
1.254	18.924	-14155	3853.9	0.15958	0.025864	0.97698
1.256	18.902	-14153	3853.7	0.15889	0.026742	0.97805
1.258	18.861	-14163	3853.5	0.15821	0.027621	0.97912
1.26	18.875	-14172	3853.4	0.15753	0.028499	0.9802
1.262	18.943	-14159	3853.3	0.15684	0.029378	0.98127
1.264	18.944	-14147	3853.3	0.15616	0.030256	0.98234
1.266	18.899	-14150	3853.1	0.15636	0.030744	0.9842
1.268	18.955	-14154	3853	0.15655	0.031232	0.98605
1.27	19.009	-14157	3852.8	0.15675	0.03172	0.98791
1.272	19.022	-14160	3852.7	0.15694	0.032208	0.98976
1.274	19.006	-14160	3852.5	0.15714	0.032696	0.99162
1.276	19.001	-14159	3852.3	0.15557	0.035038	0.9923
1.278	18.969	-14160	3852.1	0.15401	0.037381	0.99298
1.28	18.914	-14161	3851.9	0.15245	0.039723	0.99367
1.282	18.916	-14156	3851.6	0.15089	0.042066	0.99435
1.284	18.956	-14151	3851.3	0.14933	0.044408	0.99503
1.286	18.957	-14153	3851.1	0.15148	0.043042	0.99435
1.288	18.937	-14155	3850.9	0.15362	0.041675	0.99367
1.29	18.906	-14155	3850.7	0.15577	0.040309	0.99298
1.292	18.874	-14155	3850.6	0.15792	0.038942	0.9923
1.294	18.878	-14155	3850.6	0.16006	0.037576	0.99162
1.296	18.895	-14155	3850.4	0.16124	0.038162	0.99318
1.298	18.933	-14154	3850.3	0.16241	0.038747	0.99474
1.3	18.935	-14154	3850.2	0.16358	0.039333	0.9963
1.302	18.933	-14158	3850.2	0.16475	0.039918	0.99786
1.304	18.991	-14163	3850.1	0.16592	0.040504	0.99942
1.306	19.024	-14159	3850	0.16592	0.040016	1.0002
1.308	18.927	-14155	3849.9	0.16592	0.039528	1.001
1.31	18.845	-14151	3849.9	0.16592	0.03904	1.0018
1.312	18.866	-14147	3849.9	0.16592	0.038552	1.0025
1.314	18.9	-14155	3849.8	0.16592	0.038064	1.0033
1.316	18.952	-14162	3849.8	0.16699	0.037771	1.0036
1.318	18.953	-14165	3849.7	0.16807	0.037478	1.0039
1.32	18.887	-14167	3849.6	0.16914	0.037186	1.0042
1.322	18.893	-14163	3849.6	0.17021	0.036893	1.0045
1.324	18.942	-14160	3849.5	0.17129	0.0366	1.0048
1.326	18.975	-14159	3849.4	0.1707	0.037283	1.0058
1.328	18.93	-14159	3849.3	0.17012	0.037966	1.0067
1.33	18.919	-14165	3849.3	0.16953	0.03865	1.0077
1.332	18.912	-14171	3849.2	0.16895	0.039333	1.0087
1.334	18.962	-14169	3849.1	0.16836	0.040016	1.0097
1.336	18.979	-14166	3848.9	0.16895	0.03943	1.0105
1.338	18.981	-14166	3848.7	0.16953	0.038845	1.0112
1.34	18.932	-14165	3848.4	0.17012	0.038259	1.012
1.342	18.909	-14166	3848.1	0.1707	0.037674	1.0128
1.344	18.864	-14167	3847.8	0.17129	0.037088	1.0136
1.346	18.776	-14161	3847.4	0.17344	0.037674	1.0134
1.348	18.706	-14156	3847.1	0.17558	0.038259	1.0132
1.35	18.673	-14160	3846.8	0.17773	0.038845	1.013
1.352	18.61	-14164	3846.5	0.17988	0.03943	1.0128
1.354	18.578	-14161	3846.2	0.18202	0.040016	1.0126
1.356	18.548	-14157	3846	0.18193	0.04109	1.0135
1.358	18.504	-14160	3845.9	0.18183	0.042163	1.0144
1.36	18.574	-14163	3845.8	0.18173	0.043237	1.0152
1.362	18.61	-14160	3845.6	0.18163	0.04431	1.0161
1.364	18.562	-14158	3845.5	0.18154	0.045384	1.017
1.366	18.517	-14161	3845.3	0.1831	0.044018	1.017
1.368	18.511	-14164	3845.2	0.18466	0.042651	1.017
1.37	18.553	-14161	3845	0.18622	0.041285	1.017
1.372	18.582	-14159	3844.8	0.18778	0.039918	1.017
1.374	18.564	-14164	3844.6	0.18934	0.038552	1.017
1.376	18.527	-14169	3844.3	0.19052	0.039138	1.0171
1.378	18.491	-14171	3844	0.19169	0.039723	1.0172
1.38	18.464	-14173	3843.8	0.19286	0.040309	1.0173
1.382	18.421	-14176	3843.6	0.19403	0.040894	1.0174
1.384	18.391	-14179	3843.5	0.1952	0.04148	1.0175
1.386	18.361	-14176	3843.4	0.19354	0.041187	1.017
1.388	18.387	-14173	3843.3	0.19188	0.040894	1.0165
1.39	18.401	-14169	3843.2	0.19022	0.040602	1.016
1.392	18.398	-14166	3843.2	0.18856	0.040309	1.0155
1.394	18.388	-14163	3843.2	0.1869	0.040016	1.015
1.396	18.406	-14160	3843.3	0.18632	0.040211	1.0136
1.398	18.495	-14164	3843.3	0.18573	0.040406	1.0121
1.4	18.542	-14168	3843.4	0.18515	0.040602	1.0106
1.402	18.55	-14174	3843.5	0.18456	0.040797	1.0092
1.404	18.606	-14179	3843.6	0.18398	0.040992	1.0077
1.406	18.658	-14175	3843.6	0.18378	0.041285	1.0077
1.408	18.626	-14172	3843.6	0.18359	0.041578	1.0077
1.41	18.65	-14175	3843.5	0.18339	0.04187	1.0077
1.412	18.826	-14178	3843.4	0.1832	0.042163	1.0077
1.414	18.88	-14170	3843.3	0.183	0.042456	1.0077
1.416	18.888	-14162	3843.1	0.183	0.042066	1.0074
1.418	18.929	-14167	3843	0.183	0.041675	1.0071
1.42	18.948	-14172	3842.8	0.183	0.041285	1.0068
1.422	18.937	-14166	3842.5	0.183	0.040894	1.0065
1.424	18.904	-14160	3842.2	0.183	0.040504	1.0063
1.426	18.909	-14171	3842.1	0.18388	0.040797	1.006
1.428	18.889	-14182	3841.9	0.18476	0.04109	1.0057
1.43	18.885	-14177	3841.7	0.18564	0.041382	1.0054
1.432	18.946	-14172	3841.6	0.18651	0.041675	1.0051
1.434	18.981	-14175	3841.4	0.18739	0.041968	1.0048
1.436	18.974	-14179	3841.3	0.18632	0.042261	1.0056
1.438	19.003	-14178	3841.2	0.18524	0.042554	1.0064
1.44	18.957	-14176	3841.1	0.18417	0.042846	1.0071
1.442	18.936	-14174	3841.1	0.1831	0.043139	1.0079
1.444	18.923	-14172	3841	0.18202	0.043432	1.0087
1.446	18.892	-14172	3841	0.18046	0.043334	1.0081
1.448	18.886	-14171	3841	0.1789	0.043237	1.0075
1.45	18.903	-14167	3841	0.17734	0.043139	1.0069
1.452	18.952	-14164	3841.1	0.17578	0.043042	1.0064
1.454	18.987	-14163	3841.1	0.17422	0.042944	1.0058
1.456	18.903	-14162	3841.1	0.17422	0.041578	1.0054
1.458	18.807	-14164	3841.1	0.17422	0.040211	1.005
1.46	18.888	-14165	3841.1	0.17422	0.038845	1.0046
1.462	19.034	-14172	3841	0.17422	0.037478	1.0042
1.464	19.051	-14178	3841	0.17422	0.036112	1.0038
1.466	19.012	-14177	3840.9	0.17226	0.036405	1.0024
1.468	19.007	-14177	3840.8	0.17031	0.036698	1.0011
1.47	18.964	-14179	3840.7	0.16836	0.03699	0.99972
1.472	18.945	-14181	3840.5	0.16641	0.037283	0.99835
1.474	18.921	-14177	3840.3	0.16446	0.037576	0.99698
1.476	18.899	-14173	3840.1	0.1626	0.03699	0.99708
1.478	18.912	-14180	3839.9	0.16075	0.036405	0.99718
1.48	18.943	-14187	3839.8	0.15889	0.035819	0.99728
1.482	18.958	-14188	3839.6	0.15704	0.035234	0.99737
1.484	18.92	-14190	3839.5	0.15518	0.034648	0.99747
1.486	18.868	-14183	3839.4	0.15479	0.034843	0.99718
1.488	18.902	-14176	3839.3	0.1544	0.035038	0.99689
1.49	18.949	-14179	3839.2	0.15401	0.035234	0.99659
1.492	18.887	-14182	3839.2	0.15362	0.035429	0.9963
1.494	18.89	-14184	3839.1	0.15323	0.035624	0.99601
1.496	18.922	-14186	3839	0.15235	0.035526	0.9964
1.498	18.874	-14189	3839	0.15148	0.035429	0.99679
1.5	18.834	-14192	3838.9	0.1506	0.035331	0.99718
1.502	18.94	-14190	3838.9	0.14972	0.035234	0.99757
1.504	18.974	-14188	3838.8	0.14884	0.035136	0.99796
1.506	18.975	-14187	3838.7	0.14904	0.035331	0.99816
1.508	18.951	-14185	3838.6	0.14923	0.035526	0.99835
1.51	18.987	-14183	3838.4	0.14943	0.035722	0.99855
1.512	18.974	-14180	3838.3	0.14962	0.035917	0.99874
1.514	18.872	-14184	3838.1	0.14982	0.036112	0.99894
1.516	18.893	-14188	3838	0.15021	0.036502	0.99786
1.518	18.912	-14185	3837.9	0.1506	0.036893	0.99679
1.52	18.89	-14182	3837.8	0.15099	0.037283	0.99572
1.522	18.875	-14188	3837.9	0.15138	0.037674	0.99464
1.524	18.875	-14193	3837.9	0.15177	0.038064	0.99357
1.526	18.913	-14192	3838.1	0.15206	0.038162	0.99298
1.528	18.937	-14192	3838.2	0.15235	0.038259	0.9924
1.53	18.89	-14190	3838.4	0.15265	0.038357	0.99181
1.532	18.87	-14189	3838.5	0.15294	0.038454	0.99123
1.534	18.872	-14189	3838.7	0.15323	0.038552	0.99064
1.536	18.831	-14189	3838.8	0.15362	0.037186	0.98918
1.538	18.79	-14186	3839	0.15401	0.035819	0.98771
1.54	18.856	-14183	3839.2	0.1544	0.034453	0.98625
1.542	18.936	-14187	3839.4	0.15479	0.033086	0.98478
1.544	18.92	-14191	3839.6	0.15518	0.03172	0.98332
1.546	18.88	-14191	3839.6	0.15626	0.031037	0.984
1.548	18.869	-14191	3839.7	0.15733	0.030354	0.98469
1.55	18.887	-14187	3839.7	0.1584	0.02967	0.98537
1.552	18.93	-14184	3839.8	0.15948	0.028987	0.98605
1.554	18.989	-14187	3839.9	0.16055	0.028304	0.98674
1.556	19.006	-14190	3840.1	0.16055	0.028597	0.98781
1.558	18.99	-14192	3840.3	0.16055	0.02889	0.98888
1.56	18.933	-14193	3840.6	0.16055	0.029182	0.98996
1.562	18.888	-14197	3841	0.16055	0.029475	0.99103
1.564	18.911	-14202	3841.3	0.16055	0.029768	0.9921
1.566	18.951	-14200	3841.8	0.15977	0.030256	0.99249
1.568	18.926	-14198	3842.3	0.15899	0.030744	0.99288
1.57	18.898	-14197	3842.9	0.15821	0.031232	0.99328
1.572	18.851	-14196	3843.5	0.15743	0.03172	0.99367
1.574	18.888	-14194	3844.2	0.15665	0.032208	0.99406
1.576	18.875	-14192	3844.9	0.15509	0.032208	0.99386
1.578	18.889	-14193	3845.6	0.15352	0.032208	0.99367
1.58	18.931	-14195	3846.4	0.15196	0.032208	0.99347
1.582	18.999	-14191	3847.2	0.1504	0.032208	0.99328
1.584	19.05	-14188	3848	0.14884	0.032208	0.99308
1.586	19.038	-14191	3848.7	0.14894	0.032598	0.99367
1.588	18.922	-14193	3849.4	0.14904	0.032989	0.99425
1.59	18.815	-14190	3850.1	0.14913	0.033379	0.99484
1.592	18.829	-14187	3850.9	0.14923	0.03377	0.99542
1.594	18.849	-14189	3851.6	0.14933	0.03416	0.99601
1.596	18.865	-14192	3852.5	0.14825	0.033379	0.99581
1.598	18.833	-14194	3853.3	0.14718	0.032598	0.99562
1.6	18.877	-14196	3854.2	0.14611	0.031818	0.99542
1.602	18.943	-14198	3855.2	0.14503	0.031037	0.99523
1.604	18.905	-14200	3856.2	0.14396	0.030256	0.99503
1.606	18.861	-14200	3857.1	0.14484	0.030939	0.99523
1.608	18.855	-14201	3858	0.14572	0.031622	0.99542
1.61	18.871	-14195	3858.9	0.1466	0.032306	0.99562
1.612	18.873	-14190	3859.8	0.14747	0.032989	0.99581
1.614	18.878	-14189	3860.6	0.14835	0.033672	0.99601
1.616	18.907	-14188	3861.5	0.14972	0.035038	0.99679
1.618	18.916	-14193	3862.3	0.15108	0.036405	0.99757
1.62	18.917	-14197	3863.1	0.15245	0.037771	0.99835
1.622	18.906	-14200	3864	0.15382	0.039138	0.99913
1.624	18.9	-14202	3864.8	0.15518	0.040504	0.99991
1.626	18.883	-14197	3865.6	0.15567	0.040602	1.0016
1.628	18.847	-14192	3866.3	0.15616	0.040699	1.0032
1.63	18.821	-14188	3867.1	0.15665	0.040797	1.0049
1.632	18.806	-14185	3868	0.15714	0.040894	1.0065
1.634	18.833	-14185	3868.8	0.15762	0.040992	1.0082
1.636	18.845	-14185	3869.6	0.15616	0.041578	1.008
1.638	18.823	-14191	3870.5	0.1547	0.042163	1.0078
1.64	18.894	-14197	3871.3	0.15323	0.042749	1.0076
1.642	18.944	-14197	3872.1	0.15177	0.043334	1.0074
1.644	18.891	-14197	3872.9	0.1503	0.04392	1.0072
1.646	18.941	-14190	3873.6	0.15118	0.044701	1.0062
1.648	18.924	-14184	3874.4	0.15206	0.045482	1.0051
1.65	18.87	-14185	3875	0.15294	0.046262	1.004
1.652	18.835	-14186	3875.5	0.15382	0.047043	1.0029
1.654	18.832	-14187	3876	0.1547	0.047824	1.0019
1.656	18.882	-14188	3876.4	0.15352	0.047629	1.0016
1.658	18.859	-14187	3876.7	0.15235	0.047434	1.0013
1.66	18.854	-14186	3876.9	0.15118	0.047238	1.001
1.662	18.845	-14187	3877	0.15001	0.047043	1.0007
1.664	18.884	-14188	3877.1	0.14884	0.046848	1.0004
1.666	18.869	-14190	3877.2	0.15079	0.046458	1.0008
1.668	18.836	-14191	3877.3	0.15274	0.046067	1.0012
1.67	18.963	-14192	3877.4	0.1547	0.045677	1.0016
1.672	18.927	-14193	3877.5	0.15665	0.045286	1.002
1.674	18.877	-14185	3877.6	0.1586	0.044896	1.0024
1.676	18.865	-14176	3877.9	0.15987	0.045091	1.0016
1.678	18.906	-14178	3878.2	0.16114	0.045286	1.0008
1.68	18.943	-14180	3878.3	0.16241	0.045482	1
1.682	18.932	-14183	3878.2	0.16368	0.045677	0.99923
1.684	18.88	-14186	3878.1	0.16494	0.045872	0.99845
1.686	18.869	-14188	3878.1	0.16211	0.047336	1.0016
1.688	18.918	-14190	3878.1	0.15928	0.0488	1.0047
1.69	18.945	-14190	3878.1	0.15645	0.050264	1.0078
1.692	18.954	-14191	3878	0.15362	0.051728	1.0109
1.694	18.963	-14188	3878	0.15079	0.053192	1.0141
1.696	18.972	-14185	3877.8	0.15382	0.053778	1.0132
1.698	18.957	-14176	3877.7	0.15684	0.054363	1.0123
1.7	18.928	-14167	3877.5	0.15987	0.054949	1.0114
1.702	18.922	-14167	3877.2	0.16289	0.055534	1.0106
1.704	18.884	-14167	3877	0.16592	0.05612	1.0097
1.706	18.886	-14170	3876.8	0.16582	0.056803	1.0088
1.708	18.91	-14173	3876.5	0.16572	0.057486	1.0079
1.71	18.9	-14174	3876.3	0.16563	0.05817	1.007
1.712	18.906	-14176	3876.1	0.16553	0.058853	1.0062
1.714	18.922	-14176	3875.9	0.16543	0.059536	1.0053
1.716	18.942	-14176	3875.7	0.16709	0.058853	1.0054
1.718	18.997	-14177	3875.4	0.16875	0.05817	1.0055
1.72	19.057	-14178	3875.1	0.17041	0.057486	1.0056
1.722	19.055	-14180	3874.7	0.17207	0.056803	1.0057
1.724	19	-14182	3874.2	0.17373	0.05612	1.0058
1.726	18.973	-14183	3873.7	0.17344	0.055242	1.0062
1.728	18.99	-14183	3873.2	0.17314	0.054363	1.0065
1.73	19.054	-14179	3872.7	0.17285	0.053485	1.0069
1.732	19.003	-14176	3872	0.17256	0.052606	1.0073
1.734	18.886	-14179	3871.3	0.17226	0.051728	1.0077
1.736	18.905	-14182	3870.6	0.17353	0.050947	1.0072
1.738	18.938	-14179	3869.9	0.1748	0.050166	1.0067
1.74	18.946	-14176	3869.1	0.17607	0.049386	1.0063
1.742	18.899	-14174	3868.3	0.17734	0.048605	1.0058
1.744	18.865	-14173	3867.4	0.17861	0.047824	1.0053
1.746	18.857	-14171	3866.7	0.17792	0.048214	1.0046
1.748	18.861	-14169	3866.1	0.17724	0.048605	1.0039
1.75	18.958	-14171	3865.4	0.17656	0.048995	1.0032
1.752	19.004	-14173	3864.9	0.17588	0.049386	1.0025
1.754	18.955	-14169	3864.3	0.17519	0.049776	1.0019
1.756	18.96	-14164	3863.9	0.17412	0.050166	1.0005
1.758	18.977	-14162	3863.4	0.17304	0.050557	0.99913
1.76	18.898	-14159	3862.9	0.17197	0.050947	0.99776
1.762	18.804	-14162	3862.4	0.1709	0.051338	0.9964
1.764	18.852	-14165	3862	0.16982	0.051728	0.99503
1.766	18.929	-14165	3861.6	0.17119	0.051338	0.99679
1.768	18.994	-14165	3861.3	0.17256	0.050947	0.99855
1.77	19.069	-14161	3861	0.17392	0.050557	1.0003
1.772	19.044	-14158	3860.8	0.17529	0.050166	1.0021
1.774	18.981	-14162	3860.5	0.17666	0.049776	1.0038
1.776	18.946	-14166	3860.3	0.17666	0.050264	1.0028
1.778	18.961	-14164	3860	0.17666	0.050752	1.0019
1.78	18.972	-14162	3859.7	0.17666	0.05124	1.0009
1.782	18.949	-14163	3859.4	0.17666	0.051728	0.99991
1.784	18.927	-14164	3859.1	0.17666	0.052216	0.99894
1.786	18.934	-14166	3858.8	0.17695	0.051728	0.99942
1.788	18.97	-14167	3858.5	0.17724	0.05124	0.99991
1.79	18.985	-14167	3858.3	0.17753	0.050752	1.0004
1.792	18.952	-14166	3858	0.17783	0.050264	1.0009
1.794	18.929	-14167	3857.7	0.17812	0.049776	1.0014
1.796	18.942	-14167	3857.4	0.17597	0.050459	1.0009
1.798	18.967	-14167	3857.1	0.17383	0.051142	1.0004
1.8	19.001	-14167	3856.8	0.17168	0.051826	0.99991
1.802	19.002	-14167	3856.6	0.16953	0.052509	0.99942
1.804	18.947	-14168	3856.3	0.16738	0.053192	0.99894
1.806	18.927	-14167	3856	0.16533	0.052021	0.99816
1.808	18.96	-14166	3855.7	0.16328	0.05085	0.99737
1.81	18.951	-14162	3855.5	0.16124	0.049678	0.99659
1.812	18.929	-14158	3855.2	0.15919	0.048507	0.99581
1.814	18.927	-14162	3855	0.15714	0.047336	0.99503
1.816	18.936	-14166	3854.7	0.15665	0.04841	0.99523
1.818	18.921	-14163	3854.5	0.15616	0.049483	0.99542
1.82	18.941	-14161	3854.3	0.15567	0.050557	0.99562
1.822	18.945	-14163	3854.1	0.15518	0.05163	0.99581
1.824	18.902	-14166	3853.9	0.1547	0.052704	0.99601
1.826	18.898	-14165	3853.7	0.15382	0.053485	0.99542
1.828	18.929	-14164	3853.5	0.15294	0.054266	0.99484
1.83	18.956	-14162	3853.4	0.15206	0.055046	0.99425
1.832	18.995	-14159	3853.2	0.15118	0.055827	0.99367
1.834	19.022	-14155	3853	0.1503	0.056608	0.99308
1.836	18.991	-14151	3852.8	0.15138	0.056901	0.99308
1.838	19.049	-14152	3852.6	0.15245	0.057194	0.99308
1.84	19.073	-14154	3852.4	0.15352	0.057486	0.99308
1.842	18.99	-14156	3852.3	0.1546	0.057779	0.99308
1.844	18.932	-14159	3852.1	0.15567	0.058072	0.99308
1.846	18.896	-14158	3852.1	0.15743	0.05817	0.99532
1.848	18.894	-14158	3852	0.15919	0.058267	0.99757
1.85	18.923	-14163	3852.1	0.16094	0.058365	0.99981
1.852	18.942	-14169	3852.2	0.1627	0.058462	1.0021
1.854	18.97	-14162	3852.3	0.16446	0.05856	1.0043
1.856	18.923	-14155	3852.6	0.16407	0.058365	1.0049
1.858	18.906	-14155	3852.8	0.16368	0.05817	1.0055
1.86	18.897	-14155	3853.1	0.16328	0.057974	1.0061
1.862	18.888	-14158	3853.4	0.16289	0.057779	1.0066
1.864	18.948	-14160	3853.7	0.1625	0.057584	1.0072
1.866	19.016	-14156	3854	0.16319	0.057877	1.0065
1.868	18.973	-14152	3854.4	0.16387	0.05817	1.0057
1.87	18.901	-14155	3854.6	0.16455	0.058462	1.0049
1.872	18.943	-14158	3854.8	0.16524	0.058755	1.0041
1.874	18.973	-14154	3855	0.16592	0.059048	1.0033
1.876	18.947	-14150	3855	0.16612	0.058755	1.0029
1.878	18.971	-14154	3855	0.16631	0.058462	1.0025
1.88	19.006	-14158	3854.9	0.16651	0.05817	1.0022
1.882	19.048	-14153	3854.7	0.1667	0.057877	1.0018
1.884	19.065	-14147	3854.5	0.1669	0.057584	1.0014
1.886	18.962	-14146	3854.1	0.1669	0.057974	1.0012
1.888	18.864	-14144	3853.7	0.1669	0.058365	1.001
1.89	18.86	-14147	3853.3	0.1669	0.058755	1.0008
1.892	18.855	-14149	3852.9	0.1669	0.059146	1.0006
1.894	18.867	-14155	3852.4	0.1669	0.059536	1.0004
1.896	18.892	-14160	3852	0.16612	0.060414	1.0024
1.898	18.883	-14155	3851.6	0.16533	0.061293	1.0043
1.9	18.816	-14150	3851.2	0.16455	0.062171	1.0063
1.902	18.794	-14146	3850.8	0.16377	0.06305	1.0082
1.904	18.831	-14142	3850.5	0.16299	0.063928	1.0102
1.906	18.873	-14157	3850.3	0.16309	0.06305	1.0098
1.908	18.883	-14172	3850.2	0.16319	0.062171	1.0094
1.91	18.884	-14169	3850.1	0.16328	0.061293	1.009
1.912	18.915	-14165	3850	0.16338	0.060414	1.0086
1.914	18.948	-14168	3849.9	0.16348	0.059536	1.0082
1.916	18.899	-14170	3849.8	0.16485	0.060317	1.0098
1.918	18.916	-14171	3849.8	0.16621	0.061098	1.0113
1.92	18.912	-14172	3849.8	0.16758	0.061878	1.0129
1.922	18.95	-14172	3849.7	0.16895	0.062659	1.0145
1.924	18.914	-14172	3849.7	0.17031	0.06344	1.016
1.926	18.883	-14169	3849.7	0.17051	0.063635	1.0156
1.928	18.874	-14167	3849.7	0.1707	0.06383	1.0152
1.93	18.942	-14166	3849.6	0.1709	0.064026	1.0148
1.932	18.938	-14165	3849.6	0.17109	0.064221	1.0145
1.934	18.938	-14169	3849.6	0.17129	0.064416	1.0141
1.936	18.947	-14173	3849.5	0.171	0.064221	1.0135
1.938	18.966	-14169	3849.4	0.1707	0.064026	1.0129
1.94	18.971	-14165	3849.2	0.17041	0.06383	1.0123
1.942	18.979	-14158	3849	0.17012	0.063635	1.0117
1.944	18.985	-14151	3848.7	0.16982	0.06344	1.0111
1.946	19.035	-14147	3848.4	0.171	0.062757	1.0109
1.948	19.043	-14142	3848.2	0.17217	0.062074	1.0107
1.95	18.985	-14145	3847.9	0.17334	0.06139	1.0106
1.952	18.937	-14148	3847.7	0.17451	0.060707	1.0104
1.954	18.939	-14151	3847.5	0.17568	0.060024	1.0102
1.956	18.972	-14154	3847.2	0.17607	0.060707	1.0104
1.958	19.042	-14155	3846.9	0.17646	0.06139	1.0106
1.96	19.081	-14157	3846.7	0.17685	0.062074	1.0107
1.962	19.077	-14156	3846.4	0.17724	0.062757	1.0109
1.964	19.074	-14156	3846.2	0.17763	0.06344	1.0111
1.966	19.038	-14157	3846.1	0.17753	0.062562	1.0103
1.968	18.987	-14158	3845.9	0.17744	0.061683	1.0094
1.97	18.993	-14160	3845.7	0.17734	0.060805	1.0085
1.972	18.981	-14162	3845.6	0.17724	0.059926	1.0076
1.974	18.908	-14155	3845.4	0.17714	0.059048	1.0067
1.976	18.89	-14148	3845.2	0.17783	0.060219	1.0066
1.978	18.93	-14150	3845	0.17851	0.06139	1.0065
1.98	18.947	-14151	3844.9	0.17919	0.062562	1.0065
1.982	18.962	-14153	3844.7	0.17988	0.063733	1.0064
1.984	19.082	-14156	3844.6	0.18056	0.064904	1.0063
1.986	19.174	-14162	3844.5	0.179	0.063733	1.0049
1.988	19.035	-14169	3844.4	0.17744	0.062562	1.0035
1.99	18.933	-14162	3844.3	0.17588	0.06139	1.0022
1.992	18.907	-14155	3844.2	0.17431	0.060219	1.0008
1.994	18.929	-14156	3844	0.17275	0.059048	0.99942
1.996	18.959	-14156	3843.9	0.17265	0.059438	0.99923
1.998	19.006	-14157	3843.8	0.17256	0.059829	0.99903
2	18.991	-14157	3843.6	0.17246	0.060219	0.99884
2.002	18.906	-14161	3843.4	0.17236	0.06061	0.99864
2.004	18.846	-14166	3843.3	0.17226	0.061	0.99845
2.006	18.929	-14157	3843.1	0.17236	0.061683	0.99933
2.008	19.076	-14149	3842.9	0.17246	0.062366	1.0002
2.01	19.056	-14148	3842.7	0.17256	0.06305	1.0011
2.012	19.072	-14147	3842.5	0.17265	0.063733	1.002
2.014	19.015	-14154	3842.3	0.17275	0.064416	1.0028
2.016	19.018	-14161	3842.1	0.17051	0.06344	1.0014
2.018	19.081	-14161	3841.9	0.16826	0.062464	0.99991
2.02	19.079	-14162	3841.8	0.16602	0.061488	0.99845
2.022	18.971	-14164	3841.6	0.16377	0.060512	0.99698
2.024	18.902	-14167	3841.4	0.16153	0.059536	0.99552
2.026	18.971	-14163	3841.3	0.16163	0.059536	0.99513
2.028	19.013	-14158	3841.1	0.16172	0.059536	0.99474
2.03	18.987	-14159	3840.9	0.16182	0.059536	0.99435
2.032	18.977	-14159	3840.7	0.16192	0.059536	0.99396
2.034	18.962	-14165	3840.5	0.16202	0.059536	0.99357
2.036	18.963	-14170	3840.3	0.16231	0.059634	0.99328
2.038	18.962	-14169	3840.1	0.1626	0.059731	0.99298
2.04	19.022	-14168	3839.9	0.16289	0.059829	0.99269
2.042	19.128	-14166	3839.7	0.16319	0.059926	0.9924
2.044	19.09	-14165	3839.5	0.16348	0.060024	0.9921
2.046	18.985	-14163	3839.4	0.16358	0.059731	0.99162
2.048	18.952	-14161	3839.3	0.16368	0.059438	0.99113
2.05	18.952	-14156	3839.2	0.16377	0.059146	0.99064
2.052	18.959	-14150	3839.1	0.16387	0.058853	0.99015
2.054	18.963	-14150	3839.1	0.16397	0.05856	0.98966
2.056	18.935	-14150	3839.1	0.16299	0.05856	0.9882
2.058	18.871	-14157	3839	0.16202	0.05856	0.98674
2.06	18.783	-14164	3839	0.16104	0.05856	0.98527
2.062	18.73	-14160	3838.9	0.16006	0.05856	0.98381
2.064	18.729	-14155	3838.8	0.15909	0.05856	0.98234
2.066	18.699	-14161	3838.7	0.15831	0.059829	0.98361
2.068	18.647	-14166	3838.6	0.15753	0.061098	0.98488
2.07	18.634	-14168	3838.5	0.15675	0.062366	0.98615
2.072	18.644	-14169	3838.4	0.15596	0.063635	0.98742
2.074	18.627	-14165	3838.4	0.15518	0.064904	0.98869
2.076	18.574	-14161	3838.3	0.1545	0.064709	0.988
2.078	18.53	-14162	3838.3	0.15382	0.064514	0.98732
2.08	18.481	-14162	3838.2	0.15313	0.064318	0.98664
2.082	18.54	-14165	3838.1	0.15245	0.064123	0.98596
2.084	18.67	-14167	3837.9	0.15177	0.063928	0.98527
2.086	18.612	-14171	3837.7	0.15274	0.06305	0.98517
2.088	18.602	-14174	3837.5	0.15372	0.062171	0.98508
2.09	18.596	-14171	3837.2	0.1547	0.061293	0.98498
2.092	18.587	-14169	3836.9	0.15567	0.060414	0.98488
2.094	18.556	-14168	3836.6	0.15665	0.059536	0.98478
2.096	18.586	-14167	3836.3	0.15636	0.060512	0.98547
2.098	18.548	-14167	3835.9	0.15606	0.061488	0.98615
2.1	18.475	-14167	3835.6	0.15577	0.062464	0.98683
2.102	18.451	-14164	3835.2	0.15548	0.06344	0.98752
2.104	18.417	-14161	3834.9	0.15518	0.064416	0.9882
2.106	18.45	-14161	3834.6	0.15714	0.064221	0.98791
2.108	18.437	-14161	3834.2	0.15909	0.064026	0.98761
2.11	18.484	-14169	3834	0.16104	0.06383	0.98732
2.112	18.576	-14176	3833.8	0.16299	0.063635	0.98703
2.114	18.58	-14168	3833.6	0.16494	0.06344	0.98674
2.116	18.613	-14160	3833.4	0.16338	0.062757	0.98508
2.118	18.673	-14160	3833.3	0.16182	0.062074	0.98342
2.12	18.709	-14160	3833.2	0.16026	0.06139	0.98176
2.122	18.735	-14159	3833.1	0.1587	0.060707	0.9801
2.124	18.79	-14158	3833	0.15714	0.060024	0.97844
2.126	18.86	-14159	3833.1	0.15919	0.059731	0.97717
2.128	18.915	-14159	3833.1	0.16124	0.059438	0.9759
2.13	18.93	-14161	3833	0.16328	0.059146	0.97463
2.132	18.938	-14164	3832.9	0.16533	0.058853	0.97336
2.134	18.943	-14164	3832.8	0.16738	0.05856	0.9721
2.136	18.963	-14164	3832.7	0.16836	0.05817	0.97229
2.138	18.994	-14169	3832.5	0.16934	0.057779	0.97249
2.14	18.984	-14173	3832.3	0.17031	0.057389	0.97268
2.142	18.956	-14172	3832.1	0.17129	0.056998	0.97288
2.144	18.964	-14170	3831.9	0.17226	0.056608	0.97307
2.146	18.989	-14165	3831.8	0.17285	0.055437	0.97395
2.148	19.012	-14160	3831.7	0.17344	0.054266	0.97483
2.15	19.023	-14159	3831.6	0.17402	0.053094	0.97571
2.152	18.983	-14159	3831.5	0.17461	0.051923	0.97659
2.154	18.982	-14163	3831.4	0.17519	0.050752	0.97746
2.156	19	-14166	3831.4	0.17627	0.051045	0.97659
2.158	18.97	-14167	3831.5	0.17734	0.051338	0.97571
2.16	18.936	-14168	3831.5	0.17841	0.05163	0.97483
2.162	18.9	-14169	3831.5	0.17949	0.051923	0.97395
2.164	18.997	-14169	3831.5	0.18056	0.052216	0.97307
2.166	19.156	-14168	3831.5	0.17968	0.050947	0.97366
2.168	19.166	-14167	3831.5	0.1788	0.049678	0.97424
2.17	19.009	-14167	3831.4	0.17792	0.04841	0.97483
2.172	19.013	-14166	3831.4	0.17705	0.047141	0.97541
2.174	18.999	-14166	3831.3	0.17617	0.045872	0.976
2.176	19.002	-14166	3831.1	0.17617	0.046262	0.9762
2.178	19.068	-14173	3831	0.17617	0.046653	0.97639
2.18	19.057	-14181	3830.9	0.17617	0.047043	0.97659
2.182	18.999	-14182	3830.7	0.17617	0.047434	0.97678
2.184	18.993	-14183	3830.5	0.17617	0.047824	0.97698
2.186	19.065	-14182	3830.3	0.17714	0.048312	0.97922
2.188	19.029	-14181	3830.1	0.17812	0.0488	0.98147
2.19	18.956	-14180	3830	0.1791	0.049288	0.98371
2.192	18.973	-14180	3829.8	0.18007	0.049776	0.98596
2.194	19.004	-14180	3829.7	0.18105	0.050264	0.9882
2.196	18.979	-14180	3829.7	0.18095	0.050947	0.98781
2.198	18.958	-14178	3829.7	0.18085	0.05163	0.98742
2.2	18.942	-14176	3829.7	0.18076	0.052314	0.98703
2.202	18.914	-14174	3829.7	0.18066	0.052997	0.98664
2.204	18.902	-14172	3829.8	0.18056	0.05368	0.98625
2.206	18.98	-14174	3829.9	0.17929	0.053094	0.98722
2.208	19.086	-14177	3830	0.17802	0.052509	0.9882
2.21	19.131	-14178	3830.1	0.17675	0.051923	0.98918
2.212	19.119	-14180	3830.3	0.17548	0.051338	0.99015
2.214	19.055	-14181	3830.4	0.17422	0.050752	0.99113
2.216	19.002	-14183	3830.5	0.17373	0.050459	0.99152
2.218	18.978	-14183	3830.6	0.17324	0.050166	0.99191
2.22	18.979	-14183	3830.6	0.17275	0.049874	0.9923
2.222	18.996	-14179	3830.6	0.17226	0.049581	0.99269
2.224	18.973	-14175	3830.6	0.17178	0.049288	0.99308
2.226	18.927	-14177	3830.5	0.17051	0.051045	0.99308
2.228	18.95	-14179	3830.4	0.16924	0.052802	0.99308
2.23	18.994	-14183	3830.3	0.16797	0.054558	0.99308
2.232	19.008	-14187	3830.2	0.1667	0.056315	0.99308
2.234	19.02	-14186	3830.1	0.16543	0.058072	0.99308
2.236	18.965	-14184	3829.9	0.16631	0.057389	0.99318
2.238	18.945	-14182	3829.8	0.16719	0.056706	0.99328
2.24	19.041	-14180	3829.7	0.16807	0.056022	0.99337
2.242	19.111	-14182	3829.6	0.16895	0.055339	0.99347
2.244	19.046	-14185	3829.5	0.16982	0.054656	0.99357
2.246	18.941	-14184	3829.5	0.16914	0.054461	0.99425
2.248	18.954	-14184	3829.4	0.16846	0.054266	0.99493
2.25	18.946	-14186	3829.4	0.16777	0.05407	0.99562
2.252	18.901	-14187	3829.5	0.16709	0.053875	0.9963
2.254	18.855	-14183	3829.6	0.16641	0.05368	0.99698
2.256	18.92	-14178	3829.7	0.16582	0.05407	0.99708
2.258	18.997	-14176	3829.9	0.16524	0.054461	0.99718
2.26	19.039	-14174	3830.1	0.16465	0.054851	0.99728
2.262	19.067	-14182	3830.3	0.16407	0.055242	0.99737
2.264	19.042	-14189	3830.6	0.16348	0.055632	0.99747
2.266	19.03	-14181	3830.9	0.16377	0.055437	0.99786
2.268	19.06	-14172	3831.2	0.16407	0.055242	0.99825
2.27	19.145	-14180	3831.5	0.16436	0.055046	0.99864
2.272	19.037	-14189	3831.8	0.16465	0.054851	0.99903
2.274	18.945	-14190	3832.1	0.16494	0.054656	0.99942
2.276	18.95	-14191	3832.5	0.16455	0.053973	0.99942
2.278	18.958	-14188	3832.8	0.16416	0.05329	0.99942
2.28	18.982	-14184	3833.2	0.16377	0.052606	0.99942
2.282	18.97	-14184	3833.7	0.16338	0.051923	0.99942
2.284	19.013	-14185	3834.1	0.16299	0.05124	0.99942
2.286	19.019	-14184	3834.6	0.16319	0.05124	0.99933
2.288	18.985	-14184	3835.1	0.16338	0.05124	0.99923
2.29	18.953	-14185	3835.6	0.16358	0.05124	0.99913
2.292	18.943	-14185	3836.3	0.16377	0.05124	0.99903
2.294	18.955	-14186	3836.9	0.16397	0.05124	0.99894
2.296	19.006	-14186	3837.7	0.16553	0.050752	0.99962
2.298	19.033	-14184	3838.4	0.16709	0.050264	1.0003
2.3	19.029	-14181	3839.2	0.16865	0.049776	1.001
2.302	19.021	-14185	3840.2	0.17021	0.049288	1.0017
2.304	19.041	-14190	3841.1	0.17178	0.0488	1.0024
2.306	19.057	-14195	3842.1	0.17304	0.048507	1.0028
2.308	19.042	-14199	3843.1	0.17431	0.048214	1.0033
2.31	19.038	-14193	3844.1	0.17558	0.047922	1.0038
2.312	19.045	-14187	3845.1	0.17685	0.047629	1.0043
2.314	19.027	-14193	3846.1	0.17812	0.047336	1.0048
2.316	19.011	-14199	3847	0.17744	0.046165	1.0037
2.318	18.987	-14191	3848	0.17675	0.044994	1.0026
2.32	18.959	-14184	3848.9	0.17607	0.043822	1.0016
2.322	18.981	-14185	3849.9	0.17539	0.042651	1.0005
2.324	18.949	-14187	3850.9	0.1747	0.04148	0.99942
2.326	18.926	-14187	3851.9	0.17422	0.041675	0.99806
2.328	18.953	-14188	3853	0.17373	0.04187	0.99669
2.33	18.911	-14191	3854	0.17324	0.042066	0.99532
2.332	18.88	-14194	3855.1	0.17275	0.042261	0.99396
2.334	18.938	-14188	3856.1	0.17226	0.042456	0.99259
2.336	19.026	-14182	3857.1	0.17324	0.042358	0.9923
2.338	18.971	-14181	3858.2	0.17422	0.042261	0.99201
2.34	18.933	-14181	3859.2	0.17519	0.042163	0.99171
2.342	18.985	-14184	3860.1	0.17617	0.042066	0.99142
2.344	18.98	-14187	3861.1	0.17714	0.041968	0.99113
2.346	18.982	-14188	3862	0.17588	0.042066	0.99093
2.348	19.084	-14189	3862.9	0.17461	0.042163	0.99074
2.35	19.017	-14189	3863.8	0.17334	0.042261	0.99054
2.352	18.897	-14190	3864.6	0.17207	0.042358	0.99035
2.354	18.918	-14190	3865.4	0.1708	0.042456	0.99015
2.356	18.949	-14190	3866.1	0.17158	0.042261	0.99054
2.358	18.928	-14184	3866.8	0.17236	0.042066	0.99093
2.36	18.929	-14178	3867.5	0.17314	0.04187	0.99132
2.362	18.958	-14185	3868.1	0.17392	0.041675	0.99171
2.364	18.952	-14191	3868.7	0.1747	0.04148	0.9921
2.366	18.929	-14189	3869.3	0.17392	0.042554	0.99357
2.368	18.891	-14187	3869.9	0.17314	0.043627	0.99503
2.37	18.865	-14185	3870.5	0.17236	0.044701	0.9965
2.372	18.922	-14183	3871.1	0.17158	0.045774	0.99796
2.374	18.966	-14185	3871.7	0.1708	0.046848	0.99942
2.376	18.971	-14186	3872.2	0.17129	0.047824	1.001
2.378	18.999	-14183	3872.7	0.17178	0.0488	1.0025
2.38	19.01	-14180	3873.3	0.17226	0.049776	1.0041
2.382	19.018	-14175	3873.8	0.17275	0.050752	1.0057
2.384	19.027	-14171	3874.3	0.17324	0.051728	1.0072
2.386	19.007	-14167	3874.8	0.17236	0.052118	1.0067
2.388	18.986	-14163	3875.3	0.17148	0.052509	1.0063
2.39	18.997	-14170	3875.8	0.1706	0.052899	1.0058
2.392	19.014	-14177	3876.3	0.16973	0.05329	1.0053
2.394	19.007	-14179	3876.8	0.16885	0.05368	1.0048
2.396	18.99	-14182	3877.1	0.16885	0.053485	1.0041
2.398	18.974	-14180	3877.5	0.16885	0.05329	1.0034
2.4	18.962	-14178	3877.7	0.16885	0.053094	1.0027
2.402	18.998	-14171	3878	0.16885	0.052899	1.0021
2.404	19.073	-14163	3878.2	0.16885	0.052704	1.0014
2.406	19.063	-14164	3878.2	0.16612	0.052704	1.0002
2.408	19.009	-14165	3878.2	0.16338	0.052704	0.99903
2.41	19.056	-14168	3878.1	0.16065	0.052704	0.99786
2.412	18.997	-14171	3877.9	0.15792	0.052704	0.99669
2.414	18.947	-14166	3877.6	0.15518	0.052704	0.99552
2.416	18.939	-14161	3877.2	0.15548	0.051728	0.99572
2.418	18.989	-14160	3876.9	0.15577	0.050752	0.99591
2.42	18.986	-14159	3876.5	0.15606	0.049776	0.99611
2.422	18.959	-14170	3876	0.15636	0.0488	0.9963
2.424	18.969	-14180	3875.6	0.15665	0.047824	0.9965
2.426	19.005	-14176	3875.2	0.15919	0.048898	0.99767
2.428	19.019	-14172	3874.8	0.16172	0.049971	0.99884
2.43	19.111	-14175	3874.5	0.16426	0.051045	1
2.432	19.203	-14178	3874.2	0.1668	0.052118	1.0012
2.434	19.164	-14174	3873.9	0.16934	0.053192	1.0024
2.436	19.047	-14170	3873.7	0.16982	0.052997	1.0036
2.438	19.046	-14175	3873.5	0.17031	0.052802	1.0049
2.44	19.074	-14181	3873.4	0.1708	0.052606	1.0062
2.442	19.024	-14177	3873.1	0.17129	0.052411	1.0074
2.444	18.948	-14173	3872.9	0.17178	0.052216	1.0087
2.446	18.942	-14168	3872.7	0.17178	0.05163	1.0071
2.448	18.971	-14162	3872.5	0.17178	0.051045	1.0056
2.45	18.974	-14163	3872.3	0.17178	0.050459	1.004
2.452	18.939	-14164	3872.1	0.17178	0.049874	1.0024
2.454	18.897	-14165	3871.9	0.17178	0.049288	1.0009
2.456	18.94	-14166	3871.6	0.17275	0.048898	1.0015
2.458	19.006	-14167	3871.3	0.17373	0.048507	1.0021
2.46	19.033	-14169	3870.9	0.1747	0.048117	1.0026
2.462	19.123	-14164	3870.5	0.17568	0.047726	1.0032
2.464	19.128	-14160	3870.1	0.17666	0.047336	1.0038
2.466	19.072	-14164	3869.6	0.17617	0.048019	1.0039
2.468	19.054	-14169	3869.1	0.17568	0.048702	1.004
2.47	19.053	-14170	3868.7	0.17519	0.049386	1.0041
2.472	19.054	-14171	3868.3	0.1747	0.050069	1.0042
2.474	19.054	-14162	3867.8	0.17422	0.050752	1.0043
2.476	19.023	-14153	3867.4	0.17285	0.051045	1.0049
2.478	18.99	-14156	3867.1	0.17148	0.051338	1.0055
2.48	18.976	-14160	3866.7	0.17012	0.05163	1.0061
2.482	18.982	-14164	3866.3	0.16875	0.051923	1.0066
2.484	18.999	-14167	3865.9	0.16738	0.052216	1.0072
2.486	19.048	-14158	3865.6	0.16816	0.052216	1.007
2.488	19.085	-14149	3865.3	0.16895	0.052216	1.0068
2.49	19.027	-14148	3864.9	0.16973	0.052216	1.0066
2.492	19.002	-14147	3864.6	0.17051	0.052216	1.0065
2.494	18.993	-14157	3864.3	0.17129	0.052216	1.0063
2.496	19.02	-14167	3864.1	0.17178	0.051142	1.0057
2.498	19.064	-14169	3863.9	0.17226	0.050069	1.0051
2.5	19.042	-14171	3863.6	0.17275	0.048995	1.0045
2.502	19.037	-14169	3863.3	0.17324	0.047922	1.0039
2.504	19.038	-14167	3863.1	0.17373	0.046848	1.0033
2.506	19.022	-14157	3862.7	0.17314	0.047726	1.004
2.508	18.995	-14148	3862.4	0.17256	0.048605	1.0047
2.51	18.984	-14151	3862	0.17197	0.049483	1.0054
2.512	19.029	-14153	3861.7	0.17139	0.050362	1.0061
2.514	19.006	-14161	3861.4	0.1708	0.05124	1.0067
2.516	18.98	-14168	3861.2	0.1709	0.05124	1.0067
2.518	19.057	-14167	3861	0.171	0.05124	1.0067
2.52	19.11	-14167	3860.8	0.17109	0.05124	1.0067
2.522	19.024	-14159	3860.7	0.17119	0.05124	1.0067
2.524	19.019	-14152	3860.5	0.17129	0.05124	1.0067
2.526	19.047	-14151	3860.5	0.17129	0.051142	1.0065
2.528	19.043	-14151	3860.4	0.17129	0.051045	1.0062
2.53	19.028	-14149	3860.3	0.17129	0.050947	1.0059
2.532	19.014	-14147	3860.2	0.17129	0.05085	1.0056
2.534	19.02	-14149	3860.2	0.17129	0.050752	1.0053
2.536	19	-14150	3860.1	0.17139	0.050069	1.0039
2.538	19.013	-14152	3860.1	0.17148	0.049386	1.0025
2.54	19.08	-14154	3860	0.17158	0.048702	1.0012
2.542	19.04	-14151	3859.9	0.17168	0.048019	0.99981
2.544	18.987	-14149	3859.7	0.17178	0.047336	0.99845
2.546	18.982	-14150	3859.6	0.17109	0.047629	0.99913
2.548	19.01	-14151	3859.5	0.17041	0.047922	0.99981
2.55	19.048	-14151	3859.4	0.16973	0.048214	1.0005
2.552	19.047	-14151	3859.2	0.16904	0.048507	1.0012
2.554	19.02	-14151	3859.1	0.16836	0.0488	1.0019
2.556	19.055	-14151	3858.9	0.16777	0.048019	1.0018
2.558	19.085	-14156	3858.8	0.16719	0.047238	1.0017
2.56	19.061	-14161	3858.6	0.1666	0.046458	1.0016
2.562	19.019	-14158	3858.5	0.16602	0.045677	1.0015
2.564	18.971	-14154	3858.3	0.16543	0.044896	1.0014
2.566	18.931	-14160	3858.2	0.16377	0.04353	1.0005
2.568	18.949	-14165	3858	0.16211	0.042163	0.99962
2.57	19.008	-14157	3857.9	0.16045	0.040797	0.99874
2.572	19.035	-14149	3857.8	0.1588	0.03943	0.99786
2.574	19.063	-14156	3857.7	0.15714	0.038064	0.99698
2.576	19.084	-14163	3857.6	0.15694	0.039333	0.9965
2.578	19.033	-14162	3857.5	0.15675	0.040602	0.99601
2.58	18.976	-14161	3857.4	0.15655	0.04187	0.99552
2.582	19.003	-14163	3857.3	0.15636	0.043139	0.99503
2.584	19.008	-14165	3857.2	0.15616	0.044408	0.99454
2.586	18.974	-14162	3857.2	0.15782	0.044896	0.99581
2.588	18.972	-14160	3857.2	0.15948	0.045384	0.99708
2.59	18.958	-14160	3857.2	0.16114	0.045872	0.99835
2.592	18.928	-14159	3857.3	0.1628	0.04636	0.99962
2.594	18.963	-14157	3857.3	0.16446	0.046848	1.0009
2.596	18.985	-14156	3857.3	0.1628	0.046262	1
2.598	18.941	-14155	3857.4	0.16114	0.045677	0.99913
2.6	18.929	-14153	3857.4	0.15948	0.045091	0.99825
2.602	18.866	-14153	3857.4	0.15782	0.044506	0.99737
2.604	18.972	-14152	3857.3	0.15616	0.04392	0.9965
2.606	19	-14153	3857.4	0.15557	0.044213	0.99669
2.608	19.021	-14153	3857.4	0.15499	0.044506	0.99689
2.61	19.013	-14153	3857.4	0.1544	0.044798	0.99708
2.612	18.954	-14152	3857.3	0.15382	0.045091	0.99728
2.614	18.968	-14155	3857.3	0.15323	0.045384	0.99747
2.616	18.989	-14159	3857.2	0.15372	0.044994	0.99708
2.618	18.969	-14162	3857.2	0.15421	0.044603	0.99669
2.62	18.883	-14166	3857.1	0.1547	0.044213	0.9963
2.622	18.887	-14166	3857	0.15518	0.043822	0.99591
2.624	18.962	-14165	3856.8	0.15567	0.043432	0.99552
2.626	18.957	-14159	3856.6	0.15528	0.044603	0.99659
2.628	18.913	-14153	3856.4	0.15489	0.045774	0.99767
2.63	18.936	-14153	3856.3	0.1545	0.046946	0.99874
2.632	18.962	-14153	3856.1	0.15411	0.048117	0.99981
2.634	19.061	-14155	3855.9	0.15372	0.049288	1.0009
2.636	19.147	-14157	3855.7	0.15382	0.048898	1.0008
2.638	19.083	-14156	3855.5	0.15392	0.048507	1.0007
2.64	19.031	-14156	3855.3	0.15401	0.048117	1.0006
2.642	19.029	-14157	3855.2	0.15411	0.047726	1.0005
2.644	19.03	-14158	3855.1	0.15421	0.047336	1.0004
2.646	19.007	-14161	3854.9	0.1547	0.046165	0.99962
2.648	19.012	-14165	3854.7	0.15518	0.044994	0.99884
2.65	19.046	-14161	3854.6	0.15567	0.043822	0.99806
2.652	19.042	-14158	3854.5	0.15616	0.042651	0.99728
2.654	19.005	-14153	3854.5	0.15665	0.04148	0.9965
2.656	18.975	-14149	3854.5	0.15577	0.042651	0.99708
2.658	19.005	-14151	3854.4	0.15489	0.043822	0.99767
2.66	19.094	-14153	3854.4	0.15401	0.044994	0.99825
2.662	19.149	-14154	3854.4	0.15313	0.046165	0.99884
2.664	19.117	-14156	3854.4	0.15226	0.047336	0.99942
2.666	19.056	-14158	3854.4	0.15294	0.047434	0.99864
2.668	19.029	-14159	3854.4	0.15362	0.047531	0.99786
2.67	19.083	-14161	3854.3	0.15431	0.047629	0.99708
2.672	19.168	-14162	3854.1	0.15499	0.047726	0.9963
2.674	19.149	-14161	3854	0.15567	0.047824	0.99552
2.676	19.101	-14160	3853.8	0.15626	0.047434	0.99493
2.678	19.069	-14158	3853.7	0.15684	0.047043	0.99435
2.68	19.078	-14156	3853.5	0.15743	0.046653	0.99376
2.682	19.043	-14154	3853.2	0.15801	0.046262	0.99318
2.684	19.004	-14152	3853	0.1586	0.045872	0.99259
2.686	18.963	-14153	3852.7	0.1586	0.044701	0.99288
2.688	18.991	-14153	3852.4	0.1586	0.04353	0.99318
2.69	19.064	-14153	3852.1	0.1586	0.042358	0.99347
2.692	19.12	-14153	3851.8	0.1586	0.041187	0.99376
2.694	19.136	-14153	3851.4	0.1586	0.040016	0.99406
2.696	19.13	-14153	3851.1	0.1588	0.040797	0.99445
2.698	19.107	-14152	3850.9	0.15899	0.041578	0.99484
2.7	19.114	-14151	3850.6	0.15919	0.042358	0.99523
2.702	19.132	-14151	3850.3	0.15938	0.043139	0.99562
2.704	19.082	-14151	3850	0.15958	0.04392	0.99601
2.706	19.01	-14156	3849.7	0.15919	0.044115	0.9965
2.708	18.996	-14161	3849.5	0.1588	0.04431	0.99698
2.71	19.008	-14160	3849.2	0.1584	0.044506	0.99747
2.712	19.032	-14160	3849	0.15801	0.044701	0.99796
2.714	19.013	-14159	3848.8	0.15762	0.044896	0.99845
2.716	19.026	-14158	3848.5	0.15792	0.045677	0.99874
2.718	19.075	-14162	3848.3	0.15821	0.046458	0.99903
2.72	19.112	-14165	3848	0.1585	0.047238	0.99933
2.722	19.091	-14166	3847.8	0.1588	0.048019	0.99962
2.724	19.123	-14166	3847.6	0.15909	0.0488	0.99991
2.726	19.201	-14162	3847.3	0.16094	0.049581	1.0007
2.728	19.174	-14158	3847.1	0.1628	0.050362	1.0015
2.73	19.08	-14158	3846.9	0.16465	0.051142	1.0023
2.732	19.026	-14157	3846.8	0.16651	0.051923	1.003
2.734	19.038	-14159	3846.7	0.16836	0.052704	1.0038
2.736	19.068	-14161	3846.6	0.16875	0.052509	1.0041
2.738	19.081	-14161	3846.6	0.16914	0.052314	1.0044
2.74	19.079	-14161	3846.6	0.16953	0.052118	1.0047
2.742	19.051	-14162	3846.6	0.16992	0.051923	1.005
2.744	19.024	-14163	3846.6	0.17031	0.051728	1.0053
2.746	18.979	-14164	3846.5	0.17031	0.052021	1.0048
2.748	18.924	-14165	3846.4	0.17031	0.052314	1.0043
2.75	18.998	-14165	3846.3	0.17031	0.052606	1.0038
2.752	19.068	-14165	3846.2	0.17031	0.052899	1.0033
2.754	19.053	-14160	3846.1	0.17031	0.053192	1.0028
2.756	19.108	-14155	3846	0.1706	0.052314	1.0025
2.758	19.106	-14156	3845.8	0.1709	0.051435	1.0023
2.76	19.003	-14157	3845.6	0.17119	0.050557	1.002
2.762	18.96	-14158	3845.3	0.17148	0.049678	1.0017
2.764	18.934	-14160	3845	0.17178	0.0488	1.0014
2.766	18.91	-14164	3844.7	0.1708	0.048702	1.0011
2.768	18.913	-14168	3844.4	0.16982	0.048605	1.0008
2.77	18.847	-14169	3844.1	0.16885	0.048507	1.0005
2.772	18.728	-14170	3843.8	0.16787	0.04841	1.0002
2.774	18.673	-14169	3843.5	0.1669	0.048312	0.99991
2.776	18.633	-14169	3843.2	0.1668	0.0488	0.99991
2.778	18.536	-14163	3842.9	0.1667	0.049288	0.99991
2.78	18.623	-14158	3842.6	0.1666	0.049776	0.99991
2.782	18.635	-14156	3842.4	0.16651	0.050264	0.99991
2.784	18.587	-14155	3842.1	0.16641	0.050752	0.99991
2.786	18.559	-14155	3842	0.16563	0.051142	0.99962
2.788	18.573	-14155	3841.8	0.16485	0.051533	0.99933
2.79	18.638	-14158	3841.7	0.16407	0.051923	0.99903
2.792	18.691	-14161	3841.6	0.16328	0.052314	0.99874
2.794	18.667	-14160	3841.5	0.1625	0.052704	0.99845
2.796	18.65	-14160	3841.5	0.16241	0.052118	0.99864
2.798	18.685	-14160	3841.4	0.16231	0.051533	0.99884
2.8	18.649	-14160	3841.4	0.16221	0.050947	0.99903
2.802	18.553	-14163	3841.5	0.16211	0.050362	0.99923
2.804	18.443	-14166	3841.5	0.16202	0.049776	0.99942
2.806	18.374	-14165	3841.6	0.16202	0.049483	0.99913
2.808	18.37	-14165	3841.7	0.16202	0.04919	0.99884
2.81	18.412	-14165	3841.7	0.16202	0.048898	0.99855
2.812	18.459	-14165	3841.8	0.16202	0.048605	0.99825
2.814	18.52	-14163	3841.9	0.16202	0.048312	0.99796
2.816	18.559	-14162	3842	0.16192	0.04841	0.99894
2.818	18.61	-14159	3842.1	0.16182	0.048507	0.99991
2.82	18.635	-14157	3842.2	0.16172	0.048605	1.0009
2.822	18.608	-14162	3842.3	0.16163	0.048702	1.0019
2.824	18.629	-14167	3842.4	0.16153	0.0488	1.0028
2.826	18.711	-14169	3842.3	0.16182	0.049093	1.0031
2.828	18.804	-14171	3842.3	0.16211	0.049386	1.0034
2.83	18.843	-14173	3842.2	0.16241	0.049678	1.0037
2.832	18.825	-14175	3842.2	0.1627	0.049971	1.004
2.834	18.85	-14167	3842.1	0.16299	0.050264	1.0043
2.836	18.898	-14158	3841.9	0.16289	0.050362	1.0048
2.838	18.96	-14158	3841.8	0.1628	0.050459	1.0053
2.84	19.036	-14157	3841.6	0.1627	0.050557	1.0058
2.842	19.066	-14161	3841.5	0.1626	0.050654	1.0063
2.844	19.047	-14164	3841.3	0.1625	0.050752	1.0067
2.846	18.946	-14170	3841.1	0.16143	0.050069	1.0067
2.848	18.922	-14175	3840.9	0.16036	0.049386	1.0067
2.85	19.095	-14175	3840.7	0.15928	0.048702	1.0067
2.852	19.106	-14175	3840.4	0.15821	0.048019	1.0067
2.854	19.052	-14175	3840.1	0.15714	0.047336	1.0067
2.856	19.124	-14174	3839.9	0.1588	0.047434	1.0064
2.858	19.118	-14175	3839.6	0.16045	0.047531	1.006
2.86	19.094	-14176	3839.4	0.16211	0.047629	1.0056
2.862	19.138	-14174	3839.2	0.16377	0.047726	1.0052
2.864	19.135	-14171	3839	0.16543	0.047824	1.0048
2.866	19.104	-14176	3839	0.16475	0.048019	1.0047
2.868	19.099	-14181	3838.9	0.16407	0.048214	1.0046
2.87	19.19	-14174	3838.8	0.16338	0.04841	1.0045
2.872	19.132	-14168	3838.6	0.1627	0.048605	1.0044
2.874	19.064	-14166	3838.5	0.16202	0.0488	1.0043
2.876	19.085	-14165	3838.3	0.16124	0.048214	1.0037
2.878	19.098	-14170	3838.2	0.16045	0.047629	1.0031
2.88	19.128	-14175	3838.1	0.15967	0.047043	1.0025
2.882	19.083	-14171	3838	0.15889	0.046458	1.002
2.884	19.059	-14167	3837.8	0.15811	0.045872	1.0014
2.886	19.116	-14171	3837.8	0.15762	0.047043	1.0022
2.888	19.186	-14176	3837.7	0.15714	0.048214	1.0029
2.89	19.182	-14176	3837.7	0.15665	0.049386	1.0037
2.892	19.111	-14177	3837.7	0.15616	0.050557	1.0045
2.894	19.049	-14171	3837.6	0.15567	0.051728	1.0053
2.896	19.036	-14166	3837.5	0.15538	0.052118	1.0042
2.898	19.047	-14172	3837.5	0.15509	0.052509	1.0031
2.9	19.056	-14179	3837.4	0.15479	0.052899	1.0021
2.902	19.004	-14179	3837.3	0.1545	0.05329	1.001
2.904	18.955	-14179	3837.3	0.15421	0.05368	0.99991
2.906	18.972	-14179	3837.3	0.15255	0.05329	0.99952
2.908	19.05	-14179	3837.2	0.15089	0.052899	0.99913
2.91	19.166	-14178	3837.2	0.14923	0.052509	0.99874
2.912	19.197	-14177	3837.2	0.14757	0.052118	0.99835
2.914	19.109	-14178	3837.2	0.14591	0.051728	0.99796
2.916	19.051	-14178	3837.1	0.14718	0.052021	0.99864
2.918	19.076	-14174	3837.1	0.14845	0.052314	0.99933
2.92	19.077	-14170	3837	0.14972	0.052606	1
2.922	19.079	-14172	3837	0.15099	0.052899	1.0007
2.924	19.153	-14174	3837	0.15226	0.053192	1.0014
2.926	19.13	-14172	3836.8	0.15138	0.053778	1.001
2.928	19.085	-14170	3836.7	0.1505	0.054363	1.0006
2.93	19.051	-14165	3836.5	0.14962	0.054949	1.0002
2.932	18.993	-14160	3836.3	0.14874	0.055534	0.99981
2.934	18.99	-14173	3836.1	0.14786	0.05612	0.99942
2.936	19.046	-14186	3835.7	0.14943	0.056803	0.99972
2.938	19.04	-14184	3835.4	0.15099	0.057486	1
2.94	19.072	-14183	3835.1	0.15255	0.05817	1.0003
2.942	19.03	-14182	3834.9	0.15411	0.058853	1.0006
2.944	18.996	-14181	3834.6	0.15567	0.059536	1.0009
2.946	19.001	-14180	3834.4	0.15587	0.058267	1.0018
2.948	19.016	-14180	3834.2	0.15606	0.056998	1.0026
2.95	19.002	-14185	3834	0.15626	0.05573	1.0035
2.952	19.071	-14189	3833.9	0.15645	0.054461	1.0044
2.954	19.086	-14186	3833.8	0.15665	0.053192	1.0053
2.956	19.078	-14183	3833.8	0.15606	0.053582	1.004
2.958	19.052	-14185	3833.8	0.15548	0.053973	1.0027
2.96	19.038	-14188	3833.9	0.15489	0.054363	1.0015
2.962	19.067	-14182	3834.1	0.15431	0.054754	1.0002
2.964	19.104	-14176	3834.2	0.15372	0.055144	0.99894
2.966	19.074	-14178	3834.4	0.15284	0.056315	0.99894
2.968	19.019	-14180	3834.6	0.15196	0.057486	0.99894
2.97	19.031	-14174	3834.8	0.15108	0.058658	0.99894
2.972	19.035	-14168	3835.1	0.15021	0.059829	0.99894
2.974	19.007	-14171	3835.4	0.14933	0.061	0.99894
2.976	18.999	-14173	3835.7	0.14904	0.059341	0.99913
2.978	19.03	-14174	3836.1	0.14874	0.057682	0.99933
2.98	19.098	-14175	3836.5	0.14845	0.056022	0.99952
2.982	19.091	-14176	3836.8	0.14816	0.054363	0.99972
2.984	19.028	-14177	3837.2	0.14786	0.052704	0.99991
2.986	19.034	-14178	3837.6	0.1466	0.052509	0.99923
2.988	19.049	-14179	3838	0.14533	0.052314	0.99855
2.99	19.014	-14177	3838.4	0.14406	0.052118	0.99786
2.992	19.031	-14175	3838.9	0.14279	0.051923	0.99718
2.994	19.067	-14173	3839.3	0.14152	0.051728	0.9965
2.996	19.085	-14171	3839.8	0.14318	0.053094	0.99581
2.998	19.124	-14175	3840.3	0.14484	0.054461	0.99513
3	19.133	-14179	3840.8	0.1465	0.055827	0.99445
3.002	19.131	-14184	3841.4	0.14816	0.057194	0.99376
3.004	19.104	-14188	3841.9	0.14982	0.05856	0.99308
3.006	19.064	-14189	3842.5	0.1503	0.059341	0.99454
3.008	19.051	-14189	3843.1	0.15079	0.060122	0.99601
3.01	19.04	-14185	3843.7	0.15128	0.060902	0.99747
3.012	19.003	-14181	3844.4	0.15177	0.061683	0.99894
3.014	19.054	-14183	3845	0.15226	0.062464	1.0004
3.016	19.085	-14185	3845.9	0.15333	0.061293	1.0004
3.018	19.11	-14186	3846.7	0.1544	0.060122	1.0004
3.02	19.062	-14188	3847.6	0.15548	0.05895	1.0004
3.022	19.011	-14192	3848.5	0.15655	0.057779	1.0004
3.024	18.988	-14196	3849.4	0.15762	0.056608	1.0004
3.026	19.011	-14186	3850.4	0.1584	0.057682	1.001
3.028	19.07	-14177	3851.3	0.15919	0.058755	1.0016
3.03	19.137	-14188	3852.2	0.15997	0.059829	1.0022
3.032	19.071	-14199	3853.1	0.16075	0.060902	1.0027
3.034	18.994	-14188	3854.1	0.16153	0.061976	1.0033
3.036	18.994	-14177	3855	0.16211	0.061586	1.0029
3.038	19.002	-14182	3855.9	0.1627	0.061195	1.0025
3.04	19.001	-14187	3856.9	0.16328	0.060805	1.0022
3.042	19.017	-14187	3857.9	0.16387	0.060414	1.0018
3.044	19.009	-14187	3858.8	0.16446	0.060024	1.0014
3.046	19.051	-14185	3859.7	0.1628	0.059438	0.99991
3.048	19.101	-14183	3860.6	0.16114	0.058853	0.99845
3.05	19.034	-14192	3861.4	0.15948	0.058267	0.99698
3.052	19.01	-14201	3862.2	0.15782	0.057682	0.99552
3.054	19.003	-14198	3862.9	0.15616	0.057096	0.99406
3.056	18.982	-14194	3863.6	0.15772	0.056413	0.99367
3.058	18.987	-14196	3864.3	0.15928	0.05573	0.99328
3.06	19.021	-14197	3865	0.16084	0.055046	0.99288
3.062	18.999	-14198	3865.6	0.16241	0.054363	0.99249
3.064	18.948	-14199	3866.3	0.16397	0.05368	0.9921
3.066	18.952	-14201	3866.9	0.16397	0.054656	0.99103
3.068	19.001	-14203	3867.5	0.16397	0.055632	0.98996
3.07	19.041	-14206	3868	0.16397	0.056608	0.98888
3.072	19.006	-14208	3868.5	0.16397	0.057584	0.98781
3.074	18.929	-14209	3869	0.16397	0.05856	0.98674
3.076	18.899	-14210	3869.5	0.16368	0.05817	0.98869
3.078	18.951	-14207	3869.9	0.16338	0.057779	0.99064
3.08	19.02	-14204	3870.3	0.16309	0.057389	0.99259
3.082	19.07	-14198	3870.7	0.1628	0.056998	0.99454
3.084	19.109	-14193	3871	0.1625	0.056608	0.9965
3.086	19.099	-14196	3871.3	0.16338	0.057974	0.99894
3.088	19.066	-14199	3871.7	0.16426	0.059341	1.0014
3.09	19.047	-14191	3872	0.16514	0.060707	1.0038
3.092	19.083	-14183	3872.4	0.16602	0.062074	1.0063
3.094	19.108	-14189	3872.9	0.1669	0.06344	1.0087
3.096	19.069	-14194	3873.3	0.16729	0.064318	1.0104
3.098	19.016	-14190	3873.7	0.16768	0.065197	1.012
3.1	19.02	-14186	3874.1	0.16807	0.066075	1.0137
3.102	19.01	-14181	3874.5	0.16846	0.066954	1.0153
3.104	19.058	-14176	3874.9	0.16885	0.067832	1.017
3.106	19.117	-14177	3875.3	0.16807	0.067637	1.0155
3.108	19.053	-14178	3875.8	0.16729	0.067442	1.0141
3.11	18.984	-14182	3876.3	0.16651	0.067246	1.0126
3.112	18.956	-14185	3876.7	0.16572	0.067051	1.0111
3.114	19.106	-14183	3877.2	0.16494	0.066856	1.0097
3.116	19.214	-14180	3877.4	0.16592	0.066368	1.0085
3.118	19.183	-14171	3877.7	0.1669	0.06588	1.0073
3.12	19.143	-14163	3877.8	0.16787	0.065392	1.0062
3.122	19.104	-14164	3877.7	0.16885	0.064904	1.005
3.124	19.072	-14164	3877.7	0.16982	0.064416	1.0038
3.126	19.101	-14172	3877.5	0.16787	0.062952	1.0016
3.128	19.089	-14179	3877.3	0.16592	0.061488	0.99933
3.13	19.101	-14175	3876.9	0.16397	0.060024	0.99708
3.132	19.099	-14172	3876.5	0.16202	0.05856	0.99484
3.134	19.072	-14172	3876.1	0.16006	0.057096	0.99259
3.136	19.045	-14172	3875.6	0.16026	0.055437	0.99298
3.138	19.044	-14178	3875	0.16045	0.053778	0.99337
3.14	19.044	-14184	3874.5	0.16065	0.052118	0.99376
3.142	19.031	-14175	3873.9	0.16084	0.050459	0.99415
3.144	19.069	-14167	3873.4	0.16104	0.0488	0.99454
3.146	19.094	-14174	3872.9	0.16055	0.049483	0.99454
3.148	19.099	-14182	3872.4	0.16006	0.050166	0.99454
3.15	19.154	-14178	3871.9	0.15958	0.05085	0.99454
3.152	19.148	-14174	3871.5	0.15909	0.051533	0.99454
3.154	19.131	-14169	3871.1	0.1586	0.052216	0.99454
3.156	19.139	-14165	3870.8	0.15762	0.052704	0.99367
3.158	19.148	-14165	3870.4	0.15665	0.053192	0.99279
3.16	19.129	-14165	3870.1	0.15567	0.05368	0.99191
3.162	19.106	-14167	3869.8	0.1547	0.054168	0.99103
3.164	19.095	-14168	3869.5	0.15372	0.054656	0.99015
3.166	19.062	-14165	3869.1	0.15587	0.053973	0.99005
3.168	19.069	-14161	3868.7	0.15801	0.05329	0.98996
3.17	19.108	-14160	3868.3	0.16016	0.052606	0.98986
3.172	19.078	-14158	3867.8	0.16231	0.051923	0.98976
3.174	19.036	-14161	3867.4	0.16446	0.05124	0.98966
3.176	19.046	-14164	3867	0.16358	0.051045	0.98996
3.178	19.162	-14165	3866.7	0.1627	0.05085	0.99025
3.18	19.239	-14166	3866.3	0.16182	0.050654	0.99054
3.182	19.193	-14167	3865.9	0.16094	0.050459	0.99084
3.184	19.12	-14168	3865.6	0.16006	0.050264	0.99113
3.186	18.994	-14168	3865.3	0.16143	0.049776	0.99054
3.188	18.996	-14167	3865	0.1628	0.049288	0.98996
3.19	19.114	-14166	3864.7	0.16416	0.0488	0.98937
3.192	19.175	-14164	3864.3	0.16553	0.048312	0.98879
3.194	19.149	-14160	3864	0.1669	0.047824	0.9882
3.196	19.069	-14157	3863.7	0.16465	0.047922	0.98966
3.198	19.113	-14159	3863.3	0.16241	0.048019	0.99113
3.2	19.083	-14160	3863	0.16016	0.048117	0.99259
3.202	19.09	-14162	3862.8	0.15792	0.048214	0.99406
3.204	19.131	-14164	3862.6	0.15567	0.048312	0.99552
3.206	19.092	-14165	3862.3	0.1544	0.049483	0.99523
3.208	19.063	-14165	3862	0.15313	0.050654	0.99493
3.21	19.082	-14167	3861.7	0.15187	0.051826	0.99464
3.212	19.11	-14170	3861.4	0.1506	0.052997	0.99435
3.214	19.129	-14170	3861.1	0.14933	0.054168	0.99406
3.216	19.13	-14171	3860.9	0.1504	0.053875	0.99357
3.218	19.101	-14169	3860.7	0.15148	0.053582	0.99308
3.22	19.117	-14167	3860.4	0.15255	0.05329	0.99259
3.222	19.093	-14163	3860.1	0.15362	0.052997	0.9921
3.224	19.072	-14160	3859.8	0.1547	0.052704	0.99162
3.226	19.114	-14160	3859.5	0.15431	0.053582	0.99171
3.228	19.122	-14161	3859.3	0.15392	0.054461	0.99181
3.23	19.153	-14161	3859	0.15352	0.055339	0.99191
3.232	19.168	-14160	3858.7	0.15313	0.056218	0.99201
3.234	19.148	-14160	3858.5	0.15274	0.057096	0.9921
3.236	19.149	-14160	3858.2	0.15167	0.056022	0.99328
3.238	19.14	-14161	3857.9	0.1506	0.054949	0.99445
3.24	19.127	-14162	3857.6	0.14952	0.053875	0.99562
3.242	19.114	-14164	3857.3	0.14845	0.052802	0.99679
3.244	19.125	-14165	3857.1	0.14738	0.051728	0.99796
3.246	19.102	-14161	3856.8	0.15001	0.051533	0.99913
3.248	19.046	-14158	3856.6	0.15265	0.051338	1.0003
3.25	19.03	-14154	3856.3	0.15528	0.051142	1.0015
3.252	19.051	-14150	3856.1	0.15792	0.050947	1.0026
3.254	19.084	-14148	3855.9	0.16055	0.050752	1.0038
3.256	19.119	-14146	3855.7	0.16065	0.050166	1.0046
3.258	19.161	-14155	3855.6	0.16075	0.049581	1.0054
3.26	19.139	-14164	3855.4	0.16084	0.048995	1.0062
3.262	19.107	-14162	3855.3	0.16094	0.04841	1.0069
3.264	19.126	-14160	3855.2	0.16104	0.047824	1.0077
3.266	19.148	-14154	3855	0.16065	0.048995	1.0077
3.268	19.138	-14149	3854.9	0.16026	0.050166	1.0077
3.27	19.095	-14151	3854.8	0.15987	0.051338	1.0077
3.272	19.064	-14153	3854.6	0.15948	0.052509	1.0077
3.274	19.05	-14155	3854.5	0.15909	0.05368	1.0077
3.276	19.07	-14157	3854.4	0.15967	0.052216	1.0079
3.278	19.101	-14157	3854.3	0.16026	0.050752	1.0081
3.28	19.113	-14158	3854.2	0.16084	0.049288	1.0083
3.282	19.07	-14153	3854.2	0.16143	0.047824	1.0085
3.284	19.116	-14149	3854.2	0.16202	0.04636	1.0087
3.286	19.157	-14153	3854.1	0.16192	0.046848	1.0089
3.288	19.162	-14158	3854.1	0.16182	0.047336	1.0091
3.29	19.112	-14163	3854.1	0.16172	0.047824	1.0093
3.292	19.136	-14168	3854.1	0.16163	0.048312	1.0095
3.294	19.117	-14161	3854	0.16153	0.0488	1.0097
3.296	19.135	-14154	3853.9	0.16172	0.048995	1.0097
3.298	19.138	-14153	3853.8	0.16192	0.04919	1.0097
3.3	19.123	-14152	3853.7	0.16211	0.049386	1.0097
3.302	19.14	-14152	3853.7	0.16231	0.049581	1.0097
3.304	19.148	-14152	3853.7	0.1625	0.049776	1.0097
3.306	19.081	-14150	3853.5	0.1627	0.048702	1.0088
3.308	19.023	-14148	3853.4	0.16289	0.047629	1.0079
3.31	18.95	-14153	3853.3	0.16309	0.046555	1.007
3.312	18.963	-14157	3853.1	0.16328	0.045482	1.0062
3.314	19	-14159	3853	0.16348	0.044408	1.0053
3.316	19.001	-14160	3852.8	0.16446	0.046262	1.005
3.318	19.02	-14158	3852.6	0.16543	0.048117	1.0047
3.32	19.018	-14157	3852.4	0.16641	0.049971	1.0044
3.322	19.033	-14156	3852.1	0.16738	0.051826	1.0041
3.324	19.054	-14155	3851.9	0.16836	0.05368	1.0038
3.326	19.051	-14153	3851.8	0.16699	0.052216	1.0048
3.328	19.038	-14151	3851.6	0.16563	0.050752	1.0058
3.33	18.988	-14153	3851.4	0.16426	0.049288	1.0067
3.332	18.96	-14154	3851.2	0.16289	0.047824	1.0077
3.334	19.033	-14154	3851	0.16153	0.04636	1.0087
3.336	19.128	-14154	3850.9	0.16133	0.046848	1.0086
3.338	19.115	-14154	3850.8	0.16114	0.047336	1.0085
3.34	19.053	-14154	3850.7	0.16094	0.047824	1.0084
3.342	19.062	-14153	3850.6	0.16075	0.048312	1.0083
3.344	19.074	-14152	3850.5	0.16055	0.0488	1.0082
3.346	19.08	-14156	3850.4	0.15938	0.049386	1.0093
3.348	19.076	-14161	3850.3	0.15821	0.049971	1.0104
3.35	19.043	-14161	3850.2	0.15704	0.050557	1.0114
3.352	19.03	-14162	3850.1	0.15587	0.051142	1.0125
3.354	19.088	-14159	3849.9	0.1547	0.051728	1.0136
3.356	19.118	-14157	3849.8	0.15606	0.051045	1.0125
3.358	19.086	-14156	3849.7	0.15743	0.050362	1.0114
3.36	19.089	-14156	3849.5	0.1588	0.049678	1.0104
3.362	19.093	-14158	3849.3	0.16016	0.048995	1.0093
3.364	19.1	-14159	3849.1	0.16153	0.048312	1.0082
3.366	19.141	-14152	3848.9	0.16094	0.04841	1.0091
3.368	19.178	-14145	3848.7	0.16036	0.048507	1.01
3.37	19.261	-14147	3848.5	0.15977	0.048605	1.0108
3.372	19.25	-14149	3848.4	0.15919	0.048702	1.0117
3.374	19.225	-14154	3848.2	0.1586	0.0488	1.0126
3.376	19.228	-14159	3848.1	0.1586	0.04919	1.0128
3.378	19.269	-14154	3848	0.1586	0.049581	1.013
3.38	19.126	-14148	3848	0.1586	0.049971	1.0132
3.382	19.037	-14147	3847.9	0.1586	0.050362	1.0134
3.384	19.114	-14146	3847.9	0.1586	0.050752	1.0136
3.386	19.095	-14152	3847.9	0.1585	0.049483	1.0122
3.388	19.092	-14157	3847.9	0.1584	0.048214	1.0108
3.39	19.103	-14159	3847.9	0.15831	0.046946	1.0095
3.392	19.156	-14161	3847.9	0.15821	0.045677	1.0081
3.394	19.171	-14164	3847.9	0.15811	0.044408	1.0067
3.396	19.172	-14167	3847.9	0.15821	0.04392	1.0052
3.398	19.192	-14159	3847.9	0.15831	0.043432	1.0036
3.4	19.16	-14152	3847.9	0.1584	0.042944	1.0021
3.402	19.085	-14152	3847.9	0.1585	0.042456	1.0005
3.404	19.022	-14152	3847.9	0.1586	0.041968	0.99894
3.406	19.011	-14158	3847.7	0.15694	0.042944	0.99767
3.408	19.133	-14164	3847.6	0.15528	0.04392	0.9964
3.41	19.269	-14160	3847.4	0.15362	0.044896	0.99513
3.412	19.309	-14156	3847.2	0.15196	0.045872	0.99386
3.414	19.264	-14158	3847	0.1503	0.046848	0.99259
3.416	19.213	-14160	3846.6	0.15021	0.046946	0.99376
3.418	19.191	-14161	3846.2	0.15011	0.047043	0.99493
3.42	19.181	-14163	3845.8	0.15001	0.047141	0.99611
3.422	19.154	-14160	3845.4	0.14991	0.047238	0.99728
3.424	19.119	-14157	3845	0.14982	0.047336	0.99845
3.426	19.127	-14158	3844.7	0.1503	0.047141	0.99737
3.428	19.138	-14160	3844.3	0.15079	0.046946	0.9963
3.43	19.112	-14153	3844	0.15128	0.04675	0.99523
3.432	19.068	-14147	3843.7	0.15177	0.046555	0.99415
3.434	19.056	-14156	3843.4	0.15226	0.04636	0.99308
3.436	19.1	-14165	3843.2	0.15284	0.046848	0.99464
3.438	19.149	-14158	3843.1	0.15343	0.047336	0.9962
3.44	19.204	-14152	3842.9	0.15401	0.047824	0.99776
3.442	19.242	-14151	3842.9	0.1546	0.048312	0.99933
3.444	19.251	-14151	3842.8	0.15518	0.0488	1.0009
3.446	19.18	-14151	3842.7	0.15411	0.049483	1.0004
3.448	19.165	-14151	3842.7	0.15304	0.050166	0.99991
3.45	19.161	-14156	3842.6	0.15196	0.05085	0.99942
3.452	19.165	-14161	3842.5	0.15089	0.051533	0.99894
3.454	19.124	-14160	3842.5	0.14982	0.052216	0.99845
3.456	19.095	-14160	3842.3	0.14952	0.051338	0.99728
3.458	19.077	-14159	3842.2	0.14923	0.050459	0.99611
3.46	19.069	-14159	3842	0.14894	0.049581	0.99493
3.462	19.053	-14164	3841.8	0.14864	0.048702	0.99376
3.464	19.085	-14169	3841.6	0.14835	0.047824	0.99259
3.466	19.146	-14172	3841.3	0.14884	0.048507	0.9924
3.468	19.174	-14174	3841.1	0.14933	0.04919	0.9922
3.47	19.133	-14170	3840.8	0.14982	0.049874	0.99201
3.472	19.114	-14165	3840.6	0.1503	0.050557	0.99181
3.474	19.094	-14172	3840.3	0.15079	0.05124	0.99162
3.476	19.06	-14179	3840.1	0.15196	0.050264	0.99113
3.478	19.036	-14173	3839.9	0.15313	0.049288	0.99064
3.48	19.046	-14168	3839.6	0.15431	0.048312	0.99015
3.482	19.034	-14166	3839.4	0.15548	0.047336	0.98966
3.484	19.023	-14164	3839.1	0.15665	0.04636	0.98918
3.486	19.018	-14167	3838.8	0.15665	0.046262	0.98966
3.488	18.941	-14169	3838.6	0.15665	0.046165	0.99015
3.49	18.825	-14162	3838.3	0.15665	0.046067	0.99064
3.492	18.785	-14156	3838.1	0.15665	0.04597	0.99113
3.494	18.774	-14162	3837.8	0.15665	0.045872	0.99162
3.496	18.772	-14168	3837.6	0.15694	0.045677	0.99093
3.498	18.784	-14166	3837.4	0.15723	0.045482	0.99025
3.5	18.751	-14164	3837.2	0.15753	0.045286	0.98957
3.502	18.711	-14167	3837.1	0.15782	0.045091	0.98888
3.504	18.725	-14170	3836.9	0.15811	0.044896	0.9882
3.506	18.776	-14168	3836.7	0.1584	0.044994	0.98869
3.508	18.835	-14167	3836.5	0.1587	0.045091	0.98918
3.51	18.814	-14163	3836.3	0.15899	0.045189	0.98966
3.512	18.705	-14160	3836.1	0.15928	0.045286	0.99015
3.514	18.645	-14168	3835.9	0.15958	0.045384	0.99064
3.516	18.646	-14176	3835.8	0.1585	0.047141	0.9924
3.518	18.635	-14171	3835.7	0.15743	0.048898	0.99415
3.52	18.579	-14167	3835.6	0.15636	0.050654	0.99591
3.522	18.577	-14166	3835.5	0.15528	0.052411	0.99767
3.524	18.626	-14166	3835.5	0.15421	0.054168	0.99942
3.526	18.624	-14171	3835.4	0.15489	0.052802	0.99923
3.528	18.549	-14176	3835.4	0.15557	0.051435	0.99903
3.53	18.495	-14171	3835.3	0.15626	0.050069	0.99884
3.532	18.527	-14166	3835.2	0.15694	0.048702	0.99864
3.534	18.56	-14164	3835.1	0.15762	0.047336	0.99845
3.536	18.691	-14162	3835	0.15909	0.048507	0.99962
3.538	18.711	-14160	3834.8	0.16055	0.049678	1.0008
3.54	18.665	-14159	3834.7	0.16202	0.05085	1.002
3.542	18.735	-14169	3834.4	0.16348	0.052021	1.0031
3.544	18.776	-14179	3834.2	0.16494	0.053192	1.0043
3.546	18.825	-14171	3834	0.16514	0.05368	1.0041
3.548	18.883	-14163	3833.9	0.16533	0.054168	1.0039
3.55	18.908	-14167	3833.6	0.16553	0.054656	1.0037
3.552	18.95	-14171	3833.4	0.16572	0.055144	1.0035
3.554	19.022	-14174	3833.2	0.16592	0.055632	1.0033
3.556	19.059	-14176	3832.9	0.16524	0.055827	1.0021
3.558	19.106	-14171	3832.7	0.16455	0.056022	1.0008
3.56	19.086	-14166	3832.4	0.16387	0.056218	0.99952
3.562	19.096	-14163	3832.2	0.16319	0.056413	0.99825
3.564	19.12	-14161	3831.9	0.1625	0.056608	0.99698
3.566	19.151	-14160	3831.8	0.16377	0.056022	0.99728
3.568	19.159	-14158	3831.6	0.16504	0.055437	0.99757
3.57	19.148	-14166	3831.4	0.16631	0.054851	0.99786
3.572	19.153	-14175	3831.3	0.16758	0.054266	0.99816
3.574	19.153	-14172	3831.1	0.16885	0.05368	0.99845
3.576	19.145	-14170	3830.9	0.16807	0.05329	0.99864
3.578	19.143	-14174	3830.8	0.16729	0.052899	0.99884
3.58	19.18	-14178	3830.7	0.16651	0.052509	0.99903
3.582	19.254	-14181	3830.6	0.16572	0.052118	0.99923
3.584	19.231	-14184	3830.5	0.16494	0.051728	0.99942
3.586	19.177	-14183	3830.3	0.16436	0.05085	0.99913
3.588	19.168	-14183	3830.2	0.16377	0.049971	0.99884
3.59	19.167	-14171	3830	0.16319	0.049093	0.99855
3.592	19.183	-14158	3829.7	0.1626	0.048214	0.99825
3.594	19.201	-14160	3829.5	0.16202	0.047336	0.99796
3.596	19.213	-14162	3829.2	0.16153	0.047726	0.99786
3.598	19.216	-14168	3829	0.16104	0.048117	0.99776
3.6	19.195	-14173	3828.6	0.16055	0.048507	0.99767
3.602	19.167	-14176	3828.3	0.16006	0.048898	0.99757
3.604	19.155	-14178	3828	0.15958	0.049288	0.99747
3.606	19.196	-14175	3827.8	0.16163	0.050264	0.99767
3.608	19.213	-14172	3827.5	0.16368	0.05124	0.99786
3.61	19.185	-14173	3827.3	0.16572	0.052216	0.99806
3.612	19.186	-14174	3827.1	0.16777	0.053192	0.99825
3.614	19.215	-14172	3827	0.16982	0.054168	0.99845
3.616	19.2	-14170	3826.9	0.16924	0.055339	0.99864
3.618	19.153	-14170	3826.8	0.16865	0.05651	0.99884
3.62	19.106	-14170	3826.8	0.16807	0.057682	0.99903
3.622	19.164	-14168	3826.8	0.16748	0.058853	0.99923
3.624	19.175	-14166	3826.7	0.1669	0.060024	0.99942
3.626	19.123	-14171	3826.7	0.16631	0.05895	0.99884
3.628	19.069	-14176	3826.7	0.16572	0.057877	0.99825
3.63	19.13	-14175	3826.7	0.16514	0.056803	0.99767
3.632	19.218	-14174	3826.7	0.16455	0.05573	0.99708
3.634	19.149	-14176	3826.7	0.16397	0.054656	0.9965
3.636	19.111	-14178	3826.7	0.16504	0.053973	0.99601
3.638	19.104	-14178	3826.8	0.16612	0.05329	0.99552
3.64	19.11	-14178	3826.8	0.16719	0.052606	0.99503
3.642	19.176	-14175	3826.7	0.16826	0.051923	0.99454
3.644	19.208	-14172	3826.7	0.16934	0.05124	0.99406
3.646	19.17	-14172	3826.7	0.17041	0.049483	0.9922
3.648	19.101	-14173	3826.8	0.17148	0.047726	0.99035
3.65	19.088	-14173	3826.7	0.17256	0.04597	0.98849
3.652	19.124	-14174	3826.6	0.17363	0.044213	0.98664
3.654	19.131	-14178	3826.5	0.1747	0.042456	0.98478
3.656	19.106	-14183	3826.5	0.17451	0.042749	0.98527
3.658	19.083	-14179	3826.4	0.17431	0.043042	0.98576
3.66	19.078	-14175	3826.4	0.17412	0.043334	0.98625
3.662	19.117	-14178	3826.3	0.17392	0.043627	0.98674
3.664	19.158	-14182	3826.3	0.17373	0.04392	0.98722
3.666	19.171	-14180	3826.2	0.17285	0.044701	0.98849
3.668	19.159	-14179	3826.1	0.17197	0.045482	0.98976
3.67	19.185	-14184	3826	0.17109	0.046262	0.99103
3.672	19.224	-14189	3825.9	0.17021	0.047043	0.9923
3.674	19.183	-14186	3825.8	0.16934	0.047824	0.99357
3.676	19.111	-14183	3825.9	0.16875	0.048995	0.99474
3.678	19.098	-14183	3825.9	0.16816	0.050166	0.99591
3.68	19.114	-14182	3826.1	0.16758	0.051338	0.99708
3.682	19.116	-14180	3826.5	0.16699	0.052509	0.99825
3.684	19.104	-14178	3826.8	0.16641	0.05368	0.99942
3.686	19.08	-14179	3827.4	0.16777	0.052606	1.0002
3.688	19.078	-14180	3828	0.16914	0.051533	1.001
3.69	19.089	-14182	3828.8	0.17051	0.050459	1.0018
3.692	19.11	-14184	3829.6	0.17187	0.049386	1.0025
3.694	19.175	-14187	3830.5	0.17324	0.048312	1.0033
3.696	19.209	-14191	3831.6	0.17275	0.048702	1.0034
3.698	19.129	-14190	3832.6	0.17226	0.049093	1.0035
3.7	19.031	-14188	3833.7	0.17178	0.049483	1.0036
3.702	19.009	-14189	3834.9	0.17129	0.049874	1.0037
3.704	19.112	-14189	3836	0.1708	0.050264	1.0038
3.706	19.142	-14185	3837.2	0.16992	0.050362	1.0024
3.708	19.187	-14181	3838.3	0.16904	0.050459	1.0011
3.71	19.21	-14184	3839.4	0.16816	0.050557	0.99972
3.712	19.178	-14186	3840.5	0.16729	0.050654	0.99835
3.714	19.173	-14186	3841.5	0.16641	0.050752	0.99698
3.716	19.197	-14186	3842.6	0.16524	0.050264	0.9963
3.718	19.221	-14189	3843.6	0.16407	0.049776	0.99562
3.72	19.186	-14193	3844.6	0.16289	0.049288	0.99493
3.722	19.154	-14192	3845.6	0.16172	0.0488	0.99425
3.724	19.146	-14191	3846.6	0.16055	0.048312	0.99357
3.726	19.095	-14194	3847.5	0.16084	0.047629	0.9924
3.728	19.091	-14197	3848.4	0.16114	0.046946	0.99123
3.73	19.133	-14192	3849.3	0.16143	0.046262	0.99005
3.732	19.172	-14187	3850.2	0.16172	0.045579	0.98888
3.734	19.154	-14184	3851	0.16202	0.044896	0.98771
3.736	19.113	-14180	3851.9	0.16163	0.045091	0.98664
3.738	19.127	-14184	3852.8	0.16124	0.045286	0.98556
3.74	19.158	-14187	3853.6	0.16084	0.045482	0.98449
3.742	19.134	-14185	3854.5	0.16045	0.045677	0.98342
3.744	19.085	-14183	3855.4	0.16006	0.045872	0.98234
3.746	19.105	-14181	3856.4	0.15977	0.045677	0.98312
3.748	19.183	-14180	3857.3	0.15948	0.045482	0.98391
3.75	19.204	-14185	3858.3	0.15919	0.045286	0.98469
3.752	19.192	-14191	3859.3	0.15889	0.045091	0.98547
3.754	19.146	-14192	3860.3	0.1586	0.044896	0.98625
3.756	19.079	-14192	3861.3	0.15919	0.04431	0.98703
3.758	19.051	-14193	3862.3	0.15977	0.043725	0.98781
3.76	19.061	-14194	3863.4	0.16036	0.043139	0.98859
3.762	19.066	-14189	3864.4	0.16094	0.042554	0.98937
3.764	19.079	-14184	3865.4	0.16153	0.041968	0.99015
3.766	19.129	-14184	3866.4	0.16055	0.042749	0.99123
3.768	19.125	-14183	3867.4	0.15958	0.04353	0.9923
3.77	19.07	-14186	3868.3	0.1586	0.04431	0.99337
3.772	19.093	-14188	3869.3	0.15762	0.045091	0.99445
3.774	19.116	-14187	3870.2	0.15665	0.045872	0.99552
3.776	19.079	-14187	3870.9	0.15606	0.046848	0.9962
3.778	19.029	-14186	3871.7	0.15548	0.047824	0.99689
3.78	18.986	-14186	3872.4	0.15489	0.0488	0.99757
3.782	18.948	-14185	3873.1	0.15431	0.049776	0.99825
3.784	19.04	-14184	3873.7	0.15372	0.050752	0.99894
3.786	19.081	-14188	3874.2	0.15372	0.050654	0.99864
3.788	19.076	-14191	3874.7	0.15372	0.050557	0.99835
3.79	19.07	-14189	3875.1	0.15372	0.050459	0.99806
3.792	19.133	-14186	3875.5	0.15372	0.050362	0.99776
3.794	19.125	-14184	3875.9	0.15372	0.050264	0.99747
3.796	19.134	-14182	3876.2	0.15362	0.050264	0.9965
3.798	19.127	-14186	3876.6	0.15352	0.050264	0.99552
3.8	19.066	-14191	3876.9	0.15343	0.050264	0.99454
3.802	19.087	-14187	3877.2	0.15333	0.050264	0.99357
3.804	19.1	-14183	3877.6	0.15323	0.050264	0.99259
3.806	19.143	-14182	3877.8	0.1545	0.048214	0.99103
3.808	19.186	-14182	3878	0.15577	0.046165	0.98947
3.81	19.209	-14180	3878.2	0.15704	0.044115	0.98791
3.812	19.139	-14177	3878.4	0.15831	0.042066	0.98635
3.814	19.12	-14176	3878.7	0.15958	0.040016	0.98478
3.816	19.091	-14174	3878.8	0.15909	0.040797	0.98576
3.818	19.159	-14177	3879	0.1586	0.041578	0.98674
3.82	19.142	-14180	3879.2	0.15811	0.042358	0.98771
3.822	19.104	-14178	3879.2	0.15762	0.043139	0.98869
3.824	19.098	-14176	3879.3	0.15714	0.04392	0.98966
3.826	19.104	-14176	3879.3	0.15675	0.045189	0.9922
3.828	19.115	-14177	3879.3	0.15636	0.046458	0.99474
3.83	19.101	-14179	3879.3	0.15596	0.047726	0.99728
3.832	19.089	-14181	3879.3	0.15557	0.048995	0.99981
3.834	19.13	-14178	3879.2	0.15518	0.050264	1.0024
3.836	19.239	-14175	3879.2	0.15509	0.050459	1.0037
3.838	19.226	-14175	3879.2	0.15499	0.050654	1.0051
3.84	19.114	-14175	3879.2	0.15489	0.05085	1.0065
3.842	19.124	-14175	3879.1	0.15479	0.051045	1.0078
3.844	19.19	-14175	3879	0.1547	0.05124	1.0092
3.846	19.157	-14173	3878.6	0.15538	0.05163	1.0097
3.848	19.112	-14171	3878.3	0.15606	0.052021	1.0102
3.85	19.162	-14167	3877.9	0.15675	0.052411	1.0106
3.852	19.221	-14163	3877.5	0.15743	0.052802	1.0111
3.854	19.193	-14163	3877.1	0.15811	0.053192	1.0116
3.856	19.16	-14163	3876.6	0.15977	0.053192	1.0108
3.858	19.196	-14167	3876.2	0.16143	0.053192	1.0101
3.86	19.251	-14172	3875.7	0.16309	0.053192	1.0093
3.862	19.261	-14171	3875.3	0.16475	0.053192	1.0085
3.864	19.208	-14169	3874.8	0.16641	0.053192	1.0077
3.866	19.081	-14170	3874.3	0.1667	0.053778	1.0063
3.868	19.039	-14171	3873.7	0.16699	0.054363	1.0048
3.87	19.105	-14175	3873.2	0.16729	0.054949	1.0033
3.872	19.122	-14178	3872.6	0.16758	0.055534	1.0019
3.874	19.129	-14173	3872.1	0.16787	0.05612	1.0004
3.876	19.152	-14167	3871.5	0.16758	0.05573	1.0009
3.878	19.156	-14168	3870.9	0.16729	0.055339	1.0014
3.88	19.205	-14169	3870.3	0.16699	0.054949	1.0019
3.882	19.168	-14167	3869.7	0.1667	0.054558	1.0024
3.884	19.186	-14165	3869.1	0.16641	0.054168	1.0028
3.886	19.187	-14167	3868.6	0.1668	0.054168	1.0027
3.888	19.187	-14168	3868.1	0.16719	0.054168	1.0026
3.89	19.197	-14171	3867.7	0.16758	0.054168	1.0025
3.892	19.217	-14174	3867.2	0.16797	0.054168	1.0024
3.894	19.18	-14165	3866.8	0.16836	0.054168	1.0024
3.896	19.264	-14157	3866.3	0.16895	0.053094	1.0035
3.898	19.281	-14155	3865.8	0.16953	0.052021	1.0047
3.9	19.208	-14152	3865.3	0.17012	0.050947	1.0059
3.902	19.21	-14163	3864.7	0.1707	0.049874	1.007
3.904	19.205	-14175	3864.2	0.17129	0.0488	1.0082
3.906	19.116	-14172	3863.8	0.17012	0.049971	1.0081
3.908	19.093	-14170	3863.5	0.16895	0.051142	1.008
3.91	19.119	-14168	3863	0.16777	0.052314	1.0079
3.912	19.151	-14167	3862.6	0.1666	0.053485	1.0078
3.914	19.207	-14163	3862.2	0.16543	0.054656	1.0077
3.916	19.218	-14159	3861.8	0.16485	0.053875	1.0085
3.918	19.191	-14156	3861.3	0.16426	0.053094	1.0093
3.92	19.15	-14153	3861	0.16368	0.052314	1.0101
3.922	19.095	-14143	3860.6	0.16309	0.051533	1.0108
3.924	19.067	-14134	3860.2	0.1625	0.050752	1.0116
3.926	19.088	-14148	3859.9	0.16104	0.051533	1.0118
3.928	19.153	-14162	3859.6	0.15958	0.052314	1.012
3.93	19.192	-14164	3859.2	0.15811	0.053094	1.0122
3.932	19.224	-14166	3858.9	0.15665	0.053875	1.0124
3.934	19.256	-14167	3858.5	0.15518	0.054656	1.0126
3.936	19.237	-14167	3858.1	0.15587	0.053973	1.0126
3.938	19.199	-14163	3857.8	0.15655	0.05329	1.0126
3.94	19.169	-14159	3857.4	0.15723	0.052606	1.0126
3.942	19.184	-14156	3857	0.15792	0.051923	1.0126
3.944	19.184	-14154	3856.6	0.1586	0.05124	1.0126
3.946	19.18	-14150	3856.2	0.15977	0.051728	1.0122
3.948	19.154	-14145	3855.9	0.16094	0.052216	1.0118
3.95	19.155	-14151	3855.6	0.16211	0.052704	1.0114
3.952	19.148	-14156	3855.4	0.16328	0.053192	1.011
3.954	19.169	-14154	3855.1	0.16446	0.05368	1.0106
3.956	19.175	-14152	3855	0.16533	0.053973	1.0093
3.958	19.159	-14154	3854.9	0.16621	0.054266	1.0079
3.96	19.178	-14156	3854.8	0.16709	0.054558	1.0065
3.962	19.115	-14153	3854.7	0.16797	0.054851	1.0052
3.964	19.119	-14149	3854.6	0.16885	0.055144	1.0038
3.966	19.228	-14149	3854.5	0.16787	0.054558	1.0049
3.968	19.207	-14148	3854.4	0.1669	0.053973	1.006
3.97	19.169	-14152	3854.3	0.16592	0.053387	1.007
3.972	19.154	-14155	3854.2	0.16494	0.052802	1.0081
3.974	19.17	-14158	3854.1	0.16397	0.052216	1.0092
3.976	19.292	-14161	3853.9	0.16241	0.051142	1.0091
3.978	19.263	-14159	3853.8	0.16084	0.050069	1.009
3.98	19.197	-14158	3853.6	0.15928	0.048995	1.0089
3.982	19.169	-14156	3853.4	0.15772	0.047922	1.0088
3.984	19.15	-14154	3853.2	0.15616	0.046848	1.0087
3.986	19.164	-14160	3853	0.15655	0.047922	1.0081
3.988	19.181	-14165	3852.7	0.15694	0.048995	1.0075
3.99	19.15	-14160	3852.6	0.15733	0.050069	1.0069
3.992	19.132	-14154	3852.6	0.15772	0.051142	1.0064
3.994	19.169	-14153	3852.5	0.15811	0.052216	1.0058
3.996	19.176	-14152	3852.6	0.15919	0.05163	1.0055
3.998	19.191	-14155	3852.8	0.16026	0.051045	1.0052
4	19.197	-14158	3853	0.16133	0.050459	1.0049
4.002	19.202	-14158	3853.2	0.16241	0.049874	1.0046
4.004	19.188	-14158	3853.5	0.16348	0.049288	1.0043
4.006	19.175	-14160	3853.8	0.1627	0.048995	1.0044
4.008	19.184	-14162	3854.1	0.16192	0.048702	1.0045
4.01	19.181	-14160	3854.4	0.16114	0.04841	1.0046
4.012	19.118	-14158	3854.7	0.16036	0.048117	1.0047
4.014	19.075	-14156	3855.1	0.15958	0.047824	1.0048
4.016	19.08	-14153	3855.3	0.16026	0.04841	1.0048
4.018	19.079	-14154	3855.6	0.16094	0.048995	1.0048
4.02	19.082	-14154	3855.8	0.16163	0.049581	1.0048
4.022	19.097	-14151	3856	0.16231	0.050166	1.0048
4.024	19.088	-14148	3856.3	0.16299	0.050752	1.0048
4.026	19.055	-14152	3856.4	0.16338	0.051435	1.0043
4.028	19.068	-14156	3856.6	0.16377	0.052118	1.0038
4.03	19.081	-14162	3856.7	0.16416	0.052802	1.0033
4.032	19.105	-14168	3856.8	0.16455	0.053485	1.0028
4.034	19.139	-14162	3856.9	0.16494	0.054168	1.0024
4.036	19.17	-14156	3856.8	0.16446	0.053582	1.0024
4.038	19.221	-14155	3856.7	0.16397	0.052997	1.0025
4.04	19.184	-14155	3856.6	0.16348	0.052411	1.0026
4.042	19.105	-14161	3856.4	0.16299	0.051826	1.0027
4.044	19.027	-14167	3856.2	0.1625	0.05124	1.0028
4.046	19.013	-14163	3856	0.1627	0.05085	1.0029
4.048	19.064	-14158	3855.8	0.16289	0.050459	1.003
4.05	19.086	-14157	3855.5	0.16309	0.050069	1.0031
4.052	19.103	-14157	3855.3	0.16328	0.049678	1.0032
4.054	19.127	-14155	3855.1	0.16348	0.049288	1.0033
4.056	19.128	-14153	3854.8	0.1628	0.049483	1.0023
4.058	19.082	-14154	3854.6	0.16211	0.049678	1.0012
4.06	19.085	-14155	3854.3	0.16143	0.049874	1.0001
4.062	19.147	-14152	3854.1	0.16075	0.050069	0.99903
4.064	19.169	-14150	3853.8	0.16006	0.050264	0.99796
4.066	19.146	-14149	3853.7	0.15938	0.049874	0.99816
4.068	19.202	-14149	3853.5	0.1587	0.049483	0.99835
4.07	19.171	-14152	3853.4	0.15801	0.049093	0.99855
4.072	19.147	-14154	3853.3	0.15733	0.048702	0.99874
4.074	19.15	-14154	3853.2	0.15665	0.048312	0.99894
4.076	19.198	-14154	3853.2	0.15616	0.048507	0.99816
4.078	19.153	-14160	3853.1	0.15567	0.048702	0.99737
4.08	19.145	-14165	3853.1	0.15518	0.048898	0.99659
4.082	19.192	-14164	3853	0.1547	0.049093	0.99581
4.084	19.229	-14163	3853	0.15421	0.049288	0.99503
4.086	19.268	-14161	3853	0.15401	0.050654	0.99415
4.088	19.25	-14159	3853	0.15382	0.052021	0.99328
4.09	19.188	-14161	3852.9	0.15362	0.053387	0.9924
4.092	19.203	-14162	3852.8	0.15343	0.054754	0.99152
4.094	19.226	-14162	3852.6	0.15323	0.05612	0.99064
4.096	19.227	-14162	3852.5	0.1544	0.054754	0.99103
4.098	19.222	-14165	3852.3	0.15557	0.053387	0.99142
4.1	19.182	-14169	3852.1	0.15675	0.052021	0.99181
4.102	19.2	-14166	3851.9	0.15792	0.050654	0.9922
4.104	19.248	-14163	3851.6	0.15909	0.049288	0.99259
4.106	19.211	-14164	3851.2	0.15919	0.049874	0.99425
4.108	19.213	-14164	3850.8	0.15928	0.050459	0.99591
4.11	19.278	-14160	3850.4	0.15938	0.051045	0.99757
4.112	19.256	-14156	3850.1	0.15948	0.05163	0.99923
4.114	19.187	-14157	3849.7	0.15958	0.052216	1.0009
4.116	19.195	-14158	3849.3	0.16006	0.052606	1.0004
4.118	19.225	-14156	3849	0.16055	0.052997	0.99991
4.12	19.217	-14154	3848.6	0.16104	0.053387	0.99942
4.122	19.217	-14154	3848.3	0.16153	0.053778	0.99894
4.124	19.221	-14154	3848	0.16202	0.054168	0.99845
4.126	19.207	-14152	3847.8	0.16163	0.054266	0.99894
4.128	19.192	-14150	3847.6	0.16124	0.054363	0.99942
4.13	19.194	-14151	3847.4	0.16084	0.054461	0.99991
4.132	19.22	-14152	3847.2	0.16045	0.054558	1.0004
4.134	19.241	-14155	3847.1	0.16006	0.054656	1.0009
4.136	19.223	-14157	3847	0.15919	0.053875	0.99933
4.138	19.264	-14158	3846.8	0.15831	0.053094	0.99776
4.14	19.168	-14158	3846.7	0.15743	0.052314	0.9962
4.142	19.181	-14157	3846.5	0.15655	0.051533	0.99464
4.144	19.252	-14155	3846.3	0.15567	0.050752	0.99308
4.146	19.233	-14158	3846.1	0.15538	0.051923	0.9923
4.148	19.135	-14161	3845.8	0.15509	0.053094	0.99152
4.15	19.198	-14158	3845.5	0.15479	0.054266	0.99074
4.152	19.187	-14154	3845	0.1545	0.055437	0.98996
4.154	19.216	-14160	3844.6	0.15421	0.056608	0.98918
4.156	19.242	-14165	3844.1	0.15479	0.055437	0.98918
4.158	19.301	-14166	3843.6	0.15538	0.054266	0.98918
4.16	19.342	-14167	3843.1	0.15596	0.053094	0.98918
4.162	19.26	-14163	3842.6	0.15655	0.051923	0.98918
4.164	19.13	-14159	3842.1	0.15714	0.050752	0.98918
4.166	19.106	-14158	3841.7	0.15684	0.051142	0.99074
4.168	19.142	-14156	3841.3	0.15655	0.051533	0.9923
4.17	19.171	-14157	3841	0.15626	0.051923	0.99386
4.172	19.166	-14157	3840.7	0.15596	0.052314	0.99542
4.174	19.143	-14159	3840.4	0.15567	0.052704	0.99698
4.176	19.158	-14160	3840.3	0.15557	0.053582	0.99611
4.178	19.224	-14159	3840.1	0.15548	0.054461	0.99523
4.18	19.208	-14158	3840	0.15538	0.055339	0.99435
4.182	19.155	-14158	3839.8	0.15528	0.056218	0.99347
4.184	19.153	-14158	3839.6	0.15518	0.057096	0.99259
4.186	19.183	-14160	3839.4	0.15626	0.056803	0.99396
4.188	19.194	-14162	3839.2	0.15733	0.05651	0.99532
4.19	19.169	-14162	3839	0.1584	0.056218	0.99669
4.192	19.14	-14163	3838.7	0.15948	0.055925	0.99806
4.194	19.129	-14165	3838.5	0.16055	0.055632	0.99942
4.196	19.135	-14167	3838.2	0.16153	0.055437	0.99942
4.198	19.071	-14176	3838	0.1625	0.055242	0.99942
4.2	18.973	-14185	3837.8	0.16348	0.055046	0.99942
4.202	18.96	-14181	3837.5	0.16446	0.054851	0.99942
4.204	18.961	-14176	3837.3	0.16543	0.054656	0.99942
4.206	18.89	-14179	3837	0.16641	0.054558	0.99962
4.208	18.798	-14181	3836.6	0.16738	0.054461	0.99981
4.21	18.762	-14177	3836.3	0.16836	0.054363	1
4.212	18.769	-14173	3836	0.16934	0.054266	1.0002
4.214	18.8	-14174	3835.6	0.17031	0.054168	1.0004
4.216	18.813	-14174	3835.4	0.16846	0.053875	1.0002
4.218	18.816	-14173	3835.2	0.1666	0.053582	1
4.22	18.793	-14172	3835	0.16475	0.05329	0.99981
4.222	18.788	-14176	3834.8	0.16289	0.052997	0.99962
4.224	18.777	-14179	3834.6	0.16104	0.052704	0.99942
4.226	18.768	-14177	3834.5	0.1625	0.053094	0.99942
4.228	18.763	-14175	3834.4	0.16397	0.053485	0.99942
4.23	18.737	-14174	3834.2	0.16543	0.053875	0.99942
4.232	18.639	-14173	3834.1	0.1669	0.054266	0.99942
4.234	18.634	-14172	3834	0.16836	0.054656	0.99942
4.236	18.647	-14171	3833.9	0.16748	0.05368	0.99962
4.238	18.649	-14169	3833.8	0.1666	0.052704	0.99981
4.24	18.628	-14167	3833.7	0.16572	0.051728	1
4.242	18.606	-14165	3833.6	0.16485	0.050752	1.0002
4.244	18.658	-14163	3833.5	0.16397	0.049776	1.0004
4.246	18.686	-14163	3833.3	0.16407	0.049874	1.0003
4.248	18.658	-14163	3833.2	0.16416	0.049971	1.0002
4.25	18.655	-14165	3833.1	0.16426	0.050069	1.0001
4.252	18.711	-14168	3832.9	0.16436	0.050166	1
4.254	18.743	-14169	3832.7	0.16446	0.050264	0.99991
4.256	18.838	-14171	3832.6	0.16436	0.050947	0.99991
4.258	18.938	-14171	3832.4	0.16426	0.05163	0.99991
4.26	18.978	-14171	3832.2	0.16416	0.052314	0.99991
4.262	18.94	-14170	3832	0.16407	0.052997	0.99991
4.264	18.931	-14170	3831.8	0.16397	0.05368	0.99991
4.266	18.97	-14169	3831.6	0.16465	0.05368	1.0003
4.268	19.024	-14168	3831.5	0.16533	0.05368	1.0007
4.27	19.042	-14168	3831.3	0.16602	0.05368	1.0011
4.272	19.09	-14168	3831.1	0.1667	0.05368	1.0015
4.274	19.183	-14167	3830.8	0.16738	0.05368	1.0019
4.276	19.2	-14167	3830.6	0.16651	0.05368	1.0029
4.278	19.176	-14175	3830.3	0.16563	0.05368	1.004
4.28	19.174	-14182	3830.2	0.16475	0.05368	1.0051
4.282	19.194	-14182	3830	0.16387	0.05368	1.0062
4.284	19.22	-14182	3829.9	0.16299	0.05368	1.0072
4.286	19.215	-14180	3829.8	0.16309	0.052997	1.0065
4.288	19.204	-14178	3829.7	0.16319	0.052314	1.0057
4.29	19.2	-14181	3829.6	0.16328	0.05163	1.0049
4.292	19.183	-14185	3829.5	0.16338	0.050947	1.0041
4.294	19.196	-14181	3829.4	0.16348	0.050264	1.0033
4.296	19.218	-14177	3829.3	0.16299	0.049288	1.0031
4.298	19.232	-14172	3829.3	0.1625	0.048312	1.0029
4.3	19.236	-14168	3829.2	0.16202	0.047336	1.0027
4.302	19.199	-14170	3829.2	0.16153	0.04636	1.0025
4.304	19.189	-14173	3829.2	0.16104	0.045384	1.0024
4.306	19.255	-14174	3829.1	0.15967	0.046165	1.002
4.308	19.27	-14175	3829.1	0.15831	0.046946	1.0016
4.31	19.245	-14177	3829.1	0.15694	0.047726	1.0012
4.312	19.233	-14179	3829.1	0.15557	0.048507	1.0008
4.314	19.236	-14177	3829.1	0.15421	0.049288	1.0004
4.316	19.232	-14174	3828.9	0.15421	0.04919	1
4.318	19.189	-14174	3828.8	0.15421	0.049093	0.99962
4.32	19.145	-14174	3828.7	0.15421	0.048995	0.99923
4.322	19.177	-14178	3828.5	0.15421	0.048898	0.99884
4.324	19.174	-14183	3828.3	0.15421	0.0488	0.99845
4.326	19.189	-14185	3828.2	0.15557	0.048214	0.99933
4.328	19.227	-14187	3828	0.15694	0.047629	1.0002
4.33	19.216	-14189	3827.9	0.15831	0.047043	1.0011
4.332	19.248	-14191	3827.7	0.15967	0.046458	1.002
4.334	19.338	-14192	3827.5	0.16104	0.045872	1.0028
4.336	19.311	-14193	3827.2	0.16143	0.046848	1.0032
4.338	19.205	-14186	3826.9	0.16182	0.047824	1.0036
4.34	19.184	-14179	3826.7	0.16221	0.0488	1.004
4.342	19.19	-14180	3826.5	0.1626	0.049776	1.0044
4.344	19.185	-14181	3826.3	0.16299	0.050752	1.0048
4.346	19.192	-14183	3826.2	0.16289	0.050654	1.0049
4.348	19.195	-14184	3826.1	0.1628	0.050557	1.005
4.35	19.184	-14185	3826	0.1627	0.050459	1.0051
4.352	19.21	-14185	3826	0.1626	0.050362	1.0052
4.354	19.225	-14185	3826	0.1625	0.050264	1.0053
4.356	19.188	-14185	3826	0.16055	0.050264	1.0038
4.358	19.172	-14185	3826	0.1586	0.050264	1.0024
4.36	19.18	-14185	3825.9	0.15665	0.050264	1.0009
4.362	19.143	-14186	3825.9	0.1547	0.050264	0.99942
4.364	19.105	-14188	3825.8	0.15274	0.050264	0.99796
4.366	19.151	-14189	3825.7	0.15206	0.050752	0.99659
4.368	19.217	-14189	3825.6	0.15138	0.05124	0.99523
4.37	19.226	-14190	3825.5	0.15069	0.051728	0.99386
4.372	19.208	-14190	3825.3	0.15001	0.052216	0.99249
4.374	19.184	-14189	3825.2	0.14933	0.052704	0.99113
4.376	19.134	-14188	3825	0.15108	0.051533	0.99103
4.378	19.121	-14193	3824.8	0.15284	0.050362	0.99093
4.38	19.141	-14197	3824.5	0.1546	0.04919	0.99084
4.382	19.131	-14198	3824.3	0.15636	0.048019	0.99074
4.384	19.107	-14198	3824	0.15811	0.046848	0.99064
4.386	19.146	-14191	3823.9	0.15665	0.047238	0.99162
4.388	19.203	-14184	3823.7	0.15518	0.047629	0.99259
4.39	19.144	-14185	3823.6	0.15372	0.048019	0.99357
4.392	19.124	-14185	3823.5	0.15226	0.04841	0.99454
4.394	19.189	-14189	3823.4	0.15079	0.0488	0.99552
4.396	19.217	-14193	3823.5	0.15206	0.04919	0.99679
4.398	19.215	-14192	3823.6	0.15333	0.049581	0.99806
4.4	19.223	-14192	3823.8	0.1546	0.049971	0.99933
4.402	19.169	-14193	3824	0.15587	0.050362	1.0006
4.404	19.167	-14194	3824.3	0.15714	0.050752	1.0019
4.406	19.138	-14196	3824.6	0.1586	0.050362	1.0016
4.408	19.101	-14198	3825	0.16006	0.049971	1.0013
4.41	19.024	-14195	3825.4	0.16153	0.049581	1.001
4.412	19.034	-14192	3826	0.16299	0.04919	1.0007
4.414	19.118	-14191	3826.5	0.16446	0.0488	1.0004
4.416	19.17	-14191	3827	0.16436	0.048898	1.0006
4.418	19.172	-14191	3827.6	0.16426	0.048995	1.0008
4.42	19.234	-14192	3828.1	0.16416	0.049093	1.001
4.422	19.276	-14189	3828.7	0.16407	0.04919	1.0012
4.424	19.217	-14187	3829.3	0.16397	0.049288	1.0014
4.426	19.139	-14186	3830	0.16358	0.049483	1.0011
4.428	19.143	-14186	3830.7	0.16319	0.049678	1.0008
4.43	19.196	-14188	3831.4	0.1628	0.049874	1.0005
4.432	19.153	-14189	3832.1	0.16241	0.050069	1.0002
4.434	19.165	-14187	3832.8	0.16202	0.050264	0.99991
4.436	19.243	-14184	3833.7	0.16348	0.050654	1.0001
4.438	19.255	-14186	3834.5	0.16494	0.051045	1.0003
4.44	19.212	-14188	3835.3	0.16641	0.051435	1.0005
4.442	19.174	-14194	3836.2	0.16787	0.051826	1.0007
4.444	19.184	-14201	3837	0.16934	0.052216	1.0009
4.446	19.226	-14200	3837.9	0.16797	0.051435	1.0005
4.448	19.213	-14199	3838.8	0.1666	0.050654	1.0001
4.45	19.149	-14207	3839.7	0.16524	0.049874	0.99972
4.452	19.146	-14214	3840.7	0.16387	0.049093	0.99933
4.454	19.196	-14208	3841.6	0.1625	0.048312	0.99894
4.456	19.227	-14202	3842.7	0.16153	0.047434	0.99825
4.458	19.202	-14197	3843.7	0.16055	0.046555	0.99757
4.46	19.107	-14192	3844.7	0.15958	0.045677	0.99689
4.462	19.1	-14192	3845.6	0.1586	0.044798	0.9962
4.464	19.138	-14191	3846.6	0.15762	0.04392	0.99552
4.466	19.125	-14192	3847.6	0.1586	0.04431	0.9962
4.468	19.079	-14192	3848.6	0.15958	0.044701	0.99689
4.47	19.095	-14199	3849.6	0.16055	0.045091	0.99757
4.472	19.077	-14205	3850.6	0.16153	0.045482	0.99825
4.474	19.004	-14201	3851.6	0.1625	0.045872	0.99894
4.476	19.019	-14197	3852.5	0.16348	0.047141	1.0005
4.478	19.154	-14200	3853.4	0.16446	0.04841	1.0021
4.48	19.187	-14202	3854.3	0.16543	0.049678	1.0036
4.482	19.126	-14196	3855.2	0.16641	0.050947	1.0052
4.484	19.124	-14189	3856.1	0.16738	0.052216	1.0067
4.486	19.136	-14193	3856.8	0.16651	0.05124	1.0067
4.488	19.133	-14196	3857.6	0.16563	0.050264	1.0067
4.49	19.164	-14201	3858.3	0.16475	0.049288	1.0067
4.492	19.081	-14206	3859	0.16387	0.048312	1.0067
4.494	19.032	-14202	3859.6	0.16299	0.047336	1.0067
4.496	19.024	-14197	3860.2	0.16289	0.046848	1.0064
4.498	19.072	-14196	3860.8	0.1628	0.04636	1.006
4.5	19.157	-14195	3861.3	0.1627	0.045872	1.0056
4.502	19.198	-14194	3861.8	0.1626	0.045384	1.0052
4.504	19.142	-14193	3862.3	0.1625	0.044896	1.0048
4.506	19.056	-14196	3862.7	0.16348	0.04675	1.0045
4.508	19.056	-14199	3863.2	0.16446	0.048605	1.0042
4.51	19.128	-14201	3863.6	0.16543	0.050459	1.0039
4.512	19.141	-14202	3863.9	0.16641	0.052314	1.0036
4.514	19.127	-14197	3864.3	0.16738	0.054168	1.0033
4.516	19.132	-14192	3864.7	0.16436	0.052802	1.002
4.518	19.142	-14191	3865	0.16133	0.051435	1.0006
4.52	19.161	-14191	3865.4	0.15831	0.050069	0.99923
4.522	19.143	-14187	3865.6	0.15528	0.048702	0.99786
4.524	19.111	-14184	3865.9	0.15226	0.047336	0.9965
4.526	19.146	-14189	3866.2	0.15313	0.046848	0.99718
4.528	19.194	-14195	3866.4	0.15401	0.04636	0.99786
4.53	19.171	-14196	3866.6	0.15489	0.045872	0.99855
4.532	19.146	-14197	3866.9	0.15577	0.045384	0.99923
4.534	19.154	-14193	3867.1	0.15665	0.044896	0.99991
4.536	19.169	-14190	3867.4	0.15704	0.045091	0.99991
4.538	19.162	-14193	3867.7	0.15743	0.045286	0.99991
4.54	19.098	-14195	3867.9	0.15782	0.045482	0.99991
4.542	19.103	-14189	3868.1	0.15821	0.045677	0.99991
4.544	19.136	-14184	3868.2	0.1586	0.045872	0.99991
4.546	19.163	-14181	3868.4	0.1585	0.046458	1.0005
4.548	19.199	-14179	3868.6	0.1584	0.047043	1.0011
4.55	19.254	-14183	3868.8	0.15831	0.047629	1.0017
4.552	19.254	-14187	3868.9	0.15821	0.048214	1.0023
4.554	19.186	-14192	3869	0.15811	0.0488	1.0028
4.556	19.171	-14197	3869	0.15958	0.048995	1.003
4.558	19.164	-14197	3869.1	0.16104	0.04919	1.0032
4.56	19.171	-14196	3869.1	0.1625	0.049386	1.0034
4.562	19.209	-14193	3869.1	0.16397	0.049581	1.0036
4.564	19.201	-14190	3869	0.16543	0.049776	1.0038
4.566	19.106	-14190	3868.9	0.16387	0.04919	1.0032
4.568	19.11	-14190	3868.8	0.16231	0.048605	1.0026
4.57	19.121	-14192	3868.5	0.16075	0.048019	1.0021
4.572	19.132	-14194	3868.2	0.15919	0.047434	1.0015
4.574	19.202	-14184	3868	0.15762	0.046848	1.0009
4.576	19.216	-14174	3867.5	0.15626	0.048312	0.99991
4.578	19.185	-14172	3867.1	0.15489	0.049776	0.99894
4.58	19.178	-14171	3866.6	0.15352	0.05124	0.99796
4.582	19.185	-14179	3866	0.15216	0.052704	0.99698
4.584	19.155	-14187	3865.4	0.15079	0.054168	0.99601
4.586	19.177	-14183	3864.8	0.15138	0.05407	0.99659
4.588	19.21	-14180	3864.2	0.15196	0.053973	0.99718
4.59	19.164	-14179	3863.5	0.15255	0.053875	0.99776
4.592	19.218	-14177	3862.9	0.15313	0.053778	0.99835
4.594	19.207	-14179	3862.2	0.15372	0.05368	0.99894
4.596	19.166	-14180	3861.6	0.15557	0.052997	0.99991
4.598	19.161	-14176	3861	0.15743	0.052314	1.0009
4.6	19.143	-14172	3860.5	0.15928	0.05163	1.0019
4.602	19.116	-14173	3860	0.16114	0.050947	1.0028
4.604	19.142	-14173	3859.5	0.16299	0.050264	1.0038
4.606	19.183	-14175	3859.1	0.16289	0.050069	1.003
4.608	19.186	-14177	3858.7	0.1628	0.049874	1.0023
4.61	19.171	-14173	3858.3	0.1627	0.049678	1.0015
4.612	19.159	-14169	3858	0.1626	0.049483	1.0007
4.614	19.17	-14170	3857.6	0.1625	0.049288	0.99991
4.616	19.276	-14170	3857.3	0.16133	0.04919	0.99952
4.618	19.359	-14169	3856.9	0.16016	0.049093	0.99913
4.62	19.278	-14168	3856.5	0.15899	0.048995	0.99874
4.622	19.185	-14170	3856.1	0.15782	0.048898	0.99835
4.624	19.136	-14172	3855.8	0.15665	0.0488	0.99796
4.626	19.098	-14167	3855.4	0.15694	0.048312	0.99757
4.628	19.122	-14162	3855	0.15723	0.047824	0.99718
4.63	19.153	-14162	3854.6	0.15753	0.047336	0.99679
4.632	19.182	-14162	3854.2	0.15782	0.046848	0.9964
4.634	19.167	-14171	3853.8	0.15811	0.04636	0.99601
4.636	19.155	-14180	3853.4	0.15909	0.047141	0.99698
4.638	19.132	-14178	3853	0.16006	0.047922	0.99796
4.64	19.114	-14177	3852.7	0.16104	0.048702	0.99894
4.642	19.187	-14176	3852.4	0.16202	0.049483	0.99991
4.644	19.236	-14175	3852	0.16299	0.050264	1.0009
4.646	19.201	-14173	3851.8	0.16299	0.051142	1.0006
4.648	19.169	-14171	3851.5	0.16299	0.052021	1.0003
4.65	19.199	-14172	3851.3	0.16299	0.052899	1
4.652	19.224	-14172	3851.1	0.16299	0.053778	0.99972
4.654	19.166	-14166	3850.9	0.16299	0.054656	0.99942
4.656	19.091	-14160	3850.7	0.1627	0.05407	0.99942
4.658	19.093	-14165	3850.6	0.16241	0.053485	0.99942
4.66	19.1	-14170	3850.4	0.16211	0.052899	0.99942
4.662	19.146	-14168	3850.3	0.16182	0.052314	0.99942
4.664	19.196	-14167	3850.2	0.16153	0.051728	0.99942
4.666	19.203	-14171	3850.1	0.16084	0.05124	0.99923
4.668	19.194	-14175	3850	0.16016	0.050752	0.99903
4.67	19.237	-14175	3849.9	0.15948	0.050264	0.99884
4.672	19.258	-14174	3849.8	0.1588	0.049776	0.99864
4.674	19.198	-14175	3849.7	0.15811	0.049288	0.99845
4.676	19.222	-14176	3849.5	0.15919	0.048702	0.99757
4.678	19.255	-14172	3849.3	0.16026	0.048117	0.99669
4.68	19.243	-14169	3849.1	0.16133	0.047531	0.99581
4.682	19.223	-14170	3848.8	0.16241	0.046946	0.99493
4.684	19.189	-14172	3848.6	0.16348	0.04636	0.99406
4.686	19.178	-14169	3848.3	0.1628	0.046458	0.99435
4.688	19.146	-14166	3848	0.16211	0.046555	0.99464
4.69	19.125	-14173	3847.8	0.16143	0.046653	0.99493
4.692	19.127	-14181	3847.5	0.16075	0.04675	0.99523
4.694	19.152	-14171	3847.3	0.16006	0.046848	0.99552
4.696	19.193	-14161	3847.1	0.15977	0.046848	0.99591
4.698	19.184	-14164	3846.9	0.15948	0.046848	0.9963
4.7	19.151	-14166	3846.8	0.15919	0.046848	0.99669
4.702	19.147	-14169	3846.7	0.15889	0.046848	0.99708
4.704	19.146	-14172	3846.6	0.1586	0.046848	0.99747
4.706	19.143	-14171	3846.5	0.15938	0.048019	0.99845
4.708	19.127	-14170	3846.4	0.16016	0.04919	0.99942
4.71	19.101	-14173	3846.3	0.16094	0.050362	1.0004
4.712	19.091	-14176	3846.2	0.16172	0.051533	1.0014
4.714	19.107	-14174	3846.1	0.1625	0.052704	1.0024
4.716	19.15	-14171	3846.1	0.16202	0.052802	1.002
4.718	19.209	-14170	3846	0.16153	0.052899	1.0016
4.72	19.231	-14168	3846	0.16104	0.052997	1.0012
4.722	19.202	-14169	3846.1	0.16055	0.053094	1.0008
4.724	19.165	-14170	3846.2	0.16006	0.053192	1.0004
4.726	19.134	-14173	3846.2	0.15987	0.052704	1.0003
4.728	19.12	-14176	3846.3	0.15967	0.052216	1.0002
4.73	19.094	-14174	3846.3	0.15948	0.051728	1.0001
4.732	19.081	-14172	3846.4	0.15928	0.05124	1
4.734	18.992	-14168	3846.4	0.15909	0.050752	0.99991
4.736	19.021	-14164	3846.4	0.15997	0.050947	1.0009
4.738	19.021	-14164	3846.4	0.16084	0.051142	1.0019
