t	ekg	optical	pressure	accel_x	accel_y	accel_z
0	95.622	-22202	2586	-0.72761	0.49142	0.49337
0.002	95.622	-22208	2586	-0.72741	0.49093	0.49464
0.004	95.631	-22213	2586	-0.72722	0.49044	0.49591
0.006	95.631	-22209	2586	-0.72702	0.48995	0.49717
0.008	95.619	-22205	2585.9	-0.72683	0.48946	0.49844
0.01	95.618	-22211	2585.9	-0.72663	0.48898	0.49971
0.012	95.618	-22217	2585.8	-0.72712	0.48888	0.49961
0.014	95.619	-22218	2585.8	-0.72761	0.48878	0.49952
0.016	95.625	-22218	2585.7	-0.7281	0.48868	0.49942
0.018	95.619	-22216	2585.7	-0.72858	0.48859	0.49932
0.02	95.609	-22214	2585.6	-0.72907	0.48849	0.49922
0.022	95.603	-22214	2585.5	-0.7281	0.48907	0.49874
0.024	95.61	-22214	2585.5	-0.72712	0.48966	0.49825
0.026	95.622	-22215	2585.4	-0.72614	0.49024	0.49776
0.028	95.626	-22216	2585.2	-0.72517	0.49083	0.49727
0.03	95.614	-22214	2585.1	-0.72419	0.49142	0.49678
0.032	95.603	-22212	2585	-0.72419	0.49112	0.49649
0.034	95.607	-22213	2584.9	-0.72419	0.49083	0.4962
0.036	95.607	-22214	2584.8	-0.72419	0.49054	0.49591
0.038	95.594	-22212	2584.8	-0.72419	0.49024	0.49561
0.04	95.59	-22210	2584.8	-0.72419	0.48995	0.49532
0.042	95.587	-22209	2584.8	-0.72566	0.48966	0.49532
0.044	95.581	-22208	2584.8	-0.72712	0.48937	0.49532
0.046	95.579	-22212	2584.8	-0.72858	0.48907	0.49532
0.048	95.59	-22217	2584.8	-0.73005	0.48878	0.49532
0.05	95.597	-22217	2584.8	-0.73151	0.48849	0.49532
0.052	95.593	-22216	2585	-0.73093	0.48839	0.496
0.054	95.588	-22215	2585.2	-0.73034	0.48829	0.49669
0.056	95.589	-22214	2585.5	-0.72976	0.4882	0.49737
0.058	95.596	-22215	2586	-0.72917	0.4881	0.49805
0.06	95.601	-22216	2586.4	-0.72858	0.488	0.49874
0.062	95.601	-22219	2587	-0.72849	0.4881	0.49796
0.064	95.6	-22222	2587.6	-0.72839	0.4882	0.49717
0.066	95.596	-22224	2588.4	-0.72829	0.48829	0.49639
0.068	95.594	-22226	2589.2	-0.72819	0.48839	0.49561
0.07	95.598	-22220	2590	-0.7281	0.48849	0.49483
0.072	95.605	-22214	2590.9	-0.72849	0.48888	0.49444
0.074	95.604	-22217	2591.9	-0.72888	0.48927	0.49405
0.076	95.602	-22221	2593	-0.72927	0.48966	0.49366
0.078	95.599	-22219	2594.1	-0.72966	0.49005	0.49327
0.08	95.591	-22217	2595.2	-0.73005	0.49044	0.49288
0.082	95.594	-22221	2596.5	-0.73073	0.49064	0.49356
0.084	95.606	-22224	2597.7	-0.73141	0.49083	0.49425
0.086	95.61	-22223	2599.1	-0.7321	0.49103	0.49493
0.088	95.596	-22222	2600.4	-0.73278	0.49122	0.49561
0.09	95.594	-22226	2601.8	-0.73346	0.49142	0.4963
0.092	95.603	-22230	2603.1	-0.73229	0.49171	0.49512
0.094	95.611	-22224	2604.4	-0.73112	0.492	0.49395
0.096	95.604	-22218	2605.7	-0.72995	0.49229	0.49278
0.098	95.604	-22218	2606.9	-0.72878	0.49259	0.49161
0.1	95.608	-22217	2608.2	-0.72761	0.49288	0.49044
0.102	95.603	-22218	2609.3	-0.72634	0.49376	0.49015
0.104	95.605	-22218	2610.5	-0.72507	0.49464	0.48985
0.106	95.621	-22214	2611.7	-0.7238	0.49552	0.48956
0.108	95.62	-22211	2612.8	-0.72253	0.49639	0.48927
0.11	95.607	-22211	2614	-0.72126	0.49727	0.48898
0.112	95.619	-22210	2615.2	-0.72107	0.49698	0.48878
0.114	95.621	-22207	2616.3	-0.72087	0.49669	0.48859
0.116	95.608	-22203	2617.4	-0.72068	0.49639	0.48839
0.118	95.596	-22198	2618.3	-0.72048	0.4961	0.4882
0.12	95.584	-22193	2619.2	-0.72029	0.49581	0.488
0.122	95.579	-22190	2620.1	-0.72048	0.49522	0.48702
0.124	95.582	-22187	2620.9	-0.72068	0.49464	0.48605
0.126	95.595	-22190	2621.7	-0.72087	0.49405	0.48507
0.128	95.589	-22192	2622.3	-0.72107	0.49347	0.4841
0.13	95.57	-22182	2622.9	-0.72126	0.49288	0.48312
0.132	95.564	-22172	2623.5	-0.72185	0.49347	0.48332
0.134	95.563	-22173	2624	-0.72244	0.49405	0.48351
0.136	95.557	-22175	2624.5	-0.72302	0.49464	0.48371
0.138	95.553	-22173	2624.8	-0.72361	0.49522	0.4839
0.14	95.551	-22172	2625.2	-0.72419	0.49581	0.4841
0.142	95.548	-22171	2625.4	-0.72468	0.49444	0.48439
0.144	95.538	-22170	2625.6	-0.72517	0.49308	0.48468
0.146	95.526	-22167	2625.8	-0.72566	0.49171	0.48497
0.148	95.515	-22163	2625.9	-0.72614	0.49034	0.48527
0.15	95.509	-22155	2626.1	-0.72663	0.48898	0.48556
0.152	95.511	-22147	2626.2	-0.72507	0.4881	0.48654
0.154	95.509	-22140	2626.3	-0.72351	0.48722	0.48751
0.156	95.503	-22133	2626.3	-0.72195	0.48634	0.48849
0.158	95.492	-22135	2626.3	-0.72039	0.48546	0.48946
0.16	95.487	-22137	2626.2	-0.71882	0.48458	0.49044
0.162	95.494	-22133	2626.2	-0.71873	0.48517	0.49044
0.164	95.491	-22130	2626.1	-0.71863	0.48576	0.49044
0.166	95.484	-22125	2626	-0.71853	0.48634	0.49044
0.168	95.497	-22119	2626	-0.71843	0.48693	0.49044
0.17	95.502	-22119	2625.9	-0.71834	0.48751	0.49044
0.172	95.503	-22120	2625.9	-0.71912	0.488	0.48966
0.174	95.505	-22115	2625.8	-0.7199	0.48849	0.48888
0.176	95.51	-22111	2625.7	-0.72068	0.48898	0.4881
0.178	95.509	-22105	2625.6	-0.72146	0.48946	0.48732
0.18	95.515	-22099	2625.5	-0.72224	0.48995	0.48654
0.182	95.526	-22096	2625.4	-0.72292	0.48966	0.48663
0.184	95.527	-22093	2625.3	-0.72361	0.48937	0.48673
0.186	95.519	-22092	2625.1	-0.72429	0.48907	0.48683
0.188	95.528	-22091	2624.8	-0.72497	0.48878	0.48693
0.19	95.54	-22092	2624.6	-0.72566	0.48849	0.48702
0.192	95.546	-22093	2624.2	-0.72527	0.48907	0.48702
0.194	95.546	-22085	2623.9	-0.72488	0.48966	0.48702
0.196	95.55	-22076	2623.6	-0.72448	0.49024	0.48702
0.198	95.557	-22079	2623.2	-0.72409	0.49083	0.48702
0.2	95.559	-22081	2622.9	-0.7237	0.49142	0.48702
0.202	95.558	-22076	2622.4	-0.72341	0.49073	0.48722
0.204	95.564	-22070	2622	-0.72312	0.49005	0.48741
0.206	95.573	-22069	2621.5	-0.72283	0.48937	0.48761
0.208	95.576	-22068	2621	-0.72253	0.48868	0.4878
0.21	95.569	-22064	2620.4	-0.72224	0.488	0.488
0.212	95.572	-22060	2619.9	-0.72273	0.4882	0.4881
0.214	95.581	-22062	2619.3	-0.72322	0.48839	0.4882
0.216	95.58	-22065	2618.8	-0.7237	0.48859	0.48829
0.218	95.575	-22065	2618.4	-0.72419	0.48878	0.48839
0.22	95.572	-22065	2617.9	-0.72468	0.48898	0.48849
0.222	95.575	-22062	2617.4	-0.72429	0.48937	0.48839
0.224	95.581	-22058	2617	-0.7239	0.48976	0.48829
0.226	95.582	-22058	2616.4	-0.72351	0.49015	0.4882
0.228	95.578	-22057	2615.9	-0.72312	0.49054	0.4881
0.23	95.581	-22059	2615.3	-0.72273	0.49093	0.488
0.232	95.586	-22061	2614.6	-0.72244	0.49122	0.4881
0.234	95.578	-22058	2614	-0.72214	0.49151	0.4882
0.236	95.563	-22056	2613.3	-0.72185	0.49181	0.48829
0.238	95.559	-22054	2612.5	-0.72156	0.4921	0.48839
0.24	95.566	-22052	2611.8	-0.72126	0.49239	0.48849
0.242	95.578	-22054	2611	-0.72146	0.49288	0.4879
0.244	95.578	-22057	2610.3	-0.72165	0.49337	0.48732
0.246	95.567	-22054	2609.5	-0.72185	0.49386	0.48673
0.248	95.566	-22052	2608.8	-0.72204	0.49434	0.48615
0.25	95.57	-22049	2608	-0.72224	0.49483	0.48556
0.252	95.58	-22046	2607.2	-0.72185	0.49512	0.48566
0.254	95.592	-22045	2606.4	-0.72146	0.49542	0.48576
0.256	95.586	-22043	2605.7	-0.72107	0.49571	0.48585
0.258	95.576	-22049	2604.9	-0.72068	0.496	0.48595
0.26	95.574	-22055	2604.2	-0.72029	0.4963	0.48605
0.262	95.575	-22055	2603.5	-0.72175	0.49708	0.4879
0.264	95.572	-22055	2602.8	-0.72322	0.49786	0.48976
0.266	95.572	-22059	2602.2	-0.72468	0.49864	0.49161
0.268	95.575	-22062	2601.6	-0.72614	0.49942	0.49347
0.27	95.589	-22062	2600.9	-0.72761	0.5002	0.49532
0.272	95.591	-22061	2600.3	-0.72771	0.49981	0.49493
0.274	95.584	-22064	2599.7	-0.7278	0.49942	0.49454
0.276	95.587	-22066	2599.1	-0.7279	0.49903	0.49415
0.278	95.592	-22067	2598.5	-0.728	0.49864	0.49376
0.28	95.59	-22068	2597.9	-0.7281	0.49825	0.49337
0.282	95.586	-22065	2597.4	-0.72751	0.49854	0.49337
0.284	95.585	-22062	2596.9	-0.72692	0.49883	0.49337
0.286	95.587	-22060	2596.4	-0.72634	0.49913	0.49337
0.288	95.588	-22059	2596	-0.72575	0.49942	0.49337
0.29	95.578	-22064	2595.5	-0.72517	0.49971	0.49337
0.292	95.576	-22070	2595.1	-0.72507	0.49971	0.49376
0.294	95.582	-22071	2594.7	-0.72497	0.49971	0.49415
0.296	95.586	-22073	2594.4	-0.72488	0.49971	0.49454
0.298	95.591	-22074	2594.2	-0.72478	0.49971	0.49493
0.3	95.584	-22076	2594	-0.72468	0.49971	0.49532
0.302	95.575	-22077	2593.8	-0.72361	0.49903	0.49395
0.304	95.573	-22078	2593.7	-0.72253	0.49835	0.49259
0.306	95.567	-22080	2593.6	-0.72146	0.49766	0.49122
0.308	95.559	-22083	2593.4	-0.72039	0.49698	0.48985
0.31	95.56	-22082	2593.3	-0.71931	0.4963	0.48849
0.312	95.569	-22080	2593.3	-0.72	0.49581	0.48917
0.314	95.58	-22078	2593.3	-0.72068	0.49532	0.48985
0.316	95.587	-22075	2593.2	-0.72136	0.49483	0.49054
0.318	95.585	-22076	2593.2	-0.72204	0.49434	0.49122
0.32	95.583	-22078	2593.2	-0.72273	0.49386	0.4919
0.322	95.585	-22082	2593.2	-0.72224	0.49288	0.49229
0.324	95.589	-22086	2593.2	-0.72175	0.4919	0.49268
0.326	95.589	-22085	2593.2	-0.72126	0.49093	0.49308
0.328	95.588	-22084	2593.1	-0.72078	0.48995	0.49347
0.33	95.593	-22085	2593.1	-0.72029	0.48898	0.49386
0.332	95.584	-22086	2593.1	-0.72009	0.48995	0.49268
0.334	95.57	-22086	2593.1	-0.7199	0.49093	0.49151
0.336	95.568	-22087	2593	-0.7197	0.4919	0.49034
0.338	95.574	-22091	2593	-0.71951	0.49288	0.48917
0.34	95.581	-22096	2592.9	-0.71931	0.49386	0.488
0.342	95.587	-22092	2592.9	-0.72029	0.49337	0.48898
0.344	95.591	-22089	2592.9	-0.72126	0.49288	0.48995
0.346	95.587	-22093	2592.9	-0.72224	0.49239	0.49093
0.348	95.58	-22097	2592.9	-0.72322	0.4919	0.4919
0.35	95.58	-22095	2592.9	-0.72419	0.49142	0.49288
0.352	95.588	-22093	2593	-0.7238	0.49122	0.49268
0.354	95.586	-22094	2593	-0.72341	0.49103	0.49249
0.356	95.594	-22096	2593.1	-0.72302	0.49083	0.49229
0.358	95.599	-22098	2593.1	-0.72263	0.49064	0.4921
0.36	95.604	-22100	2593.2	-0.72224	0.49044	0.4919
0.362	95.592	-22104	2593.3	-0.72224	0.49112	0.4922
0.364	95.571	-22108	2593.3	-0.72224	0.49181	0.49249
0.366	95.575	-22109	2593.4	-0.72224	0.49249	0.49278
0.368	95.58	-22110	2593.6	-0.72224	0.49317	0.49308
0.37	95.588	-22105	2593.8	-0.72224	0.49386	0.49337
0.372	95.586	-22100	2594.1	-0.72273	0.49327	0.49386
0.374	95.588	-22103	2594.4	-0.72322	0.49268	0.49434
0.376	95.594	-22106	2594.7	-0.7237	0.4921	0.49483
0.378	95.594	-22111	2594.9	-0.72419	0.49151	0.49532
0.38	95.595	-22115	2595.1	-0.72468	0.49093	0.49581
0.382	95.599	-22114	2595.4	-0.72507	0.48966	0.4963
0.384	95.596	-22114	2595.6	-0.72546	0.48839	0.49678
0.386	95.59	-22111	2595.8	-0.72585	0.48712	0.49727
0.388	95.585	-22109	2596	-0.72624	0.48585	0.49776
0.39	95.58	-22105	2596.2	-0.72663	0.48458	0.49825
0.392	95.579	-22102	2596.4	-0.72751	0.4841	0.49747
0.394	95.575	-22104	2596.6	-0.72839	0.48361	0.49669
0.396	95.572	-22107	2596.7	-0.72927	0.48312	0.49591
0.398	95.575	-22112	2596.9	-0.73015	0.48263	0.49512
0.4	95.572	-22117	2597	-0.73102	0.48214	0.49434
0.402	95.561	-22115	2597.2	-0.72995	0.48322	0.49405
0.404	95.555	-22114	2597.3	-0.72888	0.48429	0.49376
0.406	95.557	-22112	2597.5	-0.7278	0.48536	0.49347
0.408	95.561	-22110	2597.6	-0.72673	0.48644	0.49317
0.41	95.567	-22111	2597.7	-0.72566	0.48751	0.49288
0.412	95.569	-22113	2597.7	-0.72556	0.48712	0.49268
0.414	95.566	-22116	2597.8	-0.72546	0.48673	0.49249
0.416	95.56	-22119	2597.8	-0.72536	0.48634	0.49229
0.418	95.545	-22121	2597.8	-0.72527	0.48595	0.4921
0.42	95.53	-22122	2597.8	-0.72517	0.48556	0.4919
0.422	95.511	-22118	2597.7	-0.72556	0.48497	0.49112
0.424	95.486	-22113	2597.7	-0.72595	0.48439	0.49034
0.426	95.479	-22117	2597.7	-0.72634	0.4838	0.48956
0.428	95.486	-22122	2597.6	-0.72673	0.48322	0.48878
0.43	95.488	-22123	2597.5	-0.72712	0.48263	0.488
0.432	95.493	-22124	2597.4	-0.72683	0.48292	0.48839
0.434	95.502	-22121	2597.3	-0.72653	0.48322	0.48878
0.436	95.494	-22119	2597.1	-0.72624	0.48351	0.48917
0.438	95.494	-22119	2596.9	-0.72595	0.4838	0.48956
0.44	95.501	-22119	2596.7	-0.72566	0.4841	0.48995
0.442	95.495	-22121	2596.5	-0.72468	0.48507	0.49024
0.444	95.486	-22122	2596.3	-0.7237	0.48605	0.49054
0.446	95.484	-22122	2596.1	-0.72273	0.48702	0.49083
0.448	95.495	-22122	2595.8	-0.72175	0.488	0.49112
0.45	95.498	-22122	2595.5	-0.72078	0.48898	0.49142
0.452	95.485	-22121	2595.2	-0.72156	0.48859	0.49122
0.454	95.479	-22123	2594.8	-0.72234	0.4882	0.49103
0.456	95.496	-22125	2594.6	-0.72312	0.4878	0.49083
0.458	95.507	-22126	2594.5	-0.7239	0.48741	0.49064
0.46	95.506	-22127	2594.5	-0.72468	0.48702	0.49044
0.462	95.501	-22130	2594.4	-0.72409	0.48771	0.49044
0.464	95.516	-22132	2594.4	-0.72351	0.48839	0.49044
0.466	95.537	-22133	2594.2	-0.72292	0.48907	0.49044
0.468	95.552	-22134	2594	-0.72234	0.48976	0.49044
0.47	95.57	-22129	2593.9	-0.72175	0.49044	0.49044
0.472	95.593	-22125	2593.7	-0.72312	0.48839	0.49005
0.474	95.611	-22122	2593.6	-0.72448	0.48634	0.48966
0.476	95.619	-22120	2593.4	-0.72585	0.48429	0.48927
0.478	95.611	-22120	2593.3	-0.72722	0.48224	0.48888
0.48	95.604	-22120	2593.3	-0.72858	0.48019	0.48849
0.482	95.606	-22121	2593.2	-0.72683	0.48205	0.48888
0.484	95.604	-22122	2593.1	-0.72507	0.4839	0.48927
0.486	95.602	-22122	2592.9	-0.72331	0.48576	0.48966
0.488	95.606	-22121	2592.8	-0.72156	0.48761	0.49005
0.49	95.607	-22124	2592.7	-0.7198	0.48946	0.49044
0.492	95.606	-22127	2592.5	-0.72029	0.48956	0.49083
0.494	95.611	-22125	2592.4	-0.72078	0.48966	0.49122
0.496	95.615	-22123	2592.3	-0.72126	0.48976	0.49161
0.498	95.622	-22122	2592.2	-0.72175	0.48985	0.492
0.5	95.628	-22122	2592	-0.72224	0.48995	0.49239
0.502	95.62	-22125	2591.9	-0.72165	0.49054	0.492
0.504	95.608	-22127	2591.7	-0.72107	0.49112	0.49161
0.506	95.61	-22124	2591.5	-0.72048	0.49171	0.49122
0.508	95.61	-22121	2591.4	-0.7199	0.49229	0.49083
0.51	95.608	-22121	2591.2	-0.71931	0.49288	0.49044
0.512	95.612	-22122	2591	-0.7196	0.49249	0.49054
0.514	95.633	-22124	2590.7	-0.7199	0.4921	0.49064
0.516	95.646	-22126	2590.5	-0.72019	0.49171	0.49073
0.518	95.648	-22127	2590.4	-0.72048	0.49132	0.49083
0.52	95.629	-22127	2590.2	-0.72078	0.49093	0.49093
0.522	95.625	-22126	2590.1	-0.72058	0.49122	0.49024
0.524	95.638	-22124	2589.9	-0.72039	0.49151	0.48956
0.526	95.645	-22124	2589.7	-0.72019	0.49181	0.48888
0.528	95.639	-22124	2589.6	-0.72	0.4921	0.4882
0.53	95.633	-22129	2589.5	-0.7198	0.49239	0.48751
0.532	95.626	-22133	2589.5	-0.72009	0.49249	0.48732
0.534	95.628	-22131	2589.5	-0.72039	0.49259	0.48712
0.536	95.633	-22130	2589.6	-0.72068	0.49268	0.48693
0.538	95.648	-22128	2589.8	-0.72097	0.49278	0.48673
0.54	95.633	-22126	2590	-0.72126	0.49288	0.48654
0.542	95.616	-22132	2590.1	-0.72156	0.49249	0.48751
0.544	95.612	-22138	2590.2	-0.72185	0.4921	0.48849
0.546	95.619	-22134	2590.3	-0.72214	0.49171	0.48946
0.548	95.623	-22131	2590.4	-0.72244	0.49132	0.49044
0.55	95.62	-22126	2590.4	-0.72273	0.49093	0.49142
0.552	95.624	-22122	2590.5	-0.72204	0.49024	0.49151
0.554	95.625	-22126	2590.6	-0.72136	0.48956	0.49161
0.556	95.619	-22130	2590.6	-0.72068	0.48888	0.49171
0.558	95.615	-22130	2590.6	-0.72	0.4882	0.49181
0.56	95.618	-22130	2590.6	-0.71931	0.48751	0.4919
0.562	95.622	-22128	2590.5	-0.72029	0.4879	0.4921
0.564	95.622	-22126	2590.4	-0.72126	0.48829	0.49229
0.566	95.611	-22126	2590.3	-0.72224	0.48868	0.49249
0.568	95.586	-22126	2590.3	-0.72322	0.48907	0.49268
0.57	95.568	-22125	2590.2	-0.72419	0.48946	0.49288
0.572	95.566	-22123	2590.1	-0.72351	0.49054	0.492
0.574	95.565	-22122	2589.9	-0.72283	0.49161	0.49112
0.576	95.564	-22121	2589.8	-0.72214	0.49268	0.49024
0.578	95.562	-22123	2589.7	-0.72146	0.49376	0.48937
0.58	95.553	-22124	2589.5	-0.72078	0.49483	0.48849
0.582	95.546	-22126	2589.3	-0.72029	0.49434	0.48907
0.584	95.541	-22128	2589.1	-0.7198	0.49386	0.48966
0.586	95.537	-22127	2588.8	-0.71931	0.49337	0.49024
0.588	95.534	-22125	2588.5	-0.71882	0.49288	0.49083
0.59	95.528	-22124	2588.3	-0.71834	0.49239	0.49142
0.592	95.549	-22122	2588	-0.71902	0.49337	0.49073
0.594	95.555	-22121	2587.7	-0.7197	0.49434	0.49005
0.596	95.529	-22120	2587.4	-0.72039	0.49532	0.48937
0.598	95.5	-22121	2587.1	-0.72107	0.4963	0.48868
0.6	95.459	-22122	2586.7	-0.72175	0.49727	0.488
0.602	95.396	-22126	2586.4	-0.72097	0.49717	0.4878
0.604	95.341	-22129	2586.1	-0.72019	0.49708	0.48761
0.606	95.272	-22129	2585.8	-0.71941	0.49698	0.48741
0.608	95.203	-22129	2585.6	-0.71863	0.49688	0.48722
0.61	95.17	-22130	2585.4	-0.71785	0.49678	0.48702
0.612	95.147	-22130	2585.2	-0.71775	0.49591	0.48732
0.614	95.14	-22130	2585	-0.71765	0.49503	0.48761
0.616	95.15	-22130	2584.8	-0.71756	0.49415	0.4879
0.618	95.162	-22129	2584.6	-0.71746	0.49327	0.4882
0.62	95.181	-22128	2584.5	-0.71736	0.49239	0.48849
0.622	95.183	-22133	2584.5	-0.71746	0.4922	0.48868
0.624	95.174	-22139	2584.5	-0.71756	0.492	0.48888
0.626	95.164	-22140	2584.5	-0.71765	0.49181	0.48907
0.628	95.155	-22141	2584.5	-0.71775	0.49161	0.48927
0.63	95.136	-22139	2584.6	-0.71785	0.49142	0.48946
0.632	95.1	-22137	2584.5	-0.71882	0.49259	0.48829
0.634	95.05	-22142	2584.5	-0.7198	0.49376	0.48712
0.636	95.015	-22146	2584.5	-0.72078	0.49493	0.48595
0.638	95.003	-22143	2584.4	-0.72175	0.4961	0.48478
0.64	94.991	-22140	2584.4	-0.72273	0.49727	0.48361
0.642	94.984	-22141	2584.3	-0.72214	0.49688	0.4838
0.644	94.986	-22142	2584.2	-0.72156	0.49649	0.484
0.646	94.995	-22140	2584.1	-0.72097	0.4961	0.48419
0.648	95.001	-22138	2584.1	-0.72039	0.49571	0.48439
0.65	95.005	-22138	2584	-0.7198	0.49532	0.48458
0.652	95.022	-22139	2584	-0.7199	0.49561	0.48478
0.654	95.053	-22141	2583.9	-0.72	0.49591	0.48497
0.656	95.094	-22144	2583.8	-0.72009	0.4962	0.48517
0.658	95.148	-22139	2583.7	-0.72019	0.49649	0.48536
0.66	95.212	-22133	2583.7	-0.72029	0.49678	0.48556
0.662	95.279	-22139	2583.8	-0.72087	0.49717	0.48576
0.664	95.347	-22145	2583.8	-0.72146	0.49756	0.48595
0.666	95.407	-22148	2583.9	-0.72204	0.49796	0.48615
0.668	95.452	-22150	2584.1	-0.72263	0.49835	0.48634
0.67	95.483	-22152	2584.2	-0.72322	0.49874	0.48654
0.672	95.515	-22153	2584.3	-0.72341	0.49893	0.48634
0.674	95.54	-22148	2584.4	-0.72361	0.49913	0.48615
0.676	95.569	-22142	2584.4	-0.7238	0.49932	0.48595
0.678	95.599	-22148	2584.4	-0.724	0.49952	0.48576
0.68	95.613	-22154	2584.5	-0.72419	0.49971	0.48556
0.682	95.624	-22149	2584.4	-0.72292	0.49825	0.48576
0.684	95.643	-22143	2584.4	-0.72165	0.49678	0.48595
0.686	95.648	-22145	2584.3	-0.72039	0.49532	0.48615
0.688	95.646	-22147	2584.2	-0.71912	0.49386	0.48634
0.69	95.646	-22140	2584.1	-0.71785	0.49239	0.48654
0.692	95.642	-22133	2584	-0.71863	0.492	0.4878
0.694	95.632	-22144	2583.8	-0.71941	0.49161	0.48907
0.696	95.631	-22154	2583.7	-0.72019	0.49122	0.49034
0.698	95.637	-22150	2583.4	-0.72097	0.49083	0.49161
0.7	95.638	-22146	2583.2	-0.72175	0.49044	0.49288
0.702	95.655	-22147	2583.1	-0.7239	0.48917	0.49356
0.704	95.678	-22149	2583	-0.72605	0.4879	0.49425
0.706	95.681	-22155	2582.9	-0.72819	0.48663	0.49493
0.708	95.678	-22160	2582.9	-0.73034	0.48536	0.49561
0.71	95.662	-22149	2583	-0.73249	0.4841	0.4963
0.712	95.647	-22138	2583	-0.7319	0.48371	0.4961
0.714	95.641	-22145	2583	-0.73132	0.48332	0.49591
0.716	95.639	-22153	2583	-0.73073	0.48292	0.49571
0.718	95.634	-22146	2583.1	-0.73015	0.48253	0.49552
0.72	95.636	-22138	2583.1	-0.72956	0.48214	0.49532
0.722	95.64	-22145	2583.1	-0.72888	0.48205	0.49454
0.724	95.647	-22152	2583.2	-0.72819	0.48195	0.49376
0.726	95.661	-22145	2583.1	-0.72751	0.48185	0.49298
0.728	95.665	-22138	2583.1	-0.72683	0.48175	0.4922
0.73	95.657	-22147	2583	-0.72614	0.48166	0.49142
0.732	95.657	-22156	2583	-0.72595	0.48185	0.49151
0.734	95.659	-22152	2583	-0.72575	0.48205	0.49161
0.736	95.658	-22148	2583	-0.72556	0.48224	0.49171
0.738	95.661	-22147	2583	-0.72536	0.48244	0.49181
0.74	95.649	-22147	2583	-0.72517	0.48263	0.4919
0.742	95.633	-22149	2583	-0.72527	0.48351	0.49229
0.744	95.632	-22150	2583	-0.72536	0.48439	0.49268
0.746	95.629	-22146	2583	-0.72546	0.48527	0.49308
0.748	95.63	-22142	2582.9	-0.72556	0.48615	0.49347
0.75	95.637	-22141	2582.8	-0.72566	0.48702	0.49386
0.752	95.637	-22139	2582.6	-0.72517	0.48663	0.49337
0.754	95.643	-22141	2582.5	-0.72468	0.48624	0.49288
0.756	95.64	-22143	2582.4	-0.72419	0.48585	0.49239
0.758	95.626	-22142	2582.3	-0.7237	0.48546	0.4919
0.76	95.616	-22141	2582.2	-0.72322	0.48507	0.49142
0.762	95.603	-22142	2582.2	-0.72439	0.48458	0.4921
0.764	95.601	-22143	2582.1	-0.72556	0.4841	0.49278
0.766	95.613	-22142	2582	-0.72673	0.48361	0.49347
0.768	95.628	-22142	2581.8	-0.7279	0.48312	0.49415
0.77	95.627	-22140	2581.7	-0.72907	0.48263	0.49483
0.772	95.625	-22139	2581.5	-0.72771	0.48439	0.49405
0.774	95.619	-22145	2581.4	-0.72634	0.48615	0.49327
0.776	95.607	-22151	2581.2	-0.72497	0.4879	0.49249
0.778	95.593	-22155	2581.1	-0.72361	0.48966	0.49171
0.78	95.597	-22159	2580.9	-0.72224	0.49142	0.49093
0.782	95.59	-22156	2581	-0.72185	0.49064	0.49112
0.784	95.596	-22154	2581	-0.72146	0.48985	0.49132
0.786	95.596	-22146	2581	-0.72107	0.48907	0.49151
0.788	95.598	-22139	2581	-0.72068	0.48829	0.49171
0.79	95.597	-22150	2581.1	-0.72029	0.48751	0.4919
0.792	95.6	-22161	2581.3	-0.72048	0.4881	0.49161
0.794	95.61	-22153	2581.5	-0.72068	0.48868	0.49132
0.796	95.616	-22144	2581.8	-0.72087	0.48927	0.49103
0.798	95.615	-22149	2582.3	-0.72107	0.48985	0.49073
0.8	95.613	-22153	2582.7	-0.72126	0.49044	0.49044
0.802	95.623	-22152	2583.3	-0.72146	0.49093	0.49005
0.804	95.621	-22152	2583.9	-0.72165	0.49142	0.48966
0.806	95.612	-22155	2584.5	-0.72185	0.4919	0.48927
0.808	95.619	-22159	2585.2	-0.72204	0.49239	0.48888
0.81	95.627	-22151	2585.9	-0.72224	0.49288	0.48849
0.812	95.63	-22142	2586.8	-0.72263	0.49298	0.4879
0.814	95.628	-22147	2587.7	-0.72302	0.49308	0.48732
0.816	95.626	-22152	2588.7	-0.72341	0.49317	0.48673
0.818	95.623	-22155	2589.8	-0.7238	0.49327	0.48615
0.82	95.621	-22158	2590.8	-0.72419	0.49337	0.48556
0.822	95.627	-22164	2592	-0.72419	0.49337	0.48634
0.824	95.633	-22171	2593.2	-0.72419	0.49337	0.48712
0.826	95.63	-22164	2594.3	-0.72419	0.49337	0.4879
0.828	95.626	-22156	2595.5	-0.72419	0.49337	0.48868
0.83	95.629	-22154	2596.7	-0.72419	0.49337	0.48946
0.832	95.637	-22152	2597.8	-0.72409	0.49386	0.48937
0.834	95.642	-22151	2599	-0.724	0.49434	0.48927
0.836	95.639	-22149	2600.1	-0.7239	0.49483	0.48917
0.838	95.642	-22147	2601.2	-0.7238	0.49532	0.48907
0.84	95.645	-22145	2602.3	-0.7237	0.49581	0.48898
0.842	95.638	-22142	2603.3	-0.72312	0.49503	0.48888
0.844	95.627	-22138	2604.2	-0.72253	0.49425	0.48878
0.846	95.621	-22147	2605.2	-0.72195	0.49347	0.48868
0.848	95.625	-22156	2606.2	-0.72136	0.49268	0.48859
0.85	95.628	-22152	2607.1	-0.72078	0.4919	0.48849
0.852	95.622	-22147	2608.1	-0.72048	0.49171	0.48927
0.854	95.62	-22148	2609.1	-0.72019	0.49151	0.49005
0.856	95.618	-22149	2610	-0.7199	0.49132	0.49083
0.858	95.619	-22146	2610.9	-0.7196	0.49112	0.49161
0.86	95.618	-22142	2611.7	-0.71931	0.49093	0.49239
0.862	95.613	-22139	2612.4	-0.7196	0.49142	0.492
0.864	95.605	-22137	2613.1	-0.7199	0.4919	0.49161
0.866	95.6	-22132	2613.8	-0.72019	0.49239	0.49122
0.868	95.596	-22128	2614.5	-0.72048	0.49288	0.49083
0.87	95.584	-22126	2615.2	-0.72078	0.49337	0.49044
0.872	95.569	-22124	2615.9	-0.72224	0.49259	0.49161
0.874	95.565	-22119	2616.5	-0.7237	0.49181	0.49278
0.876	95.564	-22113	2617.1	-0.72517	0.49103	0.49395
0.878	95.565	-22126	2617.5	-0.72663	0.49024	0.49512
0.88	95.564	-22138	2618	-0.7281	0.48946	0.4963
0.882	95.547	-22132	2618.3	-0.728	0.48937	0.496
0.884	95.531	-22126	2618.6	-0.7279	0.48927	0.49571
0.886	95.532	-22124	2619	-0.7278	0.48917	0.49542
0.888	95.541	-22122	2619.2	-0.72771	0.48907	0.49512
0.89	95.547	-22123	2619.5	-0.72761	0.48898	0.49483
0.892	95.546	-22123	2619.7	-0.72673	0.48966	0.49425
0.894	95.537	-22117	2619.9	-0.72585	0.49034	0.49366
0.896	95.537	-22112	2619.9	-0.72497	0.49103	0.49308
0.898	95.541	-22110	2620	-0.72409	0.49171	0.49249
0.9	95.538	-22108	2620	-0.72322	0.49239	0.4919
0.902	95.533	-22101	2619.9	-0.72204	0.49073	0.49161
0.904	95.54	-22093	2619.9	-0.72087	0.48907	0.49132
0.906	95.553	-22092	2619.8	-0.7197	0.48741	0.49103
0.908	95.555	-22091	2619.7	-0.71853	0.48576	0.49073
0.91	95.549	-22093	2619.6	-0.71736	0.4841	0.49044
0.912	95.552	-22096	2619.5	-0.71795	0.48419	0.49054
0.914	95.566	-22092	2619.3	-0.71853	0.48429	0.49064
0.916	95.581	-22088	2619.1	-0.71912	0.48439	0.49073
0.918	95.589	-22088	2619	-0.7197	0.48449	0.49083
0.92	95.592	-22087	2618.8	-0.72029	0.48458	0.49093
0.922	95.589	-22083	2618.6	-0.72019	0.48488	0.49034
0.924	95.6	-22079	2618.4	-0.72009	0.48517	0.48976
0.926	95.611	-22078	2618.1	-0.72	0.48546	0.48917
0.928	95.608	-22077	2617.8	-0.7199	0.48576	0.48859
0.93	95.604	-22067	2617.5	-0.7198	0.48605	0.488
0.932	95.606	-22058	2617.1	-0.72009	0.48732	0.4878
0.934	95.613	-22053	2616.7	-0.72039	0.48859	0.48761
0.936	95.621	-22048	2616.4	-0.72068	0.48985	0.48741
0.938	95.618	-22048	2616	-0.72097	0.49112	0.48722
0.94	95.621	-22047	2615.6	-0.72126	0.49239	0.48702
0.942	95.618	-22045	2615.2	-0.72117	0.49288	0.48761
0.944	95.635	-22042	2614.9	-0.72107	0.49337	0.4882
0.946	95.645	-22040	2614.6	-0.72097	0.49386	0.48878
0.948	95.632	-22037	2614.4	-0.72087	0.49434	0.48937
0.95	95.627	-22031	2614.2	-0.72078	0.49483	0.48995
0.952	95.634	-22025	2614	-0.72244	0.49386	0.49054
0.954	95.631	-22024	2613.7	-0.72409	0.49288	0.49112
0.956	95.626	-22023	2613.5	-0.72575	0.4919	0.49171
0.958	95.625	-22024	2613.3	-0.72741	0.49093	0.49229
0.96	95.64	-22025	2613	-0.72907	0.48995	0.49288
0.962	95.647	-22026	2612.8	-0.7281	0.49083	0.49161
0.964	95.652	-22027	2612.5	-0.72712	0.49171	0.49034
0.966	95.636	-22029	2612.3	-0.72614	0.49259	0.48907
0.968	95.639	-22032	2611.9	-0.72517	0.49347	0.4878
0.97	95.653	-22033	2611.6	-0.72419	0.49434	0.48654
0.972	95.658	-22034	2611.2	-0.7239	0.49503	0.48673
0.974	95.655	-22033	2610.8	-0.72361	0.49571	0.48693
0.976	95.653	-22032	2610.3	-0.72331	0.49639	0.48712
0.978	95.655	-22029	2609.9	-0.72302	0.49708	0.48732
0.98	95.656	-22026	2609.4	-0.72273	0.49776	0.48751
0.982	95.651	-22022	2608.9	-0.72253	0.49756	0.488
0.984	95.64	-22019	2608.4	-0.72234	0.49737	0.48849
0.986	95.631	-22023	2607.9	-0.72214	0.49717	0.48898
0.988	95.63	-22027	2607.3	-0.72195	0.49698	0.48946
0.99	95.636	-22028	2606.8	-0.72175	0.49678	0.48995
0.992	95.643	-22029	2606.2	-0.72165	0.49678	0.48937
0.994	95.654	-22028	2605.6	-0.72156	0.49678	0.48878
0.996	95.659	-22027	2605	-0.72146	0.49678	0.4882
0.998	95.653	-22025	2604.5	-0.72136	0.49678	0.48761
1	95.653	-22024	2603.9	-0.72126	0.49678	0.48702
1.002	95.658	-22023	2603.3	-0.72234	0.496	0.48654
1.004	95.657	-22022	2602.8	-0.72341	0.49522	0.48605
1.006	95.653	-22021	2602.2	-0.72448	0.49444	0.48556
1.008	95.657	-22020	2601.6	-0.72556	0.49366	0.48507
1.01	95.664	-22025	2601	-0.72663	0.49288	0.48458
1.012	95.657	-22029	2600.5	-0.72595	0.49298	0.48488
1.014	95.651	-22032	2600	-0.72527	0.49308	0.48517
1.016	95.653	-22035	2599.6	-0.72458	0.49317	0.48546
1.018	95.655	-22037	2599.2	-0.7239	0.49327	0.48576
1.02	95.655	-22038	2598.8	-0.72322	0.49337	0.48605
1.022	95.653	-22038	2598.5	-0.72234	0.49268	0.48654
1.024	95.666	-22038	2598.3	-0.72146	0.492	0.48702
1.026	95.672	-22038	2598	-0.72058	0.49132	0.48751
1.028	95.668	-22038	2597.8	-0.7197	0.49064	0.488
1.03	95.664	-22039	2597.6	-0.71882	0.48995	0.48849
1.032	95.665	-22039	2597.5	-0.72009	0.49015	0.48927
1.034	95.668	-22038	2597.3	-0.72136	0.49034	0.49005
1.036	95.661	-22037	2597.2	-0.72263	0.49054	0.49083
1.038	95.665	-22044	2597.1	-0.7239	0.49073	0.49161
1.04	95.673	-22050	2597	-0.72517	0.49093	0.49239
1.042	95.685	-22058	2596.9	-0.72419	0.49112	0.4919
1.044	95.689	-22066	2596.9	-0.72322	0.49132	0.49142
1.046	95.684	-22062	2596.8	-0.72224	0.49151	0.49093
1.048	95.665	-22058	2596.8	-0.72126	0.49171	0.49044
1.05	95.659	-22057	2596.8	-0.72029	0.4919	0.48995
1.052	95.661	-22056	2596.7	-0.72058	0.49181	0.48995
1.054	95.665	-22057	2596.6	-0.72087	0.49171	0.48995
1.056	95.677	-22058	2596.5	-0.72117	0.49161	0.48995
1.058	95.682	-22059	2596.5	-0.72146	0.49151	0.48995
1.06	95.676	-22061	2596.4	-0.72175	0.49142	0.48995
1.062	95.667	-22063	2596.4	-0.72234	0.49142	0.49044
1.064	95.66	-22065	2596.3	-0.72292	0.49142	0.49093
1.066	95.661	-22067	2596.3	-0.72351	0.49142	0.49142
1.068	95.67	-22068	2596.2	-0.72409	0.49142	0.4919
1.07	95.682	-22071	2596.2	-0.72468	0.49142	0.49239
1.072	95.688	-22074	2596.1	-0.72429	0.4921	0.4922
1.074	95.687	-22076	2596	-0.7239	0.49278	0.492
1.076	95.68	-22077	2595.9	-0.72351	0.49347	0.49181
1.078	95.675	-22076	2595.9	-0.72312	0.49415	0.49161
1.08	95.678	-22074	2595.8	-0.72273	0.49483	0.49142
1.082	95.68	-22077	2595.8	-0.72185	0.49425	0.49132
1.084	95.679	-22079	2595.8	-0.72097	0.49366	0.49122
1.086	95.678	-22079	2595.7	-0.72009	0.49308	0.49112
1.088	95.676	-22079	2595.7	-0.71921	0.49249	0.49103
1.09	95.678	-22079	2595.6	-0.71834	0.4919	0.49093
1.092	95.691	-22079	2595.5	-0.72009	0.49132	0.49229
1.094	95.691	-22083	2595.4	-0.72185	0.49073	0.49366
1.096	95.681	-22086	2595.3	-0.72361	0.49015	0.49503
1.098	95.687	-22083	2595.3	-0.72536	0.48956	0.49639
1.1	95.687	-22080	2595.3	-0.72712	0.48898	0.49776
1.102	95.687	-22079	2595.3	-0.72702	0.48888	0.49766
1.104	95.691	-22078	2595.4	-0.72692	0.48878	0.49756
1.106	95.688	-22084	2595.4	-0.72683	0.48868	0.49747
1.108	95.685	-22090	2595.4	-0.72673	0.48859	0.49737
1.11	95.692	-22088	2595.4	-0.72663	0.48849	0.49727
1.112	95.704	-22087	2595.4	-0.72712	0.488	0.49688
1.114	95.702	-22086	2595.4	-0.72761	0.48751	0.49649
1.116	95.689	-22085	2595.4	-0.7281	0.48702	0.4961
1.118	95.665	-22089	2595.4	-0.72858	0.48654	0.49571
1.12	95.673	-22094	2595.4	-0.72907	0.48605	0.49532
1.122	95.675	-22093	2595.3	-0.72878	0.48634	0.49503
1.124	95.67	-22092	2595.3	-0.72849	0.48663	0.49473
1.126	95.664	-22091	2595.2	-0.72819	0.48693	0.49444
1.128	95.664	-22090	2595.1	-0.7279	0.48722	0.49415
1.13	95.677	-22089	2595.1	-0.72761	0.48751	0.49386
1.132	95.68	-22089	2595	-0.72761	0.48732	0.49434
1.134	95.677	-22087	2595	-0.72761	0.48712	0.49483
1.136	95.673	-22086	2595	-0.72761	0.48693	0.49532
1.138	95.673	-22093	2594.9	-0.72761	0.48673	0.49581
1.14	95.668	-22100	2594.8	-0.72761	0.48654	0.4963
1.142	95.656	-22094	2594.7	-0.7278	0.48693	0.496
1.144	95.643	-22087	2594.5	-0.728	0.48732	0.49571
1.146	95.632	-22086	2594.4	-0.72819	0.48771	0.49542
1.148	95.621	-22085	2594.3	-0.72839	0.4881	0.49512
1.15	95.616	-22090	2594.2	-0.72858	0.48849	0.49483
1.152	95.609	-22095	2594.1	-0.72751	0.48907	0.49415
1.154	95.596	-22095	2593.9	-0.72644	0.48966	0.49347
1.156	95.59	-22095	2593.7	-0.72536	0.49024	0.49278
1.158	95.595	-22096	2593.5	-0.72429	0.49083	0.4921
1.16	95.602	-22097	2593.3	-0.72322	0.49142	0.49142
1.162	95.61	-22094	2593	-0.72283	0.49151	0.49151
1.164	95.615	-22092	2592.6	-0.72244	0.49161	0.49161
1.166	95.608	-22089	2592.3	-0.72204	0.49171	0.49171
1.168	95.595	-22087	2591.9	-0.72165	0.49181	0.49181
1.17	95.595	-22092	2591.6	-0.72126	0.4919	0.4919
1.172	95.601	-22097	2591.2	-0.72107	0.4919	0.49171
1.174	95.598	-22098	2590.8	-0.72087	0.4919	0.49151
1.176	95.599	-22100	2590.5	-0.72068	0.4919	0.49132
1.178	95.608	-22100	2590.2	-0.72048	0.4919	0.49112
1.18	95.617	-22100	2589.9	-0.72029	0.4919	0.49093
1.182	95.627	-22098	2589.7	-0.72058	0.4919	0.49122
1.184	95.636	-22097	2589.4	-0.72087	0.4919	0.49151
1.186	95.642	-22099	2589.1	-0.72117	0.4919	0.49181
1.188	95.656	-22102	2588.9	-0.72146	0.4919	0.4921
1.19	95.674	-22100	2588.7	-0.72175	0.4919	0.49239
1.192	95.689	-22099	2588.5	-0.72156	0.4919	0.49249
1.194	95.701	-22101	2588.3	-0.72136	0.4919	0.49259
1.196	95.724	-22102	2588.1	-0.72117	0.4919	0.49268
1.198	95.734	-22103	2587.9	-0.72097	0.4919	0.49278
1.2	95.732	-22104	2587.7	-0.72078	0.4919	0.49288
1.202	95.737	-22108	2587.4	-0.72165	0.492	0.49249
1.204	95.742	-22111	2587.1	-0.72253	0.4921	0.4921
1.206	95.745	-22112	2586.9	-0.72341	0.4922	0.49171
1.208	95.748	-22112	2586.7	-0.72429	0.49229	0.49132
1.21	95.743	-22108	2586.5	-0.72517	0.49239	0.49093
1.212	95.743	-22104	2586.3	-0.724	0.49181	0.49132
1.214	95.748	-22110	2586.1	-0.72283	0.49122	0.49171
1.216	95.745	-22116	2586	-0.72165	0.49064	0.4921
1.218	95.748	-22109	2585.8	-0.72048	0.49005	0.49249
1.22	95.748	-22101	2585.6	-0.71931	0.48946	0.49288
1.222	95.749	-22101	2585.4	-0.7196	0.48937	0.49298
1.224	95.758	-22100	2585.2	-0.7199	0.48927	0.49308
1.226	95.764	-22104	2585	-0.72019	0.48917	0.49317
1.228	95.772	-22107	2584.9	-0.72048	0.48907	0.49327
1.23	95.769	-22110	2584.7	-0.72078	0.48898	0.49337
1.232	95.763	-22112	2584.5	-0.72039	0.48917	0.49308
1.234	95.767	-22115	2584.3	-0.72	0.48937	0.49278
1.236	95.773	-22118	2584.1	-0.7196	0.48956	0.49249
1.238	95.769	-22112	2583.9	-0.71921	0.48976	0.4922
1.24	95.757	-22106	2583.6	-0.71882	0.48995	0.4919
1.242	95.755	-22102	2583.5	-0.71863	0.48966	0.49229
1.244	95.765	-22098	2583.3	-0.71843	0.48937	0.49268
1.246	95.766	-22107	2583.1	-0.71824	0.48907	0.49308
1.248	95.758	-22116	2582.9	-0.71804	0.48878	0.49347
1.25	95.75	-22118	2582.6	-0.71785	0.48849	0.49386
1.252	95.752	-22120	2582.4	-0.71921	0.48946	0.49395
1.254	95.76	-22122	2582.1	-0.72058	0.49044	0.49405
1.256	95.764	-22125	2581.9	-0.72195	0.49142	0.49415
1.258	95.768	-22119	2581.6	-0.72331	0.49239	0.49425
1.26	95.764	-22114	2581.4	-0.72468	0.49337	0.49434
1.262	95.768	-22112	2581.1	-0.72468	0.49298	0.49376
1.264	95.778	-22110	2580.9	-0.72468	0.49259	0.49317
1.266	95.776	-22115	2580.7	-0.72468	0.4922	0.49259
1.268	95.774	-22119	2580.6	-0.72468	0.49181	0.492
1.27	95.778	-22118	2580.4	-0.72468	0.49142	0.49142
1.272	95.783	-22117	2580.3	-0.72536	0.49073	0.49298
1.274	95.787	-22121	2580.2	-0.72605	0.49005	0.49454
1.276	95.785	-22124	2580.1	-0.72673	0.48937	0.4961
1.278	95.781	-22125	2580.1	-0.72741	0.48868	0.49766
1.28	95.776	-22125	2580	-0.7281	0.488	0.49922
1.282	95.777	-22126	2579.9	-0.7278	0.48888	0.49913
1.284	95.772	-22127	2579.8	-0.72751	0.48976	0.49903
1.286	95.758	-22130	2579.8	-0.72722	0.49064	0.49893
1.288	95.749	-22133	2579.8	-0.72692	0.49151	0.49883
1.29	95.735	-22126	2579.7	-0.72663	0.49239	0.49874
1.292	95.722	-22120	2579.8	-0.72692	0.49161	0.49766
1.294	95.721	-22126	2579.9	-0.72722	0.49083	0.49659
1.296	95.716	-22132	2580	-0.72751	0.49005	0.49552
1.298	95.714	-22133	2580	-0.7278	0.48927	0.49444
1.3	95.713	-22134	2580	-0.7281	0.48849	0.49337
1.302	95.708	-22126	2580.2	-0.7281	0.488	0.49337
1.304	95.697	-22119	2580.4	-0.7281	0.48751	0.49337
1.306	95.689	-22127	2580.6	-0.7281	0.48702	0.49337
1.308	95.688	-22134	2580.9	-0.7281	0.48654	0.49337
1.31	95.688	-22132	2581.1	-0.7281	0.48605	0.49337
1.312	95.672	-22129	2581.4	-0.72829	0.48663	0.49386
1.314	95.664	-22132	2581.6	-0.72849	0.48722	0.49434
1.316	95.674	-22135	2581.9	-0.72868	0.4878	0.49483
1.318	95.672	-22134	2582.1	-0.72888	0.48839	0.49532
1.32	95.649	-22133	2582.4	-0.72907	0.48898	0.49581
1.322	95.612	-22133	2582.6	-0.72907	0.48878	0.49532
1.324	95.566	-22134	2582.8	-0.72907	0.48859	0.49483
1.326	95.516	-22135	2583.1	-0.72907	0.48839	0.49434
1.328	95.457	-22136	2583.3	-0.72907	0.4882	0.49386
1.33	95.394	-22141	2583.6	-0.72907	0.488	0.49337
1.332	95.343	-22145	2583.8	-0.7279	0.48868	0.4919
1.334	95.312	-22146	2584	-0.72673	0.48937	0.49044
1.336	95.303	-22148	2584.2	-0.72556	0.49005	0.48898
1.338	95.309	-22146	2584.4	-0.72439	0.49073	0.48751
1.34	95.318	-22145	2584.6	-0.72322	0.49142	0.48605
1.342	95.327	-22145	2584.7	-0.72322	0.49268	0.48585
1.344	95.331	-22145	2584.8	-0.72322	0.49395	0.48566
1.346	95.325	-22143	2584.9	-0.72322	0.49522	0.48546
1.348	95.324	-22142	2585	-0.72322	0.49649	0.48527
1.35	95.313	-22139	2585.1	-0.72322	0.49776	0.48507
1.352	95.288	-22136	2585.2	-0.72331	0.49786	0.48517
1.354	95.263	-22137	2585.3	-0.72341	0.49796	0.48527
1.356	95.223	-22139	2585.4	-0.72351	0.49805	0.48536
1.358	95.171	-22139	2585.4	-0.72361	0.49815	0.48546
1.36	95.151	-22138	2585.4	-0.7237	0.49825	0.48556
1.362	95.149	-22142	2585.4	-0.72244	0.49708	0.48546
1.364	95.129	-22146	2585.3	-0.72117	0.49591	0.48536
1.366	95.115	-22147	2585.2	-0.7199	0.49473	0.48527
1.368	95.14	-22148	2585.1	-0.71863	0.49356	0.48517
1.37	95.155	-22142	2585	-0.71736	0.49239	0.48507
1.372	95.173	-22136	2584.8	-0.71658	0.49239	0.48517
1.374	95.182	-22137	2584.7	-0.7158	0.49239	0.48527
1.376	95.196	-22137	2584.6	-0.71502	0.49239	0.48536
1.378	95.241	-22141	2584.4	-0.71424	0.49239	0.48546
1.38	95.282	-22145	2584.3	-0.71346	0.49239	0.48556
1.382	95.342	-22145	2584.1	-0.71463	0.49239	0.48663
1.384	95.424	-22144	2583.9	-0.7158	0.49239	0.48771
1.386	95.497	-22145	2583.7	-0.71697	0.49239	0.48878
1.388	95.548	-22146	2583.6	-0.71814	0.49239	0.48985
1.39	95.588	-22144	2583.4	-0.71931	0.49239	0.49093
1.392	95.63	-22142	2583.2	-0.71834	0.49171	0.49073
1.394	95.667	-22143	2583	-0.71736	0.49103	0.49054
1.396	95.713	-22144	2582.8	-0.71638	0.49034	0.49034
1.398	95.745	-22143	2582.6	-0.71541	0.48966	0.49015
1.4	95.764	-22143	2582.5	-0.71443	0.48898	0.48995
1.402	95.778	-22148	2582.3	-0.7156	0.48985	0.49054
1.404	95.789	-22152	2582	-0.71677	0.49073	0.49112
1.406	95.802	-22154	2581.8	-0.71795	0.49161	0.49171
1.408	95.814	-22156	2581.5	-0.71912	0.49249	0.49229
1.41	95.816	-22152	2581.3	-0.72029	0.49337	0.49288
1.412	95.817	-22149	2581	-0.72107	0.49454	0.49317
1.414	95.822	-22155	2580.8	-0.72185	0.49571	0.49347
1.416	95.823	-22160	2580.6	-0.72263	0.49688	0.49376
1.418	95.825	-22157	2580.3	-0.72341	0.49805	0.49405
1.42	95.83	-22153	2580.1	-0.72419	0.49922	0.49434
1.422	95.837	-22157	2579.9	-0.72331	0.49922	0.49522
1.424	95.844	-22161	2579.8	-0.72244	0.49922	0.4961
1.426	95.85	-22156	2579.6	-0.72156	0.49922	0.49698
1.428	95.855	-22151	2579.3	-0.72068	0.49922	0.49786
1.43	95.859	-22153	2579.1	-0.7198	0.49922	0.49874
1.432	95.855	-22155	2578.9	-0.72048	0.49893	0.49844
1.434	95.845	-22157	2578.6	-0.72117	0.49864	0.49815
1.436	95.845	-22159	2578.4	-0.72185	0.49835	0.49786
1.438	95.852	-22159	2578.3	-0.72253	0.49805	0.49756
1.44	95.854	-22159	2578.1	-0.72322	0.49776	0.49727
1.442	95.844	-22159	2577.9	-0.72253	0.49766	0.49786
1.444	95.842	-22159	2577.7	-0.72185	0.49756	0.49844
1.446	95.848	-22160	2577.6	-0.72117	0.49747	0.49903
1.448	95.839	-22162	2577.5	-0.72048	0.49737	0.49961
1.45	95.828	-22164	2577.3	-0.7198	0.49727	0.5002
1.452	95.824	-22167	2577.2	-0.72019	0.49639	0.49922
1.454	95.821	-22164	2577	-0.72058	0.49552	0.49825
1.456	95.821	-22162	2576.9	-0.72097	0.49464	0.49727
1.458	95.822	-22162	2576.8	-0.72136	0.49376	0.4963
1.46	95.82	-22161	2576.7	-0.72175	0.49288	0.49532
1.462	95.824	-22167	2576.6	-0.72195	0.49278	0.49542
1.464	95.834	-22174	2576.6	-0.72214	0.49268	0.49552
1.466	95.83	-22172	2576.5	-0.72234	0.49259	0.49561
1.468	95.823	-22170	2576.5	-0.72253	0.49249	0.49571
1.47	95.827	-22172	2576.5	-0.72273	0.49239	0.49581
1.472	95.828	-22175	2576.6	-0.72283	0.49259	0.49464
1.474	95.819	-22174	2576.6	-0.72292	0.49278	0.49347
1.476	95.816	-22173	2576.7	-0.72302	0.49298	0.49229
1.478	95.819	-22166	2576.8	-0.72312	0.49317	0.49112
1.48	95.83	-22160	2577	-0.72322	0.49337	0.48995
1.482	95.833	-22166	2577.1	-0.72312	0.49278	0.49083
1.484	95.826	-22173	2577.2	-0.72302	0.4922	0.49171
1.486	95.82	-22176	2577.4	-0.72292	0.49161	0.49259
1.488	95.821	-22178	2577.5	-0.72283	0.49103	0.49347
1.49	95.816	-22178	2577.7	-0.72273	0.49044	0.49434
1.492	95.808	-22178	2577.8	-0.72448	0.48898	0.49405
1.494	95.808	-22178	2577.9	-0.72624	0.48751	0.49376
1.496	95.809	-22178	2578.1	-0.728	0.48605	0.49347
1.498	95.806	-22175	2578.2	-0.72976	0.48458	0.49317
1.5	95.806	-22171	2578.3	-0.73151	0.48312	0.49288
1.502	95.805	-22173	2578.6	-0.72897	0.48302	0.492
1.504	95.809	-22175	2578.8	-0.72644	0.48292	0.49112
1.506	95.81	-22186	2579.1	-0.7239	0.48283	0.49024
1.508	95.797	-22197	2579.4	-0.72136	0.48273	0.48937
1.51	95.783	-22194	2579.7	-0.71882	0.48263	0.48849
1.512	95.781	-22191	2580.1	-0.71853	0.48273	0.48888
1.514	95.792	-22185	2580.4	-0.71824	0.48283	0.48927
1.516	95.806	-22180	2580.8	-0.71795	0.48292	0.48966
1.518	95.812	-22181	2581.2	-0.71765	0.48302	0.49005
1.52	95.813	-22182	2581.6	-0.71736	0.48312	0.49044
1.522	95.815	-22179	2582.2	-0.71892	0.48351	0.49024
1.524	95.814	-22176	2582.7	-0.72048	0.4839	0.49005
1.526	95.81	-22180	2583.3	-0.72204	0.48429	0.48985
1.528	95.81	-22184	2584	-0.72361	0.48468	0.48966
1.53	95.808	-22182	2584.7	-0.72517	0.48507	0.48946
1.532	95.811	-22181	2585.5	-0.72566	0.48478	0.49005
1.534	95.813	-22182	2586.3	-0.72614	0.48449	0.49064
1.536	95.821	-22182	2587.2	-0.72663	0.48419	0.49122
1.538	95.81	-22183	2588.1	-0.72712	0.4839	0.49181
1.54	95.813	-22184	2589.1	-0.72761	0.48361	0.49239
1.542	95.818	-22185	2590.1	-0.72741	0.4838	0.4921
1.544	95.816	-22186	2591.1	-0.72722	0.484	0.49181
1.546	95.815	-22183	2592.1	-0.72702	0.48419	0.49151
1.548	95.818	-22181	2593.1	-0.72683	0.48439	0.49122
1.55	95.82	-22181	2594.1	-0.72663	0.48458	0.49093
1.552	95.828	-22181	2595.1	-0.72683	0.4841	0.49083
1.554	95.841	-22180	2596.2	-0.72702	0.48361	0.49073
1.556	95.857	-22178	2597.2	-0.72722	0.48312	0.49064
1.558	95.857	-22172	2598.2	-0.72741	0.48263	0.49054
1.56	95.851	-22165	2599.2	-0.72761	0.48214	0.49044
1.562	95.848	-22173	2600.2	-0.72761	0.48234	0.49073
1.564	95.844	-22181	2601.3	-0.72761	0.48253	0.49103
1.566	95.849	-22179	2602.2	-0.72761	0.48273	0.49132
1.568	95.841	-22176	2603.1	-0.72761	0.48292	0.49161
1.57	95.833	-22175	2604	-0.72761	0.48312	0.4919
1.572	95.833	-22175	2604.8	-0.72692	0.484	0.49249
1.574	95.829	-22169	2605.6	-0.72624	0.48488	0.49308
1.576	95.832	-22163	2606.5	-0.72556	0.48576	0.49366
1.578	95.828	-22162	2607.3	-0.72488	0.48663	0.49425
1.58	95.821	-22161	2608.1	-0.72419	0.48751	0.49483
1.582	95.814	-22163	2608.8	-0.72488	0.48683	0.49542
1.584	95.807	-22165	2609.5	-0.72556	0.48615	0.496
1.586	95.804	-22163	2610.2	-0.72624	0.48546	0.49659
1.588	95.798	-22160	2610.8	-0.72692	0.48478	0.49717
1.59	95.792	-22153	2611.4	-0.72761	0.4841	0.49776
1.592	95.794	-22146	2612.1	-0.72712	0.48458	0.49776
1.594	95.791	-22144	2612.7	-0.72663	0.48507	0.49776
1.596	95.778	-22142	2613.2	-0.72614	0.48556	0.49776
1.598	95.776	-22145	2613.7	-0.72566	0.48605	0.49776
1.6	95.777	-22147	2614.2	-0.72517	0.48654	0.49776
1.602	95.766	-22147	2614.7	-0.72439	0.48693	0.49766
1.604	95.751	-22146	2615.1	-0.72361	0.48732	0.49756
1.606	95.743	-22143	2615.6	-0.72283	0.48771	0.49747
1.608	95.742	-22140	2616	-0.72204	0.4881	0.49737
1.61	95.738	-22135	2616.4	-0.72126	0.48849	0.49727
1.612	95.74	-22131	2616.9	-0.72204	0.48917	0.49659
1.614	95.744	-22132	2617.3	-0.72283	0.48985	0.49591
1.616	95.743	-22132	2617.7	-0.72361	0.49054	0.49522
1.618	95.75	-22132	2618	-0.72439	0.49122	0.49454
1.62	95.754	-22132	2618.4	-0.72517	0.4919	0.49386
1.622	95.757	-22124	2618.7	-0.72556	0.49083	0.49483
1.624	95.755	-22117	2619	-0.72595	0.48976	0.49581
1.626	95.753	-22114	2619.3	-0.72634	0.48868	0.49678
1.628	95.759	-22112	2619.6	-0.72673	0.48761	0.49776
1.63	95.751	-22112	2619.9	-0.72712	0.48654	0.49874
1.632	95.754	-22111	2620.1	-0.72732	0.48644	0.49766
1.634	95.761	-22108	2620.2	-0.72751	0.48634	0.49659
1.636	95.765	-22104	2620.4	-0.72771	0.48624	0.49552
1.638	95.777	-22103	2620.5	-0.7279	0.48615	0.49444
1.64	95.786	-22102	2620.6	-0.7281	0.48605	0.49337
1.642	95.794	-22100	2620.6	-0.72897	0.48595	0.49395
1.644	95.8	-22099	2620.6	-0.72985	0.48585	0.49454
1.646	95.813	-22092	2620.6	-0.73073	0.48576	0.49512
1.648	95.824	-22084	2620.7	-0.73161	0.48566	0.49571
1.65	95.829	-22084	2620.7	-0.73249	0.48556	0.4963
1.652	95.825	-22084	2620.6	-0.7319	0.48605	0.4961
1.654	95.823	-22083	2620.6	-0.73132	0.48654	0.49591
1.656	95.833	-22082	2620.6	-0.73073	0.48702	0.49571
1.658	95.839	-22073	2620.5	-0.73015	0.48751	0.49552
1.66	95.841	-22064	2620.4	-0.72956	0.488	0.49532
1.662	95.842	-22066	2620.2	-0.728	0.48898	0.49415
1.664	95.846	-22067	2620	-0.72644	0.48995	0.49298
1.666	95.851	-22067	2619.8	-0.72488	0.49093	0.49181
1.668	95.855	-22067	2619.5	-0.72331	0.4919	0.49064
1.67	95.849	-22059	2619.2	-0.72175	0.49288	0.48946
1.672	95.847	-22051	2618.8	-0.72175	0.49317	0.48976
1.674	95.851	-22052	2618.5	-0.72175	0.49347	0.49005
1.676	95.845	-22052	2618.1	-0.72175	0.49376	0.49034
1.678	95.838	-22051	2617.6	-0.72175	0.49405	0.49064
1.68	95.841	-22050	2617.2	-0.72175	0.49434	0.49093
1.682	95.848	-22049	2616.8	-0.72234	0.49464	0.49132
1.684	95.852	-22047	2616.4	-0.72292	0.49493	0.49171
1.686	95.849	-22047	2616	-0.72351	0.49522	0.4921
1.688	95.845	-22047	2615.6	-0.72409	0.49552	0.49249
1.69	95.852	-22047	2615.2	-0.72468	0.49581	0.49288
1.692	95.861	-22046	2614.7	-0.72478	0.4963	0.49327
1.694	95.866	-22042	2614.3	-0.72488	0.49678	0.49366
1.696	95.868	-22037	2613.9	-0.72497	0.49727	0.49405
1.698	95.866	-22034	2613.5	-0.72507	0.49776	0.49444
1.7	95.847	-22031	2613.1	-0.72517	0.49825	0.49483
1.702	95.843	-22032	2612.6	-0.72409	0.49776	0.49415
1.704	95.852	-22032	2612.2	-0.72302	0.49727	0.49347
1.706	95.863	-22035	2611.8	-0.72195	0.49678	0.49278
1.708	95.862	-22037	2611.5	-0.72087	0.4963	0.4921
1.71	95.855	-22034	2611.2	-0.7198	0.49581	0.49142
1.712	95.851	-22030	2610.8	-0.71951	0.49581	0.49142
1.714	95.855	-22026	2610.4	-0.71921	0.49581	0.49142
1.716	95.86	-22023	2610	-0.71892	0.49581	0.49142
1.718	95.854	-22027	2609.7	-0.71863	0.49581	0.49142
1.72	95.855	-22031	2609.4	-0.71834	0.49581	0.49142
1.722	95.863	-22035	2609	-0.72009	0.49659	0.49278
1.724	95.861	-22039	2608.7	-0.72185	0.49737	0.49415
1.726	95.866	-22031	2608.4	-0.72361	0.49815	0.49552
1.728	95.869	-22023	2608.1	-0.72536	0.49893	0.49688
1.73	95.865	-22028	2607.8	-0.72712	0.49971	0.49825
1.732	95.859	-22033	2607.5	-0.72722	0.49883	0.49805
1.734	95.861	-22032	2607.1	-0.72732	0.49796	0.49786
1.736	95.867	-22031	2606.8	-0.72741	0.49708	0.49766
1.738	95.872	-22041	2606.6	-0.72751	0.4962	0.49747
1.74	95.876	-22052	2606.3	-0.72761	0.49532	0.49727
1.742	95.875	-22043	2606.2	-0.72761	0.49503	0.49669
1.744	95.872	-22035	2606	-0.72761	0.49473	0.4961
1.746	95.872	-22040	2605.9	-0.72761	0.49444	0.49552
1.748	95.873	-22044	2605.7	-0.72761	0.49415	0.49493
1.75	95.873	-22047	2605.6	-0.72761	0.49386	0.49434
1.752	95.87	-22049	2605.5	-0.72732	0.49298	0.49493
1.754	95.869	-22051	2605.4	-0.72702	0.4921	0.49552
1.756	95.876	-22053	2605.3	-0.72673	0.49122	0.4961
1.758	95.885	-22051	2605.2	-0.72644	0.49034	0.49669
1.76	95.888	-22049	2605.2	-0.72614	0.48946	0.49727
1.762	95.881	-22047	2605.1	-0.72536	0.49005	0.4963
1.764	95.874	-22045	2605.1	-0.72458	0.49064	0.49532
1.766	95.881	-22050	2605	-0.7238	0.49122	0.49434
1.768	95.891	-22055	2605	-0.72302	0.49181	0.49337
1.77	95.896	-22053	2605	-0.72224	0.49239	0.49239
1.772	95.893	-22052	2605.1	-0.72136	0.492	0.49171
1.774	95.884	-22051	2605.2	-0.72048	0.49161	0.49103
1.776	95.875	-22050	2605.3	-0.7196	0.49122	0.49034
1.778	95.876	-22054	2605.4	-0.71873	0.49083	0.48966
1.78	95.881	-22058	2605.5	-0.71785	0.49044	0.48898
1.782	95.877	-22060	2605.6	-0.71882	0.49054	0.48956
1.784	95.869	-22063	2605.6	-0.7198	0.49064	0.49015
1.786	95.863	-22062	2605.7	-0.72078	0.49073	0.49073
1.788	95.864	-22062	2605.7	-0.72175	0.49083	0.49132
1.79	95.872	-22066	2605.8	-0.72273	0.49093	0.4919
1.792	95.891	-22069	2605.9	-0.72224	0.49073	0.4922
1.794	95.902	-22069	2606	-0.72175	0.49054	0.49249
1.796	95.904	-22068	2606	-0.72126	0.49034	0.49278
1.798	95.895	-22072	2606.1	-0.72078	0.49015	0.49308
1.8	95.888	-22077	2606.1	-0.72029	0.48995	0.49337
1.802	95.88	-22072	2606.1	-0.72	0.48985	0.49308
1.804	95.873	-22067	2606	-0.7197	0.48976	0.49278
1.806	95.882	-22069	2606	-0.71941	0.48966	0.49249
1.808	95.903	-22071	2606	-0.71912	0.48956	0.4922
1.81	95.913	-22071	2606	-0.71882	0.48946	0.4919
1.812	95.907	-22071	2606	-0.71863	0.48956	0.49181
1.814	95.906	-22076	2606	-0.71843	0.48966	0.49171
1.816	95.91	-22080	2606	-0.71824	0.48976	0.49161
1.818	95.911	-22075	2606	-0.71804	0.48985	0.49151
1.82	95.906	-22071	2606	-0.71785	0.48995	0.49142
1.822	95.903	-22076	2606	-0.71775	0.48966	0.49103
1.824	95.903	-22081	2606	-0.71765	0.48937	0.49064
1.826	95.903	-22084	2605.9	-0.71756	0.48907	0.49024
1.828	95.9	-22087	2605.9	-0.71746	0.48878	0.48985
1.83	95.9	-22083	2605.8	-0.71736	0.48849	0.48946
1.832	95.899	-22079	2605.7	-0.71756	0.48761	0.48927
1.834	95.891	-22079	2605.6	-0.71775	0.48673	0.48907
1.836	95.88	-22079	2605.5	-0.71795	0.48585	0.48888
1.838	95.87	-22080	2605.3	-0.71814	0.48497	0.48868
1.84	95.864	-22080	2605.1	-0.71834	0.4841	0.48849
1.842	95.865	-22080	2604.9	-0.71853	0.48507	0.48927
1.844	95.876	-22080	2604.7	-0.71873	0.48605	0.49005
1.846	95.885	-22081	2604.5	-0.71892	0.48702	0.49083
1.848	95.885	-22081	2604.3	-0.71912	0.488	0.49161
1.85	95.889	-22087	2604.2	-0.71931	0.48898	0.49239
1.852	95.891	-22093	2603.9	-0.72078	0.48898	0.49249
1.854	95.882	-22093	2603.6	-0.72224	0.48898	0.49259
1.856	95.869	-22094	2603.4	-0.7237	0.48898	0.49268
1.858	95.856	-22092	2603.1	-0.72517	0.48898	0.49278
1.86	95.843	-22090	2602.9	-0.72663	0.48898	0.49288
1.862	95.835	-22093	2602.8	-0.72683	0.48878	0.49425
1.864	95.824	-22097	2602.6	-0.72702	0.48859	0.49561
1.866	95.805	-22100	2602.5	-0.72722	0.48839	0.49698
1.868	95.795	-22103	2602.3	-0.72741	0.4882	0.49835
1.87	95.797	-22101	2602.1	-0.72761	0.488	0.49971
1.872	95.8	-22098	2602.1	-0.72868	0.48732	0.49883
1.874	95.808	-22100	2602	-0.72976	0.48663	0.49796
1.876	95.817	-22101	2602	-0.73083	0.48595	0.49708
1.878	95.816	-22103	2601.9	-0.7319	0.48527	0.4962
1.88	95.809	-22104	2601.9	-0.73298	0.48458	0.49532
1.882	95.805	-22110	2601.8	-0.73171	0.48517	0.49464
1.884	95.794	-22115	2601.8	-0.73044	0.48576	0.49395
1.886	95.787	-22116	2601.7	-0.72917	0.48634	0.49327
1.888	95.796	-22116	2601.6	-0.7279	0.48693	0.49259
1.89	95.816	-22112	2601.5	-0.72663	0.48751	0.4919
1.892	95.833	-22108	2601.3	-0.72644	0.4881	0.492
1.894	95.839	-22106	2601.2	-0.72624	0.48868	0.4921
1.896	95.835	-22104	2601	-0.72605	0.48927	0.4922
1.898	95.833	-22113	2600.8	-0.72585	0.48985	0.49229
1.9	95.852	-22122	2600.7	-0.72566	0.49044	0.49239
1.902	95.866	-22122	2600.5	-0.72663	0.48985	0.49317
1.904	95.875	-22123	2600.3	-0.72761	0.48927	0.49395
1.906	95.89	-22125	2600.1	-0.72858	0.48868	0.49473
1.908	95.912	-22128	2599.9	-0.72956	0.4881	0.49552
1.91	95.932	-22132	2599.7	-0.73054	0.48751	0.4963
1.912	95.937	-22136	2599.6	-0.73054	0.48702	0.49571
1.914	95.948	-22131	2599.4	-0.73054	0.48654	0.49512
1.916	95.951	-22126	2599.3	-0.73054	0.48605	0.49454
1.918	95.941	-22134	2599.1	-0.73054	0.48556	0.49395
1.92	95.937	-22142	2599	-0.73054	0.48507	0.49337
1.922	95.943	-22139	2598.8	-0.73063	0.48468	0.49356
1.924	95.947	-22136	2598.5	-0.73073	0.48429	0.49376
1.926	95.945	-22136	2598.3	-0.73083	0.4839	0.49395
1.928	95.948	-22136	2598.1	-0.73093	0.48351	0.49415
1.93	95.952	-22143	2597.9	-0.73102	0.48312	0.49434
1.932	95.949	-22151	2597.6	-0.73034	0.4841	0.49464
1.934	95.943	-22150	2597.4	-0.72966	0.48507	0.49493
1.936	95.944	-22149	2597.1	-0.72897	0.48605	0.49522
1.938	95.949	-22148	2596.9	-0.72829	0.48702	0.49552
1.94	95.952	-22147	2596.7	-0.72761	0.488	0.49581
1.942	95.954	-22149	2596.4	-0.72761	0.48849	0.49552
1.944	95.95	-22150	2596.1	-0.72761	0.48898	0.49522
1.946	95.945	-22154	2595.8	-0.72761	0.48946	0.49493
1.948	95.948	-22157	2595.6	-0.72761	0.48995	0.49464
1.95	95.947	-22155	2595.3	-0.72761	0.49044	0.49434
1.952	95.944	-22153	2595	-0.72761	0.48985	0.49425
1.954	95.96	-22151	2594.7	-0.72761	0.48927	0.49415
1.956	95.978	-22148	2594.4	-0.72761	0.48868	0.49405
1.958	95.973	-22152	2594.3	-0.72761	0.4881	0.49395
1.96	95.965	-22155	2594.1	-0.72761	0.48751	0.49386
1.962	95.966	-22160	2594.1	-0.72624	0.48937	0.49356
1.964	95.948	-22164	2594	-0.72488	0.49122	0.49327
1.966	95.939	-22165	2594	-0.72351	0.49308	0.49298
1.968	95.954	-22166	2594	-0.72214	0.49493	0.49268
1.97	95.964	-22167	2594	-0.72078	0.49678	0.49239
1.972	95.959	-22167	2594	-0.72058	0.496	0.49249
1.974	95.956	-22160	2593.9	-0.72039	0.49522	0.49259
1.976	95.964	-22154	2593.9	-0.72019	0.49444	0.49268
1.978	95.968	-22160	2593.9	-0.72	0.49366	0.49278
1.98	95.973	-22166	2593.9	-0.7198	0.49288	0.49288
1.982	95.98	-22167	2593.8	-0.7198	0.49317	0.49278
1.984	95.981	-22167	2593.8	-0.7198	0.49347	0.49268
1.986	95.983	-22169	2593.8	-0.7198	0.49376	0.49259
1.988	95.979	-22171	2593.7	-0.7198	0.49405	0.49249
1.99	95.976	-22165	2593.7	-0.7198	0.49434	0.49239
1.992	95.972	-22159	2593.7	-0.72087	0.49503	0.49317
1.994	95.973	-22163	2593.7	-0.72195	0.49571	0.49395
1.996	95.973	-22166	2593.6	-0.72302	0.49639	0.49473
1.998	95.966	-22168	2593.6	-0.72409	0.49708	0.49552
2	95.945	-22170	2593.6	-0.72517	0.49776	0.4963
2.002	95.929	-22173	2593.6	-0.72458	0.49688	0.49552
2.004	95.915	-22176	2593.6	-0.724	0.496	0.49473
2.006	95.91	-22179	2593.5	-0.72341	0.49512	0.49395
2.008	95.92	-22183	2593.4	-0.72283	0.49425	0.49317
2.01	95.915	-22177	2593.4	-0.72224	0.49337	0.49239
2.012	95.89	-22172	2593.2	-0.72117	0.49347	0.492
2.014	95.877	-22174	2593	-0.72009	0.49356	0.49161
2.016	95.884	-22176	2592.8	-0.71902	0.49366	0.49122
2.018	95.888	-22176	2592.7	-0.71795	0.49376	0.49083
2.02	95.88	-22177	2592.5	-0.71687	0.49386	0.49044
2.022	95.874	-22177	2592.3	-0.71668	0.49327	0.49034
2.024	95.867	-22177	2592.1	-0.71648	0.49268	0.49024
2.026	95.855	-22180	2591.8	-0.71629	0.4921	0.49015
2.028	95.855	-22182	2591.6	-0.71609	0.49151	0.49005
2.03	95.857	-22186	2591.3	-0.7159	0.49093	0.48995
2.032	95.829	-22189	2591.2	-0.71658	0.4919	0.48995
2.034	95.8	-22185	2591	-0.71726	0.49288	0.48995
2.036	95.775	-22181	2590.8	-0.71795	0.49386	0.48995
2.038	95.727	-22181	2590.6	-0.71863	0.49483	0.48995
2.04	95.663	-22182	2590.4	-0.71931	0.49581	0.48995
2.042	95.603	-22187	2590.2	-0.7197	0.49552	0.49054
2.044	95.55	-22191	2590	-0.72009	0.49522	0.49112
2.046	95.49	-22195	2589.9	-0.72048	0.49493	0.49171
2.048	95.471	-22199	2589.8	-0.72087	0.49464	0.49229
2.05	95.482	-22197	2589.7	-0.72126	0.49434	0.49288
2.052	95.487	-22195	2589.6	-0.72146	0.49483	0.49259
2.054	95.496	-22196	2589.4	-0.72165	0.49532	0.49229
2.056	95.51	-22197	2589.3	-0.72185	0.49581	0.492
2.058	95.51	-22205	2589.2	-0.72204	0.4963	0.49171
2.06	95.505	-22214	2589.1	-0.72224	0.49678	0.49142
2.062	95.508	-22204	2589	-0.72244	0.49727	0.49142
2.064	95.501	-22194	2588.9	-0.72263	0.49776	0.49142
2.066	95.474	-22201	2588.7	-0.72283	0.49825	0.49142
2.068	95.44	-22208	2588.5	-0.72302	0.49874	0.49142
2.07	95.386	-22209	2588.4	-0.72322	0.49922	0.49142
2.072	95.349	-22211	2588.2	-0.72253	0.49874	0.49132
2.074	95.328	-22213	2588.1	-0.72185	0.49825	0.49122
2.076	95.32	-22215	2588	-0.72117	0.49776	0.49112
2.078	95.316	-22213	2587.9	-0.72048	0.49727	0.49103
2.08	95.321	-22212	2587.8	-0.7198	0.49678	0.49093
2.082	95.326	-22213	2587.8	-0.71892	0.49473	0.49161
2.084	95.332	-22215	2587.8	-0.71804	0.49268	0.49229
2.086	95.336	-22217	2587.8	-0.71716	0.49064	0.49298
2.088	95.345	-22219	2587.9	-0.71629	0.48859	0.49366
2.09	95.37	-22222	2587.9	-0.71541	0.48654	0.49434
2.092	95.418	-22224	2588	-0.71648	0.4878	0.49288
2.094	95.481	-22227	2588	-0.71756	0.48907	0.49142
2.096	95.544	-22230	2588.1	-0.71863	0.49034	0.48995
2.098	95.614	-22226	2588.1	-0.7197	0.49161	0.48849
2.1	95.685	-22222	2588.1	-0.72078	0.49288	0.48702
2.102	95.742	-22225	2587.9	-0.72126	0.49288	0.4879
2.104	95.789	-22229	2587.8	-0.72175	0.49288	0.48878
2.106	95.831	-22223	2587.6	-0.72224	0.49288	0.48966
2.108	95.872	-22218	2587.6	-0.72273	0.49288	0.49054
2.11	95.914	-22221	2587.5	-0.72322	0.49288	0.49142
2.112	95.94	-22225	2587.5	-0.72234	0.49249	0.49142
2.114	95.953	-22224	2587.5	-0.72146	0.4921	0.49142
2.116	95.966	-22223	2587.4	-0.72058	0.49171	0.49142
2.118	95.976	-22229	2587.2	-0.7197	0.49132	0.49142
2.12	95.982	-22234	2587.1	-0.71882	0.49093	0.49142
2.122	95.987	-22234	2587	-0.72117	0.49044	0.4922
2.124	96	-22235	2586.9	-0.72351	0.48995	0.49298
2.126	96.007	-22229	2586.8	-0.72585	0.48946	0.49376
2.128	95.998	-22224	2586.7	-0.72819	0.48898	0.49454
2.13	96.005	-22225	2586.6	-0.73054	0.48849	0.49532
2.132	96.019	-22227	2586.6	-0.73093	0.488	0.49561
2.134	96.021	-22232	2586.5	-0.73132	0.48751	0.49591
2.136	96.007	-22238	2586.4	-0.73171	0.48702	0.4962
2.138	95.996	-22238	2586.4	-0.7321	0.48654	0.49649
2.14	96.001	-22239	2586.4	-0.73249	0.48605	0.49678
2.142	96.016	-22232	2586.3	-0.73171	0.48595	0.49678
2.144	96.03	-22224	2586.2	-0.73093	0.48585	0.49678
2.146	96.022	-22224	2586.1	-0.73015	0.48576	0.49678
2.148	96.021	-22225	2586	-0.72936	0.48566	0.49678
2.15	96.021	-22229	2586	-0.72858	0.48556	0.49678
2.152	96.018	-22232	2585.9	-0.72858	0.48566	0.49659
2.154	96.012	-22235	2585.9	-0.72858	0.48576	0.49639
2.156	96.009	-22239	2585.9	-0.72858	0.48585	0.4962
2.158	96.013	-22239	2585.9	-0.72858	0.48595	0.496
2.16	96.007	-22240	2585.8	-0.72858	0.48605	0.49581
2.162	96.004	-22242	2585.8	-0.72819	0.48634	0.49581
2.164	96.003	-22243	2585.8	-0.7278	0.48663	0.49581
2.166	96.004	-22242	2585.7	-0.72741	0.48693	0.49581
2.168	96.004	-22242	2585.8	-0.72702	0.48722	0.49581
2.17	95.994	-22240	2585.8	-0.72663	0.48751	0.49581
2.172	95.99	-22238	2585.8	-0.72663	0.4881	0.4961
2.174	95.995	-22235	2585.9	-0.72663	0.48868	0.49639
2.176	96.004	-22233	2585.9	-0.72663	0.48927	0.49669
2.178	96.01	-22237	2585.9	-0.72663	0.48985	0.49698
2.18	95.995	-22241	2585.9	-0.72663	0.49044	0.49727
2.182	95.979	-22245	2586	-0.72614	0.49093	0.4962
2.184	95.986	-22249	2586	-0.72566	0.49142	0.49512
2.186	95.994	-22249	2586	-0.72517	0.4919	0.49405
2.188	95.988	-22249	2586.1	-0.72468	0.49239	0.49298
2.19	95.988	-22249	2586.1	-0.72419	0.49288	0.4919
2.192	95.99	-22249	2586.3	-0.72273	0.492	0.49268
2.194	95.977	-22247	2586.4	-0.72126	0.49112	0.49347
2.196	95.965	-22244	2586.6	-0.7198	0.49024	0.49425
2.198	95.965	-22248	2586.7	-0.71834	0.48937	0.49503
2.2	95.969	-22252	2586.8	-0.71687	0.48849	0.49581
2.202	95.968	-22251	2586.9	-0.71785	0.48985	0.49415
2.204	95.967	-22251	2587	-0.71882	0.49122	0.49249
2.206	95.962	-22250	2587.1	-0.7198	0.49259	0.49083
2.208	95.953	-22249	2587.2	-0.72078	0.49395	0.48917
2.21	95.955	-22251	2587.3	-0.72175	0.49532	0.48751
2.212	95.959	-22253	2587.5	-0.72136	0.49395	0.48898
2.214	95.972	-22254	2587.8	-0.72097	0.49259	0.49044
2.216	95.971	-22256	2588.1	-0.72058	0.49122	0.4919
2.218	95.958	-22257	2588.3	-0.72019	0.48985	0.49337
2.22	95.956	-22259	2588.5	-0.7198	0.48849	0.49483
2.222	95.954	-22256	2588.7	-0.71882	0.48888	0.49395
2.224	95.942	-22253	2588.8	-0.71785	0.48927	0.49308
2.226	95.945	-22251	2589	-0.71687	0.48966	0.4922
2.228	95.963	-22249	2589.3	-0.7159	0.49005	0.49132
2.23	95.966	-22248	2589.5	-0.71492	0.49044	0.49044
2.232	95.95	-22247	2589.9	-0.71551	0.49142	0.49044
2.234	95.952	-22249	2590.2	-0.71609	0.49239	0.49044
2.236	95.972	-22250	2590.6	-0.71668	0.49337	0.49044
2.238	95.976	-22248	2591.1	-0.71726	0.49434	0.49044
2.24	95.974	-22246	2591.5	-0.71785	0.49532	0.49044
2.242	95.975	-22243	2592.2	-0.71941	0.49532	0.49122
2.244	95.97	-22241	2592.8	-0.72097	0.49532	0.492
2.246	95.964	-22244	2593.5	-0.72253	0.49532	0.49278
2.248	95.961	-22247	2594.3	-0.72409	0.49532	0.49356
2.25	95.973	-22246	2595.1	-0.72566	0.49532	0.49434
2.252	95.976	-22246	2596	-0.72605	0.49581	0.49483
2.254	95.973	-22245	2596.8	-0.72644	0.4963	0.49532
2.256	95.972	-22245	2597.7	-0.72683	0.49678	0.49581
2.258	95.973	-22245	2598.7	-0.72722	0.49727	0.4963
2.26	95.976	-22245	2599.6	-0.72761	0.49776	0.49678
2.262	95.973	-22245	2600.6	-0.72692	0.49835	0.49678
2.264	95.973	-22244	2601.6	-0.72624	0.49893	0.49678
2.266	95.975	-22246	2602.7	-0.72556	0.49952	0.49678
2.268	95.977	-22247	2603.7	-0.72488	0.5001	0.49678
2.27	95.982	-22241	2604.8	-0.72419	0.50069	0.49678
2.272	95.992	-22236	2605.9	-0.724	0.5001	0.49669
2.274	95.995	-22237	2606.9	-0.7238	0.49952	0.49659
2.276	95.986	-22238	2608	-0.72361	0.49893	0.49649
2.278	95.976	-22240	2609	-0.72341	0.49835	0.49639
2.28	95.973	-22242	2610.1	-0.72322	0.49776	0.4963
2.282	95.972	-22240	2611.1	-0.72292	0.49776	0.49591
2.284	95.967	-22238	2612.1	-0.72263	0.49776	0.49552
2.286	95.96	-22240	2613.2	-0.72234	0.49776	0.49512
2.288	95.952	-22242	2614.1	-0.72204	0.49776	0.49473
2.29	95.954	-22242	2615.1	-0.72175	0.49776	0.49434
2.292	95.963	-22242	2616.1	-0.72292	0.49747	0.49493
2.294	95.963	-22238	2617	-0.72409	0.49717	0.49552
2.296	95.964	-22235	2618	-0.72527	0.49688	0.4961
2.298	95.954	-22234	2618.8	-0.72644	0.49659	0.49669
2.3	95.946	-22233	2619.7	-0.72761	0.4963	0.49727
2.302	95.94	-22235	2620.4	-0.72683	0.49561	0.49708
2.304	95.934	-22237	2621.2	-0.72605	0.49493	0.49688
2.306	95.922	-22240	2621.9	-0.72527	0.49425	0.49669
2.308	95.913	-22242	2622.5	-0.72448	0.49356	0.49649
2.31	95.904	-22232	2623.2	-0.7237	0.49288	0.4963
2.312	95.905	-22222	2623.8	-0.72292	0.49308	0.49532
2.314	95.91	-22222	2624.3	-0.72214	0.49327	0.49434
2.316	95.906	-22221	2624.8	-0.72136	0.49347	0.49337
2.318	95.898	-22221	2625.3	-0.72058	0.49366	0.49239
2.32	95.887	-22221	2625.7	-0.7198	0.49386	0.49142
2.322	95.883	-22217	2626	-0.72	0.49259	0.49268
2.324	95.883	-22214	2626.2	-0.72019	0.49132	0.49395
2.326	95.87	-22206	2626.4	-0.72039	0.49005	0.49522
2.328	95.864	-22198	2626.5	-0.72058	0.48878	0.49649
2.33	95.871	-22203	2626.7	-0.72078	0.48751	0.49776
2.332	95.879	-22208	2626.7	-0.72019	0.4879	0.49688
2.334	95.877	-22206	2626.7	-0.7196	0.48829	0.496
2.336	95.883	-22204	2626.6	-0.71902	0.48868	0.49512
2.338	95.891	-22200	2626.4	-0.71843	0.48907	0.49425
2.34	95.892	-22196	2626.3	-0.71785	0.48946	0.49337
2.342	95.887	-22194	2626.1	-0.71736	0.48985	0.49249
2.344	95.889	-22191	2625.8	-0.71687	0.49024	0.49161
2.346	95.895	-22192	2625.6	-0.71638	0.49064	0.49073
2.348	95.901	-22192	2625.4	-0.7159	0.49103	0.48985
2.35	95.916	-22192	2625.1	-0.71541	0.49142	0.48898
2.352	95.929	-22192	2624.9	-0.7156	0.49132	0.48888
2.354	95.936	-22186	2624.7	-0.7158	0.49122	0.48878
2.356	95.939	-22180	2624.5	-0.71599	0.49112	0.48868
2.358	95.938	-22182	2624.2	-0.71619	0.49103	0.48859
2.36	95.938	-22183	2623.9	-0.71638	0.49093	0.48849
2.362	95.937	-22189	2623.5	-0.71668	0.492	0.4882
2.364	95.937	-22195	2623.2	-0.71697	0.49308	0.4879
2.366	95.941	-22192	2622.8	-0.71726	0.49415	0.48761
2.368	95.945	-22189	2622.4	-0.71756	0.49522	0.48732
2.37	95.948	-22186	2622	-0.71785	0.4963	0.48702
2.372	95.954	-22183	2621.6	-0.71834	0.49581	0.48693
2.374	95.961	-22176	2621.2	-0.71882	0.49532	0.48683
2.376	95.966	-22170	2620.8	-0.71931	0.49483	0.48673
2.378	95.963	-22175	2620.5	-0.7198	0.49434	0.48663
2.38	95.959	-22180	2620.1	-0.72029	0.49386	0.48654
2.382	95.972	-22179	2619.7	-0.72009	0.49327	0.4879
2.384	95.98	-22178	2619.3	-0.7199	0.49268	0.48927
2.386	95.985	-22177	2618.9	-0.7197	0.4921	0.49064
2.388	95.985	-22175	2618.6	-0.71951	0.49151	0.492
2.39	95.963	-22171	2618.2	-0.71931	0.49093	0.49337
2.392	95.963	-22166	2617.9	-0.71873	0.49103	0.49298
2.394	95.966	-22165	2617.5	-0.71814	0.49112	0.49259
2.396	95.968	-22163	2617.1	-0.71756	0.49122	0.4922
2.398	95.964	-22174	2616.8	-0.71697	0.49132	0.49181
2.4	95.967	-22185	2616.4	-0.71638	0.49142	0.49142
2.402	95.972	-22186	2616	-0.71765	0.49249	0.4922
2.404	95.964	-22187	2615.5	-0.71892	0.49356	0.49298
2.406	95.955	-22191	2615.1	-0.72019	0.49464	0.49376
2.408	95.964	-22195	2614.5	-0.72146	0.49571	0.49454
2.41	95.986	-22188	2614	-0.72273	0.49678	0.49532
2.412	95.988	-22180	2613.6	-0.72331	0.49639	0.49503
2.414	95.975	-22180	2613.1	-0.7239	0.496	0.49473
2.416	95.969	-22179	2612.6	-0.72448	0.49561	0.49444
2.418	95.974	-22181	2612.1	-0.72507	0.49522	0.49415
2.42	95.978	-22183	2611.5	-0.72566	0.49483	0.49386
2.422	95.966	-22181	2611	-0.7239	0.49493	0.49298
2.424	95.948	-22178	2610.4	-0.72214	0.49503	0.4921
2.426	95.945	-22177	2609.8	-0.72039	0.49512	0.49122
2.428	95.965	-22176	2609.2	-0.71863	0.49522	0.49034
2.43	95.994	-22176	2608.5	-0.71687	0.49532	0.48946
2.432	95.996	-22176	2607.9	-0.71814	0.49552	0.49015
2.434	95.978	-22177	2607.2	-0.71941	0.49571	0.49083
2.436	95.97	-22178	2606.6	-0.72068	0.49591	0.49151
2.438	95.978	-22183	2606	-0.72195	0.4961	0.4922
2.44	95.982	-22187	2605.4	-0.72322	0.4963	0.49288
2.442	95.987	-22188	2604.8	-0.7237	0.49669	0.49347
2.444	95.994	-22188	2604.3	-0.72419	0.49708	0.49405
2.446	95.99	-22189	2603.8	-0.72468	0.49747	0.49464
2.448	95.978	-22190	2603.4	-0.72517	0.49786	0.49522
2.45	95.973	-22193	2602.9	-0.72566	0.49825	0.49581
2.452	95.973	-22196	2602.5	-0.72634	0.49776	0.49532
2.454	95.976	-22195	2602.1	-0.72702	0.49727	0.49483
2.456	95.976	-22193	2601.7	-0.72771	0.49678	0.49434
2.458	95.982	-22196	2601.3	-0.72839	0.4963	0.49386
2.46	95.992	-22199	2601	-0.72907	0.49581	0.49337
2.462	95.993	-22200	2600.7	-0.72732	0.4961	0.49278
2.464	95.995	-22200	2600.4	-0.72556	0.49639	0.4922
2.466	95.99	-22202	2600.1	-0.7238	0.49669	0.49161
2.468	95.987	-22204	2599.8	-0.72204	0.49698	0.49103
2.47	95.984	-22209	2599.4	-0.72029	0.49727	0.49044
2.472	95.979	-22213	2599.2	-0.71941	0.4962	0.49054
2.474	95.972	-22221	2599	-0.71853	0.49512	0.49064
2.476	95.968	-22229	2598.8	-0.71765	0.49405	0.49073
2.478	95.968	-22223	2598.6	-0.71677	0.49298	0.49083
2.48	95.977	-22218	2598.4	-0.7159	0.4919	0.49093
2.482	95.988	-22215	2598.3	-0.71756	0.4919	0.4921
2.484	95.987	-22212	2598.2	-0.71921	0.4919	0.49327
2.486	95.981	-22214	2598.1	-0.72087	0.4919	0.49444
2.488	95.986	-22215	2598.1	-0.72253	0.4919	0.49561
2.49	95.987	-22219	2598	-0.72419	0.4919	0.49678
2.492	95.984	-22223	2598	-0.72439	0.49249	0.4962
2.494	95.981	-22218	2598	-0.72458	0.49308	0.49561
2.496	95.986	-22213	2598.1	-0.72478	0.49366	0.49503
2.498	95.989	-22217	2598.2	-0.72497	0.49425	0.49444
2.5	95.992	-22221	2598.4	-0.72517	0.49483	0.49386
2.502	95.996	-22225	2598.6	-0.72507	0.49415	0.49464
2.504	95.99	-22229	2598.7	-0.72497	0.49347	0.49542
2.506	95.983	-22221	2598.9	-0.72488	0.49278	0.4962
2.508	95.976	-22213	2599.1	-0.72478	0.4921	0.49698
2.51	95.972	-22215	2599.3	-0.72468	0.49142	0.49776
2.512	95.977	-22217	2599.4	-0.7238	0.49142	0.49659
2.514	95.98	-22227	2599.5	-0.72292	0.49142	0.49542
2.516	95.971	-22237	2599.6	-0.72204	0.49142	0.49425
2.518	95.967	-22235	2599.8	-0.72117	0.49142	0.49308
2.52	95.977	-22234	2599.9	-0.72029	0.49142	0.4919
2.522	95.991	-22231	2600	-0.72039	0.49103	0.49278
2.524	95.997	-22227	2600.1	-0.72048	0.49064	0.49366
2.526	95.994	-22227	2600.1	-0.72058	0.49024	0.49454
2.528	95.987	-22227	2600.2	-0.72068	0.48985	0.49542
2.53	95.981	-22234	2600.3	-0.72078	0.48946	0.4963
2.532	95.985	-22241	2600.4	-0.72068	0.49015	0.496
2.534	95.993	-22236	2600.5	-0.72058	0.49083	0.49571
2.536	95.993	-22230	2600.6	-0.72048	0.49151	0.49542
2.538	95.987	-22242	2600.6	-0.72039	0.4922	0.49512
2.54	95.982	-22255	2600.7	-0.72029	0.49288	0.49483
2.542	95.975	-22242	2600.7	-0.7197	0.4921	0.49405
2.544	95.972	-22229	2600.7	-0.71912	0.49132	0.49327
2.546	95.971	-22232	2600.7	-0.71853	0.49054	0.49249
2.548	95.974	-22236	2600.6	-0.71795	0.48976	0.49171
2.55	95.982	-22244	2600.5	-0.71736	0.48898	0.49093
2.552	95.982	-22253	2600.5	-0.71697	0.48937	0.49083
2.554	95.979	-22248	2600.5	-0.71658	0.48976	0.49073
2.556	95.978	-22244	2600.5	-0.71619	0.49015	0.49064
2.558	95.972	-22243	2600.4	-0.7158	0.49054	0.49054
2.56	95.979	-22241	2600.4	-0.71541	0.49093	0.49044
2.562	95.975	-22246	2600.3	-0.71629	0.492	0.49015
2.564	95.95	-22250	2600.3	-0.71716	0.49308	0.48985
2.566	95.934	-22252	2600.2	-0.71804	0.49415	0.48956
2.568	95.924	-22255	2600.2	-0.71892	0.49522	0.48927
2.57	95.921	-22255	2600.1	-0.7198	0.4963	0.48898
2.572	95.927	-22255	2600.2	-0.7197	0.49483	0.49044
2.574	95.918	-22253	2600.3	-0.7196	0.49337	0.4919
2.576	95.895	-22250	2600.3	-0.71951	0.4919	0.49337
2.578	95.88	-22253	2600.3	-0.71941	0.49044	0.49483
2.58	95.883	-22257	2600.3	-0.71931	0.48898	0.4963
2.582	95.901	-22250	2600.2	-0.71921	0.48966	0.49522
2.584	95.912	-22243	2600.2	-0.71912	0.49034	0.49415
2.586	95.912	-22252	2600.2	-0.71902	0.49103	0.49308
2.588	95.904	-22261	2600.2	-0.71892	0.49171	0.492
2.59	95.893	-22265	2600.2	-0.71882	0.49239	0.49093
2.592	95.888	-22268	2600.1	-0.71931	0.49278	0.49112
2.594	95.891	-22265	2600.1	-0.7198	0.49317	0.49132
2.596	95.888	-22262	2600.1	-0.72029	0.49356	0.49151
2.598	95.884	-22265	2600.1	-0.72078	0.49395	0.49171
2.6	95.89	-22268	2600.1	-0.72126	0.49434	0.4919
2.602	95.907	-22271	2600	-0.72068	0.49464	0.49122
2.604	95.908	-22275	2599.9	-0.72009	0.49493	0.49054
2.606	95.905	-22273	2599.8	-0.71951	0.49522	0.48985
2.608	95.913	-22270	2599.6	-0.71892	0.49552	0.48917
2.61	95.927	-22269	2599.5	-0.71834	0.49581	0.48849
2.612	95.944	-22267	2599.3	-0.71853	0.49532	0.48907
2.614	95.968	-22268	2599.2	-0.71873	0.49483	0.48966
2.616	95.992	-22270	2599.1	-0.71892	0.49434	0.49024
2.618	96.002	-22280	2598.9	-0.71912	0.49386	0.49083
2.62	96.003	-22290	2598.7	-0.71931	0.49337	0.49142
2.622	96.003	-22289	2598.5	-0.7196	0.49376	0.49142
2.624	96.004	-22288	2598.3	-0.7199	0.49415	0.49142
2.626	96.007	-22290	2598.2	-0.72019	0.49454	0.49142
2.628	96.014	-22292	2597.9	-0.72048	0.49493	0.49142
2.63	96.016	-22290	2597.7	-0.72078	0.49532	0.49142
2.632	96.022	-22287	2597.5	-0.72097	0.49561	0.49132
2.634	96.028	-22291	2597.2	-0.72117	0.49591	0.49122
2.636	96.029	-22296	2597	-0.72136	0.4962	0.49112
2.638	96.03	-22291	2596.7	-0.72156	0.49649	0.49103
2.64	96.021	-22286	2596.4	-0.72175	0.49678	0.49093
2.642	96.007	-22290	2596.2	-0.72107	0.4961	0.49083
2.644	96.017	-22294	2596	-0.72039	0.49542	0.49073
2.646	96.031	-22298	2595.9	-0.7197	0.49473	0.49064
2.648	96.024	-22302	2595.8	-0.71902	0.49405	0.49054
2.65	96.018	-22302	2595.7	-0.71834	0.49337	0.49044
2.652	96.008	-22302	2595.6	-0.71795	0.49298	0.49073
2.654	95.997	-22300	2595.5	-0.71756	0.49259	0.49103
2.656	95.986	-22298	2595.4	-0.71716	0.4922	0.49132
2.658	95.995	-22303	2595.2	-0.71677	0.49181	0.49161
2.66	96.02	-22308	2595.1	-0.71638	0.49142	0.4919
2.662	96.034	-22305	2594.8	-0.71716	0.4919	0.4922
2.664	96.039	-22302	2594.6	-0.71795	0.49239	0.49249
2.666	96.035	-22304	2594.4	-0.71873	0.49288	0.49278
2.668	96.031	-22305	2594.2	-0.71951	0.49337	0.49308
2.67	96.027	-22303	2594	-0.72029	0.49386	0.49337
2.672	96.027	-22301	2594	-0.72078	0.49444	0.49356
2.674	96.023	-22304	2593.9	-0.72126	0.49503	0.49376
2.676	96.02	-22307	2593.8	-0.72175	0.49561	0.49395
2.678	96.022	-22301	2593.7	-0.72224	0.4962	0.49415
2.68	96.021	-22296	2593.6	-0.72273	0.49678	0.49434
2.682	96.021	-22305	2593.4	-0.72292	0.49669	0.49434
2.684	96.022	-22314	2593.2	-0.72312	0.49659	0.49434
2.686	96.02	-22310	2593	-0.72331	0.49649	0.49434
2.688	96.021	-22307	2592.8	-0.72351	0.49639	0.49434
2.69	96.028	-22303	2592.6	-0.7237	0.4963	0.49434
2.692	96.033	-22299	2592.4	-0.72312	0.496	0.49376
2.694	96.033	-22300	2592.2	-0.72253	0.49571	0.49317
2.696	96.035	-22301	2592	-0.72195	0.49542	0.49259
2.698	96.039	-22302	2591.8	-0.72136	0.49512	0.492
2.7	96.036	-22302	2591.6	-0.72078	0.49483	0.49142
2.702	96.027	-22306	2591.4	-0.72117	0.49473	0.4919
2.704	96.015	-22310	2591.2	-0.72156	0.49464	0.49239
2.706	96.008	-22313	2591	-0.72195	0.49454	0.49288
2.708	96.008	-22315	2590.8	-0.72234	0.49444	0.49337
2.71	96.005	-22311	2590.6	-0.72273	0.49434	0.49386
2.712	96	-22306	2590.4	-0.72214	0.49317	0.49444
2.714	95.995	-22312	2590.2	-0.72156	0.492	0.49503
2.716	95.98	-22317	2589.9	-0.72097	0.49083	0.49561
2.718	95.96	-22317	2589.7	-0.72039	0.48966	0.4962
2.72	95.952	-22317	2589.5	-0.7198	0.48849	0.49678
2.722	95.95	-22313	2589.3	-0.72078	0.48946	0.49659
2.724	95.947	-22310	2589.1	-0.72175	0.49044	0.49639
2.726	95.95	-22317	2588.9	-0.72273	0.49142	0.4962
2.728	95.951	-22325	2588.6	-0.7237	0.49239	0.496
2.73	95.942	-22325	2588.4	-0.72468	0.49337	0.49581
2.732	95.924	-22325	2588.2	-0.7238	0.49298	0.49542
2.734	95.905	-22323	2588	-0.72292	0.49259	0.49503
2.736	95.905	-22321	2587.8	-0.72204	0.4922	0.49464
2.738	95.912	-22326	2587.6	-0.72117	0.49181	0.49425
2.74	95.892	-22331	2587.4	-0.72029	0.49142	0.49386
2.742	95.864	-22330	2587.2	-0.7196	0.49161	0.49327
2.744	95.814	-22330	2587.1	-0.71892	0.49181	0.49268
2.746	95.771	-22330	2586.9	-0.71824	0.492	0.4921
2.748	95.71	-22331	2586.6	-0.71756	0.4922	0.49151
2.75	95.642	-22335	2586.4	-0.71687	0.49239	0.49093
2.752	95.586	-22339	2586.2	-0.71814	0.4921	0.4919
2.754	95.539	-22339	2585.9	-0.71941	0.49181	0.49288
2.756	95.523	-22339	2585.7	-0.72068	0.49151	0.49386
2.758	95.533	-22340	2585.4	-0.72195	0.49122	0.49483
2.76	95.542	-22341	2585.1	-0.72322	0.49093	0.49581
2.762	95.551	-22346	2584.9	-0.72361	0.49171	0.49571
2.764	95.566	-22351	2584.7	-0.724	0.49249	0.49561
2.766	95.554	-22350	2584.5	-0.72439	0.49327	0.49552
2.768	95.535	-22350	2584.2	-0.72478	0.49405	0.49542
2.77	95.528	-22349	2584	-0.72517	0.49483	0.49532
2.772	95.52	-22349	2583.7	-0.72468	0.49532	0.49473
2.774	95.517	-22351	2583.5	-0.72419	0.49581	0.49415
2.776	95.498	-22353	2583.2	-0.7237	0.4963	0.49356
2.778	95.441	-22354	2583	-0.72322	0.49678	0.49298
2.78	95.389	-22355	2582.7	-0.72273	0.49727	0.49239
2.782	95.37	-22357	2582.4	-0.72146	0.49591	0.49278
2.784	95.364	-22358	2582.1	-0.72019	0.49454	0.49317
2.786	95.369	-22361	2581.8	-0.71892	0.49317	0.49356
2.788	95.385	-22364	2581.6	-0.71765	0.49181	0.49395
2.79	95.395	-22364	2581.4	-0.71638	0.49044	0.49434
2.792	95.4	-22364	2581.2	-0.71687	0.49161	0.49376
2.794	95.406	-22364	2581	-0.71736	0.49278	0.49317
2.796	95.419	-22364	2580.7	-0.71785	0.49395	0.49259
2.798	95.444	-22368	2580.5	-0.71834	0.49512	0.492
2.8	95.489	-22372	2580.2	-0.71882	0.4963	0.49142
2.802	95.543	-22371	2580.1	-0.72	0.49552	0.4921
2.804	95.599	-22371	2579.9	-0.72117	0.49473	0.49278
2.806	95.674	-22372	2579.8	-0.72234	0.49395	0.49347
2.808	95.749	-22374	2579.7	-0.72351	0.49317	0.49415
2.81	95.802	-22384	2579.6	-0.72468	0.49239	0.49483
2.812	95.85	-22394	2579.6	-0.72351	0.49259	0.49395
2.814	95.898	-22394	2579.5	-0.72234	0.49278	0.49308
2.816	95.92	-22393	2579.4	-0.72117	0.49298	0.4922
2.818	95.951	-22391	2579.3	-0.72	0.49317	0.49132
2.82	95.972	-22388	2579.3	-0.71882	0.49337	0.49044
2.822	95.981	-22388	2579.1	-0.7199	0.49356	0.49064
2.824	96	-22388	2579	-0.72097	0.49376	0.49083
2.826	96.013	-22389	2578.9	-0.72204	0.49395	0.49103
2.828	96.021	-22390	2578.7	-0.72312	0.49415	0.49122
2.83	96.035	-22390	2578.5	-0.72419	0.49434	0.49142
2.832	96.039	-22391	2578.4	-0.72341	0.49376	0.49229
2.834	96.044	-22394	2578.2	-0.72263	0.49317	0.49317
2.836	96.045	-22397	2578.1	-0.72185	0.49259	0.49405
2.838	96.042	-22396	2577.9	-0.72107	0.492	0.49493
2.84	96.042	-22395	2577.8	-0.72029	0.49142	0.49581
2.842	96.045	-22395	2577.7	-0.72019	0.49093	0.49522
2.844	96.043	-22395	2577.6	-0.72009	0.49044	0.49464
2.846	96.045	-22397	2577.6	-0.72	0.48995	0.49405
2.848	96.044	-22399	2577.6	-0.7199	0.48946	0.49347
2.85	96.04	-22402	2577.5	-0.7198	0.48898	0.49288
2.852	96.041	-22405	2577.6	-0.72117	0.48898	0.49366
2.854	96.048	-22407	2577.6	-0.72253	0.48898	0.49444
2.856	96.044	-22409	2577.6	-0.7239	0.48898	0.49522
2.858	96.034	-22409	2577.7	-0.72527	0.48898	0.496
2.86	96.035	-22409	2577.8	-0.72663	0.48898	0.49678
2.862	96.04	-22411	2577.8	-0.72683	0.4882	0.49708
2.864	96.036	-22412	2577.9	-0.72702	0.48741	0.49737
2.866	96.034	-22412	2577.9	-0.72722	0.48663	0.49766
2.868	96.032	-22412	2577.9	-0.72741	0.48585	0.49796
2.87	96.027	-22414	2577.9	-0.72761	0.48507	0.49825
2.872	96.024	-22415	2577.9	-0.72751	0.48585	0.49844
2.874	96.023	-22419	2577.9	-0.72741	0.48663	0.49864
2.876	96.023	-22423	2577.8	-0.72732	0.48741	0.49883
2.878	96.025	-22425	2577.7	-0.72722	0.4882	0.49903
2.88	96.026	-22427	2577.7	-0.72712	0.48898	0.49922
2.882	96.014	-22427	2577.6	-0.72546	0.48907	0.49805
2.884	95.993	-22427	2577.5	-0.7238	0.48917	0.49688
2.886	95.988	-22425	2577.4	-0.72214	0.48927	0.49571
2.888	96.002	-22422	2577.2	-0.72048	0.48937	0.49454
2.89	96.022	-22421	2577.1	-0.71882	0.48946	0.49337
2.892	96.034	-22420	2576.9	-0.71921	0.48976	0.49288
2.894	96.025	-22426	2576.7	-0.7196	0.49005	0.49239
2.896	96.022	-22432	2576.5	-0.72	0.49034	0.4919
2.898	96.016	-22423	2576.3	-0.72039	0.49064	0.49142
2.9	96.008	-22414	2576.1	-0.72078	0.49093	0.49093
2.902	96.012	-22422	2575.9	-0.72214	0.49054	0.492
2.904	96.009	-22430	2575.8	-0.72351	0.49015	0.49308
2.906	95.997	-22430	2575.6	-0.72488	0.48976	0.49415
2.908	95.977	-22430	2575.5	-0.72624	0.48937	0.49522
2.91	95.97	-22437	2575.4	-0.72761	0.48898	0.4963
2.912	95.976	-22444	2575.2	-0.72761	0.48878	0.4961
2.914	95.991	-22440	2575	-0.72761	0.48859	0.49591
2.916	95.99	-22435	2574.8	-0.72761	0.48839	0.49571
2.918	95.98	-22438	2574.7	-0.72761	0.4882	0.49552
2.92	95.972	-22441	2574.6	-0.72761	0.488	0.49532
2.922	95.982	-22435	2574.4	-0.72614	0.48849	0.49405
2.924	96	-22429	2574.3	-0.72468	0.48898	0.49278
2.926	95.997	-22441	2574.1	-0.72322	0.48946	0.49151
2.928	95.988	-22452	2574	-0.72175	0.48995	0.49024
2.93	95.986	-22448	2573.9	-0.72029	0.49044	0.48898
2.932	95.983	-22444	2574	-0.72019	0.49083	0.48898
2.934	95.974	-22444	2574	-0.72009	0.49122	0.48898
2.936	95.968	-22444	2574.2	-0.72	0.49161	0.48898
2.938	95.97	-22445	2574.3	-0.7199	0.492	0.48898
2.94	95.977	-22446	2574.5	-0.7198	0.49239	0.48898
2.942	95.984	-22451	2574.8	-0.7199	0.492	0.49015
2.944	95.983	-22456	2575.1	-0.72	0.49161	0.49132
2.946	95.982	-22459	2575.5	-0.72009	0.49122	0.49249
2.948	95.986	-22463	2576	-0.72019	0.49083	0.49366
2.95	95.986	-22461	2576.4	-0.72029	0.49044	0.49483
2.952	95.984	-22459	2577	-0.72019	0.49122	0.49395
2.954	95.983	-22454	2577.7	-0.72009	0.492	0.49308
2.956	95.985	-22448	2578.3	-0.72	0.49278	0.4922
2.958	95.987	-22449	2579.1	-0.7199	0.49356	0.49132
2.96	95.984	-22449	2579.8	-0.7198	0.49434	0.49044
2.962	95.984	-22456	2580.7	-0.72039	0.49493	0.49122
2.964	95.985	-22463	2581.5	-0.72097	0.49552	0.492
2.966	95.985	-22467	2582.4	-0.72156	0.4961	0.49278
2.968	95.995	-22471	2583.4	-0.72214	0.49669	0.49356
2.97	96	-22474	2584.3	-0.72273	0.49727	0.49434
2.972	95.999	-22478	2585.3	-0.72302	0.49727	0.49454
2.974	95.993	-22480	2586.3	-0.72331	0.49727	0.49473
2.976	95.982	-22483	2587.3	-0.72361	0.49727	0.49493
2.978	95.982	-22478	2588.3	-0.7239	0.49727	0.49512
2.98	95.989	-22473	2589.4	-0.72419	0.49727	0.49532
2.982	95.998	-22471	2590.4	-0.7239	0.49688	0.49454
2.984	95.991	-22469	2591.5	-0.72361	0.49649	0.49376
2.986	95.98	-22467	2592.5	-0.72331	0.4961	0.49298
2.988	95.982	-22464	2593.6	-0.72302	0.49571	0.4922
2.99	95.994	-22469	2594.7	-0.72273	0.49532	0.49142
2.992	95.998	-22474	2595.6	-0.72273	0.49532	0.49161
2.994	95.997	-22470	2596.5	-0.72273	0.49532	0.49181
2.996	95.984	-22465	2597.4	-0.72273	0.49532	0.492
2.998	95.978	-22461	2598.2	-0.72273	0.49532	0.4922
3	95.978	-22456	2599.1	-0.72273	0.49532	0.49239
3.002	95.968	-22457	2599.8	-0.72292	0.49532	0.49259
3.004	95.973	-22457	2600.6	-0.72312	0.49532	0.49278
3.006	95.975	-22458	2601.3	-0.72331	0.49532	0.49298
3.008	95.957	-22458	2601.9	-0.72351	0.49532	0.49317
3.01	95.94	-22459	2602.5	-0.7237	0.49532	0.49337
3.012	95.926	-22460	2602.9	-0.72195	0.49454	0.49327
3.014	95.925	-22456	2603.4	-0.72019	0.49376	0.49317
3.016	95.931	-22453	2603.8	-0.71843	0.49298	0.49308
3.018	95.931	-22456	2604.2	-0.71668	0.4922	0.49298
3.02	95.934	-22459	2604.5	-0.71492	0.49142	0.49288
3.022	95.931	-22458	2604.8	-0.71677	0.492	0.49317
3.024	95.911	-22456	2605.2	-0.71863	0.49259	0.49347
3.026	95.893	-22452	2605.4	-0.72048	0.49317	0.49376
3.028	95.885	-22448	2605.6	-0.72234	0.49376	0.49405
3.03	95.883	-22451	2605.8	-0.72419	0.49434	0.49434
3.032	95.895	-22454	2605.9	-0.72283	0.49415	0.49298
3.034	95.905	-22450	2606	-0.72146	0.49395	0.49161
3.036	95.9	-22447	2606.1	-0.72009	0.49376	0.49024
3.038	95.89	-22442	2606.1	-0.71873	0.49356	0.48888
3.04	95.882	-22438	2606.1	-0.71736	0.49337	0.48751
3.042	95.88	-22438	2606	-0.71785	0.49376	0.4878
3.044	95.879	-22438	2605.9	-0.71834	0.49415	0.4881
3.046	95.88	-22436	2605.8	-0.71882	0.49454	0.48839
3.048	95.888	-22433	2605.7	-0.71931	0.49493	0.48868
3.05	95.9	-22434	2605.6	-0.7198	0.49532	0.48898
3.052	95.907	-22436	2605.5	-0.71863	0.49425	0.48859
3.054	95.906	-22428	2605.3	-0.71746	0.49317	0.4882
3.056	95.907	-22421	2605.1	-0.71629	0.4921	0.4878
3.058	95.92	-22428	2605	-0.71512	0.49103	0.48741
3.06	95.928	-22436	2604.8	-0.71394	0.48995	0.48702
3.062	95.922	-22429	2604.6	-0.71541	0.49044	0.48741
3.064	95.914	-22422	2604.3	-0.71687	0.49093	0.4878
3.066	95.912	-22422	2604.1	-0.71834	0.49142	0.4882
3.068	95.92	-22421	2603.8	-0.7198	0.4919	0.48859
3.07	95.922	-22427	2603.6	-0.72126	0.49239	0.48898
3.072	95.923	-22432	2603.3	-0.72039	0.492	0.48907
3.074	95.936	-22429	2603	-0.71951	0.49161	0.48917
3.076	95.956	-22425	2602.7	-0.71863	0.49122	0.48927
3.078	95.955	-22423	2602.5	-0.71775	0.49083	0.48937
3.08	95.956	-22421	2602.2	-0.71687	0.49044	0.48946
3.082	95.965	-22421	2601.9	-0.71726	0.49112	0.48937
3.084	95.961	-22421	2601.6	-0.71765	0.49181	0.48927
3.086	95.959	-22419	2601.3	-0.71804	0.49249	0.48917
3.088	95.951	-22418	2600.9	-0.71843	0.49317	0.48907
3.09	95.945	-22414	2600.6	-0.71882	0.49386	0.48898
3.092	95.947	-22410	2600.2	-0.71912	0.49434	0.48937
3.094	95.962	-22416	2599.8	-0.71941	0.49483	0.48976
3.096	95.971	-22421	2599.4	-0.7197	0.49532	0.49015
3.098	95.971	-22425	2599	-0.72	0.49581	0.49054
3.1	95.969	-22429	2598.6	-0.72029	0.4963	0.49093
3.102	95.976	-22420	2598.1	-0.72048	0.49639	0.49054
3.104	95.97	-22412	2597.6	-0.72068	0.49649	0.49015
3.106	95.975	-22415	2597	-0.72087	0.49659	0.48976
3.108	95.982	-22418	2596.5	-0.72107	0.49669	0.48937
3.11	95.974	-22419	2595.9	-0.72126	0.49678	0.48898
3.112	95.964	-22421	2595.3	-0.72146	0.4962	0.48985
3.114	95.956	-22416	2594.7	-0.72165	0.49561	0.49073
3.116	95.951	-22412	2594.2	-0.72185	0.49503	0.49161
3.118	95.954	-22409	2593.6	-0.72204	0.49444	0.49249
3.12	95.969	-22405	2593	-0.72224	0.49386	0.49337
3.122	95.98	-22410	2592.4	-0.72185	0.49405	0.49327
3.124	95.985	-22415	2591.8	-0.72146	0.49425	0.49317
3.126	95.986	-22426	2591.2	-0.72107	0.49444	0.49308
3.128	95.981	-22438	2590.5	-0.72068	0.49464	0.49298
3.13	95.976	-22426	2589.9	-0.72029	0.49483	0.49288
3.132	95.968	-22415	2589.2	-0.72	0.49376	0.49288
3.134	95.955	-22418	2588.6	-0.7197	0.49268	0.49288
3.136	95.951	-22422	2588	-0.71941	0.49161	0.49288
3.138	95.959	-22418	2587.6	-0.71912	0.49054	0.49288
3.14	95.966	-22414	2587.1	-0.71882	0.48946	0.49288
3.142	95.969	-22417	2586.6	-0.71843	0.48946	0.49268
3.144	95.972	-22420	2586.1	-0.71804	0.48946	0.49249
3.146	95.972	-22417	2585.7	-0.71765	0.48946	0.49229
3.148	95.963	-22414	2585.3	-0.71726	0.48946	0.4921
3.15	95.952	-22417	2584.9	-0.71687	0.48946	0.4919
3.152	95.945	-22419	2584.5	-0.71775	0.49054	0.49103
3.154	95.944	-22418	2584.1	-0.71863	0.49161	0.49015
3.156	95.946	-22417	2583.7	-0.71951	0.49268	0.48927
3.158	95.965	-22418	2583.4	-0.72039	0.49376	0.48839
3.16	95.965	-22418	2583.1	-0.72126	0.49483	0.48751
3.162	95.971	-22424	2582.8	-0.72126	0.49464	0.48829
3.164	95.977	-22430	2582.5	-0.72126	0.49444	0.48907
3.166	95.974	-22429	2582.2	-0.72126	0.49425	0.48985
3.168	95.953	-22427	2581.9	-0.72126	0.49405	0.49064
3.17	95.941	-22425	2581.7	-0.72126	0.49386	0.49142
3.172	95.945	-22422	2581.4	-0.72195	0.49376	0.49171
3.174	95.951	-22419	2581.2	-0.72263	0.49366	0.492
3.176	95.961	-22416	2581	-0.72331	0.49356	0.49229
3.178	95.969	-22423	2580.8	-0.724	0.49347	0.49259
3.18	95.968	-22429	2580.6	-0.72468	0.49337	0.49288
3.182	95.957	-22431	2580.4	-0.724	0.49249	0.49298
3.184	95.953	-22433	2580.3	-0.72331	0.49161	0.49308
3.186	95.953	-22435	2580.1	-0.72263	0.49073	0.49317
3.188	95.953	-22438	2580.1	-0.72195	0.48985	0.49327
3.19	95.963	-22435	2580	-0.72126	0.48898	0.49337
3.192	95.975	-22432	2580	-0.72087	0.48946	0.49327
3.194	95.981	-22434	2580	-0.72048	0.48995	0.49317
3.196	95.978	-22437	2580	-0.72009	0.49044	0.49308
3.198	95.962	-22437	2580	-0.7197	0.49093	0.49298
3.2	95.959	-22437	2580.1	-0.71931	0.49142	0.49288
3.202	95.964	-22438	2580.1	-0.71921	0.49103	0.49288
3.204	95.961	-22438	2580.2	-0.71912	0.49064	0.49288
3.206	95.96	-22448	2580.3	-0.71902	0.49024	0.49288
3.208	95.961	-22457	2580.3	-0.71892	0.48985	0.49288
3.21	95.959	-22448	2580.4	-0.71882	0.48946	0.49288
3.212	95.956	-22439	2580.5	-0.71921	0.48966	0.49278
3.214	95.955	-22445	2580.5	-0.7196	0.48985	0.49268
3.216	95.956	-22452	2580.5	-0.72	0.49005	0.49259
3.218	95.959	-22450	2580.6	-0.72039	0.49024	0.49249
3.22	95.959	-22449	2580.6	-0.72078	0.49044	0.49239
3.222	95.967	-22449	2580.6	-0.72058	0.49073	0.49259
3.224	95.977	-22449	2580.6	-0.72039	0.49103	0.49278
3.226	95.97	-22454	2580.6	-0.72019	0.49132	0.49298
3.228	95.952	-22460	2580.6	-0.72	0.49161	0.49317
3.23	95.945	-22459	2580.6	-0.7198	0.4919	0.49337
3.232	95.956	-22458	2580.6	-0.7199	0.4922	0.49327
3.234	95.973	-22457	2580.6	-0.72	0.49249	0.49317
3.236	95.983	-22457	2580.7	-0.72009	0.49278	0.49308
3.238	95.978	-22457	2580.7	-0.72019	0.49308	0.49298
3.24	95.968	-22457	2580.8	-0.72029	0.49337	0.49288
3.242	95.968	-22455	2580.8	-0.72068	0.49386	0.49229
3.244	95.967	-22453	2580.7	-0.72107	0.49434	0.49171
3.246	95.957	-22458	2580.7	-0.72146	0.49483	0.49112
3.248	95.961	-22462	2580.8	-0.72185	0.49532	0.49054
3.25	95.956	-22464	2580.8	-0.72224	0.49581	0.48995
3.252	95.937	-22465	2580.8	-0.72214	0.49561	0.48995
3.254	95.936	-22462	2580.8	-0.72204	0.49542	0.48995
3.256	95.941	-22459	2580.7	-0.72195	0.49522	0.48995
3.258	95.929	-22457	2580.7	-0.72185	0.49503	0.48995
3.26	95.923	-22456	2580.7	-0.72175	0.49483	0.48995
3.262	95.926	-22459	2580.7	-0.72156	0.49405	0.49073
3.264	95.927	-22462	2580.6	-0.72136	0.49327	0.49151
3.266	95.916	-22460	2580.6	-0.72117	0.49249	0.49229
3.268	95.915	-22458	2580.5	-0.72097	0.49171	0.49308
3.27	95.929	-22463	2580.4	-0.72078	0.49093	0.49386
3.272	95.942	-22468	2580.3	-0.7197	0.49064	0.49366
3.274	95.931	-22466	2580.3	-0.71863	0.49034	0.49347
3.276	95.915	-22463	2580.2	-0.71756	0.49005	0.49327
3.278	95.906	-22460	2580.1	-0.71648	0.48976	0.49308
3.28	95.898	-22458	2580	-0.71541	0.48946	0.49288
3.282	95.883	-22457	2579.9	-0.71619	0.48995	0.49249
3.284	95.876	-22457	2579.9	-0.71697	0.49044	0.4921
3.286	95.871	-22457	2579.9	-0.71775	0.49093	0.49171
3.288	95.86	-22458	2579.9	-0.71853	0.49142	0.49132
3.29	95.853	-22461	2579.9	-0.71931	0.4919	0.49093
3.292	95.851	-22465	2579.9	-0.7198	0.492	0.49093
3.294	95.852	-22466	2579.9	-0.72029	0.4921	0.49093
3.296	95.86	-22468	2579.9	-0.72078	0.4922	0.49093
3.298	95.869	-22463	2579.9	-0.72126	0.49229	0.49093
3.3	95.866	-22458	2579.9	-0.72175	0.49239	0.49093
3.302	95.857	-22462	2579.8	-0.72097	0.4919	0.49093
3.304	95.852	-22465	2579.7	-0.72019	0.49142	0.49093
3.306	95.853	-22470	2579.7	-0.71941	0.49093	0.49093
3.308	95.859	-22474	2579.5	-0.71863	0.49044	0.49093
3.31	95.854	-22471	2579.4	-0.71785	0.48995	0.49093
3.312	95.847	-22468	2579.3	-0.71785	0.48985	0.49073
3.314	95.851	-22470	2579.2	-0.71785	0.48976	0.49054
3.316	95.859	-22473	2579.1	-0.71785	0.48966	0.49034
3.318	95.867	-22471	2579	-0.71785	0.48956	0.49015
3.32	95.882	-22469	2578.8	-0.71785	0.48946	0.48995
3.322	95.895	-22466	2578.7	-0.71785	0.48907	0.49054
3.324	95.901	-22462	2578.5	-0.71785	0.48868	0.49112
3.326	95.912	-22466	2578.3	-0.71785	0.48829	0.49171
3.328	95.929	-22470	2578.1	-0.71785	0.4879	0.49229
3.33	95.95	-22476	2577.9	-0.71785	0.48751	0.49288
3.332	95.956	-22481	2577.7	-0.71834	0.48917	0.492
3.334	95.958	-22477	2577.6	-0.71882	0.49083	0.49112
3.336	95.969	-22472	2577.4	-0.71931	0.49249	0.49024
3.338	95.979	-22471	2577.2	-0.7198	0.49415	0.48937
3.34	95.984	-22471	2577	-0.72029	0.49581	0.48849
3.342	95.977	-22476	2576.7	-0.71931	0.49473	0.48898
3.344	95.982	-22481	2576.5	-0.71834	0.49366	0.48946
3.346	95.979	-22481	2576.2	-0.71736	0.49259	0.48995
3.348	95.968	-22482	2576	-0.71638	0.49151	0.49044
3.35	95.968	-22476	2575.8	-0.71541	0.49044	0.49093
3.352	95.967	-22471	2575.5	-0.71609	0.49151	0.49044
3.354	95.961	-22475	2575.2	-0.71677	0.49259	0.48995
3.356	95.955	-22479	2575	-0.71746	0.49366	0.48946
3.358	95.969	-22482	2574.7	-0.71814	0.49473	0.48898
3.36	95.983	-22484	2574.4	-0.71882	0.49581	0.48849
3.362	95.98	-22483	2574.2	-0.71843	0.49454	0.48937
3.364	95.974	-22482	2573.9	-0.71804	0.49327	0.49024
3.366	95.982	-22484	2573.7	-0.71765	0.492	0.49112
3.368	95.996	-22486	2573.5	-0.71726	0.49073	0.492
3.37	95.993	-22486	2573.3	-0.71687	0.48946	0.49288
3.372	95.983	-22487	2573	-0.71795	0.49083	0.49161
3.374	95.986	-22488	2572.8	-0.71902	0.4922	0.49034
3.376	95.988	-22489	2572.6	-0.72009	0.49356	0.48907
3.378	95.983	-22489	2572.5	-0.72117	0.49493	0.4878
3.38	95.981	-22490	2572.3	-0.72224	0.4963	0.48654
3.382	95.98	-22489	2572.1	-0.72107	0.49561	0.48693
3.384	95.979	-22488	2571.9	-0.7199	0.49493	0.48732
3.386	95.978	-22491	2571.7	-0.71873	0.49425	0.48771
3.388	95.976	-22495	2571.5	-0.71756	0.49356	0.4881
3.39	95.984	-22500	2571.4	-0.71638	0.49288	0.48849
3.392	95.995	-22505	2571.3	-0.71658	0.49308	0.48859
3.394	95.989	-22506	2571.2	-0.71677	0.49327	0.48868
3.396	95.977	-22507	2571.1	-0.71697	0.49347	0.48878
3.398	95.978	-22511	2571	-0.71716	0.49366	0.48888
3.4	95.979	-22515	2570.9	-0.71736	0.49386	0.48898
3.402	95.978	-22515	2570.9	-0.71785	0.49347	0.48985
3.404	95.973	-22515	2570.8	-0.71834	0.49308	0.49073
3.406	95.98	-22513	2570.8	-0.71882	0.49268	0.49161
3.408	95.984	-22511	2570.8	-0.71931	0.49229	0.49249
3.41	95.981	-22512	2570.8	-0.7198	0.4919	0.49337
3.412	95.978	-22514	2570.8	-0.7198	0.49249	0.49288
3.414	95.977	-22515	2570.8	-0.7198	0.49308	0.49239
3.416	95.977	-22515	2570.8	-0.7198	0.49366	0.4919
3.418	95.986	-22514	2570.8	-0.7198	0.49425	0.49142
3.42	95.969	-22513	2570.8	-0.7198	0.49483	0.49093
3.422	95.953	-22515	2570.8	-0.72019	0.49434	0.49142
3.424	95.932	-22517	2570.9	-0.72058	0.49386	0.4919
3.426	95.924	-22518	2570.9	-0.72097	0.49337	0.49239
3.428	95.913	-22519	2570.9	-0.72136	0.49288	0.49288
3.43	95.909	-22518	2570.9	-0.72175	0.49239	0.49337
3.432	95.902	-22517	2570.9	-0.72195	0.49278	0.49327
3.434	95.89	-22523	2570.9	-0.72214	0.49317	0.49317
3.436	95.895	-22530	2570.9	-0.72234	0.49356	0.49308
3.438	95.898	-22529	2570.8	-0.72253	0.49395	0.49298
3.44	95.89	-22528	2570.8	-0.72273	0.49434	0.49288
3.442	95.88	-22526	2570.7	-0.72244	0.49366	0.49298
3.444	95.869	-22524	2570.6	-0.72214	0.49298	0.49308
3.446	95.855	-22527	2570.6	-0.72185	0.49229	0.49317
3.448	95.858	-22530	2570.5	-0.72156	0.49161	0.49327
3.45	95.874	-22535	2570.4	-0.72126	0.49093	0.49337
3.452	95.86	-22540	2570.3	-0.72087	0.4919	0.49288
3.454	95.832	-22545	2570.1	-0.72048	0.49288	0.49239
3.456	95.8	-22550	2570	-0.72009	0.49386	0.4919
3.458	95.761	-22549	2569.9	-0.7197	0.49483	0.49142
3.46	95.71	-22548	2569.7	-0.71931	0.49581	0.49093
3.462	95.645	-22547	2569.6	-0.7197	0.496	0.49064
3.464	95.573	-22547	2569.4	-0.72009	0.4962	0.49034
3.466	95.518	-22545	2569.2	-0.72048	0.49639	0.49005
3.468	95.49	-22544	2568.9	-0.72087	0.49659	0.48976
3.47	95.483	-22549	2568.7	-0.72126	0.49678	0.48946
3.472	95.49	-22553	2568.4	-0.72107	0.496	0.48946
3.474	95.506	-22553	2568.2	-0.72087	0.49522	0.48946
3.476	95.52	-22553	2567.9	-0.72068	0.49444	0.48946
3.478	95.521	-22553	2567.6	-0.72048	0.49366	0.48946
3.48	95.501	-22553	2567.3	-0.72029	0.49288	0.48946
3.482	95.482	-22553	2566.9	-0.72	0.4919	0.49024
3.484	95.479	-22553	2566.6	-0.7197	0.49093	0.49103
3.486	95.476	-22549	2566.3	-0.71941	0.48995	0.49181
3.488	95.454	-22545	2566.1	-0.71912	0.48898	0.49259
3.49	95.414	-22557	2566	-0.71882	0.488	0.49337
3.492	95.355	-22570	2565.8	-0.72009	0.48898	0.49376
3.494	95.326	-22568	2565.6	-0.72136	0.48995	0.49415
3.496	95.326	-22567	2565.3	-0.72263	0.49093	0.49454
3.498	95.323	-22564	2565.1	-0.7239	0.4919	0.49493
3.5	95.32	-22560	2564.9	-0.72517	0.49288	0.49532
3.502	95.313	-22563	2564.7	-0.72429	0.49308	0.49454
3.504	95.323	-22567	2564.6	-0.72341	0.49327	0.49376
3.506	95.333	-22567	2564.4	-0.72253	0.49347	0.49298
3.508	95.357	-22567	2564.2	-0.72165	0.49366	0.4922
3.51	95.388	-22569	2564.1	-0.72078	0.49386	0.49142
3.512	95.423	-22570	2563.9	-0.72039	0.49405	0.49073
3.514	95.469	-22570	2563.7	-0.72	0.49425	0.49005
3.516	95.535	-22569	2563.6	-0.7196	0.49444	0.48937
3.518	95.601	-22571	2563.5	-0.71921	0.49464	0.48868
3.52	95.663	-22572	2563.4	-0.71882	0.49483	0.488
3.522	95.727	-22572	2563.4	-0.71892	0.49425	0.48878
3.524	95.773	-22573	2563.3	-0.71902	0.49366	0.48956
3.526	95.804	-22577	2563.3	-0.71912	0.49308	0.49034
3.528	95.828	-22581	2563.3	-0.71921	0.49249	0.49112
3.53	95.854	-22578	2563.3	-0.71931	0.4919	0.4919
3.532	95.879	-22574	2563.3	-0.7198	0.49298	0.49171
3.534	95.897	-22573	2563.3	-0.72029	0.49405	0.49151
3.536	95.915	-22572	2563.3	-0.72078	0.49512	0.49132
3.538	95.932	-22578	2563.2	-0.72126	0.4962	0.49112
3.54	95.943	-22583	2563.2	-0.72175	0.49727	0.49093
3.542	95.949	-22584	2563.1	-0.72253	0.49815	0.49161
3.544	95.952	-22585	2563.1	-0.72331	0.49903	0.49229
3.546	95.96	-22590	2563	-0.72409	0.49991	0.49298
3.548	95.969	-22594	2562.9	-0.72488	0.50079	0.49366
3.55	95.974	-22591	2562.9	-0.72566	0.50166	0.49434
3.552	95.971	-22589	2562.7	-0.72488	0.50059	0.49415
3.554	95.967	-22586	2562.6	-0.72409	0.49952	0.49395
3.556	95.965	-22583	2562.5	-0.72331	0.49844	0.49376
3.558	95.96	-22580	2562.5	-0.72253	0.49737	0.49356
3.56	95.952	-22577	2562.5	-0.72175	0.4963	0.49337
3.562	95.946	-22580	2562.4	-0.72136	0.4962	0.49288
3.564	95.953	-22584	2562.3	-0.72097	0.4961	0.49239
3.566	95.965	-22582	2562.3	-0.72058	0.496	0.4919
3.568	95.965	-22580	2562.2	-0.72019	0.49591	0.49142
3.57	95.966	-22582	2562.2	-0.7198	0.49581	0.49093
3.572	95.975	-22583	2562.1	-0.7198	0.49581	0.49142
3.574	95.977	-22587	2562.1	-0.7198	0.49581	0.4919
3.576	95.979	-22592	2562.1	-0.7198	0.49581	0.49239
3.578	95.972	-22592	2562.1	-0.7198	0.49581	0.49288
3.58	95.96	-22592	2562	-0.7198	0.49581	0.49337
3.582	95.945	-22593	2562	-0.7199	0.49512	0.49386
3.584	95.943	-22593	2561.9	-0.72	0.49444	0.49434
3.586	95.957	-22587	2561.8	-0.72009	0.49376	0.49483
3.588	95.954	-22582	2561.8	-0.72019	0.49308	0.49532
3.59	95.945	-22587	2561.7	-0.72029	0.49239	0.49581
3.592	95.952	-22593	2561.7	-0.72107	0.492	0.49649
3.594	95.949	-22588	2561.6	-0.72185	0.49161	0.49717
3.596	95.942	-22583	2561.5	-0.72263	0.49122	0.49786
3.598	95.943	-22588	2561.4	-0.72341	0.49083	0.49854
3.6	95.936	-22592	2561.3	-0.72419	0.49044	0.49922
3.602	95.938	-22594	2561.1	-0.72429	0.49083	0.49825
3.604	95.941	-22595	2561	-0.72439	0.49122	0.49727
3.606	95.943	-22597	2560.9	-0.72448	0.49161	0.4963
3.608	95.939	-22599	2560.7	-0.72458	0.492	0.49532
3.61	95.931	-22594	2560.6	-0.72468	0.49239	0.49434
3.612	95.926	-22590	2560.4	-0.72448	0.49229	0.49395
3.614	95.925	-22596	2560.2	-0.72429	0.4922	0.49356
3.616	95.924	-22602	2560	-0.72409	0.4921	0.49317
3.618	95.916	-22602	2559.7	-0.7239	0.492	0.49278
3.62	95.911	-22603	2559.5	-0.7237	0.4919	0.49239
3.622	95.909	-22604	2559.2	-0.72351	0.49151	0.49268
3.624	95.912	-22604	2559	-0.72331	0.49112	0.49298
3.626	95.913	-22604	2558.6	-0.72312	0.49073	0.49327
3.628	95.908	-22603	2558.3	-0.72292	0.49034	0.49356
3.63	95.899	-22609	2557.9	-0.72273	0.48995	0.49386
3.632	95.892	-22615	2557.6	-0.72204	0.48995	0.49347
3.634	95.891	-22608	2557.3	-0.72136	0.48995	0.49308
3.636	95.891	-22601	2557	-0.72068	0.48995	0.49268
3.638	95.889	-22603	2556.7	-0.72	0.48995	0.49229
3.64	95.89	-22605	2556.4	-0.71931	0.48995	0.4919
3.642	95.898	-22612	2556.2	-0.7196	0.49044	0.4919
3.644	95.903	-22619	2555.9	-0.7199	0.49093	0.4919
3.646	95.901	-22612	2555.8	-0.72019	0.49142	0.4919
3.648	95.9	-22604	2555.7	-0.72048	0.4919	0.4919
3.65	95.901	-22605	2555.6	-0.72078	0.49239	0.4919
3.652	95.899	-22605	2555.6	-0.72048	0.4922	0.4919
3.654	95.897	-22613	2555.7	-0.72019	0.492	0.4919
3.656	95.898	-22621	2555.8	-0.7199	0.49181	0.4919
3.658	95.893	-22618	2556	-0.7196	0.49161	0.4919
3.66	95.899	-22614	2556.3	-0.71931	0.49142	0.4919
3.662	95.907	-22615	2556.6	-0.71863	0.4919	0.49151
3.664	95.906	-22615	2557	-0.71795	0.49239	0.49112
3.666	95.91	-22625	2557.4	-0.71726	0.49288	0.49073
3.668	95.912	-22634	2557.9	-0.71658	0.49337	0.49034
3.67	95.899	-22630	2558.4	-0.7159	0.49386	0.48995
3.672	95.891	-22627	2559	-0.71629	0.49317	0.49054
3.674	95.89	-22630	2559.7	-0.71668	0.49249	0.49112
3.676	95.898	-22634	2560.4	-0.71707	0.49181	0.49171
3.678	95.912	-22630	2561.2	-0.71746	0.49112	0.49229
3.68	95.911	-22626	2562.1	-0.71785	0.49044	0.49288
3.682	95.916	-22633	2563	-0.71834	0.49132	0.49249
3.684	95.912	-22640	2563.9	-0.71882	0.4922	0.4921
3.686	95.908	-22638	2564.7	-0.71931	0.49308	0.49171
3.688	95.919	-22635	2565.6	-0.7198	0.49395	0.49132
3.69	95.916	-22635	2566.5	-0.72029	0.49483	0.49093
3.692	95.909	-22635	2567.4	-0.72058	0.49532	0.49132
3.694	95.904	-22637	2568.3	-0.72087	0.49581	0.49171
3.696	95.905	-22639	2569.2	-0.72117	0.4963	0.4921
3.698	95.903	-22636	2569.9	-0.72146	0.49678	0.49249
3.7	95.905	-22632	2570.7	-0.72175	0.49727	0.49288
3.702	95.912	-22634	2571.5	-0.72195	0.49708	0.49317
3.704	95.907	-22636	2572.3	-0.72214	0.49688	0.49347
3.706	95.891	-22633	2573.1	-0.72234	0.49669	0.49376
3.708	95.871	-22630	2573.9	-0.72253	0.49649	0.49405
3.71	95.866	-22633	2574.7	-0.72273	0.4963	0.49434
3.712	95.886	-22636	2575.6	-0.72146	0.49473	0.49464
3.714	95.897	-22633	2576.4	-0.72019	0.49317	0.49493
3.716	95.893	-22630	2577.2	-0.71892	0.49161	0.49522
3.718	95.88	-22626	2578	-0.71765	0.49005	0.49552
3.72	95.864	-22621	2578.7	-0.71638	0.48849	0.49581
3.722	95.86	-22628	2579.3	-0.71765	0.48995	0.49542
3.724	95.865	-22635	2580	-0.71892	0.49142	0.49503
3.726	95.863	-22628	2580.6	-0.72019	0.49288	0.49464
3.728	95.849	-22621	2581.2	-0.72146	0.49434	0.49425
3.73	95.835	-22621	2581.8	-0.72273	0.49581	0.49386
3.732	95.83	-22622	2582.3	-0.72195	0.49571	0.49327
3.734	95.825	-22619	2582.8	-0.72117	0.49561	0.49268
3.736	95.821	-22616	2583.2	-0.72039	0.49552	0.4921
3.738	95.818	-22616	2583.7	-0.7196	0.49542	0.49151
3.74	95.815	-22616	2584.1	-0.71882	0.49532	0.49093
3.742	95.797	-22611	2584.4	-0.71912	0.49405	0.49229
3.744	95.785	-22606	2584.7	-0.71941	0.49278	0.49366
3.746	95.79	-22607	2585	-0.7197	0.49151	0.49503
3.748	95.787	-22609	2585.3	-0.72	0.49024	0.49639
3.75	95.779	-22605	2585.6	-0.72029	0.48898	0.49776
3.752	95.78	-22602	2585.8	-0.72019	0.49024	0.49688
3.754	95.792	-22596	2586.1	-0.72009	0.49151	0.496
3.756	95.795	-22590	2586.3	-0.72	0.49278	0.49512
3.758	95.791	-22588	2586.5	-0.7199	0.49405	0.49425
3.76	95.806	-22586	2586.7	-0.7198	0.49532	0.49337
3.762	95.815	-22587	2586.9	-0.72058	0.49464	0.49405
3.764	95.805	-22588	2587	-0.72136	0.49395	0.49473
3.766	95.799	-22590	2587.1	-0.72214	0.49327	0.49542
3.768	95.805	-22591	2587.2	-0.72292	0.49259	0.4961
3.77	95.814	-22587	2587.2	-0.7237	0.4919	0.49678
3.772	95.815	-22583	2587.3	-0.72341	0.4919	0.4961
3.774	95.814	-22579	2587.5	-0.72312	0.4919	0.49542
3.776	95.821	-22575	2587.6	-0.72283	0.4919	0.49473
3.778	95.832	-22573	2587.6	-0.72253	0.4919	0.49405
3.78	95.836	-22571	2587.7	-0.72224	0.4919	0.49337
3.782	95.84	-22568	2587.7	-0.72273	0.49122	0.49434
3.784	95.835	-22564	2587.7	-0.72322	0.49054	0.49532
3.786	95.837	-22559	2587.7	-0.7237	0.48985	0.4963
3.788	95.842	-22555	2587.7	-0.72419	0.48917	0.49727
3.79	95.845	-22549	2587.7	-0.72468	0.48849	0.49825
3.792	95.852	-22543	2587.6	-0.72448	0.48868	0.49786
3.794	95.855	-22546	2587.4	-0.72429	0.48888	0.49747
3.796	95.854	-22550	2587.3	-0.72409	0.48907	0.49708
3.798	95.855	-22551	2587.1	-0.7239	0.48927	0.49669
3.8	95.856	-22553	2587	-0.7237	0.48946	0.4963
3.802	95.859	-22546	2586.8	-0.7238	0.48937	0.49698
3.804	95.86	-22539	2586.6	-0.7239	0.48927	0.49766
3.806	95.861	-22532	2586.3	-0.724	0.48917	0.49835
3.808	95.863	-22525	2586.1	-0.72409	0.48907	0.49903
3.81	95.86	-22529	2585.8	-0.72419	0.48898	0.49971
3.812	95.847	-22532	2585.5	-0.72419	0.48985	0.49844
3.814	95.844	-22529	2585.2	-0.72419	0.49073	0.49717
3.816	95.854	-22525	2584.9	-0.72419	0.49161	0.49591
3.818	95.863	-22525	2584.6	-0.72419	0.49249	0.49464
3.82	95.871	-22524	2584.3	-0.72419	0.49337	0.49337
3.822	95.866	-22523	2584	-0.72322	0.49317	0.49288
3.824	95.855	-22521	2583.8	-0.72224	0.49298	0.49239
3.826	95.862	-22518	2583.4	-0.72126	0.49278	0.4919
3.828	95.874	-22514	2582.9	-0.72029	0.49259	0.49142
3.83	95.878	-22514	2582.5	-0.71931	0.49239	0.49093
3.832	95.872	-22513	2582	-0.71941	0.49239	0.49103
3.834	95.863	-22512	2581.6	-0.71951	0.49239	0.49112
3.836	95.864	-22510	2581.1	-0.7196	0.49239	0.49122
3.838	95.87	-22508	2580.6	-0.7197	0.49239	0.49132
3.84	95.868	-22507	2580.2	-0.7198	0.49239	0.49142
3.842	95.863	-22512	2579.7	-0.7197	0.49308	0.49132
3.844	95.869	-22518	2579.3	-0.7196	0.49376	0.49122
3.846	95.875	-22520	2578.9	-0.71951	0.49444	0.49112
3.848	95.871	-22522	2578.4	-0.71941	0.49512	0.49103
3.85	95.86	-22521	2578	-0.71931	0.49581	0.49093
3.852	95.859	-22520	2577.7	-0.71941	0.49581	0.49122
3.854	95.856	-22515	2577.3	-0.71951	0.49581	0.49151
3.856	95.858	-22510	2577	-0.7196	0.49581	0.49181
3.858	95.853	-22505	2576.7	-0.7197	0.49581	0.4921
3.86	95.853	-22501	2576.3	-0.7198	0.49581	0.49239
3.862	95.858	-22504	2576.1	-0.72029	0.49591	0.49249
3.864	95.861	-22506	2575.8	-0.72078	0.496	0.49259
3.866	95.862	-22508	2575.5	-0.72126	0.4961	0.49268
3.868	95.858	-22510	2575.2	-0.72175	0.4962	0.49278
3.87	95.861	-22513	2574.9	-0.72224	0.4963	0.49288
3.872	95.855	-22517	2574.7	-0.72204	0.49552	0.49268
3.874	95.856	-22516	2574.5	-0.72185	0.49473	0.49249
3.876	95.866	-22514	2574.3	-0.72165	0.49395	0.49229
3.878	95.865	-22515	2574	-0.72146	0.49317	0.4921
3.88	95.861	-22516	2573.8	-0.72126	0.49239	0.4919
3.882	95.861	-22522	2573.6	-0.72126	0.49259	0.49151
3.884	95.868	-22528	2573.4	-0.72126	0.49278	0.49112
3.886	95.871	-22527	2573.2	-0.72126	0.49298	0.49073
3.888	95.866	-22526	2573.1	-0.72126	0.49317	0.49034
3.89	95.863	-22523	2572.9	-0.72126	0.49337	0.48995
3.892	95.86	-22520	2572.7	-0.72263	0.49229	0.49122
3.894	95.856	-22522	2572.4	-0.724	0.49122	0.49249
3.896	95.852	-22524	2572.3	-0.72536	0.49015	0.49376
3.898	95.853	-22521	2572.1	-0.72673	0.48907	0.49503
3.9	95.854	-22519	2572	-0.7281	0.488	0.4963
3.902	95.847	-22522	2571.9	-0.72751	0.48829	0.49678
3.904	95.848	-22524	2571.8	-0.72692	0.48859	0.49727
3.906	95.863	-22526	2571.7	-0.72634	0.48888	0.49776
3.908	95.872	-22527	2571.6	-0.72575	0.48917	0.49825
3.91	95.877	-22531	2571.5	-0.72517	0.48946	0.49874
3.912	95.875	-22534	2571.5	-0.72614	0.48829	0.49786
3.914	95.862	-22533	2571.6	-0.72712	0.48712	0.49698
3.916	95.85	-22531	2571.6	-0.7281	0.48595	0.4961
3.918	95.848	-22536	2571.7	-0.72907	0.48478	0.49522
3.92	95.85	-22540	2571.8	-0.73005	0.48361	0.49434
3.922	95.849	-22539	2571.8	-0.72946	0.48458	0.49454
3.924	95.86	-22537	2571.9	-0.72888	0.48556	0.49473
3.926	95.874	-22532	2571.8	-0.72829	0.48654	0.49493
3.928	95.856	-22526	2571.7	-0.72771	0.48751	0.49512
3.93	95.837	-22526	2571.6	-0.72712	0.48849	0.49532
3.932	95.843	-22525	2571.5	-0.72692	0.48917	0.49503
3.934	95.859	-22528	2571.3	-0.72673	0.48985	0.49473
3.936	95.871	-22531	2571.2	-0.72653	0.49054	0.49444
3.938	95.87	-22537	2571.1	-0.72634	0.49122	0.49415
3.94	95.862	-22544	2571	-0.72614	0.4919	0.49386
3.942	95.865	-22543	2570.9	-0.72439	0.49151	0.49298
3.944	95.868	-22542	2570.7	-0.72263	0.49112	0.4921
3.946	95.869	-22541	2570.7	-0.72087	0.49073	0.49122
3.948	95.867	-22541	2570.6	-0.71912	0.49034	0.49034
3.95	95.862	-22539	2570.6	-0.71736	0.48995	0.48946
3.952	95.865	-22537	2570.6	-0.71707	0.48976	0.48917
3.954	95.862	-22536	2570.6	-0.71677	0.48956	0.48888
3.956	95.86	-22536	2570.6	-0.71648	0.48937	0.48859
3.958	95.856	-22538	2570.6	-0.71619	0.48917	0.48829
3.96	95.853	-22541	2570.6	-0.7159	0.48898	0.488
3.962	95.85	-22541	2570.6	-0.71609	0.48946	0.4878
3.964	95.847	-22541	2570.6	-0.71629	0.48995	0.48761
3.966	95.844	-22541	2570.7	-0.71648	0.49044	0.48741
3.968	95.84	-22541	2570.7	-0.71668	0.49093	0.48722
3.97	95.834	-22542	2570.8	-0.71687	0.49142	0.48702
3.972	95.824	-22543	2571	-0.71697	0.49181	0.48663
3.974	95.817	-22545	2571.2	-0.71707	0.4922	0.48624
3.976	95.812	-22547	2571.3	-0.71716	0.49259	0.48585
3.978	95.809	-22546	2571.4	-0.71726	0.49298	0.48546
3.98	95.81	-22546	2571.5	-0.71736	0.49337	0.48507
3.982	95.819	-22547	2571.5	-0.71843	0.49395	0.48468
3.984	95.822	-22548	2571.6	-0.71951	0.49454	0.48429
3.986	95.818	-22549	2571.6	-0.72058	0.49512	0.4839
3.988	95.817	-22549	2571.7	-0.72165	0.49571	0.48351
3.99	95.806	-22550	2571.8	-0.72273	0.4963	0.48312
3.992	95.782	-22551	2571.8	-0.72244	0.4961	0.48429
3.994	95.771	-22553	2571.8	-0.72214	0.49591	0.48546
3.996	95.768	-22554	2571.9	-0.72185	0.49571	0.48663
3.998	95.759	-22550	2572	-0.72156	0.49552	0.4878
4	95.754	-22547	2572.1	-0.72126	0.49532	0.48898
4.002	95.746	-22547	2572.1	-0.72107	0.49473	0.48907
4.004	95.744	-22548	2572.2	-0.72087	0.49415	0.48917
4.006	95.752	-22548	2572.2	-0.72068	0.49356	0.48927
4.008	95.755	-22548	2572.2	-0.72048	0.49298	0.48937
4.01	95.745	-22551	2572.2	-0.72029	0.49239	0.48946
4.012	95.739	-22554	2572.2	-0.72087	0.4922	0.49034
4.014	95.758	-22552	2572.3	-0.72146	0.492	0.49122
4.016	95.764	-22550	2572.2	-0.72204	0.49181	0.4921
4.018	95.743	-22548	2572	-0.72263	0.49161	0.49298
4.02	95.745	-22547	2571.9	-0.72322	0.49142	0.49386
4.022	95.739	-22546	2571.7	-0.72273	0.49112	0.49552
4.024	95.738	-22544	2571.5	-0.72224	0.49083	0.49717
4.026	95.74	-22545	2571.3	-0.72175	0.49054	0.49883
4.028	95.743	-22545	2571.1	-0.72126	0.49024	0.50049
4.03	95.747	-22548	2570.9	-0.72078	0.48995	0.50215
4.032	95.762	-22551	2570.5	-0.72048	0.48907	0.50215
4.034	95.78	-22549	2570.2	-0.72019	0.4882	0.50215
4.036	95.796	-22546	2569.9	-0.7199	0.48732	0.50215
4.038	95.813	-22542	2569.6	-0.7196	0.48644	0.50215
4.04	95.835	-22538	2569.3	-0.71931	0.48556	0.50215
4.042	95.86	-22541	2569	-0.7196	0.48605	0.50225
4.044	95.872	-22544	2568.7	-0.7199	0.48654	0.50235
4.046	95.876	-22549	2568.4	-0.72019	0.48702	0.50244
4.048	95.878	-22553	2568	-0.72048	0.48751	0.50254
4.05	95.886	-22551	2567.6	-0.72078	0.488	0.50264
4.052	95.883	-22549	2567.2	-0.7198	0.4878	0.50254
4.054	95.882	-22552	2566.8	-0.71882	0.48761	0.50244
4.056	95.88	-22555	2566.5	-0.71785	0.48741	0.50235
4.058	95.873	-22555	2566.1	-0.71687	0.48722	0.50225
4.06	95.871	-22556	2565.8	-0.7159	0.48702	0.50215
4.062	95.873	-22555	2565.4	-0.71746	0.48761	0.50176
4.064	95.878	-22554	2565.1	-0.71902	0.4882	0.50137
4.066	95.885	-22555	2564.7	-0.72058	0.48878	0.50098
4.068	95.891	-22557	2564.4	-0.72214	0.48937	0.50059
4.07	95.887	-22559	2564	-0.7237	0.48995	0.5002
4.072	95.881	-22562	2563.6	-0.72419	0.49054	0.49893
4.074	95.882	-22563	2563.2	-0.72468	0.49112	0.49766
4.076	95.884	-22564	2562.8	-0.72517	0.49171	0.49639
4.078	95.888	-22567	2562.5	-0.72566	0.49229	0.49512
4.08	95.886	-22571	2562.1	-0.72614	0.49288	0.49386
4.082	95.884	-22571	2561.8	-0.72566	0.49337	0.49356
4.084	95.883	-22571	2561.4	-0.72517	0.49386	0.49327
4.086	95.876	-22570	2561.1	-0.72468	0.49434	0.49298
4.088	95.87	-22569	2560.8	-0.72419	0.49483	0.49268
4.09	95.881	-22565	2560.5	-0.7237	0.49532	0.49239
4.092	95.886	-22560	2560.4	-0.72273	0.49542	0.492
4.094	95.881	-22565	2560.3	-0.72175	0.49552	0.49161
4.096	95.871	-22569	2560.3	-0.72078	0.49561	0.49122
4.098	95.871	-22570	2560.3	-0.7198	0.49571	0.49083
4.1	95.888	-22570	2560.3	-0.71882	0.49581	0.49044
4.102	95.893	-22565	2560.3	-0.71765	0.49532	0.49015
4.104	95.885	-22561	2560.4	-0.71648	0.49483	0.48985
4.106	95.882	-22566	2560.4	-0.71531	0.49434	0.48956
4.108	95.889	-22571	2560.5	-0.71414	0.49386	0.48927
4.11	95.883	-22571	2560.6	-0.71297	0.49337	0.48898
4.112	95.886	-22570	2560.6	-0.71463	0.49454	0.49015
4.114	95.889	-22571	2560.7	-0.71629	0.49571	0.49132
4.116	95.886	-22572	2560.8	-0.71795	0.49688	0.49249
4.118	95.874	-22572	2560.9	-0.7196	0.49805	0.49366
4.12	95.871	-22572	2561	-0.72126	0.49922	0.49483
4.122	95.873	-22576	2561.1	-0.72087	0.49981	0.49581
4.124	95.879	-22580	2561.1	-0.72048	0.5004	0.49678
4.126	95.875	-22580	2561.2	-0.72009	0.50098	0.49776
4.128	95.874	-22579	2561.2	-0.7197	0.50157	0.49874
4.13	95.881	-22580	2561.2	-0.71931	0.50215	0.49971
4.132	95.884	-22580	2561.2	-0.72058	0.50244	0.49942
4.134	95.874	-22580	2561.2	-0.72185	0.50274	0.49913
4.136	95.863	-22580	2561.3	-0.72312	0.50303	0.49883
4.138	95.848	-22583	2561.3	-0.72439	0.50332	0.49854
4.14	95.837	-22586	2561.4	-0.72566	0.50362	0.49825
4.142	95.829	-22586	2561.4	-0.72448	0.50332	0.49854
4.144	95.809	-22586	2561.4	-0.72331	0.50303	0.49883
4.146	95.786	-22584	2561.5	-0.72214	0.50274	0.49913
4.148	95.779	-22583	2561.5	-0.72097	0.50244	0.49942
4.15	95.78	-22585	2561.6	-0.7198	0.50215	0.49971
4.152	95.773	-22586	2561.6	-0.7197	0.50069	0.49893
4.154	95.767	-22587	2561.6	-0.7196	0.49922	0.49815
4.156	95.764	-22588	2561.6	-0.71951	0.49776	0.49737
4.158	95.753	-22587	2561.6	-0.71941	0.4963	0.49659
4.16	95.747	-22585	2561.6	-0.71931	0.49483	0.49581
4.162	95.761	-22583	2561.5	-0.7199	0.4963	0.49669
4.164	95.772	-22581	2561.5	-0.72048	0.49776	0.49756
4.166	95.759	-22581	2561.4	-0.72107	0.49922	0.49844
4.168	95.733	-22581	2561.3	-0.72165	0.50069	0.49932
4.17	95.695	-22585	2561.2	-0.72224	0.50215	0.5002
4.172	95.645	-22589	2561.1	-0.72204	0.50088	0.49942
4.174	95.581	-22585	2561	-0.72185	0.49961	0.49864
4.176	95.517	-22581	2561	-0.72165	0.49835	0.49786
4.178	95.46	-22581	2561	-0.72146	0.49708	0.49708
4.18	95.416	-22582	2561	-0.72126	0.49581	0.4963
4.182	95.398	-22580	2562.1	-0.7198	0.49688	0.49727
4.184	95.399	-22578	2563.1	-0.71834	0.49796	0.49825
4.186	95.406	-22581	2563.4	-0.71687	0.49903	0.49922
4.188	95.416	-22584	2562.8	-0.71541	0.5001	0.5002
4.19	95.428	-22590	2562.3	-0.71394	0.50118	0.50118
4.192	95.423	-22595	2562	-0.71512	0.49932	0.49922
4.194	95.415	-22592	2561.7	-0.71629	0.49747	0.49727
4.196	95.407	-22588	2561.4	-0.71746	0.49561	0.49532
4.198	95.406	-22587	2561.1	-0.71863	0.49376	0.49337
4.2	95.389	-22586	2560.9	-0.7198	0.4919	0.49142
4.202	95.352	-22593	2560.8	-0.72	0.49151	0.4922
4.204	95.305	-22600	2560.7	-0.72019	0.49112	0.49298
4.206	95.265	-22597	2560.5	-0.72039	0.49073	0.49376
4.208	95.246	-22594	2560.2	-0.72058	0.49034	0.49454
4.21	95.236	-22592	2559.9	-0.72078	0.48995	0.49532
4.212	95.227	-22590	2559.6	-0.72048	0.49034	0.49386
4.214	95.22	-22592	2559.3	-0.72019	0.49073	0.49239
4.216	95.21	-22594	2559	-0.7199	0.49112	0.49093
4.218	95.214	-22595	2558.8	-0.7196	0.49151	0.48946
4.22	95.235	-22596	2558.5	-0.71931	0.4919	0.488
4.222	95.261	-22593	2558.2	-0.71921	0.49142	0.48888
4.224	95.291	-22590	2557.9	-0.71912	0.49093	0.48976
4.226	95.337	-22589	2557.5	-0.71902	0.49044	0.49064
4.228	95.395	-22589	2557.1	-0.71892	0.48995	0.49151
4.23	95.458	-22598	2556.8	-0.71882	0.48946	0.49239
4.232	95.521	-22607	2556.3	-0.71765	0.48859	0.4919
4.234	95.591	-22608	2555.9	-0.71648	0.48771	0.49142
4.236	95.665	-22610	2555.5	-0.71531	0.48683	0.49093
4.238	95.719	-22609	2555	-0.71414	0.48595	0.49044
4.24	95.753	-22608	2554.6	-0.71297	0.48507	0.48995
4.242	95.785	-22610	2554.1	-0.71482	0.48663	0.49024
4.244	95.814	-22611	2553.6	-0.71668	0.4882	0.49054
4.246	95.838	-22606	2553.2	-0.71853	0.48976	0.49083
4.248	95.855	-22601	2552.7	-0.72039	0.49132	0.49112
4.25	95.863	-22602	2552.2	-0.72224	0.49288	0.49142
4.252	95.872	-22602	2551.7	-0.72214	0.49327	0.49015
4.254	95.878	-22606	2551.2	-0.72204	0.49366	0.48888
4.256	95.881	-22610	2550.7	-0.72195	0.49405	0.48761
4.258	95.883	-22610	2550.2	-0.72185	0.49444	0.48634
4.26	95.886	-22610	2549.8	-0.72175	0.49483	0.48507
4.262	95.891	-22612	2549.2	-0.72204	0.49464	0.48478
4.264	95.897	-22614	2548.7	-0.72234	0.49444	0.48449
4.266	95.903	-22620	2548.1	-0.72263	0.49425	0.48419
4.268	95.918	-22626	2547.5	-0.72292	0.49405	0.4839
4.27	95.921	-22627	2546.9	-0.72322	0.49386	0.48361
4.272	95.919	-22627	2546.2	-0.72283	0.49347	0.484
4.274	95.91	-22623	2545.6	-0.72244	0.49308	0.48439
4.276	95.906	-22618	2545	-0.72204	0.49268	0.48478
4.278	95.902	-22619	2544.4	-0.72165	0.49229	0.48517
4.28	95.899	-22620	2543.8	-0.72126	0.4919	0.48556
4.282	95.913	-22620	2543.4	-0.72048	0.49044	0.48663
4.284	95.921	-22620	2542.9	-0.7197	0.48898	0.48771
4.286	95.925	-22618	2542.7	-0.71892	0.48751	0.48878
4.288	95.913	-22617	2542.6	-0.71814	0.48605	0.48985
4.29	95.915	-22615	2542.5	-0.71736	0.48458	0.49093
4.292	95.912	-22613	2543.1	-0.71863	0.48478	0.48927
4.294	95.896	-22624	2543.6	-0.7199	0.48497	0.48761
4.296	95.883	-22636	2544.2	-0.72117	0.48517	0.48595
4.298	95.888	-22635	2544.7	-0.72244	0.48536	0.48429
4.3	95.899	-22635	2545.3	-0.7237	0.48556	0.48263
4.302	95.896	-22631	2545.8	-0.72302	0.48556	0.4839
4.304	95.884	-22627	2546.2	-0.72234	0.48556	0.48517
4.306	95.878	-22633	2546.7	-0.72165	0.48556	0.48644
4.308	95.877	-22639	2547	-0.72097	0.48556	0.48771
4.31	95.869	-22639	2547.4	-0.72029	0.48556	0.48898
4.312	95.862	-22639	2547.6	-0.72019	0.48546	0.48907
4.314	95.867	-22638	2547.8	-0.72009	0.48536	0.48917
4.316	95.871	-22636	2548	-0.72	0.48527	0.48927
4.318	95.861	-22635	2548.1	-0.7199	0.48517	0.48937
4.32	95.853	-22634	2548.3	-0.7198	0.48507	0.48946
4.322	95.861	-22636	2548.4	-0.71912	0.484	0.48946
4.324	95.877	-22638	2548.5	-0.71843	0.48292	0.48946
4.326	95.892	-22634	2548.6	-0.71775	0.48185	0.48946
4.328	95.889	-22631	2548.6	-0.71707	0.48078	0.48946
4.33	95.877	-22633	2548.5	-0.71638	0.4797	0.48946
4.332	95.873	-22636	2548.5	-0.71814	0.48097	0.49122
4.334	95.864	-22641	2548.5	-0.7199	0.48224	0.49298
4.336	95.861	-22645	2548.5	-0.72165	0.48351	0.49473
4.338	95.865	-22637	2548.4	-0.72341	0.48478	0.49649
4.34	95.868	-22628	2548.4	-0.72517	0.48605	0.49825
4.342	95.866	-22628	2548.4	-0.72585	0.48585	0.49708
4.344	95.858	-22628	2548.3	-0.72653	0.48566	0.49591
4.346	95.848	-22630	2548.3	-0.72722	0.48546	0.49473
4.348	95.848	-22632	2548.2	-0.7279	0.48527	0.49356
4.35	95.847	-22631	2548.1	-0.72858	0.48507	0.49239
4.352	95.846	-22630	2548	-0.72732	0.48644	0.4922
4.354	95.846	-22631	2548	-0.72605	0.4878	0.492
4.356	95.847	-22632	2548	-0.72478	0.48917	0.49181
4.358	95.851	-22633	2548	-0.72351	0.49054	0.49161
4.36	95.853	-22634	2548	-0.72224	0.4919	0.49142
4.362	95.85	-22639	2548.1	-0.72136	0.49171	0.49073
4.364	95.849	-22644	2548.2	-0.72048	0.49151	0.49005
4.366	95.851	-22638	2548.3	-0.7196	0.49132	0.48937
4.368	95.856	-22633	2548.5	-0.71873	0.49112	0.48868
4.37	95.854	-22633	2548.7	-0.71785	0.49093	0.488
4.372	95.851	-22633	2549.2	-0.71863	0.49239	0.48898
4.374	95.853	-22631	2549.7	-0.71941	0.49386	0.48995
4.376	95.852	-22629	2550.3	-0.72019	0.49532	0.49093
4.378	95.856	-22634	2551.1	-0.72097	0.49678	0.4919
4.38	95.858	-22639	2551.9	-0.72175	0.49825	0.49288
4.382	95.852	-22636	2552.8	-0.72214	0.49971	0.49395
4.384	95.852	-22633	2553.8	-0.72253	0.50118	0.49503
4.386	95.864	-22637	2554.8	-0.72292	0.50264	0.4961
4.388	95.868	-22641	2555.7	-0.72331	0.5041	0.49717
4.39	95.865	-22644	2556.7	-0.7237	0.50557	0.49825
4.392	95.861	-22648	2557.7	-0.72341	0.50518	0.49932
4.394	95.857	-22650	2558.7	-0.72312	0.50479	0.5004
4.396	95.859	-22652	2559.7	-0.72283	0.5044	0.50147
4.398	95.87	-22643	2560.7	-0.72253	0.50401	0.50254
4.4	95.875	-22635	2561.6	-0.72224	0.50362	0.50362
4.402	95.871	-22635	2562.6	-0.72039	0.50264	0.50362
4.404	95.865	-22635	2563.5	-0.71853	0.50166	0.50362
4.406	95.867	-22642	2564.4	-0.71668	0.50069	0.50362
4.408	95.875	-22649	2565.3	-0.71482	0.49971	0.50362
4.41	95.88	-22661	2566.1	-0.71297	0.49874	0.50362
4.412	95.88	-22672	2566.9	-0.71326	0.49903	0.50362
4.414	95.874	-22665	2567.7	-0.71355	0.49932	0.50362
4.416	95.864	-22658	2568.5	-0.71385	0.49961	0.50362
4.418	95.86	-22652	2569.2	-0.71414	0.49991	0.50362
4.42	95.862	-22646	2569.9	-0.71443	0.5002	0.50362
4.422	95.862	-22648	2570.5	-0.71365	0.49971	0.50352
4.424	95.854	-22650	2571.2	-0.71287	0.49922	0.50342
4.426	95.857	-22651	2571.8	-0.71209	0.49874	0.50332
4.428	95.861	-22653	2572.3	-0.71131	0.49825	0.50323
4.43	95.857	-22651	2572.9	-0.71053	0.49776	0.50313
4.432	95.846	-22650	2573.4	-0.71033	0.49942	0.50332
4.434	95.839	-22647	2573.8	-0.71014	0.50108	0.50352
4.436	95.839	-22645	2574.3	-0.70994	0.50274	0.50371
4.438	95.827	-22646	2574.7	-0.70975	0.5044	0.50391
4.44	95.813	-22646	2575.1	-0.70955	0.50606	0.5041
4.442	95.81	-22646	2575.4	-0.70936	0.50518	0.50362
4.444	95.803	-22645	2575.8	-0.70916	0.5043	0.50313
4.446	95.805	-22640	2576.1	-0.70897	0.50342	0.50264
4.448	95.802	-22635	2576.3	-0.70877	0.50254	0.50215
4.45	95.783	-22639	2576.5	-0.70858	0.50166	0.50166
4.452	95.789	-22642	2576.7	-0.71053	0.50118	0.50079
4.454	95.784	-22640	2576.9	-0.71248	0.50069	0.49991
4.456	95.782	-22638	2577.1	-0.71443	0.5002	0.49903
4.458	95.774	-22639	2577.2	-0.71638	0.49971	0.49815
4.46	95.772	-22640	2577.3	-0.71834	0.49922	0.49727
4.462	95.772	-22631	2577.3	-0.71873	0.49952	0.49776
4.464	95.778	-22623	2577.3	-0.71912	0.49981	0.49825
4.466	95.78	-22611	2577.4	-0.71951	0.5001	0.49874
4.468	95.774	-22599	2577.5	-0.7199	0.5004	0.49922
4.47	95.773	-22597	2577.7	-0.72029	0.50069	0.49971
4.472	95.774	-22594	2577.9	-0.72	0.49981	0.49815
4.474	95.776	-22593	2578.1	-0.7197	0.49893	0.49659
4.476	95.774	-22592	2578.3	-0.71941	0.49805	0.49503
4.478	95.773	-22589	2578.5	-0.71912	0.49717	0.49347
4.48	95.778	-22586	2578.7	-0.71882	0.4963	0.4919
4.482	95.789	-22582	2578.8	-0.71795	0.49591	0.49103
4.484	95.801	-22578	2578.9	-0.71707	0.49552	0.49015
4.486	95.806	-22578	2579	-0.71619	0.49512	0.48927
4.488	95.806	-22578	2579.1	-0.71531	0.49473	0.48839
4.49	95.807	-22577	2579.2	-0.71443	0.49434	0.48751
4.492	95.81	-22575	2579.2	-0.71424	0.49347	0.48829
4.494	95.818	-22569	2579.2	-0.71404	0.49259	0.48907
4.496	95.829	-22563	2579.3	-0.71385	0.49171	0.48985
4.498	95.839	-22559	2579.3	-0.71365	0.49083	0.49064
4.5	95.845	-22554	2579.4	-0.71346	0.48995	0.49142
4.502	95.851	-22558	2579.4	-0.71453	0.48927	0.49161
4.504	95.854	-22561	2579.5	-0.7156	0.48859	0.49181
4.506	95.857	-22557	2579.5	-0.71668	0.4879	0.492
4.508	95.863	-22552	2579.5	-0.71775	0.48722	0.4922
4.51	95.867	-22546	2579.5	-0.71882	0.48654	0.49239
4.512	95.864	-22541	2579.5	-0.71892	0.48849	0.49132
4.514	95.862	-22541	2579.5	-0.71902	0.49044	0.49024
4.516	95.865	-22541	2579.4	-0.71912	0.49239	0.48917
4.518	95.859	-22538	2579.4	-0.71921	0.49434	0.4881
4.52	95.863	-22534	2579.4	-0.71931	0.4963	0.48702
4.522	95.862	-22531	2579.4	-0.71892	0.49464	0.48712
4.524	95.849	-22528	2579.4	-0.71853	0.49298	0.48722
4.526	95.85	-22528	2579.4	-0.71814	0.49132	0.48732
4.528	95.868	-22528	2579.3	-0.71775	0.48966	0.48741
4.53	95.875	-22528	2579.3	-0.71736	0.488	0.48751
4.532	95.877	-22527	2579.2	-0.71785	0.48741	0.4881
4.534	95.86	-22523	2579.1	-0.71834	0.48683	0.48868
4.536	95.863	-22518	2579.1	-0.71882	0.48624	0.48927
4.538	95.886	-22513	2579	-0.71931	0.48566	0.48985
4.54	95.883	-22507	2578.9	-0.7198	0.48507	0.49044
4.542	95.871	-22506	2578.8	-0.72087	0.48624	0.49054
4.544	95.873	-22504	2578.6	-0.72195	0.48741	0.49064
4.546	95.876	-22503	2578.4	-0.72302	0.48859	0.49073
4.548	95.886	-22502	2578.1	-0.72409	0.48976	0.49083
4.55	95.887	-22498	2577.8	-0.72517	0.49093	0.49093
4.552	95.887	-22494	2577.5	-0.72497	0.49103	0.49044
4.554	95.879	-22492	2577.1	-0.72478	0.49112	0.48995
4.556	95.879	-22489	2576.8	-0.72458	0.49122	0.48946
4.558	95.888	-22487	2576.4	-0.72439	0.49132	0.48898
4.56	95.886	-22485	2576	-0.72419	0.49142	0.48849
4.562	95.879	-22484	2575.7	-0.72302	0.49064	0.48859
4.564	95.878	-22482	2575.3	-0.72185	0.48985	0.48868
4.566	95.872	-22486	2575	-0.72068	0.48907	0.48878
4.568	95.867	-22490	2574.6	-0.71951	0.48829	0.48888
4.57	95.873	-22491	2574.3	-0.71834	0.48751	0.48898
4.572	95.884	-22492	2573.9	-0.71902	0.48761	0.48917
4.574	95.889	-22487	2573.6	-0.7197	0.48771	0.48937
4.576	95.886	-22481	2573.2	-0.72039	0.4878	0.48956
4.578	95.885	-22479	2572.9	-0.72107	0.4879	0.48976
4.58	95.886	-22476	2572.5	-0.72175	0.488	0.48995
4.582	95.887	-22475	2572.2	-0.72146	0.4882	0.49034
4.584	95.889	-22474	2571.9	-0.72117	0.48839	0.49073
4.586	95.889	-22466	2571.7	-0.72087	0.48859	0.49112
4.588	95.886	-22459	2571.5	-0.72058	0.48878	0.49151
4.59	95.887	-22460	2571.3	-0.72029	0.48898	0.4919
4.592	95.89	-22461	2571.1	-0.72136	0.48917	0.49249
4.594	95.887	-22467	2570.9	-0.72244	0.48937	0.49308
4.596	95.89	-22473	2570.7	-0.72351	0.48956	0.49366
4.598	95.898	-22476	2570.7	-0.72458	0.48976	0.49425
4.6	95.884	-22479	2570.6	-0.72566	0.48995	0.49483
4.602	95.872	-22479	2570.5	-0.72595	0.48868	0.49395
4.604	95.879	-22479	2570.5	-0.72624	0.48741	0.49308
4.606	95.878	-22475	2570.4	-0.72653	0.48615	0.4922
4.608	95.875	-22471	2570.3	-0.72683	0.48488	0.49132
4.61	95.881	-22468	2570.3	-0.72712	0.48361	0.49044
4.612	95.889	-22464	2570.3	-0.72732	0.4841	0.49132
4.614	95.891	-22469	2570.3	-0.72751	0.48458	0.4922
4.616	95.889	-22473	2570.3	-0.72771	0.48507	0.49308
4.618	95.894	-22476	2570.3	-0.7279	0.48556	0.49395
4.62	95.896	-22480	2570.3	-0.7281	0.48605	0.49483
4.622	95.89	-22475	2570.3	-0.7278	0.48595	0.49464
4.624	95.889	-22471	2570.3	-0.72751	0.48585	0.49444
4.626	95.894	-22471	2570.3	-0.72722	0.48576	0.49425
4.628	95.902	-22472	2570.3	-0.72692	0.48566	0.49405
4.63	95.905	-22473	2570.4	-0.72663	0.48556	0.49386
4.632	95.906	-22475	2570.5	-0.72712	0.48468	0.49415
4.634	95.909	-22475	2570.5	-0.72761	0.4838	0.49444
4.636	95.906	-22475	2570.6	-0.7281	0.48292	0.49473
4.638	95.89	-22476	2570.7	-0.72858	0.48205	0.49503
4.64	95.877	-22476	2570.7	-0.72907	0.48117	0.49532
4.642	95.872	-22474	2570.7	-0.72858	0.48244	0.49552
4.644	95.874	-22472	2570.6	-0.7281	0.48371	0.49571
4.646	95.892	-22472	2570.6	-0.72761	0.48497	0.49591
4.648	95.912	-22472	2570.7	-0.72712	0.48624	0.4961
4.65	95.917	-22476	2570.7	-0.72663	0.48751	0.4963
4.652	95.914	-22479	2570.7	-0.72732	0.48732	0.49678
4.654	95.907	-22471	2570.7	-0.728	0.48712	0.49727
4.656	95.903	-22462	2570.6	-0.72868	0.48693	0.49776
4.658	95.905	-22466	2570.6	-0.72936	0.48673	0.49825
4.66	95.906	-22470	2570.5	-0.73005	0.48654	0.49874
4.662	95.909	-22468	2570.4	-0.72956	0.488	0.49786
4.664	95.92	-22467	2570.4	-0.72907	0.48946	0.49698
4.666	95.924	-22471	2570.4	-0.72858	0.49093	0.4961
4.668	95.914	-22474	2570.3	-0.7281	0.49239	0.49522
4.67	95.902	-22475	2570.3	-0.72761	0.49386	0.49434
4.672	95.905	-22476	2570.3	-0.72566	0.49327	0.49386
4.674	95.907	-22475	2570.2	-0.7237	0.49268	0.49337
4.676	95.901	-22474	2570.2	-0.72175	0.4921	0.49288
4.678	95.898	-22471	2570.2	-0.7198	0.49151	0.49239
4.68	95.891	-22469	2570.1	-0.71785	0.49093	0.4919
4.682	95.881	-22467	2570.1	-0.71726	0.49054	0.492
4.684	95.874	-22466	2570.1	-0.71668	0.49015	0.4921
4.686	95.875	-22464	2570	-0.71609	0.48976	0.4922
4.688	95.878	-22462	2569.9	-0.71551	0.48937	0.49229
4.69	95.88	-22463	2569.8	-0.71492	0.48898	0.49239
4.692	95.881	-22464	2569.8	-0.7156	0.48985	0.4921
4.694	95.885	-22463	2569.7	-0.71629	0.49073	0.49181
4.696	95.881	-22461	2569.6	-0.71697	0.49161	0.49151
4.698	95.875	-22461	2569.5	-0.71765	0.49249	0.49122
