t	ekg	optical	pressure	accel_x	accel_y	accel_z
4.5475e-13	15.94	-18357	3295.5	-0.26254	0.95258	0.15567
0.002	15.946	-18353	3292.7	-0.26235	0.95267	0.15596
0.004	15.95	-18349	3289.9	-0.26215	0.95277	0.15626
0.006	15.941	-18346	3287.2	-0.26196	0.95287	0.15655
0.008	15.938	-18342	3284.6	-0.26176	0.95297	0.15684
0.01	15.937	-18339	3282	-0.26157	0.95306	0.15714
0.012	15.937	-18340	3279.5	-0.2603	0.95414	0.15821
0.014	15.941	-18341	3277	-0.25903	0.95521	0.15928
0.016	15.937	-18339	3274.6	-0.25776	0.95628	0.16036
0.018	15.943	-18336	3272.2	-0.25649	0.95736	0.16143
0.02	15.962	-18337	3269.8	-0.25522	0.95843	0.1625
0.022	15.978	-18337	3267.5	-0.25757	0.95736	0.16309
0.024	15.958	-18337	3265.2	-0.25991	0.95628	0.16368
0.026	15.934	-18337	3263.1	-0.26225	0.95521	0.16426
0.028	15.939	-18338	3261.1	-0.26459	0.95414	0.16485
0.03	15.952	-18339	3259.2	-0.26694	0.95306	0.16543
0.032	15.959	-18343	3257.5	-0.26674	0.95267	0.16475
0.034	15.96	-18346	3255.7	-0.26655	0.95228	0.16407
0.036	15.953	-18346	3254.1	-0.26635	0.95189	0.16338
0.038	15.95	-18347	3252.6	-0.26616	0.9515	0.1627
0.04	15.954	-18345	3251.2	-0.26596	0.95111	0.16202
0.042	15.957	-18344	3249.9	-0.26586	0.95004	0.16055
0.044	15.958	-18342	3248.7	-0.26576	0.94896	0.15909
0.046	15.956	-18340	3247.5	-0.26567	0.94789	0.15762
0.048	15.95	-18338	3246.4	-0.26557	0.94682	0.15616
0.05	15.945	-18336	3245.4	-0.26547	0.94574	0.1547
0.052	15.951	-18337	3244.5	-0.26586	0.94652	0.1546
0.054	15.956	-18338	3243.7	-0.26625	0.94731	0.1545
0.056	15.958	-18340	3242.9	-0.26664	0.94809	0.1544
0.058	15.959	-18342	3242.2	-0.26703	0.94887	0.15431
0.06	15.957	-18342	3241.6	-0.26742	0.94965	0.15421
0.062	15.97	-18341	3241.1	-0.26811	0.94955	0.15372
0.064	15.961	-18339	3240.6	-0.26879	0.94945	0.15323
0.066	15.945	-18337	3240.2	-0.26947	0.94936	0.15274
0.068	15.933	-18337	3239.9	-0.27016	0.94926	0.15226
0.07	15.937	-18337	3239.5	-0.27084	0.94916	0.15177
0.072	15.934	-18344	3239.4	-0.27074	0.94896	0.15206
0.074	15.916	-18351	3239.2	-0.27064	0.94877	0.15235
0.076	15.907	-18351	3239.2	-0.27055	0.94857	0.15265
0.078	15.898	-18351	3239.2	-0.27045	0.94838	0.15294
0.08	15.9	-18350	3239.2	-0.27035	0.94818	0.15323
0.082	15.901	-18348	3239.2	-0.27006	0.94838	0.15343
0.084	15.9	-18344	3239.3	-0.26977	0.94857	0.15362
0.086	15.913	-18341	3239.4	-0.26947	0.94877	0.15382
0.088	15.916	-18341	3239.5	-0.26918	0.94896	0.15401
0.09	15.914	-18342	3239.7	-0.26889	0.94916	0.15421
0.092	15.905	-18344	3239.9	-0.26869	0.94828	0.15489
0.094	15.9	-18347	3240.1	-0.2685	0.9474	0.15557
0.096	15.9	-18352	3240.4	-0.2683	0.94652	0.15626
0.098	15.899	-18357	3240.7	-0.26811	0.94565	0.15694
0.1	15.905	-18352	3241	-0.26791	0.94477	0.15762
0.102	15.907	-18348	3241.3	-0.26781	0.94506	0.15714
0.104	15.902	-18344	3241.7	-0.26772	0.94535	0.15665
0.106	15.91	-18341	3242.1	-0.26762	0.94565	0.15616
0.108	15.918	-18344	3242.4	-0.26752	0.94594	0.15567
0.11	15.923	-18348	3242.7	-0.26742	0.94623	0.15518
0.112	15.931	-18346	3243	-0.26557	0.94516	0.15616
0.114	15.948	-18345	3243.4	-0.26372	0.94408	0.15714
0.116	15.969	-18350	3243.7	-0.26186	0.94301	0.15811
0.118	15.987	-18355	3244	-0.26001	0.94194	0.15909
0.12	16.005	-18356	3244.3	-0.25815	0.94086	0.16006
0.122	16.011	-18357	3244.6	-0.25825	0.94106	0.15997
0.124	16.011	-18356	3244.9	-0.25835	0.94125	0.15987
0.126	16.02	-18356	3245.1	-0.25844	0.94145	0.15977
0.128	16.022	-18356	3245.3	-0.25854	0.94164	0.15967
0.13	16.012	-18356	3245.5	-0.25864	0.94184	0.15958
0.132	16.016	-18350	3245.7	-0.25864	0.94174	0.16016
0.134	16.023	-18343	3245.9	-0.25864	0.94164	0.16075
0.136	16.032	-18347	3246	-0.25864	0.94155	0.16133
0.138	16.041	-18351	3246.1	-0.25864	0.94145	0.16192
0.14	16.042	-18344	3246.2	-0.25864	0.94135	0.1625
0.142	16.03	-18337	3246.3	-0.25913	0.94174	0.16104
0.144	16.022	-18337	3246.4	-0.25962	0.94213	0.15958
0.146	16.028	-18338	3246.4	-0.2601	0.94252	0.15811
0.148	16.037	-18344	3246.4	-0.26059	0.94291	0.15665
0.15	16.033	-18351	3246.5	-0.26108	0.9433	0.15518
0.152	16.04	-18349	3246.4	-0.26147	0.94379	0.15499
0.154	16.044	-18347	3246.4	-0.26186	0.94428	0.15479
0.156	16.038	-18346	3246.3	-0.26225	0.94477	0.1546
0.158	16.034	-18345	3246.3	-0.26264	0.94526	0.1544
0.16	16.033	-18347	3246.2	-0.26303	0.94574	0.15421
0.162	16.033	-18349	3246	-0.26342	0.94594	0.1544
0.164	16.035	-18345	3245.8	-0.26381	0.94613	0.1546
0.166	16.036	-18340	3245.7	-0.2642	0.94633	0.15479
0.168	16.038	-18340	3245.5	-0.26459	0.94652	0.15499
0.17	16.033	-18340	3245.3	-0.26498	0.94672	0.15518
0.172	16.039	-18345	3245.1	-0.26508	0.94799	0.15587
0.174	16.043	-18350	3244.9	-0.26518	0.94926	0.15655
0.176	16.044	-18346	3244.7	-0.26528	0.95053	0.15723
0.178	16.039	-18342	3244.5	-0.26537	0.9518	0.15792
0.18	16.031	-18346	3244.2	-0.26547	0.95306	0.1586
0.182	16.047	-18351	3244	-0.2643	0.95228	0.15831
0.184	16.053	-18354	3243.7	-0.26313	0.9515	0.15801
0.186	16.052	-18358	3243.4	-0.26196	0.95072	0.15772
0.188	16.06	-18350	3243	-0.26079	0.94994	0.15743
0.19	16.064	-18342	3242.7	-0.25962	0.94916	0.15714
0.192	16.055	-18344	3242.3	-0.26069	0.94896	0.15645
0.194	16.056	-18346	3241.9	-0.26176	0.94877	0.15577
0.196	16.046	-18346	3241.6	-0.26284	0.94857	0.15509
0.198	16.032	-18346	3241.2	-0.26391	0.94838	0.1544
0.2	16.033	-18342	3240.9	-0.26498	0.94818	0.15372
0.202	16.037	-18338	3240.5	-0.26518	0.94809	0.15382
0.204	16.035	-18339	3240.1	-0.26537	0.94799	0.15392
0.206	16.025	-18340	3239.8	-0.26557	0.94789	0.15401
0.208	16.016	-18341	3239.5	-0.26576	0.94779	0.15411
0.21	16.016	-18342	3239.1	-0.26596	0.9477	0.15421
0.212	16.016	-18357	3238.8	-0.26606	0.9477	0.15372
0.214	16.024	-18371	3238.4	-0.26616	0.9477	0.15323
0.216	16.025	-18369	3238	-0.26625	0.9477	0.15274
0.218	16.024	-18366	3237.7	-0.26635	0.9477	0.15226
0.22	16.034	-18367	3237.3	-0.26645	0.9477	0.15177
0.222	16.024	-18367	3236.9	-0.26537	0.94662	0.15255
0.224	16.006	-18364	3236.6	-0.2643	0.94555	0.15333
0.226	15.988	-18361	3236.2	-0.26323	0.94448	0.15411
0.228	15.967	-18363	3235.9	-0.26215	0.9434	0.15489
0.23	15.962	-18365	3235.5	-0.26108	0.94233	0.15567
0.232	15.965	-18373	3235.2	-0.26157	0.94252	0.15538
0.234	15.934	-18381	3234.8	-0.26206	0.94272	0.15509
0.236	15.889	-18376	3234.4	-0.26254	0.94291	0.15479
0.238	15.828	-18372	3234.1	-0.26303	0.94311	0.1545
0.24	15.76	-18368	3233.7	-0.26352	0.9433	0.15421
0.242	15.705	-18364	3233.3	-0.26313	0.94369	0.15411
0.244	15.641	-18367	3233	-0.26274	0.94408	0.15401
0.246	15.585	-18370	3232.6	-0.26235	0.94448	0.15392
0.248	15.552	-18362	3232.2	-0.26196	0.94487	0.15382
0.25	15.559	-18354	3231.8	-0.26157	0.94526	0.15372
0.252	15.543	-18349	3231.4	-0.26147	0.94496	0.1546
0.254	15.531	-18344	3231	-0.26137	0.94467	0.15548
0.256	15.562	-18348	3230.6	-0.26128	0.94438	0.15636
0.258	15.572	-18352	3230.2	-0.26118	0.94408	0.15723
0.26	15.554	-18353	3229.8	-0.26108	0.94379	0.15811
0.262	15.545	-18354	3229.3	-0.26206	0.94448	0.15714
0.264	15.553	-18354	3228.9	-0.26303	0.94516	0.15616
0.266	15.558	-18353	3228.4	-0.26401	0.94584	0.15518
0.268	15.547	-18354	3228	-0.26498	0.94652	0.15421
0.27	15.526	-18355	3227.6	-0.26596	0.94721	0.15323
0.272	15.5	-18354	3227.1	-0.26518	0.94731	0.15226
0.274	15.48	-18353	3226.7	-0.2644	0.9474	0.15128
0.276	15.483	-18347	3226.3	-0.26362	0.9475	0.1503
0.278	15.491	-18342	3225.9	-0.26284	0.9476	0.14933
0.28	15.507	-18348	3225.5	-0.26206	0.9477	0.14835
0.282	15.539	-18355	3225.1	-0.26079	0.94799	0.14835
0.284	15.571	-18358	3224.7	-0.25952	0.94828	0.14835
0.286	15.601	-18361	3224.2	-0.25825	0.94857	0.14835
0.288	15.64	-18359	3223.8	-0.25698	0.94887	0.14835
0.29	15.679	-18357	3223.4	-0.25571	0.94916	0.14835
0.292	15.709	-18355	3223	-0.25757	0.94828	0.14933
0.294	15.741	-18353	3222.6	-0.25942	0.9474	0.1503
0.296	15.785	-18357	3222.2	-0.26128	0.94652	0.15128
0.298	15.829	-18360	3221.8	-0.26313	0.94565	0.15226
0.3	15.867	-18357	3221.4	-0.26498	0.94477	0.15323
0.302	15.901	-18354	3221	-0.26518	0.94565	0.15245
0.304	15.927	-18356	3220.6	-0.26537	0.94652	0.15167
0.306	15.961	-18359	3220.3	-0.26557	0.9474	0.15089
0.308	15.988	-18362	3219.9	-0.26576	0.94828	0.15011
0.31	15.994	-18366	3219.5	-0.26596	0.94916	0.14933
0.312	16.018	-18367	3219.1	-0.26459	0.94818	0.14894
0.314	16.047	-18368	3218.7	-0.26323	0.94721	0.14855
0.316	16.066	-18367	3218.4	-0.26186	0.94623	0.14816
0.318	16.079	-18366	3218	-0.26049	0.94526	0.14777
0.32	16.097	-18363	3217.6	-0.25913	0.94428	0.14738
0.322	16.086	-18360	3217.2	-0.25786	0.94574	0.14679
0.324	16.084	-18363	3216.8	-0.25659	0.94721	0.1462
0.326	16.102	-18366	3216.4	-0.25532	0.94867	0.14562
0.328	16.096	-18360	3216	-0.25405	0.95014	0.14503
0.33	16.094	-18354	3215.6	-0.25278	0.9516	0.14445
0.332	16.095	-18360	3215.3	-0.25288	0.9514	0.14455
0.334	16.09	-18367	3214.9	-0.25298	0.95121	0.14464
0.336	16.096	-18364	3214.6	-0.25308	0.95101	0.14474
0.338	16.098	-18362	3214.2	-0.25317	0.95082	0.14484
0.34	16.086	-18360	3213.9	-0.25327	0.95062	0.14494
0.342	16.084	-18358	3213.7	-0.25347	0.95092	0.14542
0.344	16.09	-18359	3213.5	-0.25366	0.95121	0.14591
0.346	16.085	-18359	3213.2	-0.25386	0.9515	0.1464
0.348	16.079	-18356	3213	-0.25405	0.9518	0.14689
0.35	16.079	-18353	3212.8	-0.25425	0.95209	0.14738
0.352	16.071	-18354	3212.6	-0.25581	0.95209	0.14825
0.354	16.075	-18356	3212.4	-0.25737	0.95209	0.14913
0.356	16.094	-18359	3212.3	-0.25893	0.95209	0.15001
0.358	16.087	-18363	3212.1	-0.26049	0.95209	0.15089
0.36	16.076	-18363	3212	-0.26206	0.95209	0.15177
0.362	16.073	-18364	3212	-0.26167	0.95267	0.15226
0.364	16.075	-18364	3211.9	-0.26128	0.95326	0.15274
0.366	16.078	-18364	3211.9	-0.26088	0.95384	0.15323
0.368	16.068	-18361	3212	-0.26049	0.95443	0.15372
0.37	16.057	-18359	3212	-0.2601	0.95502	0.15421
0.372	16.053	-18363	3212	-0.25971	0.95638	0.15411
0.374	16.05	-18368	3212	-0.25932	0.95775	0.15401
0.376	16.045	-18365	3212.1	-0.25893	0.95912	0.15392
0.378	16.042	-18362	3212.2	-0.25854	0.96048	0.15382
0.38	16.041	-18370	3212.3	-0.25815	0.96185	0.15372
0.382	16.035	-18379	3212.5	-0.25757	0.96243	0.1546
0.384	16.029	-18371	3212.7	-0.25698	0.96302	0.15548
0.386	16.033	-18363	3213.2	-0.2564	0.9636	0.15636
0.388	16.04	-18370	3213.8	-0.25581	0.96419	0.15723
0.39	16.039	-18376	3214.5	-0.25522	0.96478	0.15811
0.392	16.036	-18372	3215.9	-0.25493	0.96351	0.15889
0.394	16.037	-18367	3217.2	-0.25464	0.96224	0.15967
0.396	16.048	-18366	3219.2	-0.25435	0.96097	0.16045
0.398	16.047	-18365	3221.7	-0.25405	0.9597	0.16124
0.4	16.058	-18367	3224.2	-0.25376	0.95843	0.16202
0.402	16.055	-18368	3227.8	-0.25483	0.95677	0.16192
0.404	16.059	-18370	3231.4	-0.25591	0.95511	0.16182
0.406	16.07	-18372	3235.6	-0.25698	0.95345	0.16172
0.408	16.072	-18369	3240.3	-0.25805	0.9518	0.16163
0.41	16.066	-18367	3245	-0.25913	0.95014	0.16153
0.412	16.071	-18362	3250.7	-0.25874	0.94906	0.16104
0.414	16.074	-18357	3256.4	-0.25835	0.94799	0.16055
0.416	16.065	-18356	3262.5	-0.25796	0.94692	0.16006
0.418	16.053	-18355	3269.1	-0.25757	0.94584	0.15958
0.42	16.054	-18361	3275.6	-0.25718	0.94477	0.15909
0.422	16.054	-18367	3282.9	-0.25708	0.94448	0.15909
0.424	16.074	-18364	3290.1	-0.25698	0.94418	0.15909
0.426	16.067	-18362	3297.5	-0.25688	0.94389	0.15909
0.428	16.074	-18360	3305.2	-0.25679	0.9436	0.15909
0.43	16.087	-18358	3312.8	-0.25669	0.9433	0.15909
0.432	16.099	-18359	3320.5	-0.2563	0.94291	0.15899
0.434	16.102	-18360	3328.1	-0.25591	0.94252	0.15889
0.436	16.099	-18363	3335.5	-0.25552	0.94213	0.1588
0.438	16.097	-18367	3342.5	-0.25513	0.94174	0.1587
0.44	16.083	-18364	3349.6	-0.25474	0.94135	0.1586
0.442	16.076	-18361	3355.7	-0.25464	0.94164	0.15753
0.444	16.071	-18363	3361.8	-0.25454	0.94194	0.15645
0.446	16.072	-18365	3367.3	-0.25444	0.94223	0.15538
0.448	16.063	-18363	3372.1	-0.25435	0.94252	0.15431
0.45	16.061	-18361	3377	-0.25425	0.94282	0.15323
0.452	16.057	-18363	3380.7	-0.25337	0.94272	0.15265
0.454	16.052	-18364	3384.3	-0.25249	0.94262	0.15206
0.456	16.058	-18367	3387.3	-0.25161	0.94252	0.15148
0.458	16.067	-18370	3389.8	-0.25073	0.94243	0.15089
0.46	16.059	-18365	3392.2	-0.24986	0.94233	0.1503
0.462	16.037	-18359	3393.6	-0.24927	0.94223	0.14991
0.464	16.022	-18359	3394.9	-0.24868	0.94213	0.14952
0.466	16.006	-18359	3395.8	-0.2481	0.94204	0.14913
0.468	15.991	-18361	3396.3	-0.24751	0.94194	0.14874
0.47	15.986	-18363	3396.7	-0.24693	0.94184	0.14835
0.472	15.986	-18367	3396.4	-0.24693	0.94272	0.14738
0.474	15.977	-18370	3396	-0.24693	0.9436	0.1464
0.476	15.962	-18369	3395.4	-0.24693	0.94448	0.14542
0.478	15.957	-18369	3394.5	-0.24693	0.94535	0.14445
0.48	15.953	-18365	3393.6	-0.24693	0.94623	0.14347
0.482	15.943	-18361	3392.2	-0.24673	0.94584	0.14328
0.484	15.938	-18355	3390.8	-0.24654	0.94545	0.14308
0.486	15.935	-18349	3389.2	-0.24634	0.94506	0.14289
0.488	15.915	-18353	3387.5	-0.24615	0.94467	0.14269
0.49	15.908	-18357	3385.8	-0.24595	0.94428	0.1425
0.492	15.906	-18362	3383.7	-0.24693	0.94516	0.14211
0.494	15.883	-18367	3381.7	-0.2479	0.94604	0.14172
0.496	15.9	-18363	3379.5	-0.24888	0.94692	0.14132
0.498	15.91	-18360	3377.3	-0.24986	0.94779	0.14093
0.5	15.902	-18359	3375	-0.25083	0.94867	0.14054
0.502	15.912	-18357	3372.6	-0.25073	0.94848	0.14113
0.504	15.912	-18357	3370.1	-0.25064	0.94828	0.14172
0.506	15.929	-18357	3367.6	-0.25054	0.94809	0.1423
0.508	15.936	-18356	3365.1	-0.25044	0.94789	0.14289
0.51	15.941	-18355	3362.5	-0.25034	0.9477	0.14347
0.512	15.93	-18361	3359.8	-0.25191	0.94867	0.14572
0.514	15.933	-18367	3357.1	-0.25347	0.94965	0.14796
0.516	15.95	-18364	3354.4	-0.25503	0.95062	0.15021
0.518	15.936	-18361	3351.6	-0.25659	0.9516	0.15245
0.52	15.934	-18362	3348.8	-0.25815	0.95258	0.1547
0.522	15.939	-18363	3346	-0.25825	0.95209	0.15382
0.524	15.946	-18360	3343.1	-0.25835	0.9516	0.15294
0.526	15.933	-18358	3340.3	-0.25844	0.95111	0.15206
0.528	15.93	-18361	3337.4	-0.25854	0.95062	0.15118
0.53	15.952	-18365	3334.5	-0.25864	0.95014	0.1503
0.532	15.962	-18364	3331.6	-0.25903	0.94984	0.15089
0.534	15.958	-18363	3328.7	-0.25942	0.94955	0.15148
0.536	15.958	-18357	3325.8	-0.25981	0.94926	0.15206
0.538	15.967	-18351	3322.9	-0.2602	0.94896	0.15265
0.54	15.972	-18350	3320	-0.26059	0.94867	0.15323
0.542	15.963	-18348	3317.1	-0.25971	0.94936	0.15304
0.544	15.954	-18350	3314.1	-0.25884	0.95004	0.15284
0.546	15.956	-18352	3311.2	-0.25796	0.95072	0.15265
0.548	15.962	-18353	3308.3	-0.25708	0.9514	0.15245
0.55	15.966	-18354	3305.3	-0.2562	0.95209	0.15226
0.552	15.964	-18351	3302.4	-0.25542	0.95297	0.15313
0.554	15.956	-18349	3299.5	-0.25464	0.95384	0.15401
0.556	15.952	-18349	3296.6	-0.25386	0.95472	0.15489
0.558	15.956	-18350	3293.8	-0.25308	0.9556	0.15577
0.56	15.951	-18353	3291	-0.2523	0.95648	0.15665
0.562	15.95	-18356	3288.3	-0.2522	0.9556	0.15665
0.564	15.949	-18357	3285.6	-0.2521	0.95472	0.15665
0.566	15.955	-18358	3282.9	-0.252	0.95384	0.15665
0.568	15.962	-18356	3280.3	-0.25191	0.95297	0.15665
0.57	15.957	-18354	3277.8	-0.25181	0.95209	0.15665
0.572	15.957	-18354	3275.3	-0.25171	0.95297	0.15723
0.574	15.968	-18353	3272.8	-0.25161	0.95384	0.15782
0.576	15.946	-18353	3270.4	-0.25152	0.95472	0.1584
0.578	15.929	-18353	3268.2	-0.25142	0.9556	0.15899
0.58	15.947	-18355	3266	-0.25132	0.95648	0.15958
0.582	15.943	-18356	3264	-0.25161	0.95589	0.15899
0.584	15.957	-18357	3261.9	-0.25191	0.95531	0.1584
0.586	15.981	-18358	3260.1	-0.2522	0.95472	0.15782
0.588	15.981	-18358	3258.4	-0.25249	0.95414	0.15723
0.59	15.973	-18358	3256.7	-0.25278	0.95355	0.15665
0.592	15.97	-18357	3255.1	-0.25239	0.95306	0.15694
0.594	15.967	-18357	3253.5	-0.252	0.95258	0.15723
0.596	15.967	-18353	3252	-0.25161	0.95209	0.15753
0.598	15.956	-18349	3250.7	-0.25122	0.9516	0.15782
0.6	15.955	-18352	3249.3	-0.25083	0.95111	0.15811
0.602	15.96	-18356	3248.3	-0.25181	0.95199	0.15772
0.604	15.97	-18354	3247.2	-0.25278	0.95287	0.15733
0.606	15.974	-18353	3246.2	-0.25376	0.95375	0.15694
0.608	15.969	-18349	3245.3	-0.25474	0.95463	0.15655
0.61	15.975	-18345	3244.3	-0.25571	0.9555	0.15616
0.612	15.972	-18350	3243.6	-0.25483	0.95472	0.15596
0.614	15.958	-18355	3242.9	-0.25396	0.95394	0.15577
0.616	15.964	-18356	3242.3	-0.25308	0.95316	0.15557
0.618	15.967	-18357	3241.9	-0.2522	0.95238	0.15538
0.62	15.959	-18356	3241.5	-0.25132	0.9516	0.15518
0.622	15.94	-18356	3241.2	-0.25249	0.95189	0.15499
0.624	15.921	-18355	3240.9	-0.25366	0.95219	0.15479
0.626	15.918	-18355	3240.7	-0.25483	0.95248	0.1546
0.628	15.925	-18359	3240.5	-0.256	0.95277	0.1544
0.63	15.925	-18362	3240.3	-0.25718	0.95306	0.15421
0.632	15.931	-18363	3240.4	-0.25698	0.95336	0.1545
0.634	15.943	-18365	3240.5	-0.25679	0.95365	0.15479
0.636	15.939	-18359	3240.6	-0.25659	0.95394	0.15509
0.638	15.926	-18353	3240.8	-0.2564	0.95424	0.15538
0.64	15.923	-18353	3240.9	-0.2562	0.95453	0.15567
0.642	15.928	-18352	3241.1	-0.2564	0.95355	0.1545
0.644	15.918	-18352	3241.2	-0.25659	0.95258	0.15333
0.646	15.908	-18351	3241.4	-0.25679	0.9516	0.15216
0.648	15.916	-18354	3241.8	-0.25698	0.95062	0.15099
0.65	15.927	-18356	3242.1	-0.25718	0.94965	0.14982
0.652	15.928	-18356	3242.4	-0.25679	0.95082	0.15128
0.654	15.922	-18356	3242.7	-0.2564	0.95199	0.15274
0.656	15.911	-18357	3243	-0.256	0.95316	0.15421
0.658	15.912	-18358	3243.2	-0.25561	0.95433	0.15567
0.66	15.934	-18358	3243.4	-0.25522	0.9555	0.15714
0.662	15.943	-18358	3243.7	-0.25493	0.95668	0.15587
0.664	15.948	-18353	3244.1	-0.25464	0.95785	0.1546
0.666	15.959	-18348	3244.4	-0.25435	0.95902	0.15333
0.668	15.971	-18351	3244.7	-0.25405	0.96019	0.15206
0.67	16	-18353	3245	-0.25376	0.96136	0.15079
0.672	15.997	-18351	3245.2	-0.25454	0.96048	0.15157
0.674	15.997	-18349	3245.4	-0.25532	0.9596	0.15235
0.676	16.004	-18355	3245.6	-0.2561	0.95872	0.15313
0.678	16.003	-18361	3245.8	-0.25688	0.95785	0.15392
0.68	16.006	-18359	3246.1	-0.25766	0.95697	0.1547
0.682	16.004	-18357	3246.3	-0.25669	0.95746	0.15421
0.684	16.021	-18355	3246.4	-0.25571	0.95794	0.15372
0.686	16.032	-18353	3246.6	-0.25474	0.95843	0.15323
0.688	16.052	-18352	3246.9	-0.25376	0.95892	0.15274
0.69	16.044	-18351	3247.1	-0.25278	0.95941	0.15226
0.692	16.028	-18354	3247.1	-0.25435	0.95824	0.15245
0.694	16.024	-18356	3247.1	-0.25591	0.95707	0.15265
0.696	16.028	-18357	3247.1	-0.25747	0.95589	0.15284
0.698	16.031	-18358	3247.1	-0.25903	0.95472	0.15304
0.7	16.032	-18359	3247.1	-0.26059	0.95355	0.15323
0.702	16.025	-18359	3247.1	-0.25708	0.95492	0.15206
0.704	16.019	-18360	3247	-0.25356	0.95628	0.15089
0.706	16.016	-18362	3247	-0.25005	0.95765	0.14972
0.708	16.017	-18357	3246.9	-0.24654	0.95902	0.14855
0.71	16.011	-18353	3246.8	-0.24302	0.96038	0.14738
0.712	16.003	-18351	3246.6	-0.24576	0.95824	0.1466
0.714	16.004	-18348	3246.4	-0.24849	0.95609	0.14581
0.716	16.008	-18350	3246.2	-0.25122	0.95394	0.14503
0.718	16.013	-18351	3246	-0.25396	0.9518	0.14425
0.72	16.012	-18355	3245.8	-0.25669	0.94965	0.14347
0.722	16.005	-18358	3245.7	-0.25386	0.95043	0.14474
0.724	16.01	-18360	3245.6	-0.25103	0.95121	0.14601
0.726	16.011	-18362	3245.4	-0.2482	0.95199	0.14728
0.728	15.994	-18361	3245	-0.24537	0.95277	0.14855
0.73	15.978	-18359	3244.7	-0.24254	0.95355	0.14982
0.732	15.992	-18356	3244.4	-0.24585	0.95219	0.14962
0.734	16.014	-18353	3244.2	-0.24917	0.95082	0.14943
0.736	16.036	-18356	3243.9	-0.25249	0.94945	0.14923
0.738	16.052	-18359	3243.6	-0.25581	0.94809	0.14904
0.74	16.041	-18361	3243.2	-0.25913	0.94672	0.14884
0.742	16.041	-18364	3243	-0.25679	0.94721	0.14952
0.744	16.04	-18359	3242.8	-0.25444	0.9477	0.15021
0.746	16.034	-18355	3242.4	-0.2521	0.94818	0.15089
0.748	16.029	-18355	3242	-0.24976	0.94867	0.15157
0.75	16.023	-18354	3241.6	-0.24742	0.94916	0.15226
0.752	16.011	-18352	3241.2	-0.24917	0.94887	0.15167
0.754	16.012	-18350	3240.9	-0.25093	0.94857	0.15108
0.756	16.005	-18354	3240.5	-0.25269	0.94828	0.1505
0.758	16.027	-18357	3240	-0.25444	0.94799	0.14991
0.76	16.036	-18359	3239.6	-0.2562	0.9477	0.14933
0.762	16.029	-18361	3239.2	-0.25464	0.94662	0.15079
0.764	16.025	-18361	3238.9	-0.25308	0.94555	0.15226
0.766	16.026	-18362	3238.5	-0.25152	0.94448	0.15372
0.768	16.029	-18362	3238	-0.24995	0.9434	0.15518
0.77	16.011	-18362	3237.5	-0.24839	0.94233	0.15665
0.772	15.995	-18360	3237	-0.24859	0.94252	0.15587
0.774	15.978	-18358	3236.5	-0.24878	0.94272	0.15509
0.776	15.967	-18360	3236	-0.24898	0.94291	0.15431
0.778	15.961	-18363	3235.4	-0.24917	0.94311	0.15352
0.78	15.944	-18360	3234.8	-0.24937	0.9433	0.15274
0.782	15.925	-18357	3234.5	-0.2479	0.94418	0.15206
0.784	15.91	-18357	3234.2	-0.24644	0.94506	0.15138
0.786	15.87	-18357	3233.8	-0.24498	0.94594	0.15069
0.788	15.813	-18365	3233.3	-0.24351	0.94682	0.15001
0.79	15.755	-18374	3232.7	-0.24205	0.9477	0.14933
0.792	15.704	-18369	3232.2	-0.24498	0.94721	0.14913
0.794	15.658	-18365	3231.7	-0.2479	0.94672	0.14894
0.796	15.627	-18364	3231.1	-0.25083	0.94623	0.14874
0.798	15.619	-18364	3230.5	-0.25376	0.94574	0.14855
0.8	15.624	-18364	3230	-0.25669	0.94526	0.14835
0.802	15.631	-18364	3229.3	-0.25356	0.94604	0.14708
0.804	15.632	-18363	3228.7	-0.25044	0.94682	0.14581
0.806	15.627	-18363	3228.2	-0.24732	0.9476	0.14455
0.808	15.625	-18360	3227.9	-0.2442	0.94838	0.14328
0.81	15.62	-18358	3227.5	-0.24107	0.94916	0.14201
0.812	15.616	-18359	3227	-0.24351	0.94838	0.14308
0.814	15.619	-18360	3226.5	-0.24595	0.9476	0.14416
0.816	15.628	-18360	3226	-0.24839	0.94682	0.14523
0.818	15.621	-18360	3225.5	-0.25083	0.94604	0.1463
0.82	15.584	-18359	3225	-0.25327	0.94526	0.14738
0.822	15.569	-18359	3224.4	-0.25249	0.94574	0.14542
0.824	15.576	-18367	3223.9	-0.25171	0.94623	0.14347
0.826	15.594	-18375	3223.3	-0.25093	0.94672	0.14152
0.828	15.616	-18366	3222.8	-0.25015	0.94721	0.13957
0.83	15.616	-18358	3222.2	-0.24937	0.9477	0.13762
0.832	15.645	-18358	3221.7	-0.24937	0.9477	0.13791
0.834	15.682	-18357	3221.2	-0.24937	0.9477	0.1382
0.836	15.72	-18360	3220.7	-0.24937	0.9477	0.13849
0.838	15.723	-18363	3220.3	-0.24937	0.9477	0.13879
0.84	15.717	-18372	3219.8	-0.24937	0.9477	0.13908
0.842	15.735	-18381	3219.4	-0.24927	0.9477	0.13869
0.844	15.778	-18366	3218.9	-0.24917	0.9477	0.1383
0.846	15.825	-18351	3218.5	-0.24908	0.9477	0.13791
0.848	15.872	-18357	3218.1	-0.24898	0.9477	0.13752
0.85	15.897	-18364	3217.7	-0.24888	0.9477	0.13713
0.852	15.928	-18363	3217.4	-0.24839	0.94867	0.1381
0.854	15.969	-18362	3217.1	-0.2479	0.94965	0.13908
0.856	15.993	-18358	3216.9	-0.24742	0.95062	0.14006
0.858	15.997	-18355	3216.6	-0.24693	0.9516	0.14103
0.86	16.016	-18358	3216.4	-0.24644	0.95258	0.14201
0.862	16.028	-18361	3216.1	-0.24751	0.95189	0.14181
0.864	16.041	-18363	3215.9	-0.24859	0.95121	0.14162
0.866	16.037	-18365	3215.6	-0.24966	0.95053	0.14142
0.868	16.035	-18359	3215.3	-0.25073	0.94984	0.14123
0.87	16.035	-18354	3215	-0.25181	0.94916	0.14103
0.872	16.039	-18364	3214.5	-0.25054	0.94799	0.14064
0.874	16.049	-18374	3214.1	-0.24927	0.94682	0.14025
0.876	16.048	-18373	3213.6	-0.248	0.94565	0.13986
0.878	16.047	-18371	3213.2	-0.24673	0.94448	0.13947
0.88	16.056	-18365	3212.8	-0.24546	0.9433	0.13908
0.882	16.066	-18359	3212.5	-0.24624	0.94408	0.13947
0.884	16.065	-18362	3212.1	-0.24703	0.94487	0.13986
0.886	16.063	-18366	3211.8	-0.24781	0.94565	0.14025
0.888	16.061	-18365	3211.6	-0.24859	0.94643	0.14064
0.89	16.05	-18363	3211.4	-0.24937	0.94721	0.14103
0.892	16.049	-18363	3211.1	-0.24712	0.94701	0.14172
0.894	16.057	-18363	3210.9	-0.24488	0.94682	0.1424
0.896	16.055	-18365	3210.7	-0.24263	0.94662	0.14308
0.898	16.049	-18368	3210.5	-0.24039	0.94643	0.14376
0.9	16.052	-18365	3210.3	-0.23814	0.94623	0.14445
0.902	16.06	-18362	3210	-0.24039	0.94799	0.1466
0.904	16.045	-18366	3209.8	-0.24263	0.94975	0.14874
0.906	16.023	-18370	3209.6	-0.24488	0.9515	0.15089
0.908	16.012	-18368	3209.5	-0.24712	0.95326	0.15304
0.91	16.028	-18366	3209.4	-0.24937	0.95502	0.15518
0.912	16.039	-18365	3209.3	-0.24966	0.95648	0.15392
0.914	16.037	-18365	3209.2	-0.24995	0.95794	0.15265
0.916	16.026	-18368	3209.2	-0.25025	0.95941	0.15138
0.918	16.029	-18370	3209.2	-0.25054	0.96087	0.15011
0.92	16.04	-18368	3209.2	-0.25083	0.96234	0.14884
0.922	16.019	-18367	3209.2	-0.25083	0.96224	0.14894
0.924	15.987	-18367	3209.2	-0.25083	0.96214	0.14904
0.926	15.996	-18367	3209.2	-0.25083	0.96204	0.14913
0.928	16.001	-18366	3209.3	-0.25083	0.96195	0.14923
0.93	15.99	-18365	3209.3	-0.25083	0.96185	0.14933
0.932	15.997	-18366	3209.6	-0.24947	0.96273	0.15138
0.934	16.005	-18366	3210	-0.2481	0.9636	0.15343
0.936	16.015	-18363	3210.6	-0.24673	0.96448	0.15548
0.938	16.02	-18359	3211.5	-0.24537	0.96536	0.15753
0.94	16.02	-18365	3212.5	-0.244	0.96624	0.15958
0.942	16.02	-18371	3214.1	-0.24742	0.964	0.16094
0.944	16.001	-18371	3215.7	-0.25083	0.96175	0.16231
0.946	16	-18371	3217.9	-0.25425	0.95951	0.16368
0.948	16.004	-18372	3220.7	-0.25766	0.95726	0.16504
0.95	16.007	-18372	3223.5	-0.26108	0.95502	0.16641
0.952	16.018	-18366	3227.5	-0.25766	0.95521	0.16533
0.954	16.029	-18359	3231.5	-0.25425	0.95541	0.16426
0.956	16.016	-18360	3236.1	-0.25083	0.9556	0.16319
0.958	16.014	-18361	3241.5	-0.24742	0.9558	0.16211
0.96	16.023	-18362	3246.8	-0.244	0.95599	0.16104
0.962	16.03	-18363	3253.1	-0.24849	0.95443	0.15919
0.964	16.03	-18369	3259.4	-0.25298	0.95287	0.15733
0.966	16.026	-18376	3266.2	-0.25747	0.95131	0.15548
0.968	16.028	-18372	3273.5	-0.26196	0.94975	0.15362
0.97	16.03	-18367	3280.8	-0.26645	0.94818	0.15177
0.972	16.021	-18366	3288.6	-0.26332	0.94828	0.15099
0.974	16.015	-18365	3296.4	-0.2602	0.94838	0.15021
0.976	16.022	-18363	3304.4	-0.25708	0.94848	0.14943
0.978	16.031	-18361	3312.5	-0.25396	0.94857	0.14864
0.98	16.038	-18368	3320.5	-0.25083	0.94867	0.14786
0.982	16.043	-18375	3328.3	-0.25112	0.94848	0.14786
0.984	16.049	-18373	3336.2	-0.25142	0.94828	0.14786
0.986	16.051	-18371	3343.6	-0.25171	0.94809	0.14786
0.988	16.045	-18369	3350.6	-0.252	0.94789	0.14786
0.99	16.029	-18367	3357.6	-0.2523	0.9477	0.14786
0.992	15.991	-18367	3363.4	-0.25034	0.94721	0.14728
0.994	15.995	-18367	3369.3	-0.24839	0.94672	0.14669
0.996	16.014	-18369	3374.6	-0.24644	0.94623	0.14611
0.998	16.025	-18371	3379.2	-0.24449	0.94574	0.14552
1	16.004	-18366	3383.9	-0.24254	0.94526	0.14494
1.002	16.005	-18360	3387.2	-0.24176	0.94584	0.14416
1.004	16.007	-18358	3390.6	-0.24097	0.94643	0.14337
1.006	15.993	-18356	3393.3	-0.24019	0.94701	0.14259
1.008	15.966	-18359	3395.5	-0.23941	0.9476	0.14181
1.01	15.974	-18362	3397.6	-0.23863	0.94818	0.14103
1.012	15.976	-18365	3398.7	-0.23961	0.94799	0.14084
1.014	15.97	-18367	3399.8	-0.24058	0.94779	0.14064
1.016	15.96	-18366	3400.5	-0.24156	0.9476	0.14045
1.018	15.956	-18365	3400.7	-0.24254	0.9474	0.14025
1.02	15.929	-18364	3400.9	-0.24351	0.94721	0.14006
1.022	15.914	-18363	3400.3	-0.24478	0.94731	0.13849
1.024	15.925	-18359	3399.8	-0.24605	0.9474	0.13693
1.026	15.923	-18356	3399	-0.24732	0.9475	0.13537
1.028	15.919	-18361	3397.9	-0.24859	0.9476	0.13381
1.03	15.908	-18366	3396.8	-0.24986	0.9477	0.13225
1.032	15.903	-18358	3395.2	-0.25025	0.94896	0.13283
1.034	15.908	-18351	3393.5	-0.25064	0.95023	0.13342
1.036	15.905	-18356	3391.7	-0.25103	0.9515	0.134
1.038	15.903	-18361	3389.7	-0.25142	0.95277	0.13459
1.04	15.903	-18362	3387.8	-0.25181	0.95404	0.13518
1.042	15.896	-18363	3385.6	-0.25093	0.95375	0.13635
1.044	15.888	-18361	3383.4	-0.25005	0.95345	0.13752
1.046	15.904	-18359	3381.2	-0.24917	0.95316	0.13869
1.048	15.909	-18356	3379.1	-0.24829	0.95287	0.13986
1.05	15.905	-18352	3377	-0.24742	0.95258	0.14103
1.052	15.911	-18355	3374.5	-0.24868	0.95199	0.14152
1.054	15.917	-18359	3371.9	-0.24995	0.9514	0.14201
1.056	15.916	-18361	3369.3	-0.25122	0.95082	0.1425
1.058	15.92	-18363	3366.8	-0.25249	0.95023	0.14298
1.06	15.908	-18362	3364.2	-0.25376	0.94965	0.14347
1.062	15.89	-18362	3361.4	-0.25308	0.95062	0.14455
1.064	15.915	-18359	3358.7	-0.25239	0.9516	0.14562
1.066	15.928	-18356	3355.9	-0.25171	0.95258	0.14669
1.068	15.907	-18357	3353.1	-0.25103	0.95355	0.14777
1.07	15.905	-18358	3350.3	-0.25034	0.95453	0.14884
1.072	15.924	-18358	3347.7	-0.2521	0.9556	0.14894
1.074	15.929	-18358	3345.1	-0.25386	0.95668	0.14904
1.076	15.92	-18358	3342.4	-0.25561	0.95775	0.14913
1.078	15.913	-18359	3339.5	-0.25737	0.95882	0.14923
1.08	15.92	-18358	3336.6	-0.25913	0.9599	0.14933
1.082	15.915	-18358	3333.8	-0.25923	0.95843	0.14943
1.084	15.927	-18355	3330.9	-0.25932	0.95697	0.14952
1.086	15.932	-18352	3328	-0.25942	0.9555	0.14962
1.088	15.95	-18352	3325.1	-0.25952	0.95404	0.14972
1.09	15.934	-18351	3322.1	-0.25962	0.95258	0.14982
1.092	15.912	-18350	3319.3	-0.25747	0.95375	0.1503
1.094	15.904	-18350	3316.5	-0.25532	0.95492	0.15079
1.096	15.901	-18350	3313.7	-0.25317	0.95609	0.15128
1.098	15.908	-18350	3310.9	-0.25103	0.95726	0.15177
1.1	15.905	-18350	3308.1	-0.24888	0.95843	0.15226
1.102	15.898	-18351	3305.2	-0.25249	0.95785	0.15235
1.104	15.907	-18357	3302.4	-0.2561	0.95726	0.15245
1.106	15.907	-18362	3299.5	-0.25971	0.95668	0.15255
1.108	15.907	-18364	3296.7	-0.26332	0.95609	0.15265
1.11	15.904	-18366	3293.8	-0.26694	0.9555	0.15274
1.112	15.912	-18363	3291	-0.26332	0.95628	0.15284
1.114	15.915	-18360	3288.2	-0.25971	0.95707	0.15294
1.116	15.92	-18353	3285.6	-0.2561	0.95785	0.15304
1.118	15.92	-18346	3283.2	-0.25249	0.95863	0.15313
1.12	15.917	-18348	3280.8	-0.24888	0.95941	0.15323
1.122	15.924	-18349	3278.3	-0.25171	0.95804	0.15528
1.124	15.928	-18351	3275.7	-0.25454	0.95668	0.15733
1.126	15.919	-18353	3273.3	-0.25737	0.95531	0.15938
1.128	15.916	-18351	3271.1	-0.2602	0.95394	0.16143
1.13	15.921	-18349	3268.9	-0.26303	0.95258	0.16348
1.132	15.924	-18346	3266.8	-0.25864	0.95267	0.1626
1.134	15.92	-18343	3264.7	-0.25425	0.95277	0.16172
1.136	15.918	-18343	3262.6	-0.24986	0.95287	0.16084
1.138	15.921	-18342	3260.7	-0.24546	0.95297	0.15997
1.14	15.917	-18348	3258.8	-0.24107	0.95306	0.15909
1.142	15.912	-18354	3257.1	-0.244	0.95189	0.15811
1.144	15.916	-18356	3255.4	-0.24693	0.95072	0.15714
1.146	15.922	-18357	3253.9	-0.24986	0.94955	0.15616
1.148	15.93	-18356	3252.4	-0.25278	0.94838	0.15518
1.15	15.938	-18355	3251	-0.25571	0.94721	0.15421
1.152	15.933	-18349	3249.7	-0.25386	0.94496	0.15518
1.154	15.924	-18343	3248.4	-0.252	0.94272	0.15616
1.156	15.92	-18340	3247.2	-0.25015	0.94047	0.15714
1.158	15.92	-18337	3246.2	-0.24829	0.93823	0.15811
1.16	15.912	-18337	3245.2	-0.24644	0.93598	0.15909
1.162	15.907	-18337	3244.3	-0.24859	0.93579	0.15753
1.164	15.919	-18346	3243.4	-0.25073	0.93559	0.15596
1.166	15.916	-18355	3242.6	-0.25288	0.9354	0.1544
1.168	15.902	-18353	3241.9	-0.25503	0.9352	0.15284
1.17	15.893	-18352	3241.2	-0.25718	0.93501	0.15128
1.172	15.898	-18349	3240.6	-0.25581	0.93442	0.15079
1.174	15.891	-18346	3240.1	-0.25444	0.93384	0.1503
1.176	15.882	-18346	3239.7	-0.25308	0.93325	0.14982
1.178	15.884	-18345	3239.3	-0.25171	0.93267	0.14933
1.18	15.893	-18349	3238.9	-0.25034	0.93208	0.14884
1.182	15.887	-18352	3238.6	-0.24976	0.93062	0.14845
1.184	15.898	-18355	3238.3	-0.24917	0.92915	0.14806
1.186	15.899	-18357	3238	-0.24859	0.92769	0.14767
1.188	15.887	-18353	3237.8	-0.248	0.92622	0.14728
1.19	15.883	-18348	3237.6	-0.24742	0.92476	0.14689
1.192	15.892	-18348	3237.6	-0.24712	0.92378	0.14708
1.194	15.884	-18348	3237.6	-0.24683	0.92281	0.14728
1.196	15.88	-18347	3237.7	-0.24654	0.92183	0.14747
1.198	15.88	-18347	3237.8	-0.24624	0.92086	0.14767
1.2	15.885	-18348	3237.9	-0.24595	0.91988	0.14786
1.202	15.886	-18348	3238.2	-0.24498	0.92115	0.14728
1.204	15.885	-18349	3238.5	-0.244	0.92242	0.14669
1.206	15.903	-18350	3238.8	-0.24302	0.92369	0.14611
1.208	15.912	-18352	3239.1	-0.24205	0.92496	0.14552
1.21	15.922	-18353	3239.4	-0.24107	0.92622	0.14494
1.212	15.944	-18348	3239.7	-0.24185	0.92632	0.14445
1.214	15.973	-18344	3240.1	-0.24263	0.92642	0.14396
1.216	15.987	-18341	3240.5	-0.24341	0.92652	0.14347
1.218	15.979	-18338	3240.9	-0.2442	0.92661	0.14298
1.22	15.97	-18338	3241.3	-0.24498	0.92671	0.1425
1.222	15.963	-18337	3241.6	-0.24449	0.92798	0.14045
1.224	15.959	-18338	3242	-0.244	0.92925	0.1384
1.226	15.977	-18339	3242.3	-0.24351	0.93052	0.13635
1.228	15.993	-18340	3242.6	-0.24302	0.93179	0.1343
1.23	15.992	-18341	3242.9	-0.24254	0.93306	0.13225
1.232	16.003	-18342	3243.2	-0.24195	0.93491	0.13196
1.234	16.014	-18343	3243.4	-0.24136	0.93676	0.13166
1.236	16.017	-18346	3243.7	-0.24078	0.93862	0.13137
1.238	16.022	-18348	3244	-0.24019	0.94047	0.13108
1.24	16.01	-18346	3244.2	-0.23961	0.94233	0.13078
1.242	16.003	-18345	3244.5	-0.24088	0.94301	0.12903
1.244	16.005	-18346	3244.8	-0.24215	0.94369	0.12727
1.246	16.019	-18347	3245.1	-0.24341	0.94438	0.12551
1.248	16.037	-18344	3245.4	-0.24468	0.94506	0.12376
1.25	16.047	-18341	3245.6	-0.24595	0.94574	0.122
1.252	16.04	-18342	3245.9	-0.24556	0.94692	0.12317
1.254	16.036	-18343	3246.2	-0.24517	0.94809	0.12434
1.256	16.061	-18345	3246.5	-0.24478	0.94926	0.12551
1.258	16.065	-18348	3246.7	-0.24439	0.95043	0.12668
1.26	16.05	-18351	3247	-0.244	0.9516	0.12786
1.262	16.064	-18354	3247.2	-0.24439	0.95267	0.12942
1.264	16.062	-18353	3247.4	-0.24478	0.95375	0.13098
1.266	16.056	-18352	3247.6	-0.24517	0.95482	0.13254
1.268	16.047	-18350	3247.8	-0.24556	0.95589	0.1341
1.27	16.054	-18348	3248	-0.24595	0.95697	0.13566
1.272	16.067	-18351	3248.2	-0.24673	0.95775	0.13537
1.274	16.05	-18353	3248.3	-0.24751	0.95853	0.13508
1.276	16.038	-18351	3248.5	-0.24829	0.95931	0.13479
1.278	16.039	-18350	3248.7	-0.24908	0.96009	0.13449
1.28	16.039	-18351	3248.9	-0.24986	0.96087	0.1342
1.282	16.039	-18351	3249.1	-0.25025	0.96234	0.13518
1.284	16.049	-18348	3249.3	-0.25064	0.9638	0.13615
1.286	16.054	-18345	3249.4	-0.25103	0.96526	0.13713
1.288	16.054	-18345	3249.6	-0.25142	0.96673	0.1381
1.29	16.045	-18345	3249.7	-0.25181	0.96819	0.13908
1.292	16.037	-18353	3249.8	-0.25122	0.96751	0.13947
1.294	16.033	-18360	3249.9	-0.25064	0.96683	0.13986
1.296	16.037	-18353	3249.9	-0.25005	0.96614	0.14025
1.298	16.043	-18346	3250	-0.24947	0.96546	0.14064
1.3	16.038	-18347	3250	-0.24888	0.96478	0.14103
1.302	16.033	-18347	3249.9	-0.25005	0.96644	0.14337
1.304	16.04	-18350	3249.9	-0.25122	0.96809	0.14572
1.306	16.041	-18353	3249.8	-0.25239	0.96975	0.14806
1.308	16.032	-18344	3249.7	-0.25356	0.97141	0.1504
1.31	16.043	-18335	3249.6	-0.25474	0.97307	0.15274
1.312	16.064	-18343	3249.5	-0.25503	0.97278	0.15372
1.314	16.062	-18350	3249.3	-0.25532	0.97249	0.1547
1.316	16.042	-18350	3249.1	-0.25561	0.97219	0.15567
1.318	16.033	-18351	3248.9	-0.25591	0.9719	0.15665
1.32	16.033	-18342	3248.6	-0.2562	0.97161	0.15762
1.322	16.008	-18334	3248.2	-0.25542	0.9721	0.15899
1.324	15.982	-18331	3247.9	-0.25464	0.97258	0.16036
1.326	15.969	-18328	3247.5	-0.25386	0.97307	0.16172
1.328	15.942	-18334	3247.1	-0.25308	0.97356	0.16309
1.33	15.899	-18340	3246.7	-0.2523	0.97405	0.16446
1.332	15.849	-18344	3246.3	-0.252	0.97317	0.16426
1.334	15.804	-18348	3245.8	-0.25171	0.97229	0.16407
1.336	15.763	-18352	3245.3	-0.25142	0.97141	0.16387
1.338	15.712	-18356	3244.8	-0.25112	0.97053	0.16368
1.34	15.679	-18352	3244.3	-0.25083	0.96966	0.16348
1.342	15.664	-18347	3243.8	-0.25025	0.96673	0.16368
1.344	15.67	-18348	3243.2	-0.24966	0.9638	0.16387
1.346	15.668	-18349	3242.6	-0.24908	0.96087	0.16407
1.348	15.687	-18348	3242.1	-0.24849	0.95794	0.16426
1.35	15.715	-18347	3241.5	-0.2479	0.95502	0.16446
1.352	15.703	-18350	3240.9	-0.24868	0.95541	0.16426
1.354	15.676	-18352	3240.2	-0.24947	0.9558	0.16407
1.356	15.685	-18353	3239.5	-0.25025	0.95619	0.16387
1.358	15.715	-18353	3238.8	-0.25103	0.95658	0.16368
1.36	15.72	-18352	3238.1	-0.25181	0.95697	0.16348
1.362	15.705	-18352	3237.4	-0.2521	0.95453	0.16172
1.364	15.675	-18349	3236.6	-0.25239	0.95209	0.15997
1.366	15.674	-18345	3235.9	-0.25269	0.94965	0.15821
1.368	15.693	-18345	3235.2	-0.25298	0.94721	0.15645
1.37	15.705	-18346	3234.6	-0.25327	0.94477	0.1547
1.372	15.706	-18347	3233.9	-0.25356	0.94477	0.15382
1.374	15.729	-18348	3233.2	-0.25386	0.94477	0.15294
1.376	15.749	-18348	3232.5	-0.25415	0.94477	0.15206
1.378	15.76	-18347	3231.9	-0.25444	0.94477	0.15118
1.38	15.769	-18344	3231.2	-0.25474	0.94477	0.1503
1.382	15.786	-18341	3230.5	-0.25366	0.94389	0.15001
1.384	15.81	-18347	3229.8	-0.25259	0.94301	0.14972
1.386	15.828	-18353	3229.2	-0.25152	0.94213	0.14943
1.388	15.854	-18357	3228.5	-0.25044	0.94125	0.14913
1.39	15.887	-18361	3227.8	-0.24937	0.94038	0.14884
1.392	15.917	-18365	3227.1	-0.24976	0.94077	0.14835
1.394	15.935	-18369	3226.5	-0.25015	0.94116	0.14786
1.396	15.952	-18360	3225.8	-0.25054	0.94155	0.14738
1.398	15.989	-18351	3225.1	-0.25093	0.94194	0.14689
1.4	16.03	-18364	3224.4	-0.25132	0.94233	0.1464
1.402	16.052	-18378	3223.8	-0.25103	0.94174	0.14591
1.404	16.059	-18379	3223.2	-0.25073	0.94116	0.14542
1.406	16.064	-18380	3222.6	-0.25044	0.94057	0.14494
1.408	16.073	-18374	3222	-0.25015	0.93999	0.14445
1.41	16.086	-18368	3221.5	-0.24986	0.9394	0.14396
1.412	16.095	-18367	3221	-0.25073	0.94008	0.14318
1.414	16.104	-18365	3220.5	-0.25161	0.94077	0.1424
1.416	16.11	-18367	3220	-0.25249	0.94145	0.14162
1.418	16.114	-18369	3219.6	-0.25337	0.94213	0.14084
1.42	16.108	-18361	3219.2	-0.25425	0.94282	0.14006
1.422	16.107	-18354	3218.8	-0.25464	0.94233	0.13947
1.424	16.108	-18364	3218.4	-0.25503	0.94184	0.13888
1.426	16.115	-18373	3218	-0.25542	0.94135	0.1383
1.428	16.112	-18362	3217.7	-0.25581	0.94086	0.13771
1.43	16.111	-18350	3217.4	-0.2562	0.94038	0.13713
1.432	16.117	-18355	3217.1	-0.25571	0.94086	0.13781
1.434	16.119	-18359	3216.8	-0.25522	0.94135	0.13849
1.436	16.114	-18355	3216.6	-0.25474	0.94184	0.13918
1.438	16.112	-18352	3216.5	-0.25425	0.94233	0.13986
1.44	16.114	-18355	3216.3	-0.25376	0.94282	0.14054
1.442	16.103	-18358	3216.1	-0.25415	0.94506	0.14025
1.444	16.089	-18355	3215.9	-0.25454	0.94731	0.13996
1.446	16.08	-18351	3215.8	-0.25493	0.94955	0.13967
1.448	16.076	-18356	3215.7	-0.25532	0.9518	0.13937
1.45	16.061	-18361	3215.6	-0.25571	0.95404	0.13908
1.452	16.061	-18361	3215.7	-0.25444	0.95424	0.14006
1.454	16.071	-18360	3215.8	-0.25317	0.95443	0.14103
1.456	16.07	-18352	3215.9	-0.25191	0.95463	0.14201
1.458	16.059	-18344	3216	-0.25064	0.95482	0.14298
1.46	16.054	-18348	3216.2	-0.24937	0.95502	0.14396
1.462	16.057	-18351	3216.4	-0.24966	0.95589	0.14474
1.464	16.06	-18351	3216.7	-0.24995	0.95677	0.14552
1.466	16.058	-18351	3216.9	-0.25025	0.95765	0.1463
1.468	16.054	-18353	3217.1	-0.25054	0.95853	0.14708
1.47	16.061	-18354	3217.4	-0.25083	0.95941	0.14786
1.472	16.061	-18357	3217.7	-0.25298	0.96019	0.14855
1.474	16.048	-18360	3218	-0.25513	0.96097	0.14923
1.476	16.041	-18359	3218.4	-0.25727	0.96175	0.14991
1.478	16.042	-18359	3218.9	-0.25942	0.96253	0.1506
1.48	16.048	-18358	3219.4	-0.26157	0.96331	0.15128
1.482	16.051	-18356	3220.4	-0.2601	0.96292	0.15333
1.484	16.047	-18354	3221.5	-0.25864	0.96253	0.15538
1.486	16.051	-18353	3223	-0.25718	0.96214	0.15743
1.488	16.058	-18355	3224.9	-0.25571	0.96175	0.15948
1.49	16.059	-18357	3226.9	-0.25425	0.96136	0.16153
1.492	16.061	-18354	3230	-0.25415	0.96156	0.16124
1.494	16.061	-18351	3233.2	-0.25405	0.96175	0.16094
1.496	16.055	-18356	3236.8	-0.25396	0.96195	0.16065
1.498	16.06	-18361	3241.1	-0.25386	0.96214	0.16036
1.5	16.066	-18361	3245.4	-0.25376	0.96234	0.16006
1.502	16.071	-18360	3250.8	-0.25454	0.96009	0.16026
1.504	16.064	-18359	3256.1	-0.25532	0.95785	0.16045
1.506	16.06	-18357	3262.1	-0.2561	0.9556	0.16065
1.508	16.066	-18358	3268.5	-0.25688	0.95336	0.16084
1.51	16.068	-18359	3274.9	-0.25766	0.95111	0.16104
1.512	16.07	-18357	3282.3	-0.25698	0.95101	0.16036
1.514	16.078	-18355	3289.6	-0.2563	0.95092	0.15967
1.516	16.075	-18356	3297.2	-0.25561	0.95082	0.15899
1.518	16.084	-18358	3305.1	-0.25493	0.95072	0.15831
1.52	16.091	-18358	3313.1	-0.25425	0.95062	0.15762
1.522	16.083	-18357	3321.1	-0.25444	0.95023	0.15645
1.524	16.078	-18357	3329.1	-0.25464	0.94984	0.15528
1.526	16.066	-18358	3336.9	-0.25483	0.94945	0.15411
1.528	16.049	-18357	3344.4	-0.25503	0.94906	0.15294
1.53	16.059	-18357	3352	-0.25522	0.94867	0.15177
1.532	16.074	-18357	3358.7	-0.25396	0.94838	0.15138
1.534	16.07	-18358	3365.4	-0.25269	0.94809	0.15099
1.536	16.067	-18358	3371.6	-0.25142	0.94779	0.1506
1.538	16.065	-18358	3377.1	-0.25015	0.9475	0.15021
1.54	16.063	-18356	3382.7	-0.24888	0.94721	0.14982
1.542	16.061	-18354	3386.9	-0.24849	0.94672	0.14962
1.544	16.056	-18354	3391.1	-0.2481	0.94623	0.14943
1.546	16.058	-18353	3394.7	-0.24771	0.94574	0.14923
1.548	16.046	-18357	3397.7	-0.24732	0.94526	0.14904
1.55	16.05	-18360	3400.7	-0.24693	0.94477	0.14884
1.552	16.044	-18353	3402.5	-0.24507	0.94633	0.14777
1.554	16.032	-18345	3404.3	-0.24322	0.94789	0.14669
1.556	16.025	-18347	3405.6	-0.24136	0.94945	0.14562
1.558	16.018	-18350	3406.3	-0.23951	0.95101	0.14455
1.56	16.008	-18351	3407.1	-0.23766	0.95258	0.14347
1.562	15.999	-18353	3407.1	-0.23805	0.95267	0.14259
1.564	15.996	-18351	3407	-0.23844	0.95277	0.14172
1.566	15.991	-18349	3406.6	-0.23883	0.95287	0.14084
1.568	15.988	-18350	3405.7	-0.23922	0.95297	0.13996
1.57	15.993	-18351	3404.9	-0.23961	0.95306	0.13908
1.572	15.991	-18351	3403.5	-0.24117	0.95209	0.13762
1.574	15.98	-18351	3402.2	-0.24273	0.95111	0.13615
1.576	15.973	-18350	3400.7	-0.24429	0.95014	0.13469
1.578	15.97	-18349	3399	-0.24585	0.94916	0.13322
1.58	15.972	-18351	3397.3	-0.24742	0.94818	0.13176
1.582	15.974	-18353	3395.2	-0.24664	0.94926	0.13235
1.584	15.959	-18349	3393.2	-0.24585	0.95033	0.13293
1.586	15.953	-18344	3391.1	-0.24507	0.9514	0.13352
1.588	15.955	-18345	3388.8	-0.24429	0.95248	0.1341
1.59	15.953	-18346	3386.4	-0.24351	0.95355	0.13469
1.592	15.943	-18350	3384	-0.24449	0.95297	0.13479
1.594	15.944	-18353	3381.6	-0.24546	0.95238	0.13488
1.596	15.961	-18347	3379.1	-0.24644	0.9518	0.13498
1.598	15.978	-18341	3376.6	-0.24742	0.95121	0.13508
1.6	15.985	-18336	3374	-0.24839	0.95062	0.13518
1.602	15.98	-18330	3371.4	-0.24976	0.95189	0.13576
1.604	15.988	-18335	3368.8	-0.25112	0.95316	0.13635
1.606	15.993	-18340	3366.1	-0.25249	0.95443	0.13693
1.608	15.983	-18341	3363.4	-0.25386	0.9557	0.13752
1.61	15.974	-18342	3360.7	-0.25522	0.95697	0.1381
1.612	15.981	-18342	3357.9	-0.25337	0.95599	0.13967
1.614	15.979	-18343	3355	-0.25152	0.95502	0.14123
1.616	15.985	-18342	3352.2	-0.24966	0.95404	0.14279
1.618	15.998	-18340	3349.4	-0.24781	0.95306	0.14435
1.62	15.992	-18338	3346.6	-0.24595	0.95209	0.14591
1.622	15.988	-18335	3343.8	-0.24693	0.9517	0.14513
1.624	15.985	-18339	3340.9	-0.2479	0.95131	0.14435
1.626	15.983	-18344	3338.1	-0.24888	0.95092	0.14357
1.628	15.979	-18345	3335.2	-0.24986	0.95053	0.14279
1.63	15.982	-18345	3332.3	-0.25083	0.95014	0.14201
1.632	15.979	-18339	3329.4	-0.25044	0.95082	0.14298
1.634	15.981	-18333	3326.5	-0.25005	0.9515	0.14396
1.636	15.99	-18331	3323.6	-0.24966	0.95219	0.14494
1.638	15.989	-18328	3320.8	-0.24927	0.95287	0.14591
1.64	15.983	-18330	3317.9	-0.24888	0.95355	0.14689
1.642	15.981	-18331	3315.1	-0.24947	0.95511	0.14708
1.644	15.979	-18334	3312.2	-0.25005	0.95668	0.14728
1.646	15.978	-18336	3309.4	-0.25064	0.95824	0.14747
1.648	15.977	-18333	3306.5	-0.25122	0.9598	0.14767
1.65	15.972	-18331	3303.7	-0.25181	0.96136	0.14786
1.652	15.969	-18332	3300.9	-0.25142	0.96097	0.14855
1.654	15.973	-18333	3298.2	-0.25103	0.96058	0.14923
1.656	15.982	-18339	3295.5	-0.25064	0.96019	0.14991
1.658	15.981	-18345	3292.8	-0.25025	0.9598	0.1506
1.66	15.969	-18340	3290.2	-0.24986	0.95941	0.15128
1.662	15.962	-18335	3287.7	-0.24868	0.95814	0.15284
1.664	15.961	-18332	3285.2	-0.24751	0.95687	0.1544
1.666	15.966	-18329	3282.8	-0.24634	0.9556	0.15596
1.668	15.975	-18331	3280.4	-0.24517	0.95433	0.15753
1.67	15.98	-18333	3278.1	-0.244	0.95306	0.15909
1.672	15.986	-18335	3275.9	-0.24351	0.95414	0.15928
1.674	15.975	-18337	3273.7	-0.24302	0.95521	0.15948
1.676	15.959	-18338	3271.6	-0.24254	0.95628	0.15967
1.678	15.964	-18340	3269.7	-0.24205	0.95736	0.15987
1.68	15.967	-18337	3267.7	-0.24156	0.95843	0.16006
1.682	15.972	-18335	3265.9	-0.24205	0.95726	0.15948
1.684	15.977	-18332	3264.2	-0.24254	0.95609	0.15889
1.686	15.974	-18330	3262.6	-0.24302	0.95492	0.15831
1.688	15.974	-18328	3261.1	-0.24351	0.95375	0.15772
1.69	15.977	-18326	3259.6	-0.244	0.95258	0.15714
1.692	15.969	-18334	3258.2	-0.24468	0.95209	0.15636
1.694	15.972	-18342	3256.9	-0.24537	0.9516	0.15557
1.696	15.98	-18339	3255.7	-0.24605	0.95111	0.15479
1.698	15.978	-18337	3254.6	-0.24673	0.95062	0.15401
1.7	15.966	-18335	3253.4	-0.24742	0.95014	0.15323
1.702	15.971	-18332	3252.5	-0.2479	0.95053	0.15382
1.704	15.965	-18335	3251.6	-0.24839	0.95092	0.1544
1.706	15.954	-18337	3250.8	-0.24888	0.95131	0.15499
1.708	15.941	-18337	3250.1	-0.24937	0.9517	0.15557
1.71	15.947	-18337	3249.3	-0.24986	0.95209	0.15616
1.712	15.942	-18336	3248.8	-0.24917	0.9514	0.15431
1.714	15.923	-18334	3248.3	-0.24849	0.95072	0.15245
1.716	15.918	-18334	3247.9	-0.24781	0.95004	0.1506
1.718	15.928	-18333	3247.5	-0.24712	0.94936	0.14874
1.72	15.932	-18335	3247.2	-0.24644	0.94867	0.14689
1.722	15.933	-18337	3247	-0.24634	0.9475	0.14728
1.724	15.937	-18336	3246.9	-0.24624	0.94633	0.14767
1.726	15.939	-18335	3246.8	-0.24615	0.94516	0.14806
1.728	15.94	-18336	3246.9	-0.24605	0.94399	0.14845
1.73	15.935	-18337	3246.9	-0.24595	0.94282	0.14884
1.732	15.928	-18334	3247	-0.24644	0.9434	0.14806
1.734	15.927	-18330	3247.1	-0.24693	0.94399	0.14728
1.736	15.926	-18325	3247.3	-0.24742	0.94457	0.1465
1.738	15.924	-18320	3247.5	-0.2479	0.94516	0.14572
1.74	15.917	-18329	3247.7	-0.24839	0.94574	0.14494
1.742	15.906	-18338	3248	-0.2479	0.94545	0.14513
1.744	15.905	-18340	3248.3	-0.24742	0.94516	0.14533
1.746	15.912	-18343	3248.6	-0.24693	0.94487	0.14552
1.748	15.917	-18341	3249	-0.24644	0.94457	0.14572
1.75	15.933	-18339	3249.4	-0.24595	0.94428	0.14591
1.752	15.958	-18335	3249.8	-0.24576	0.94428	0.14562
1.754	15.971	-18331	3250.2	-0.24556	0.94428	0.14533
1.756	15.988	-18332	3250.6	-0.24537	0.94428	0.14503
1.758	16.001	-18332	3251	-0.24517	0.94428	0.14474
1.76	15.993	-18335	3251.4	-0.24498	0.94428	0.14445
1.762	15.984	-18338	3251.8	-0.2441	0.94467	0.14435
1.764	15.995	-18338	3252.2	-0.24322	0.94506	0.14425
1.766	15.995	-18338	3252.6	-0.24234	0.94545	0.14416
1.768	15.997	-18339	3253	-0.24146	0.94584	0.14406
1.77	16.007	-18340	3253.4	-0.24058	0.94623	0.14396
1.772	16.001	-18341	3253.8	-0.24146	0.94584	0.14416
1.774	16.013	-18342	3254.1	-0.24234	0.94545	0.14435
1.776	16	-18343	3254.5	-0.24322	0.94506	0.14455
1.778	15.997	-18344	3254.8	-0.2441	0.94467	0.14474
1.78	15.999	-18340	3255.1	-0.24498	0.94428	0.14494
1.782	15.995	-18337	3255.4	-0.24488	0.94506	0.14425
1.784	15.982	-18338	3255.7	-0.24478	0.94584	0.14357
1.786	15.986	-18339	3255.9	-0.24468	0.94662	0.14289
1.788	15.992	-18335	3256.1	-0.24459	0.9474	0.1422
1.79	15.984	-18330	3256.4	-0.24449	0.94818	0.14152
1.792	15.981	-18333	3256.6	-0.24488	0.94809	0.14142
1.794	15.984	-18336	3256.8	-0.24527	0.94799	0.14132
1.796	15.977	-18337	3256.9	-0.24566	0.94789	0.14123
1.798	15.975	-18338	3257	-0.24605	0.94779	0.14113
1.8	15.983	-18342	3257.1	-0.24644	0.9477	0.14103
1.802	15.989	-18345	3257	-0.24615	0.94877	0.1425
1.804	15.988	-18346	3257	-0.24585	0.94984	0.14396
1.806	15.978	-18346	3256.9	-0.24556	0.95092	0.14542
1.808	15.972	-18342	3256.8	-0.24527	0.95199	0.14689
1.81	15.955	-18338	3256.7	-0.24498	0.95306	0.14835
1.812	15.95	-18335	3256.6	-0.24507	0.95248	0.14806
1.814	15.951	-18332	3256.5	-0.24517	0.95189	0.14777
1.816	15.952	-18342	3256.4	-0.24527	0.95131	0.14747
1.818	15.964	-18351	3256.2	-0.24537	0.95072	0.14718
1.82	15.97	-18344	3256.1	-0.24546	0.95014	0.14689
1.822	15.969	-18337	3256	-0.24585	0.95101	0.14796
1.824	15.972	-18338	3255.8	-0.24624	0.95189	0.14904
1.826	15.967	-18338	3255.6	-0.24664	0.95277	0.15011
1.828	15.96	-18342	3255.4	-0.24703	0.95365	0.15118
1.83	15.959	-18346	3255.1	-0.24742	0.95453	0.15226
1.832	15.962	-18347	3254.9	-0.24829	0.95541	0.15245
1.834	15.961	-18347	3254.7	-0.24917	0.95628	0.15265
1.836	15.955	-18341	3254.4	-0.25005	0.95716	0.15284
1.838	15.947	-18336	3254.2	-0.25093	0.95804	0.15304
1.84	15.947	-18333	3253.9	-0.25181	0.95892	0.15323
1.842	15.94	-18331	3253.6	-0.25132	0.95746	0.15274
1.844	15.935	-18335	3253.2	-0.25083	0.95599	0.15226
1.846	15.938	-18340	3252.9	-0.25034	0.95453	0.15177
1.848	15.952	-18342	3252.5	-0.24986	0.95306	0.15128
1.85	15.948	-18344	3252.1	-0.24937	0.9516	0.15079
1.852	15.961	-18343	3251.8	-0.24917	0.9515	0.1506
1.854	15.98	-18343	3251.4	-0.24898	0.9514	0.1504
1.856	15.977	-18341	3251	-0.24878	0.95131	0.15021
1.858	15.97	-18340	3250.6	-0.24859	0.95121	0.15001
1.86	15.949	-18340	3250.3	-0.24839	0.95111	0.14982
1.862	15.922	-18340	3249.9	-0.24712	0.9516	0.14972
1.864	15.898	-18338	3249.6	-0.24585	0.95209	0.14962
1.866	15.891	-18335	3249.2	-0.24459	0.95258	0.14952
1.868	15.891	-18339	3248.7	-0.24332	0.95306	0.14943
1.87	15.859	-18342	3248.3	-0.24205	0.95355	0.14933
1.872	15.816	-18344	3247.8	-0.24283	0.95258	0.14933
1.874	15.773	-18345	3247.4	-0.24361	0.9516	0.14933
1.876	15.716	-18341	3246.9	-0.24439	0.95062	0.14933
1.878	15.666	-18337	3246.5	-0.24517	0.94965	0.14933
1.88	15.619	-18338	3246	-0.24595	0.94867	0.14933
1.882	15.566	-18340	3245.6	-0.24556	0.94867	0.14904
1.884	15.524	-18340	3245.1	-0.24517	0.94867	0.14874
1.886	15.529	-18341	3244.7	-0.24478	0.94867	0.14845
1.888	15.534	-18343	3244.2	-0.24439	0.94867	0.14816
1.89	15.533	-18345	3243.8	-0.244	0.94867	0.14786
1.892	15.543	-18347	3243.3	-0.2442	0.94818	0.14738
1.894	15.546	-18348	3242.8	-0.24439	0.9477	0.14689
1.896	15.534	-18337	3242.3	-0.24459	0.94721	0.1464
1.898	15.529	-18327	3241.8	-0.24478	0.94672	0.14591
1.9	15.53	-18331	3241.3	-0.24498	0.94623	0.14542
1.902	15.533	-18336	3240.9	-0.24537	0.94565	0.14572
1.904	15.525	-18337	3240.4	-0.24576	0.94506	0.14601
1.906	15.501	-18338	3240	-0.24615	0.94448	0.1463
1.908	15.471	-18341	3239.5	-0.24654	0.94389	0.1466
1.91	15.46	-18344	3239.1	-0.24693	0.9433	0.14689
1.912	15.47	-18339	3238.5	-0.24624	0.94467	0.14669
1.914	15.483	-18334	3238	-0.24556	0.94604	0.1465
1.916	15.497	-18334	3237.5	-0.24488	0.9474	0.1463
1.918	15.52	-18334	3237	-0.2442	0.94877	0.14611
1.92	15.542	-18333	3236.5	-0.24351	0.95014	0.14591
1.922	15.561	-18331	3236	-0.24332	0.95072	0.14689
1.924	15.577	-18336	3235.6	-0.24312	0.95131	0.14786
1.926	15.595	-18340	3235.1	-0.24293	0.95189	0.14884
1.928	15.614	-18343	3234.6	-0.24273	0.95248	0.14982
1.93	15.632	-18347	3234.1	-0.24254	0.95306	0.15079
1.932	15.658	-18350	3233.6	-0.24283	0.95287	0.14982
1.934	15.703	-18354	3233.1	-0.24312	0.95267	0.14884
1.936	15.757	-18352	3232.6	-0.24341	0.95248	0.14786
1.938	15.801	-18350	3232.2	-0.24371	0.95228	0.14689
1.94	15.827	-18345	3231.7	-0.244	0.95209	0.14591
1.942	15.844	-18340	3231.2	-0.24459	0.9515	0.14601
1.944	15.861	-18340	3230.7	-0.24517	0.95092	0.14611
1.946	15.889	-18341	3230.3	-0.24576	0.95033	0.1462
1.948	15.916	-18341	3229.8	-0.24634	0.94975	0.1463
1.95	15.938	-18341	3229.4	-0.24693	0.94916	0.1464
1.952	15.952	-18343	3229	-0.24644	0.94906	0.14572
1.954	15.96	-18345	3228.6	-0.24595	0.94896	0.14503
1.956	15.968	-18345	3228.2	-0.24546	0.94887	0.14435
1.958	15.975	-18346	3227.8	-0.24498	0.94877	0.14367
1.96	15.971	-18340	3227.4	-0.24449	0.94867	0.14298
1.962	15.972	-18334	3227	-0.24341	0.94867	0.14289
1.964	15.978	-18340	3226.7	-0.24234	0.94867	0.14279
1.966	15.971	-18345	3226.3	-0.24127	0.94867	0.14269
1.968	15.977	-18346	3225.9	-0.24019	0.94867	0.14259
1.97	15.988	-18346	3225.6	-0.23912	0.94867	0.1425
1.972	15.992	-18347	3225.2	-0.23971	0.94857	0.1423
1.974	15.985	-18349	3224.9	-0.24029	0.94848	0.14211
1.976	15.967	-18344	3224.5	-0.24088	0.94838	0.14191
1.978	15.966	-18340	3224.2	-0.24146	0.94828	0.14172
1.98	15.967	-18339	3223.9	-0.24205	0.94818	0.14152
1.982	15.965	-18339	3223.6	-0.24097	0.94809	0.1422
1.984	15.972	-18340	3223.3	-0.2399	0.94799	0.14289
1.986	15.973	-18340	3223	-0.23883	0.94789	0.14357
1.988	15.96	-18342	3222.8	-0.23775	0.94779	0.14425
1.99	15.946	-18344	3222.6	-0.23668	0.9477	0.14494
1.992	15.939	-18347	3222.4	-0.23688	0.94906	0.14562
1.994	15.94	-18351	3222.3	-0.23707	0.95043	0.1463
1.996	15.939	-18344	3222.2	-0.23727	0.9518	0.14699
1.998	15.94	-18337	3222.1	-0.23746	0.95316	0.14767
2	15.943	-18346	3221.9	-0.23766	0.95453	0.14835
2.002	15.939	-18356	3221.8	-0.23941	0.95482	0.14923
2.004	15.94	-18348	3221.7	-0.24117	0.95511	0.15011
2.006	15.94	-18341	3221.6	-0.24293	0.95541	0.15099
2.008	15.931	-18343	3221.6	-0.24468	0.9557	0.15187
2.01	15.927	-18344	3221.5	-0.24644	0.95599	0.15274
2.012	15.922	-18343	3221.5	-0.24654	0.95638	0.15352
2.014	15.924	-18342	3221.4	-0.24664	0.95677	0.15431
2.016	15.921	-18350	3221.4	-0.24673	0.95716	0.15509
2.018	15.892	-18359	3221.5	-0.24683	0.95755	0.15587
2.02	15.896	-18354	3221.5	-0.24693	0.95794	0.15665
2.022	15.906	-18348	3221.8	-0.24634	0.95814	0.15675
2.024	15.917	-18350	3222.1	-0.24576	0.95833	0.15684
2.026	15.927	-18352	3222.6	-0.24517	0.95853	0.15694
2.028	15.913	-18350	3223.4	-0.24459	0.95872	0.15704
2.03	15.914	-18347	3224.2	-0.244	0.95892	0.15714
2.032	15.917	-18353	3225.8	-0.244	0.95833	0.15733
2.034	15.916	-18359	3227.5	-0.244	0.95775	0.15753
2.036	15.921	-18356	3229.7	-0.244	0.95716	0.15772
2.038	15.915	-18352	3232.4	-0.244	0.95658	0.15792
2.04	15.915	-18351	3235.1	-0.244	0.95599	0.15811
2.042	15.92	-18350	3239	-0.24517	0.95511	0.15694
2.044	15.919	-18349	3242.9	-0.24634	0.95424	0.15577
2.046	15.924	-18348	3247.3	-0.24751	0.95336	0.1546
2.048	15.93	-18353	3252.2	-0.24868	0.95248	0.15343
2.05	15.939	-18358	3257.2	-0.24986	0.9516	0.15226
2.052	15.947	-18354	3263.1	-0.24986	0.95043	0.15245
2.054	15.946	-18350	3269	-0.24986	0.94926	0.15265
2.056	15.946	-18346	3275.4	-0.24986	0.94809	0.15284
2.058	15.944	-18343	3282.2	-0.24986	0.94692	0.15304
2.06	15.945	-18347	3289	-0.24986	0.94574	0.15323
2.062	15.952	-18350	3296.4	-0.24986	0.94604	0.15235
2.064	15.948	-18351	3303.8	-0.24986	0.94633	0.15148
2.066	15.935	-18351	3311.4	-0.24986	0.94662	0.1506
2.068	15.926	-18348	3319	-0.24986	0.94692	0.14972
2.07	15.931	-18345	3326.7	-0.24986	0.94721	0.14884
2.072	15.936	-18345	3334.1	-0.24859	0.94633	0.14904
2.074	15.939	-18345	3341.5	-0.24732	0.94545	0.14923
2.076	15.938	-18347	3348.5	-0.24605	0.94457	0.14943
2.078	15.93	-18350	3355.1	-0.24478	0.94369	0.14962
2.08	15.925	-18352	3361.8	-0.24351	0.94282	0.14982
2.082	15.925	-18354	3367.4	-0.24185	0.94418	0.14952
2.084	15.926	-18350	3373	-0.24019	0.94555	0.14923
2.086	15.932	-18347	3378	-0.23853	0.94692	0.14894
2.088	15.934	-18346	3382.4	-0.23688	0.94828	0.14864
2.09	15.921	-18346	3386.8	-0.23522	0.94965	0.14835
2.092	15.904	-18352	3389.9	-0.23473	0.94818	0.14816
2.094	15.898	-18358	3393	-0.23424	0.94672	0.14796
2.096	15.892	-18353	3395.6	-0.23375	0.94526	0.14777
2.098	15.882	-18348	3397.6	-0.23326	0.94379	0.14757
2.1	15.87	-18351	3399.5	-0.23278	0.94233	0.14738
2.102	15.87	-18353	3400.4	-0.232	0.94252	0.14699
2.104	15.862	-18348	3401.3	-0.23121	0.94272	0.1466
2.106	15.859	-18342	3401.8	-0.23043	0.94291	0.1462
2.108	15.855	-18345	3401.8	-0.22965	0.94311	0.14581
2.11	15.838	-18348	3401.8	-0.22887	0.9433	0.14542
2.112	15.831	-18352	3401.2	-0.22897	0.94399	0.14494
2.114	15.822	-18355	3400.5	-0.22907	0.94467	0.14445
2.116	15.799	-18350	3399.5	-0.22916	0.94535	0.14396
2.118	15.806	-18345	3398.2	-0.22926	0.94604	0.14347
2.12	15.809	-18348	3397	-0.22936	0.94672	0.14298
2.122	15.812	-18352	3395.3	-0.23102	0.94789	0.14289
2.124	15.8	-18344	3393.6	-0.23268	0.94906	0.14279
2.126	15.794	-18335	3391.7	-0.23434	0.95023	0.14269
2.128	15.789	-18338	3389.7	-0.236	0.9514	0.14259
2.13	15.779	-18341	3387.7	-0.23766	0.95258	0.1425
2.132	15.777	-18340	3385.4	-0.23717	0.95394	0.14269
2.134	15.783	-18340	3383.1	-0.23668	0.95531	0.14289
2.136	15.786	-18343	3380.7	-0.23619	0.95668	0.14308
2.138	15.806	-18346	3378.2	-0.2357	0.95804	0.14328
2.14	15.816	-18351	3375.7	-0.23522	0.95941	0.14347
2.142	15.806	-18355	3373	-0.23629	0.9598	0.14298
2.144	15.794	-18354	3370.3	-0.23736	0.96019	0.1425
2.146	15.799	-18353	3367.5	-0.23844	0.96058	0.14201
2.148	15.807	-18347	3364.7	-0.23951	0.96097	0.14152
2.15	15.812	-18342	3361.8	-0.24058	0.96136	0.14103
2.152	15.807	-18342	3358.9	-0.2398	0.96175	0.14113
2.154	15.81	-18342	3355.9	-0.23902	0.96214	0.14123
2.156	15.811	-18346	3353	-0.23824	0.96253	0.14132
2.158	15.8	-18350	3350	-0.23746	0.96292	0.14142
2.16	15.797	-18348	3347	-0.23668	0.96331	0.14152
2.162	15.805	-18346	3343.9	-0.23678	0.96331	0.14142
2.164	15.812	-18342	3340.8	-0.23688	0.96331	0.14132
2.166	15.812	-18338	3337.7	-0.23697	0.96331	0.14123
2.168	15.814	-18336	3334.5	-0.23707	0.96331	0.14113
2.17	15.824	-18335	3331.4	-0.23717	0.96331	0.14103
2.172	15.825	-18335	3328.2	-0.23717	0.96312	0.14201
2.174	15.818	-18336	3325	-0.23717	0.96292	0.14298
2.176	15.817	-18335	3321.9	-0.23717	0.96273	0.14396
2.178	15.809	-18335	3318.8	-0.23717	0.96253	0.14494
2.18	15.804	-18333	3315.6	-0.23717	0.96234	0.14591
2.182	15.81	-18330	3312.6	-0.23707	0.96253	0.1462
2.184	15.819	-18328	3309.5	-0.23697	0.96273	0.1465
2.186	15.821	-18326	3306.4	-0.23688	0.96292	0.14679
2.188	15.822	-18331	3303.5	-0.23678	0.96312	0.14708
2.19	15.813	-18337	3300.5	-0.23668	0.96331	0.14738
2.192	15.816	-18339	3297.6	-0.23824	0.96175	0.14855
2.194	15.819	-18341	3294.7	-0.2398	0.96019	0.14972
2.196	15.829	-18336	3291.9	-0.24136	0.95863	0.15089
2.198	15.835	-18332	3289.2	-0.24293	0.95707	0.15206
2.2	15.839	-18335	3286.5	-0.24449	0.9555	0.15323
2.202	15.842	-18338	3284	-0.24254	0.9558	0.15431
2.204	15.83	-18339	3281.4	-0.24058	0.95609	0.15538
2.206	15.833	-18340	3279	-0.23863	0.95638	0.15645
2.208	15.821	-18332	3276.6	-0.23668	0.95668	0.15753
2.21	15.851	-18324	3274.3	-0.23473	0.95697	0.1586
2.212	15.84	-18325	3272.2	-0.23463	0.95658	0.1585
2.214	15.825	-18325	3270.1	-0.23453	0.95619	0.1584
2.216	15.828	-18331	3268.1	-0.23444	0.9558	0.15831
2.218	15.828	-18337	3266.3	-0.23434	0.95541	0.15821
2.22	15.833	-18339	3264.4	-0.23424	0.95502	0.15811
2.222	15.825	-18340	3262.8	-0.23463	0.95463	0.15811
2.224	15.825	-18338	3261.2	-0.23502	0.95424	0.15811
2.226	15.824	-18335	3259.7	-0.23541	0.95384	0.15811
2.228	15.821	-18336	3258.3	-0.2358	0.95345	0.15811
2.23	15.835	-18336	3256.9	-0.23619	0.95306	0.15811
2.232	15.84	-18338	3255.8	-0.23658	0.95384	0.15811
2.234	15.837	-18341	3254.6	-0.23697	0.95463	0.15811
2.236	15.838	-18341	3253.6	-0.23736	0.95541	0.15811
2.238	15.837	-18342	3252.7	-0.23775	0.95619	0.15811
2.24	15.834	-18342	3251.7	-0.23814	0.95697	0.15811
2.242	15.834	-18343	3251	-0.23961	0.95541	0.15694
2.244	15.835	-18342	3250.3	-0.24107	0.95384	0.15577
2.246	15.838	-18340	3249.7	-0.24254	0.95228	0.1546
2.248	15.843	-18336	3249.2	-0.244	0.95072	0.15343
2.25	15.845	-18333	3248.7	-0.24546	0.94916	0.15226
2.252	15.838	-18333	3248.4	-0.24644	0.94926	0.15196
2.254	15.822	-18333	3248.1	-0.24742	0.94936	0.15167
2.256	15.811	-18333	3247.8	-0.24839	0.94945	0.15138
2.258	15.803	-18334	3247.6	-0.24937	0.94955	0.15108
2.26	15.793	-18334	3247.4	-0.25034	0.94965	0.15079
2.262	15.793	-18335	3247.4	-0.25064	0.95023	0.15099
2.264	15.793	-18336	3247.4	-0.25093	0.95082	0.15118
2.266	15.781	-18337	3247.5	-0.25122	0.9514	0.15138
2.268	15.776	-18338	3247.6	-0.25152	0.95199	0.15157
2.27	15.781	-18338	3247.7	-0.25181	0.95258	0.15177
2.272	15.781	-18340	3247.9	-0.25122	0.9514	0.15138
2.274	15.778	-18341	3248	-0.25064	0.95023	0.15099
2.276	15.783	-18342	3248.3	-0.25005	0.94906	0.1506
2.278	15.782	-18342	3248.6	-0.24947	0.94789	0.15021
2.28	15.788	-18340	3248.9	-0.24888	0.94672	0.14982
2.282	15.791	-18339	3249.3	-0.248	0.94633	0.14923
2.284	15.795	-18339	3249.6	-0.24712	0.94594	0.14864
2.286	15.803	-18339	3249.9	-0.24624	0.94555	0.14806
2.288	15.784	-18338	3250.3	-0.24537	0.94516	0.14747
2.29	15.76	-18337	3250.7	-0.24449	0.94477	0.14689
2.292	15.755	-18338	3251.1	-0.24341	0.94594	0.1463
2.294	15.75	-18339	3251.5	-0.24234	0.94711	0.14572
2.296	15.766	-18344	3251.8	-0.24127	0.94828	0.14513
2.298	15.798	-18349	3252.2	-0.24019	0.94945	0.14455
2.3	15.825	-18346	3252.6	-0.23912	0.95062	0.14396
2.302	15.838	-18343	3253	-0.23912	0.95033	0.14406
2.304	15.849	-18342	3253.3	-0.23912	0.95004	0.14416
2.306	15.861	-18341	3253.6	-0.23912	0.94975	0.14425
2.308	15.857	-18341	3253.9	-0.23912	0.94945	0.14435
2.31	15.862	-18340	3254.1	-0.23912	0.94916	0.14445
2.312	15.868	-18339	3254.4	-0.23834	0.94867	0.14445
2.314	15.873	-18338	3254.7	-0.23756	0.94818	0.14445
2.316	15.871	-18339	3254.9	-0.23678	0.9477	0.14445
2.318	15.872	-18341	3255.1	-0.236	0.94721	0.14445
2.32	15.88	-18336	3255.3	-0.23522	0.94672	0.14445
2.322	15.881	-18330	3255.4	-0.23492	0.94652	0.14455
2.324	15.876	-18336	3255.5	-0.23463	0.94633	0.14464
2.326	15.883	-18341	3255.6	-0.23434	0.94613	0.14474
2.328	15.886	-18341	3255.7	-0.23404	0.94594	0.14484
2.33	15.88	-18340	3255.8	-0.23375	0.94574	0.14494
2.332	15.878	-18340	3255.8	-0.23356	0.94565	0.14523
2.334	15.884	-18340	3255.8	-0.23336	0.94555	0.14552
2.336	15.892	-18345	3255.9	-0.23317	0.94545	0.14581
2.338	15.895	-18351	3255.9	-0.23297	0.94535	0.14611
2.34	15.888	-18352	3255.9	-0.23278	0.94526	0.1464
2.342	15.876	-18352	3255.9	-0.23268	0.94574	0.14542
2.344	15.873	-18348	3255.8	-0.23258	0.94623	0.14445
2.346	15.87	-18343	3255.8	-0.23248	0.94672	0.14347
2.348	15.865	-18343	3255.7	-0.23239	0.94721	0.1425
2.35	15.87	-18343	3255.7	-0.23229	0.9477	0.14152
2.352	15.873	-18342	3255.7	-0.2319	0.94809	0.14181
2.354	15.877	-18342	3255.6	-0.23151	0.94848	0.14211
2.356	15.882	-18338	3255.5	-0.23112	0.94887	0.1424
2.358	15.877	-18335	3255.4	-0.23073	0.94926	0.14269
2.36	15.86	-18341	3255.3	-0.23034	0.94965	0.14298
2.362	15.854	-18348	3255	-0.23131	0.94984	0.14455
2.364	15.868	-18347	3254.7	-0.23229	0.95004	0.14611
2.366	15.86	-18347	3254.4	-0.23326	0.95023	0.14767
2.368	15.85	-18346	3254.2	-0.23424	0.95043	0.14923
2.37	15.859	-18344	3253.9	-0.23522	0.95062	0.15079
2.372	15.861	-18344	3253.7	-0.23648	0.9518	0.15206
2.374	15.874	-18344	3253.5	-0.23775	0.95297	0.15333
2.376	15.874	-18347	3253.2	-0.23902	0.95414	0.1546
2.378	15.877	-18350	3253	-0.24029	0.95531	0.15587
2.38	15.885	-18345	3252.7	-0.24156	0.95648	0.15714
2.382	15.88	-18341	3252.4	-0.24136	0.95599	0.15626
2.384	15.89	-18343	3252	-0.24117	0.9555	0.15538
2.386	15.879	-18346	3251.7	-0.24097	0.95502	0.1545
2.388	15.875	-18343	3251.4	-0.24078	0.95453	0.15362
2.39	15.864	-18340	3251	-0.24058	0.95404	0.15274
2.392	15.842	-18343	3250.7	-0.24058	0.95414	0.15235
2.394	15.838	-18347	3250.3	-0.24058	0.95424	0.15196
2.396	15.846	-18343	3250	-0.24058	0.95433	0.15157
2.398	15.859	-18340	3249.7	-0.24058	0.95443	0.15118
2.4	15.866	-18343	3249.4	-0.24058	0.95453	0.15079
2.402	15.865	-18346	3249	-0.23873	0.95384	0.15011
2.404	15.869	-18346	3248.7	-0.23688	0.95316	0.14943
2.406	15.87	-18346	3248.4	-0.23502	0.95248	0.14874
2.408	15.859	-18345	3248	-0.23317	0.9518	0.14806
2.41	15.842	-18343	3247.6	-0.23131	0.95111	0.14738
2.412	15.833	-18345	3247.3	-0.23063	0.95072	0.1466
2.414	15.824	-18347	3246.9	-0.22995	0.95033	0.14581
2.416	15.81	-18350	3246.5	-0.22926	0.94994	0.14503
2.418	15.802	-18353	3246.2	-0.22858	0.94955	0.14425
2.42	15.789	-18349	3245.9	-0.2279	0.94916	0.14347
2.422	15.764	-18346	3245.5	-0.22799	0.94916	0.14376
2.424	15.726	-18345	3245.1	-0.22809	0.94916	0.14406
2.426	15.671	-18345	3244.7	-0.22819	0.94916	0.14435
2.428	15.607	-18346	3244.3	-0.22829	0.94916	0.14464
2.43	15.547	-18346	3243.9	-0.22838	0.94916	0.14494
2.432	15.492	-18349	3243.5	-0.22926	0.94965	0.14572
2.434	15.449	-18351	3243.1	-0.23014	0.95014	0.1465
2.436	15.421	-18348	3242.7	-0.23102	0.95062	0.14728
2.438	15.414	-18345	3242.3	-0.2319	0.95111	0.14806
2.44	15.406	-18347	3241.9	-0.23278	0.9516	0.14884
2.442	15.396	-18350	3241.6	-0.23473	0.9516	0.14913
2.444	15.4	-18349	3241.2	-0.23668	0.9516	0.14943
2.446	15.398	-18349	3240.9	-0.23863	0.9516	0.14972
2.448	15.379	-18353	3240.5	-0.24058	0.9516	0.15001
2.45	15.383	-18358	3240.1	-0.24254	0.9516	0.1503
2.452	15.401	-18362	3239.8	-0.24205	0.95238	0.1504
2.454	15.4	-18367	3239.4	-0.24156	0.95316	0.1505
2.456	15.386	-18359	3239.1	-0.24107	0.95394	0.1506
2.458	15.37	-18352	3238.8	-0.24058	0.95472	0.15069
2.46	15.337	-18357	3238.6	-0.2401	0.9555	0.15079
2.462	15.323	-18362	3238.2	-0.2399	0.95658	0.14943
2.464	15.325	-18352	3237.9	-0.23971	0.95765	0.14806
2.466	15.335	-18342	3237.6	-0.23951	0.95872	0.14669
2.468	15.348	-18342	3237.3	-0.23932	0.9598	0.14533
2.47	15.352	-18342	3237	-0.23912	0.96087	0.14396
2.472	15.373	-18351	3236.7	-0.23844	0.9599	0.14513
2.474	15.406	-18360	3236.4	-0.23775	0.95892	0.1463
2.476	15.428	-18355	3236	-0.23707	0.95794	0.14747
2.478	15.446	-18350	3235.6	-0.23639	0.95697	0.14864
2.48	15.481	-18348	3235.3	-0.2357	0.95599	0.14982
2.482	15.523	-18345	3234.8	-0.23766	0.95599	0.14991
2.484	15.558	-18344	3234.4	-0.23961	0.95599	0.15001
2.486	15.603	-18343	3234.1	-0.24156	0.95599	0.15011
2.488	15.644	-18346	3233.7	-0.24351	0.95599	0.15021
2.49	15.675	-18348	3233.3	-0.24546	0.95599	0.1503
2.492	15.7	-18348	3232.9	-0.24644	0.95619	0.15108
2.494	15.734	-18347	3232.6	-0.24742	0.95638	0.15187
2.496	15.771	-18348	3232.2	-0.24839	0.95658	0.15265
2.498	15.799	-18349	3231.9	-0.24937	0.95677	0.15343
2.5	15.826	-18353	3231.5	-0.25034	0.95697	0.15421
2.502	15.86	-18356	3231.2	-0.25034	0.95697	0.15352
2.504	15.878	-18357	3230.9	-0.25034	0.95697	0.15284
2.506	15.874	-18357	3230.6	-0.25034	0.95697	0.15216
2.508	15.872	-18353	3230.3	-0.25034	0.95697	0.15148
2.51	15.875	-18349	3230	-0.25034	0.95697	0.15079
2.512	15.878	-18350	3229.7	-0.25015	0.95687	0.15128
2.514	15.88	-18351	3229.3	-0.24995	0.95677	0.15177
2.516	15.882	-18353	3229	-0.24976	0.95668	0.15226
2.518	15.891	-18355	3228.6	-0.24956	0.95658	0.15274
2.52	15.9	-18354	3228.3	-0.24937	0.95648	0.15323
2.522	15.897	-18353	3227.9	-0.24956	0.95599	0.15343
2.524	15.89	-18354	3227.6	-0.24976	0.9555	0.15362
2.526	15.88	-18354	3227.2	-0.24995	0.95502	0.15382
2.528	15.881	-18355	3226.9	-0.25015	0.95453	0.15401
2.53	15.89	-18355	3226.5	-0.25034	0.95404	0.15421
2.532	15.889	-18352	3226.3	-0.25015	0.95326	0.15372
2.534	15.883	-18350	3226	-0.24995	0.95248	0.15323
2.536	15.884	-18354	3225.8	-0.24976	0.9517	0.15274
2.538	15.889	-18359	3225.6	-0.24956	0.95092	0.15226
2.54	15.877	-18354	3225.4	-0.24937	0.95014	0.15177
2.542	15.877	-18349	3225.2	-0.24908	0.95082	0.15187
2.544	15.877	-18357	3225.1	-0.24878	0.9515	0.15196
2.546	15.866	-18365	3224.9	-0.24849	0.95219	0.15206
2.548	15.864	-18365	3224.8	-0.2482	0.95287	0.15216
2.55	15.874	-18364	3224.7	-0.2479	0.95355	0.15226
2.552	15.862	-18367	3224.7	-0.2479	0.95502	0.15157
2.554	15.844	-18369	3224.7	-0.2479	0.95648	0.15089
2.556	15.843	-18378	3224.7	-0.2479	0.95794	0.15021
2.558	15.84	-18386	3224.7	-0.2479	0.95941	0.14952
2.56	15.833	-18378	3224.7	-0.2479	0.96087	0.14884
2.562	15.838	-18369	3224.7	-0.2482	0.96048	0.15011
2.564	15.843	-18373	3224.8	-0.24849	0.96009	0.15138
2.566	15.85	-18378	3224.8	-0.24878	0.9597	0.15265
2.568	15.851	-18377	3224.8	-0.24908	0.95931	0.15392
2.57	15.837	-18376	3224.9	-0.24937	0.95892	0.15518
2.572	15.821	-18373	3225.1	-0.2479	0.95853	0.15587
2.574	15.819	-18371	3225.2	-0.24644	0.95814	0.15655
2.576	15.827	-18372	3225.6	-0.24498	0.95775	0.15723
2.578	15.83	-18373	3226.1	-0.24351	0.95736	0.15792
2.58	15.83	-18369	3226.6	-0.24205	0.95697	0.1586
2.582	15.833	-18365	3227.9	-0.24224	0.95677	0.1585
2.584	15.832	-18367	3229.1	-0.24244	0.95658	0.1584
2.586	15.835	-18369	3230.8	-0.24263	0.95638	0.15831
2.588	15.838	-18372	3233	-0.24283	0.95619	0.15821
2.59	15.832	-18374	3235.1	-0.24302	0.95599	0.15811
2.592	15.83	-18369	3238.3	-0.2439	0.9557	0.15919
2.594	15.841	-18364	3241.6	-0.24478	0.95541	0.16026
2.596	15.85	-18368	3245.3	-0.24566	0.95511	0.16133
2.598	15.846	-18372	3249.7	-0.24654	0.95482	0.16241
2.6	15.844	-18370	3254	-0.24742	0.95453	0.16348
2.602	15.851	-18368	3259.4	-0.24771	0.95355	0.16133
2.604	15.858	-18371	3264.7	-0.248	0.95258	0.15919
2.606	15.861	-18373	3270.5	-0.24829	0.9516	0.15704
2.608	15.868	-18369	3276.7	-0.24859	0.95062	0.15489
2.61	15.865	-18365	3283	-0.24888	0.94965	0.15274
2.612	15.857	-18365	3289.9	-0.24917	0.95014	0.15274
2.614	15.864	-18364	3296.8	-0.24947	0.95062	0.15274
2.616	15.882	-18364	3304	-0.24976	0.95111	0.15274
2.618	15.881	-18364	3311.4	-0.25005	0.9516	0.15274
2.62	15.876	-18370	3318.8	-0.25034	0.95209	0.15274
2.622	15.87	-18376	3326.1	-0.24898	0.95258	0.15216
2.624	15.875	-18373	3333.5	-0.24761	0.95306	0.15157
2.626	15.873	-18369	3340.6	-0.24624	0.95355	0.15099
2.628	15.85	-18367	3347.5	-0.24488	0.95404	0.1504
2.63	15.853	-18365	3354.4	-0.24351	0.95453	0.14982
2.632	15.869	-18366	3360.4	-0.24195	0.95521	0.14952
2.634	15.846	-18366	3366.4	-0.24039	0.95589	0.14923
2.636	15.842	-18366	3371.8	-0.23883	0.95658	0.14894
2.638	15.849	-18367	3376.7	-0.23727	0.95726	0.14864
2.64	15.843	-18373	3381.5	-0.2357	0.95794	0.14835
2.642	15.838	-18380	3385.1	-0.23395	0.95687	0.14777
2.644	15.827	-18369	3388.7	-0.23219	0.9558	0.14718
2.646	15.824	-18359	3391.7	-0.23043	0.95472	0.1466
2.648	15.824	-18361	3394.1	-0.22868	0.95365	0.14601
2.65	15.818	-18363	3396.4	-0.22692	0.95258	0.14542
2.652	15.807	-18365	3397.7	-0.22692	0.95326	0.1462
2.654	15.796	-18366	3399	-0.22692	0.95394	0.14699
2.656	15.799	-18367	3399.7	-0.22692	0.95463	0.14777
2.658	15.792	-18368	3400	-0.22692	0.95531	0.14855
2.66	15.779	-18363	3400.4	-0.22692	0.95599	0.14933
2.662	15.767	-18358	3399.9	-0.22692	0.95648	0.14825
2.664	15.764	-18360	3399.5	-0.22692	0.95697	0.14718
2.666	15.764	-18362	3398.7	-0.22692	0.95746	0.14611
2.668	15.764	-18364	3397.6	-0.22692	0.95794	0.14503
2.67	15.757	-18366	3396.5	-0.22692	0.95843	0.14396
2.672	15.746	-18363	3394.8	-0.22643	0.95814	0.14386
2.674	15.735	-18361	3393.2	-0.22594	0.95785	0.14376
2.676	15.723	-18356	3391.4	-0.22546	0.95755	0.14367
2.678	15.718	-18351	3389.4	-0.22497	0.95726	0.14357
2.68	15.722	-18351	3387.4	-0.22448	0.95697	0.14347
2.682	15.726	-18350	3385.1	-0.22507	0.95765	0.14367
2.684	15.731	-18353	3382.8	-0.22565	0.95833	0.14386
2.686	15.733	-18356	3380.4	-0.22624	0.95902	0.14406
2.688	15.725	-18360	3377.9	-0.22682	0.9597	0.14425
2.69	15.719	-18364	3375.4	-0.22741	0.96038	0.14445
2.692	15.711	-18365	3372.8	-0.22897	0.95912	0.14552
2.694	15.71	-18366	3370.1	-0.23053	0.95785	0.1466
2.696	15.711	-18366	3367.3	-0.23209	0.95658	0.14767
2.698	15.718	-18366	3364.5	-0.23365	0.95531	0.14874
2.7	15.721	-18364	3361.6	-0.23522	0.95404	0.14982
2.702	15.724	-18361	3358.7	-0.23551	0.95404	0.15089
2.704	15.724	-18360	3355.7	-0.2358	0.95404	0.15196
2.706	15.727	-18360	3352.7	-0.23609	0.95404	0.15304
2.708	15.732	-18358	3349.7	-0.23639	0.95404	0.15411
2.71	15.734	-18357	3346.6	-0.23668	0.95404	0.15518
2.712	15.737	-18356	3343.5	-0.23746	0.95375	0.15479
2.714	15.739	-18356	3340.4	-0.23824	0.95345	0.1544
2.716	15.739	-18356	3337.2	-0.23902	0.95316	0.15401
2.718	15.736	-18356	3334.1	-0.2398	0.95287	0.15362
2.72	15.736	-18358	3331	-0.24058	0.95258	0.15323
2.722	15.743	-18359	3327.8	-0.24029	0.95219	0.15206
2.724	15.746	-18358	3324.5	-0.24	0.9518	0.15089
2.726	15.736	-18357	3321.3	-0.23971	0.9514	0.14972
2.728	15.744	-18356	3318.1	-0.23941	0.95101	0.14855
2.73	15.756	-18355	3315	-0.23912	0.95062	0.14738
2.732	15.759	-18356	3311.8	-0.23912	0.95121	0.14786
2.734	15.759	-18357	3308.6	-0.23912	0.9518	0.14835
2.736	15.762	-18357	3305.4	-0.23912	0.95238	0.14884
2.738	15.76	-18357	3302.3	-0.23912	0.95297	0.14933
2.74	15.755	-18358	3299.2	-0.23912	0.95355	0.14982
2.742	15.751	-18358	3296.1	-0.23941	0.95453	0.1504
2.744	15.751	-18361	3293.1	-0.23971	0.9555	0.15099
2.746	15.737	-18363	3290.2	-0.24	0.95648	0.15157
2.748	15.739	-18363	3287.3	-0.24029	0.95746	0.15216
2.75	15.751	-18363	3284.4	-0.24058	0.95843	0.15274
2.752	15.75	-18360	3281.8	-0.24097	0.95785	0.15313
2.754	15.749	-18357	3279.2	-0.24136	0.95726	0.15352
2.756	15.754	-18353	3276.6	-0.24176	0.95668	0.15392
2.758	15.753	-18349	3274.2	-0.24215	0.95609	0.15431
2.76	15.753	-18353	3271.7	-0.24254	0.9555	0.1547
2.762	15.761	-18357	3269.5	-0.24117	0.95687	0.15313
2.764	15.766	-18359	3267.4	-0.2398	0.95824	0.15157
2.766	15.762	-18362	3265.3	-0.23844	0.9596	0.15001
2.768	15.753	-18360	3263.4	-0.23707	0.96097	0.14845
2.77	15.746	-18359	3261.5	-0.2357	0.96234	0.14689
2.772	15.753	-18356	3259.9	-0.23648	0.96234	0.14747
2.774	15.763	-18353	3258.3	-0.23727	0.96234	0.14806
2.776	15.768	-18357	3256.7	-0.23805	0.96234	0.14864
2.778	15.775	-18361	3255.3	-0.23883	0.96234	0.14923
2.78	15.759	-18361	3253.9	-0.23961	0.96234	0.14982
2.782	15.74	-18360	3252.8	-0.23863	0.96234	0.14933
2.784	15.746	-18358	3251.7	-0.23766	0.96234	0.14884
2.786	15.746	-18355	3250.7	-0.23668	0.96234	0.14835
2.788	15.731	-18359	3249.7	-0.2357	0.96234	0.14786
2.79	15.731	-18363	3248.8	-0.23473	0.96234	0.14738
2.792	15.733	-18362	3248.1	-0.23648	0.96107	0.14806
2.794	15.733	-18361	3247.5	-0.23824	0.9598	0.14874
2.796	15.732	-18358	3246.9	-0.24	0.95853	0.14943
2.798	15.738	-18354	3246.4	-0.24176	0.95726	0.15011
2.8	15.74	-18354	3246	-0.24351	0.95599	0.15079
2.802	15.74	-18354	3245.7	-0.2439	0.9556	0.15118
2.804	15.736	-18354	3245.4	-0.24429	0.95521	0.15157
2.806	15.729	-18355	3245.2	-0.24468	0.95482	0.15196
2.808	15.725	-18356	3245	-0.24507	0.95443	0.15235
2.81	15.716	-18357	3244.9	-0.24546	0.95404	0.15274
2.812	15.71	-18356	3244.9	-0.24527	0.95375	0.15304
2.814	15.686	-18354	3244.9	-0.24507	0.95345	0.15333
2.816	15.684	-18354	3245	-0.24488	0.95316	0.15362
2.818	15.717	-18353	3245.2	-0.24468	0.95287	0.15392
2.82	15.709	-18355	3245.3	-0.24449	0.95258	0.15421
2.822	15.687	-18356	3245.6	-0.24459	0.95238	0.15304
2.824	15.694	-18358	3245.9	-0.24468	0.95219	0.15187
2.826	15.704	-18360	3246.2	-0.24478	0.95199	0.15069
2.828	15.701	-18359	3246.5	-0.24488	0.9518	0.14952
2.83	15.702	-18358	3246.8	-0.24498	0.9516	0.14835
2.832	15.697	-18353	3247.2	-0.24595	0.95189	0.14962
2.834	15.694	-18349	3247.6	-0.24693	0.95219	0.15089
2.836	15.688	-18349	3248.1	-0.2479	0.95248	0.15216
2.838	15.685	-18349	3248.5	-0.24888	0.95277	0.15343
2.84	15.688	-18353	3249	-0.24986	0.95306	0.1547
2.842	15.688	-18357	3249.4	-0.25044	0.95238	0.15382
2.844	15.685	-18356	3249.9	-0.25103	0.9517	0.15294
2.846	15.69	-18354	3250.3	-0.25161	0.95101	0.15206
2.848	15.7	-18357	3250.6	-0.2522	0.95033	0.15118
2.85	15.704	-18360	3251	-0.25278	0.94965	0.1503
2.852	15.709	-18362	3251.4	-0.25191	0.94945	0.14991
2.854	15.718	-18363	3251.8	-0.25103	0.94926	0.14952
2.856	15.736	-18362	3252.2	-0.25015	0.94906	0.14913
2.858	15.761	-18360	3252.5	-0.24927	0.94887	0.14874
2.86	15.769	-18352	3252.8	-0.24839	0.94867	0.14835
2.862	15.775	-18344	3253.1	-0.24995	0.94916	0.14962
2.864	15.784	-18355	3253.4	-0.25152	0.94965	0.15089
2.866	15.79	-18365	3253.6	-0.25308	0.95014	0.15216
2.868	15.795	-18369	3253.8	-0.25464	0.95062	0.15343
2.87	15.798	-18372	3254	-0.2562	0.95111	0.1547
2.872	15.804	-18366	3254.2	-0.25522	0.95092	0.1546
2.874	15.796	-18360	3254.3	-0.25425	0.95072	0.1545
2.876	15.795	-18359	3254.4	-0.25327	0.95053	0.1544
2.878	15.799	-18359	3254.5	-0.2523	0.95033	0.15431
2.88	15.811	-18361	3254.5	-0.25132	0.95014	0.15421
2.882	15.812	-18363	3254.5	-0.25054	0.94965	0.15333
2.884	15.806	-18363	3254.5	-0.24976	0.94916	0.15245
2.886	15.817	-18362	3254.4	-0.24898	0.94867	0.15157
2.888	15.812	-18365	3254.2	-0.2482	0.94818	0.15069
2.89	15.799	-18368	3254	-0.24742	0.9477	0.14982
2.892	15.784	-18364	3253.8	-0.24712	0.94818	0.14913
2.894	15.783	-18360	3253.5	-0.24683	0.94867	0.14845
2.896	15.787	-18359	3253.3	-0.24654	0.94916	0.14777
2.898	15.773	-18357	3253	-0.24624	0.94965	0.14708
2.9	15.779	-18365	3252.8	-0.24595	0.95014	0.1464
2.902	15.791	-18372	3252.5	-0.24605	0.95092	0.14708
2.904	15.787	-18369	3252.2	-0.24615	0.9517	0.14777
2.906	15.778	-18365	3251.8	-0.24624	0.95248	0.14845
2.908	15.785	-18362	3251.5	-0.24634	0.95326	0.14913
2.91	15.79	-18359	3251.1	-0.24644	0.95404	0.14982
2.912	15.792	-18362	3250.7	-0.24576	0.95414	0.14972
2.914	15.788	-18365	3250.3	-0.24507	0.95424	0.14962
2.916	15.79	-18364	3250	-0.24439	0.95433	0.14952
2.918	15.804	-18363	3249.6	-0.24371	0.95443	0.14943
2.92	15.817	-18370	3249.2	-0.24302	0.95453	0.14933
2.922	15.811	-18376	3248.9	-0.24254	0.95521	0.14933
2.924	15.802	-18371	3248.5	-0.24205	0.95589	0.14933
2.926	15.804	-18366	3248.2	-0.24156	0.95658	0.14933
2.928	15.798	-18368	3247.8	-0.24107	0.95726	0.14933
2.93	15.78	-18370	3247.4	-0.24058	0.95794	0.14933
2.932	15.777	-18371	3247.1	-0.23961	0.95736	0.14894
2.934	15.787	-18371	3246.8	-0.23863	0.95677	0.14855
2.936	15.791	-18366	3246.4	-0.23766	0.95619	0.14816
2.938	15.79	-18361	3246.1	-0.23668	0.9556	0.14777
2.94	15.789	-18360	3245.7	-0.2357	0.95502	0.14738
2.942	15.781	-18359	3245.4	-0.23522	0.95492	0.14747
2.944	15.767	-18360	3245.1	-0.23473	0.95482	0.14757
2.946	15.763	-18361	3244.8	-0.23424	0.95472	0.14767
2.948	15.776	-18365	3244.5	-0.23375	0.95463	0.14777
2.95	15.793	-18370	3244.3	-0.23326	0.95453	0.14786
2.952	15.799	-18367	3244	-0.23297	0.95394	0.14796
2.954	15.788	-18363	3243.7	-0.23268	0.95336	0.14806
2.956	15.775	-18371	3243.5	-0.23239	0.95277	0.14816
2.958	15.773	-18378	3243.2	-0.23209	0.95219	0.14825
2.96	15.774	-18372	3242.9	-0.2318	0.9516	0.14835
2.962	15.765	-18366	3242.6	-0.23141	0.95189	0.14845
2.964	15.747	-18364	3242.2	-0.23102	0.95219	0.14855
2.966	15.726	-18363	3241.9	-0.23063	0.95248	0.14864
2.968	15.718	-18364	3241.6	-0.23024	0.95277	0.14874
2.97	15.707	-18365	3241.3	-0.22985	0.95306	0.14884
2.972	15.699	-18368	3241	-0.22965	0.95209	0.14864
2.974	15.671	-18371	3240.7	-0.22946	0.95111	0.14845
2.976	15.622	-18369	3240.4	-0.22926	0.95014	0.14825
2.978	15.577	-18367	3240	-0.22907	0.94916	0.14806
2.98	15.523	-18363	3239.7	-0.22887	0.94818	0.14786
2.982	15.462	-18359	3239.3	-0.23034	0.94828	0.14816
2.984	15.4	-18359	3239	-0.2318	0.94838	0.14845
2.986	15.341	-18360	3238.7	-0.23326	0.94848	0.14874
2.988	15.297	-18366	3238.3	-0.23473	0.94857	0.14904
2.99	15.29	-18371	3237.9	-0.23619	0.94867	0.14933
2.992	15.286	-18370	3237.5	-0.23746	0.94926	0.14952
2.994	15.27	-18369	3237.1	-0.23873	0.94984	0.14972
2.996	15.263	-18367	3236.6	-0.24	0.95043	0.14991
2.998	15.264	-18365	3236.2	-0.24127	0.95101	0.15011
3	15.272	-18361	3235.7	-0.24254	0.9516	0.1503
3.002	15.253	-18358	3235.2	-0.24234	0.9517	0.15089
3.004	15.228	-18366	3234.7	-0.24215	0.9518	0.15148
3.006	15.229	-18374	3234.2	-0.24195	0.95189	0.15206
3.008	15.227	-18373	3233.8	-0.24176	0.95199	0.15265
3.01	15.202	-18372	3233.4	-0.24156	0.95209	0.15323
3.012	15.177	-18375	3232.9	-0.24097	0.95238	0.15235
3.014	15.153	-18377	3232.5	-0.24039	0.95267	0.15148
3.016	15.142	-18370	3232	-0.2398	0.95297	0.1506
3.018	15.146	-18363	3231.6	-0.23922	0.95326	0.14972
3.02	15.145	-18369	3231.1	-0.23863	0.95355	0.14884
3.022	15.143	-18375	3230.7	-0.2399	0.95316	0.14952
3.024	15.156	-18376	3230.3	-0.24117	0.95277	0.15021
3.026	15.181	-18377	3229.9	-0.24244	0.95238	0.15089
3.028	15.207	-18375	3229.4	-0.24371	0.95199	0.15157
3.03	15.242	-18374	3229	-0.24498	0.9516	0.15226
3.032	15.282	-18371	3228.6	-0.24468	0.95267	0.15187
3.034	15.329	-18368	3228.2	-0.24439	0.95375	0.15148
3.036	15.386	-18370	3227.8	-0.2441	0.95482	0.15108
3.038	15.449	-18371	3227.3	-0.2438	0.95589	0.15069
3.04	15.507	-18366	3226.9	-0.24351	0.95697	0.1503
3.042	15.546	-18361	3226.4	-0.24293	0.95609	0.15011
3.044	15.565	-18365	3226	-0.24234	0.95521	0.14991
3.046	15.615	-18370	3225.6	-0.24176	0.95433	0.14972
3.048	15.653	-18365	3225.1	-0.24117	0.95345	0.14952
3.05	15.667	-18361	3224.7	-0.24058	0.95258	0.14933
3.052	15.706	-18356	3224.3	-0.2401	0.95297	0.14923
3.054	15.74	-18350	3223.8	-0.23961	0.95336	0.14913
3.056	15.769	-18357	3223.4	-0.23912	0.95375	0.14904
3.058	15.79	-18365	3222.9	-0.23863	0.95414	0.14894
3.06	15.796	-18365	3222.5	-0.23814	0.95453	0.14884
3.062	15.793	-18366	3222.1	-0.23883	0.95443	0.14904
3.064	15.799	-18365	3221.7	-0.23951	0.95433	0.14923
3.066	15.795	-18365	3221.3	-0.24019	0.95424	0.14943
3.068	15.82	-18371	3220.9	-0.24088	0.95414	0.14962
3.07	15.826	-18377	3220.5	-0.24156	0.95404	0.14982
3.072	15.821	-18377	3220.2	-0.23951	0.95238	0.14894
3.074	15.804	-18377	3219.8	-0.23746	0.95072	0.14806
3.076	15.804	-18374	3219.5	-0.23541	0.94906	0.14718
3.078	15.805	-18371	3219.2	-0.23336	0.9474	0.1463
3.08	15.812	-18378	3218.9	-0.23131	0.94574	0.14542
3.082	15.807	-18386	3218.7	-0.23121	0.94545	0.14552
3.084	15.807	-18374	3218.4	-0.23112	0.94516	0.14562
3.086	15.81	-18362	3218.2	-0.23102	0.94487	0.14572
3.088	15.809	-18372	3218.1	-0.23092	0.94457	0.14581
3.09	15.809	-18382	3217.9	-0.23082	0.94428	0.14591
3.092	15.807	-18379	3217.8	-0.23034	0.94604	0.14542
3.094	15.805	-18377	3217.6	-0.22985	0.94779	0.14494
3.096	15.813	-18376	3217.6	-0.22936	0.94955	0.14445
3.098	15.807	-18376	3217.5	-0.22887	0.95131	0.14396
3.1	15.795	-18374	3217.5	-0.22838	0.95306	0.14347
3.102	15.777	-18373	3217.5	-0.22946	0.95355	0.14484
3.104	15.751	-18375	3217.5	-0.23053	0.95404	0.1462
3.106	15.759	-18377	3217.5	-0.2316	0.95453	0.14757
3.108	15.777	-18376	3217.6	-0.23268	0.95502	0.14894
3.11	15.77	-18375	3217.6	-0.23375	0.9555	0.1503
3.112	15.771	-18374	3217.7	-0.23522	0.95843	0.15118
3.114	15.771	-18372	3217.8	-0.23668	0.96136	0.15206
3.116	15.756	-18372	3217.9	-0.23814	0.96429	0.15294
3.118	15.744	-18372	3218.1	-0.23961	0.96722	0.15382
3.12	15.764	-18374	3218.2	-0.24107	0.97014	0.1547
3.122	15.778	-18376	3218.4	-0.23932	0.96956	0.15557
3.124	15.765	-18374	3218.7	-0.23756	0.96897	0.15645
3.126	15.744	-18372	3219	-0.2358	0.96839	0.15733
3.128	15.743	-18372	3219.5	-0.23404	0.9678	0.15821
3.13	15.753	-18371	3220	-0.23229	0.96722	0.15909
3.132	15.759	-18373	3221.1	-0.23287	0.96761	0.15997
3.134	15.766	-18375	3222.2	-0.23346	0.968	0.16084
3.136	15.769	-18374	3223.7	-0.23404	0.96839	0.16172
3.138	15.763	-18373	3225.6	-0.23463	0.96878	0.1626
3.14	15.77	-18375	3227.6	-0.23522	0.96917	0.16348
3.142	15.777	-18377	3230.6	-0.23668	0.96809	0.16143
3.144	15.778	-18375	3233.7	-0.23814	0.96702	0.15938
3.146	15.793	-18373	3237.3	-0.23961	0.96595	0.15733
3.148	15.798	-18377	3241.5	-0.24107	0.96487	0.15528
3.15	15.809	-18380	3245.6	-0.24254	0.9638	0.15323
3.152	15.808	-18383	3250.8	-0.24146	0.96282	0.1546
3.154	15.803	-18386	3256	-0.24039	0.96185	0.15596
3.156	15.8	-18386	3261.6	-0.23932	0.96087	0.15733
3.158	15.796	-18387	3267.7	-0.23824	0.9599	0.1587
3.16	15.803	-18380	3273.7	-0.23717	0.95892	0.16006
3.162	15.807	-18372	3280.6	-0.23795	0.95775	0.15938
3.164	15.799	-18375	3287.5	-0.23873	0.95658	0.1587
3.166	15.808	-18379	3294.6	-0.23951	0.95541	0.15801
3.168	15.825	-18378	3302.1	-0.24029	0.95424	0.15733
3.17	15.829	-18377	3309.5	-0.24107	0.95306	0.15665
3.172	15.824	-18377	3317.1	-0.24058	0.95336	0.15665
3.174	15.819	-18377	3324.7	-0.2401	0.95365	0.15665
3.176	15.814	-18376	3332.1	-0.23961	0.95394	0.15665
3.178	15.812	-18374	3339.4	-0.23912	0.95424	0.15665
3.18	15.824	-18370	3346.6	-0.23863	0.95453	0.15665
3.182	15.828	-18366	3353	-0.23814	0.95414	0.15567
3.184	15.828	-18368	3359.4	-0.23766	0.95375	0.1547
3.186	15.826	-18371	3365.3	-0.23717	0.95336	0.15372
3.188	15.812	-18375	3370.6	-0.23668	0.95297	0.15274
3.19	15.802	-18378	3375.9	-0.23619	0.95258	0.15177
3.192	15.811	-18377	3380	-0.23502	0.95101	0.15099
3.194	15.816	-18375	3384	-0.23385	0.94945	0.15021
3.196	15.809	-18375	3387.5	-0.23268	0.94789	0.14943
3.198	15.804	-18376	3390.3	-0.23151	0.94633	0.14864
3.2	15.8	-18372	3393.2	-0.23034	0.94477	0.14786
3.202	15.79	-18369	3394.9	-0.23043	0.94428	0.14806
3.204	15.778	-18371	3396.6	-0.23053	0.94379	0.14825
3.206	15.759	-18373	3397.7	-0.23063	0.9433	0.14845
3.208	15.742	-18370	3398.3	-0.23073	0.94282	0.14864
3.21	15.74	-18366	3399	-0.23082	0.94233	0.14884
3.212	15.733	-18369	3398.8	-0.23004	0.94243	0.14786
3.214	15.709	-18373	3398.6	-0.22926	0.94252	0.14689
3.216	15.703	-18370	3398.1	-0.22848	0.94262	0.14591
3.218	15.7	-18368	3397.2	-0.2277	0.94272	0.14494
3.22	15.697	-18370	3396.3	-0.22692	0.94282	0.14396
3.222	15.667	-18372	3394.8	-0.22819	0.94184	0.14289
3.224	15.667	-18372	3393.4	-0.22946	0.94086	0.14181
3.226	15.669	-18372	3391.8	-0.23073	0.93989	0.14074
3.228	15.654	-18376	3389.9	-0.232	0.93891	0.13967
3.23	15.643	-18379	3388.1	-0.23326	0.93794	0.13859
3.232	15.651	-18377	3386	-0.23346	0.93862	0.13918
3.234	15.64	-18376	3383.9	-0.23365	0.9393	0.13976
3.236	15.637	-18373	3381.6	-0.23385	0.93999	0.14035
3.238	15.64	-18370	3379.2	-0.23404	0.94067	0.14093
3.24	15.628	-18371	3376.9	-0.23424	0.94135	0.14152
3.242	15.609	-18372	3374.4	-0.23297	0.94174	0.14201
3.244	15.622	-18371	3371.9	-0.2317	0.94213	0.1425
3.246	15.627	-18370	3369.3	-0.23043	0.94252	0.14298
3.248	15.615	-18370	3366.7	-0.22916	0.94291	0.14347
3.25	15.625	-18370	3364	-0.2279	0.9433	0.14396
3.252	15.625	-18373	3361.2	-0.22975	0.94496	0.14289
3.254	15.611	-18376	3358.5	-0.2316	0.94662	0.14181
3.256	15.621	-18373	3355.6	-0.23346	0.94828	0.14074
3.258	15.622	-18371	3352.7	-0.23531	0.94994	0.13967
3.26	15.623	-18370	3349.7	-0.23717	0.9516	0.13859
3.262	15.634	-18369	3346.8	-0.23483	0.95316	0.13918
3.264	15.649	-18370	3343.8	-0.23248	0.95472	0.13976
3.266	15.651	-18372	3340.8	-0.23014	0.95628	0.14035
3.268	15.645	-18372	3337.8	-0.2278	0.95785	0.14093
3.27	15.645	-18372	3334.8	-0.22546	0.95941	0.14152
3.272	15.64	-18373	3331.9	-0.22721	0.95999	0.14172
3.274	15.63	-18374	3329.1	-0.22897	0.96058	0.14191
3.276	15.63	-18373	3326.1	-0.23073	0.96116	0.14211
3.278	15.631	-18372	3323.2	-0.23248	0.96175	0.1423
3.28	15.62	-18370	3320.3	-0.23424	0.96234	0.1425
3.282	15.628	-18368	3317.4	-0.23346	0.96282	0.1423
3.284	15.649	-18367	3314.5	-0.23268	0.96331	0.14211
3.286	15.649	-18367	3311.7	-0.2319	0.9638	0.14191
3.288	15.646	-18366	3308.8	-0.23112	0.96429	0.14172
3.29	15.644	-18366	3306	-0.23034	0.96478	0.14152
3.292	15.641	-18367	3303.2	-0.23151	0.96673	0.14357
3.294	15.649	-18368	3300.4	-0.23268	0.96868	0.14562
3.296	15.659	-18368	3297.7	-0.23385	0.97063	0.14767
3.298	15.646	-18368	3295	-0.23502	0.97258	0.14972
3.3	15.633	-18365	3292.4	-0.23619	0.97454	0.15177
3.302	15.639	-18361	3289.9	-0.23609	0.97522	0.15235
3.304	15.653	-18364	3287.4	-0.236	0.9759	0.15294
3.306	15.641	-18366	3285	-0.2359	0.97659	0.15352
3.308	15.65	-18366	3282.7	-0.2358	0.97727	0.15411
3.31	15.657	-18365	3280.3	-0.2357	0.97795	0.1547
3.312	15.653	-18361	3278.2	-0.23404	0.97678	0.15645
3.314	15.658	-18356	3276.2	-0.23239	0.97561	0.15821
3.316	15.674	-18358	3274.1	-0.23073	0.97444	0.15997
3.318	15.681	-18360	3272.2	-0.22907	0.97327	0.16172
3.32	15.655	-18362	3270.2	-0.22741	0.9721	0.16348
3.322	15.651	-18364	3268.5	-0.22799	0.96985	0.16299
3.324	15.66	-18363	3266.8	-0.22858	0.96761	0.1625
3.326	15.668	-18362	3265.2	-0.22916	0.96536	0.16202
3.328	15.671	-18363	3263.6	-0.22975	0.96312	0.16153
3.33	15.673	-18364	3261.9	-0.23034	0.96087	0.16104
3.332	15.657	-18365	3260.5	-0.23102	0.95941	0.16182
3.334	15.657	-18365	3259.1	-0.2317	0.95794	0.1626
3.336	15.665	-18359	3257.8	-0.23239	0.95648	0.16338
3.338	15.666	-18354	3256.6	-0.23307	0.95502	0.16416
3.34	15.66	-18355	3255.3	-0.23375	0.95355	0.16494
3.342	15.656	-18356	3254.3	-0.23473	0.95345	0.16475
3.344	15.65	-18360	3253.3	-0.2357	0.95336	0.16455
3.346	15.654	-18363	3252.4	-0.23668	0.95326	0.16436
3.348	15.659	-18367	3251.6	-0.23766	0.95316	0.16416
3.35	15.663	-18370	3250.7	-0.23863	0.95306	0.16397
3.352	15.661	-18369	3250	-0.23766	0.95131	0.1625
3.354	15.66	-18368	3249.3	-0.23668	0.94955	0.16104
3.356	15.671	-18366	3248.7	-0.2357	0.94779	0.15958
3.358	15.679	-18365	3248.2	-0.23473	0.94604	0.15811
3.36	15.67	-18364	3247.6	-0.23375	0.94428	0.15665
3.362	15.668	-18364	3247.2	-0.23444	0.94291	0.15675
3.364	15.669	-18362	3246.8	-0.23512	0.94155	0.15684
3.366	15.66	-18359	3246.5	-0.2358	0.94018	0.15694
3.368	15.648	-18360	3246.3	-0.23648	0.93881	0.15704
3.37	15.627	-18360	3246.1	-0.23717	0.93745	0.15714
3.372	15.599	-18362	3246	-0.23863	0.93716	0.15616
3.374	15.584	-18364	3245.9	-0.2401	0.93686	0.15518
3.376	15.598	-18361	3245.8	-0.24156	0.93657	0.15421
3.378	15.61	-18357	3245.9	-0.24302	0.93628	0.15323
3.38	15.605	-18365	3245.9	-0.24449	0.93598	0.15226
3.382	15.602	-18372	3246.1	-0.244	0.93667	0.15187
3.384	15.603	-18370	3246.2	-0.24351	0.93735	0.15148
3.386	15.604	-18367	3246.4	-0.24302	0.93803	0.15108
3.388	15.604	-18373	3246.6	-0.24254	0.93872	0.15069
3.39	15.601	-18380	3246.9	-0.24205	0.9394	0.1503
3.392	15.602	-18367	3247.1	-0.24127	0.94096	0.14943
3.394	15.579	-18354	3247.4	-0.24049	0.94252	0.14855
3.396	15.581	-18361	3247.7	-0.23971	0.94408	0.14767
3.398	15.586	-18368	3248.1	-0.23892	0.94565	0.14679
3.4	15.578	-18372	3248.4	-0.23814	0.94721	0.14591
3.402	15.59	-18375	3248.8	-0.23707	0.94633	0.14562
3.404	15.59	-18372	3249.2	-0.236	0.94545	0.14533
3.406	15.581	-18369	3249.6	-0.23492	0.94457	0.14503
3.408	15.585	-18370	3250	-0.23385	0.94369	0.14474
3.41	15.603	-18372	3250.4	-0.23278	0.94282	0.14445
3.412	15.612	-18370	3250.7	-0.23239	0.94262	0.14416
3.414	15.618	-18368	3251	-0.232	0.94243	0.14386
3.416	15.638	-18369	3251.3	-0.2316	0.94223	0.14357
3.418	15.654	-18370	3251.5	-0.23121	0.94204	0.14328
3.42	15.679	-18367	3251.7	-0.23082	0.94184	0.14298
3.422	15.69	-18363	3252	-0.23151	0.94291	0.1422
3.424	15.687	-18368	3252.2	-0.23219	0.94399	0.14142
3.426	15.689	-18373	3252.5	-0.23287	0.94506	0.14064
3.428	15.691	-18371	3252.9	-0.23356	0.94613	0.13986
3.43	15.692	-18368	3253.3	-0.23424	0.94721	0.13908
3.432	15.7	-18366	3253.6	-0.23356	0.9477	0.13967
3.434	15.707	-18363	3253.9	-0.23287	0.94818	0.14025
3.436	15.713	-18363	3254.1	-0.23219	0.94867	0.14084
3.438	15.714	-18363	3254.3	-0.23151	0.94916	0.14142
3.44	15.703	-18367	3254.4	-0.23082	0.94965	0.14201
3.442	15.696	-18371	3254.5	-0.23141	0.94945	0.14191
3.444	15.698	-18373	3254.6	-0.232	0.94926	0.14181
3.446	15.701	-18375	3254.5	-0.23258	0.94906	0.14172
3.448	15.702	-18371	3254.4	-0.23317	0.94887	0.14162
3.45	15.705	-18368	3254.3	-0.23375	0.94867	0.14152
3.452	15.707	-18372	3253.9	-0.23112	0.95121	0.14142
3.454	15.704	-18375	3253.5	-0.22848	0.95375	0.14132
3.456	15.703	-18374	3253.2	-0.22585	0.95628	0.14123
3.458	15.704	-18373	3253	-0.22321	0.95882	0.14113
3.46	15.696	-18366	3252.9	-0.22058	0.96136	0.14103
3.462	15.694	-18360	3253.1	-0.22477	0.96097	0.14386
3.464	15.697	-18367	3253.3	-0.22897	0.96058	0.14669
3.466	15.707	-18374	3253.3	-0.23317	0.96019	0.14952
3.468	15.714	-18374	3253.3	-0.23736	0.9598	0.15235
3.47	15.715	-18374	3253.3	-0.24156	0.95941	0.15518
3.472	15.708	-18375	3253.1	-0.2399	0.95921	0.1545
3.474	15.69	-18375	3252.9	-0.23824	0.95902	0.15382
3.476	15.688	-18373	3252.7	-0.23658	0.95882	0.15313
3.478	15.687	-18372	3252.5	-0.23492	0.95863	0.15245
3.48	15.695	-18366	3252.2	-0.23326	0.95843	0.15177
3.482	15.704	-18360	3252	-0.23385	0.95785	0.15118
3.484	15.703	-18362	3251.7	-0.23444	0.95726	0.1506
3.486	15.7	-18364	3251.3	-0.23502	0.95668	0.15001
3.488	15.708	-18373	3250.7	-0.23561	0.95609	0.14943
3.49	15.712	-18382	3250.2	-0.23619	0.9555	0.14884
3.492	15.715	-18377	3249.5	-0.23297	0.95599	0.14747
3.494	15.712	-18371	3248.8	-0.22975	0.95648	0.14611
3.496	15.704	-18370	3248.3	-0.22653	0.95697	0.14474
3.498	15.7	-18369	3247.9	-0.22331	0.95746	0.14337
3.5	15.706	-18375	3247.4	-0.22009	0.95794	0.14201
3.502	15.709	-18382	3247.4	-0.22507	0.95658	0.14435
3.504	15.699	-18382	3247.4	-0.23004	0.95521	0.14669
3.506	15.698	-18383	3247.4	-0.23502	0.95384	0.14904
3.508	15.704	-18378	3247.3	-0.24	0.95248	0.15138
3.51	15.697	-18373	3247.2	-0.24498	0.95111	0.15372
3.512	15.687	-18375	3246.8	-0.24283	0.95111	0.15255
3.514	15.68	-18378	3246.5	-0.24068	0.95111	0.15138
3.516	15.673	-18372	3246.2	-0.23853	0.95111	0.15021
3.518	15.668	-18366	3245.8	-0.23639	0.95111	0.14904
3.52	15.66	-18369	3245.4	-0.23424	0.95111	0.14786
3.522	15.646	-18372	3245	-0.23326	0.95023	0.14708
3.524	15.61	-18371	3244.6	-0.23229	0.94936	0.1463
3.526	15.559	-18370	3244	-0.23131	0.94848	0.14552
3.528	15.525	-18369	3243.3	-0.23034	0.9476	0.14474
3.53	15.501	-18369	3242.6	-0.22936	0.94672	0.14396
3.532	15.472	-18374	3241.8	-0.2279	0.94789	0.14211
3.534	15.437	-18379	3240.9	-0.22643	0.94906	0.14025
3.536	15.389	-18374	3240.1	-0.22497	0.95023	0.1384
3.538	15.332	-18369	3239.3	-0.2235	0.9514	0.13654
3.54	15.259	-18368	3238.5	-0.22204	0.95258	0.13469
3.542	15.183	-18366	3238.3	-0.22594	0.95326	0.1384
3.544	15.11	-18371	3238.2	-0.22985	0.95394	0.14211
3.546	15.056	-18375	3238	-0.23375	0.95463	0.14581
3.548	15.017	-18378	3238	-0.23766	0.95531	0.14952
3.55	15.003	-18381	3237.9	-0.24156	0.95599	0.15323
3.552	15.016	-18377	3237.7	-0.2398	0.95697	0.15226
3.554	15.019	-18373	3237.5	-0.23805	0.95794	0.15128
3.556	15.019	-18373	3237.2	-0.23629	0.95892	0.1503
3.558	15.028	-18374	3237	-0.23453	0.9599	0.14933
3.56	15.013	-18379	3236.7	-0.23278	0.96087	0.14835
3.562	15.004	-18384	3236.4	-0.23219	0.96116	0.14825
3.564	15.005	-18376	3236.2	-0.2316	0.96146	0.14816
3.566	14.995	-18367	3235.8	-0.23102	0.96175	0.14806
3.568	14.986	-18370	3235.5	-0.23043	0.96204	0.14796
3.57	14.98	-18374	3235.2	-0.22985	0.96234	0.14786
3.572	14.948	-18373	3234.5	-0.22956	0.96195	0.14572
3.574	14.894	-18371	3233.9	-0.22926	0.96156	0.14357
3.576	14.863	-18372	3233.2	-0.22897	0.96116	0.14142
3.578	14.868	-18373	3232.6	-0.22868	0.96077	0.13928
3.58	14.88	-18377	3231.9	-0.22838	0.96038	0.13713
3.582	14.902	-18381	3231.8	-0.23102	0.96175	0.14064
3.584	14.916	-18383	3231.7	-0.23365	0.96312	0.14416
3.586	14.94	-18384	3231.7	-0.23629	0.96448	0.14767
3.588	14.977	-18385	3231.9	-0.23892	0.96585	0.15118
3.59	15.014	-18385	3232	-0.24156	0.96722	0.1547
3.592	15.043	-18382	3232	-0.24088	0.96858	0.15518
3.594	15.097	-18379	3231.9	-0.24019	0.96995	0.15567
3.596	15.169	-18375	3231.8	-0.23951	0.97132	0.15616
3.598	15.242	-18371	3231.7	-0.23883	0.97268	0.15665
3.6	15.323	-18371	3231.5	-0.23814	0.97405	0.15714
3.602	15.397	-18371	3231.4	-0.23629	0.97336	0.15792
3.604	15.447	-18369	3231.3	-0.23444	0.97268	0.1587
3.606	15.5	-18367	3231.2	-0.23258	0.972	0.15948
3.608	15.56	-18372	3231.1	-0.23073	0.97132	0.16026
3.61	15.607	-18377	3231	-0.22887	0.97063	0.16104
3.612	15.636	-18379	3230.9	-0.23082	0.97024	0.15977
3.614	15.662	-18382	3230.8	-0.23278	0.96985	0.1585
3.616	15.686	-18384	3230.8	-0.23473	0.96946	0.15723
3.618	15.705	-18385	3230.7	-0.23668	0.96907	0.15596
3.62	15.716	-18383	3230.7	-0.23863	0.96868	0.1547
3.622	15.715	-18382	3230.6	-0.23844	0.96848	0.15489
3.624	15.714	-18378	3230.5	-0.23824	0.96829	0.15509
3.626	15.723	-18374	3230.4	-0.23805	0.96809	0.15528
3.628	15.733	-18374	3230.2	-0.23785	0.9679	0.15548
3.63	15.734	-18373	3230	-0.23766	0.9677	0.15567
3.632	15.737	-18378	3229.7	-0.23844	0.96692	0.1547
3.634	15.737	-18383	3229.4	-0.23922	0.96614	0.15372
3.636	15.738	-18381	3229	-0.24	0.96536	0.15274
3.638	15.742	-18379	3228.6	-0.24078	0.96458	0.15177
3.64	15.744	-18382	3228.2	-0.24156	0.9638	0.15079
3.642	15.737	-18386	3227.8	-0.24136	0.96263	0.15196
3.644	15.74	-18384	3227.3	-0.24117	0.96146	0.15313
3.646	15.735	-18383	3226.9	-0.24097	0.96029	0.15431
3.648	15.721	-18379	3226.5	-0.24078	0.95912	0.15548
3.65	15.74	-18376	3226.1	-0.24058	0.95794	0.15665
3.652	15.735	-18378	3225.8	-0.23883	0.95785	0.15723
3.654	15.718	-18380	3225.5	-0.23707	0.95775	0.15782
3.656	15.718	-18381	3225.3	-0.23531	0.95765	0.1584
3.658	15.717	-18382	3225.1	-0.23356	0.95755	0.15899
3.66	15.705	-18385	3224.9	-0.2318	0.95746	0.15958
3.662	15.707	-18388	3224.7	-0.2319	0.95736	0.15938
3.664	15.724	-18381	3224.6	-0.232	0.95726	0.15919
3.666	15.714	-18375	3224.4	-0.23209	0.95716	0.15899
3.668	15.7	-18383	3224.2	-0.23219	0.95707	0.1588
3.67	15.705	-18391	3224	-0.23229	0.95697	0.1586
3.672	15.7	-18391	3223.9	-0.23473	0.95716	0.15792
3.674	15.69	-18391	3223.8	-0.23717	0.95736	0.15723
3.676	15.692	-18394	3223.8	-0.23961	0.95755	0.15655
3.678	15.686	-18396	3223.8	-0.24205	0.95775	0.15587
3.68	15.687	-18405	3223.9	-0.24449	0.95794	0.15518
3.682	15.693	-18414	3224.2	-0.24429	0.95824	0.15548
3.684	15.692	-18408	3224.6	-0.2441	0.95853	0.15577
3.686	15.687	-18402	3225.1	-0.2439	0.95882	0.15606
3.688	15.68	-18396	3225.9	-0.24371	0.95912	0.15636
3.69	15.674	-18389	3226.6	-0.24351	0.95941	0.15665
3.692	15.686	-18394	3228.1	-0.24322	0.95892	0.15655
3.694	15.698	-18399	3229.6	-0.24293	0.95843	0.15645
3.696	15.693	-18400	3231.6	-0.24263	0.95794	0.15636
3.698	15.691	-18401	3234.1	-0.24234	0.95746	0.15626
3.7	15.688	-18401	3236.6	-0.24205	0.95697	0.15616
3.702	15.693	-18401	3240.2	-0.24156	0.95687	0.15733
3.704	15.713	-18402	3243.8	-0.24107	0.95677	0.1585
3.706	15.715	-18404	3248	-0.24058	0.95668	0.15967
3.708	15.709	-18404	3252.8	-0.2401	0.95658	0.16084
3.71	15.715	-18404	3257.5	-0.23961	0.95648	0.16202
3.712	15.72	-18390	3263.2	-0.23961	0.9555	0.16055
3.714	15.727	-18376	3268.9	-0.23961	0.95453	0.15909
3.716	15.732	-18378	3275.1	-0.23961	0.95355	0.15762
3.718	15.746	-18380	3281.6	-0.23961	0.95258	0.15616
3.72	15.747	-18388	3288.1	-0.23961	0.9516	0.1547
3.722	15.74	-18397	3295.2	-0.24078	0.94965	0.1544
3.724	15.742	-18390	3302.4	-0.24195	0.9477	0.15411
3.726	15.738	-18382	3309.7	-0.24312	0.94574	0.15382
3.728	15.731	-18381	3317.3	-0.24429	0.94379	0.15352
3.73	15.726	-18380	3324.9	-0.24546	0.94184	0.15323
3.732	15.723	-18386	3332.5	-0.24478	0.94213	0.15313
3.734	15.725	-18392	3340.1	-0.2441	0.94243	0.15304
3.736	15.723	-18390	3347.4	-0.24341	0.94272	0.15294
3.738	15.72	-18389	3354.5	-0.24273	0.94301	0.15284
3.74	15.74	-18391	3361.6	-0.24205	0.9433	0.15274
3.742	15.744	-18393	3367.7	-0.24029	0.94408	0.15148
3.744	15.732	-18391	3373.9	-0.23853	0.94487	0.15021
3.746	15.727	-18389	3379.4	-0.23678	0.94565	0.14894
3.748	15.721	-18388	3384.4	-0.23502	0.94643	0.14767
3.75	15.714	-18388	3389.4	-0.23326	0.94721	0.1464
3.752	15.714	-18390	3393.1	-0.232	0.94731	0.14669
3.754	15.714	-18392	3396.8	-0.23073	0.9474	0.14699
3.756	15.702	-18393	3399.9	-0.22946	0.9475	0.14728
3.758	15.693	-18395	3402.4	-0.22819	0.9476	0.14757
3.76	15.677	-18389	3404.9	-0.22692	0.9477	0.14786
3.762	15.669	-18384	3406.3	-0.22751	0.94857	0.14864
3.764	15.66	-18380	3407.7	-0.22809	0.94945	0.14943
3.766	15.653	-18377	3408.6	-0.22868	0.95033	0.15021
3.768	15.639	-18385	3409	-0.22926	0.95121	0.15099
3.77	15.624	-18394	3409.4	-0.22985	0.95209	0.15177
3.772	15.616	-18394	3409	-0.23024	0.95131	0.15099
3.774	15.606	-18394	3408.6	-0.23063	0.95053	0.15021
3.776	15.6	-18390	3407.9	-0.23102	0.94975	0.14943
3.778	15.587	-18386	3406.9	-0.23141	0.94896	0.14864
3.78	15.569	-18386	3405.8	-0.2318	0.94818	0.14786
3.782	15.551	-18386	3404.3	-0.23307	0.94984	0.14923
3.784	15.542	-18388	3402.8	-0.23434	0.9515	0.1506
3.786	15.551	-18390	3401.1	-0.23561	0.95316	0.15196
3.788	15.556	-18393	3399.2	-0.23688	0.95482	0.15333
3.79	15.536	-18395	3397.3	-0.23814	0.95648	0.1547
3.792	15.522	-18389	3395.1	-0.23814	0.95687	0.1547
3.794	15.531	-18383	3392.9	-0.23814	0.95726	0.1547
3.796	15.534	-18381	3390.5	-0.23814	0.95765	0.1547
3.798	15.527	-18379	3388.1	-0.23814	0.95804	0.1547
3.8	15.523	-18380	3385.6	-0.23814	0.95843	0.1547
3.802	15.531	-18382	3383	-0.23971	0.95697	0.15411
3.804	15.531	-18380	3380.3	-0.24127	0.9555	0.15352
3.806	15.533	-18379	3377.5	-0.24283	0.95404	0.15294
3.808	15.532	-18379	3374.7	-0.24439	0.95258	0.15235
3.81	15.535	-18378	3371.8	-0.24595	0.95111	0.15177
3.812	15.524	-18383	3368.9	-0.24605	0.9515	0.15235
3.814	15.522	-18387	3365.9	-0.24615	0.95189	0.15294
3.816	15.528	-18387	3362.9	-0.24624	0.95228	0.15352
3.818	15.533	-18387	3359.8	-0.24634	0.95267	0.15411
3.82	15.533	-18382	3356.8	-0.24644	0.95306	0.1547
3.822	15.526	-18377	3353.7	-0.24624	0.95316	0.15499
3.824	15.523	-18376	3350.6	-0.24605	0.95326	0.15528
3.826	15.52	-18375	3347.4	-0.24585	0.95336	0.15557
3.828	15.53	-18385	3344.2	-0.24566	0.95345	0.15587
3.83	15.536	-18394	3340.9	-0.24546	0.95355	0.15616
3.832	15.531	-18396	3337.6	-0.24605	0.95345	0.15577
3.834	15.536	-18398	3334.3	-0.24664	0.95336	0.15538
3.836	15.52	-18391	3331	-0.24722	0.95326	0.15499
3.838	15.528	-18384	3327.7	-0.24781	0.95316	0.1546
3.84	15.533	-18382	3324.3	-0.24839	0.95306	0.15421
3.842	15.544	-18380	3320.9	-0.24878	0.95277	0.15411
3.844	15.554	-18381	3317.6	-0.24917	0.95248	0.15401
3.846	15.556	-18382	3314.2	-0.24956	0.95219	0.15392
3.848	15.557	-18382	3310.8	-0.24995	0.95189	0.15382
3.85	15.554	-18381	3307.5	-0.25034	0.9516	0.15372
3.852	15.555	-18385	3304.3	-0.25015	0.95111	0.15294
3.854	15.564	-18388	3301	-0.24995	0.95062	0.15216
3.856	15.563	-18385	3297.9	-0.24976	0.95014	0.15138
3.858	15.556	-18381	3294.9	-0.24956	0.94965	0.1506
3.86	15.551	-18378	3291.9	-0.24937	0.94916	0.14982
3.862	15.553	-18374	3288.9	-0.24898	0.94799	0.1503
3.864	15.551	-18381	3286	-0.24859	0.94682	0.15079
3.866	15.546	-18387	3283.1	-0.2482	0.94565	0.15128
3.868	15.547	-18387	3280.3	-0.24781	0.94448	0.15177
3.87	15.563	-18387	3277.6	-0.24742	0.9433	0.15226
3.872	15.58	-18383	3275.1	-0.24722	0.94282	0.15265
3.874	15.577	-18379	3272.7	-0.24703	0.94233	0.15304
3.876	15.56	-18376	3270.4	-0.24683	0.94184	0.15343
3.878	15.554	-18374	3268.2	-0.24664	0.94135	0.15382
3.88	15.559	-18373	3266	-0.24644	0.94086	0.15421
3.882	15.557	-18372	3264.2	-0.24556	0.94272	0.15372
3.884	15.56	-18370	3262.3	-0.24468	0.94457	0.15323
3.886	15.572	-18369	3260.6	-0.2438	0.94643	0.15274
3.888	15.576	-18370	3258.9	-0.24293	0.94828	0.15226
3.89	15.581	-18372	3257.3	-0.24205	0.95014	0.15177
3.892	15.579	-18374	3256	-0.24127	0.94955	0.15108
3.894	15.561	-18376	3254.7	-0.24049	0.94896	0.1504
3.896	15.56	-18378	3253.5	-0.23971	0.94838	0.14972
3.898	15.572	-18381	3252.4	-0.23892	0.94779	0.14904
3.9	15.576	-18380	3251.4	-0.23814	0.94721	0.14835
3.902	15.579	-18378	3250.6	-0.23805	0.94731	0.14952
3.904	15.585	-18375	3249.9	-0.23795	0.9474	0.15069
3.906	15.584	-18371	3249.2	-0.23785	0.9475	0.15187
3.908	15.58	-18376	3248.7	-0.23775	0.9476	0.15304
3.91	15.568	-18382	3248.1	-0.23766	0.9477	0.15421
3.912	15.56	-18378	3247.8	-0.23736	0.94848	0.15489
3.914	15.556	-18375	3247.5	-0.23707	0.94926	0.15557
3.916	15.548	-18377	3247.2	-0.23678	0.95004	0.15626
3.918	15.549	-18380	3247	-0.23648	0.95082	0.15694
3.92	15.56	-18377	3246.9	-0.23619	0.9516	0.15762
3.922	15.568	-18375	3246.9	-0.2358	0.95131	0.15762
3.924	15.564	-18376	3246.9	-0.23541	0.95101	0.15762
3.926	15.56	-18377	3247	-0.23502	0.95072	0.15762
3.928	15.546	-18375	3247.1	-0.23463	0.95043	0.15762
3.93	15.53	-18372	3247.2	-0.23424	0.95014	0.15762
3.932	15.524	-18374	3247.5	-0.23346	0.94926	0.15811
3.934	15.523	-18377	3247.8	-0.23268	0.94838	0.1586
3.936	15.519	-18374	3248.1	-0.2319	0.9475	0.15909
3.938	15.509	-18372	3248.4	-0.23112	0.94662	0.15958
3.94	15.499	-18376	3248.8	-0.23034	0.94574	0.16006
3.942	15.497	-18380	3249.1	-0.2317	0.94701	0.16094
3.944	15.496	-18382	3249.5	-0.23307	0.94828	0.16182
3.946	15.495	-18383	3249.9	-0.23444	0.94955	0.1627
3.948	15.501	-18383	3250.3	-0.2358	0.95082	0.16358
3.95	15.506	-18383	3250.7	-0.23717	0.95209	0.16446
3.952	15.502	-18378	3251.1	-0.23785	0.95248	0.16446
3.954	15.495	-18373	3251.5	-0.23853	0.95287	0.16446
3.956	15.489	-18374	3251.9	-0.23922	0.95326	0.16446
3.958	15.483	-18374	3252.3	-0.2399	0.95365	0.16446
3.96	15.481	-18379	3252.7	-0.24058	0.95404	0.16446
3.962	15.484	-18383	3253.1	-0.24156	0.95248	0.16377
3.964	15.481	-18381	3253.6	-0.24254	0.95092	0.16309
3.966	15.48	-18379	3253.9	-0.24351	0.94936	0.16241
3.968	15.485	-18382	3254.2	-0.24449	0.94779	0.16172
3.97	15.489	-18385	3254.6	-0.24546	0.94623	0.16104
3.972	15.49	-18386	3254.8	-0.24517	0.94662	0.16114
3.974	15.503	-18387	3255.1	-0.24488	0.94701	0.16124
3.976	15.526	-18387	3255.4	-0.24459	0.9474	0.16133
3.978	15.541	-18387	3255.6	-0.24429	0.94779	0.16143
3.98	15.55	-18386	3255.8	-0.244	0.94818	0.16153
3.982	15.568	-18386	3256	-0.24507	0.94857	0.16143
3.984	15.584	-18385	3256.3	-0.24615	0.94896	0.16133
3.986	15.597	-18383	3256.4	-0.24722	0.94936	0.16124
3.988	15.603	-18384	3256.5	-0.24829	0.94975	0.16114
3.99	15.602	-18384	3256.7	-0.24937	0.95014	0.16104
3.992	15.595	-18387	3256.7	-0.25015	0.9515	0.16289
3.994	15.607	-18389	3256.8	-0.25093	0.95287	0.16475
3.996	15.619	-18390	3256.8	-0.25171	0.95424	0.1666
3.998	15.619	-18391	3256.9	-0.25249	0.9556	0.16846
4	15.619	-18395	3256.9	-0.25327	0.95697	0.17031
4.002	15.614	-18398	3256.9	-0.25386	0.95716	0.17041
4.004	15.624	-18390	3256.8	-0.25444	0.95736	0.17051
4.006	15.618	-18383	3256.7	-0.25503	0.95755	0.1706
4.008	15.612	-18383	3256.6	-0.25561	0.95775	0.1707
4.01	15.614	-18383	3256.5	-0.2562	0.95794	0.1708
4.012	15.627	-18384	3256.4	-0.25688	0.95677	0.17051
4.014	15.624	-18384	3256.3	-0.25757	0.9556	0.17021
4.016	15.625	-18387	3256.1	-0.25825	0.95443	0.16992
4.018	15.626	-18390	3255.8	-0.25893	0.95326	0.16963
4.02	15.621	-18390	3255.6	-0.25962	0.95209	0.16934
4.022	15.618	-18389	3255.3	-0.2602	0.95121	0.16875
4.024	15.62	-18392	3255	-0.26079	0.95033	0.16816
4.026	15.625	-18396	3254.7	-0.26137	0.94945	0.16758
4.028	15.624	-18388	3254.4	-0.26196	0.94857	0.16699
4.03	15.623	-18381	3254	-0.26254	0.9477	0.16641
4.032	15.631	-18378	3253.6	-0.26186	0.9476	0.16582
4.034	15.635	-18375	3253.2	-0.26118	0.9475	0.16524
4.036	15.63	-18377	3252.8	-0.26049	0.9474	0.16465
4.038	15.627	-18379	3252.3	-0.25981	0.94731	0.16407
4.04	15.622	-18377	3251.8	-0.25913	0.94721	0.16348
4.042	15.621	-18375	3251.3	-0.25913	0.9477	0.16387
4.044	15.631	-18383	3250.8	-0.25913	0.94818	0.16426
4.046	15.637	-18392	3250.2	-0.25913	0.94867	0.16465
4.048	15.633	-18393	3249.6	-0.25913	0.94916	0.16504
4.05	15.633	-18393	3249.1	-0.25913	0.94965	0.16543
4.052	15.64	-18394	3248.5	-0.25932	0.94838	0.16582
4.054	15.643	-18395	3247.9	-0.25952	0.94711	0.16621
4.056	15.636	-18393	3247.3	-0.25971	0.94584	0.1666
4.058	15.624	-18392	3246.7	-0.25991	0.94457	0.16699
4.06	15.625	-18391	3246.1	-0.2601	0.9433	0.16738
4.062	15.627	-18390	3245.5	-0.2603	0.94311	0.16758
4.064	15.632	-18386	3245	-0.26049	0.94291	0.16777
4.066	15.637	-18381	3244.4	-0.26069	0.94272	0.16797
4.068	15.634	-18381	3243.9	-0.26088	0.94252	0.16816
4.07	15.635	-18381	3243.3	-0.26108	0.94233	0.16836
4.072	15.641	-18382	3242.8	-0.26157	0.94204	0.16777
4.074	15.643	-18384	3242.3	-0.26206	0.94174	0.16719
4.076	15.639	-18384	3241.7	-0.26254	0.94145	0.1666
4.078	15.645	-18383	3241.2	-0.26303	0.94116	0.16602
4.08	15.644	-18384	3240.6	-0.26352	0.94086	0.16543
4.082	15.655	-18384	3240	-0.26128	0.94135	0.16475
4.084	15.643	-18392	3239.4	-0.25903	0.94184	0.16407
4.086	15.638	-18400	3238.9	-0.25679	0.94233	0.16338
4.088	15.616	-18396	3238.3	-0.25454	0.94282	0.1627
4.09	15.597	-18391	3237.7	-0.2523	0.9433	0.16202
4.092	15.58	-18390	3237.2	-0.25269	0.9435	0.16075
4.094	15.569	-18390	3236.6	-0.25308	0.94369	0.15948
4.096	15.561	-18386	3236	-0.25347	0.94389	0.15821
4.098	15.517	-18383	3235.5	-0.25386	0.94408	0.15694
4.1	15.483	-18385	3234.9	-0.25425	0.94428	0.15567
4.102	15.444	-18387	3234.4	-0.25513	0.94438	0.15479
4.104	15.393	-18388	3233.9	-0.256	0.94448	0.15392
4.106	15.329	-18388	3233.3	-0.25688	0.94457	0.15304
4.108	15.261	-18393	3232.8	-0.25776	0.94467	0.15216
4.11	15.204	-18397	3232.3	-0.25864	0.94477	0.15128
4.112	15.169	-18394	3231.8	-0.25805	0.94555	0.15206
4.114	15.159	-18391	3231.3	-0.25747	0.94633	0.15284
4.116	15.154	-18394	3230.8	-0.25688	0.94711	0.15362
4.118	15.146	-18397	3230.3	-0.2563	0.94789	0.1544
4.12	15.147	-18394	3229.9	-0.25571	0.94867	0.15518
4.122	15.148	-18392	3229.4	-0.25571	0.94887	0.15421
4.124	15.143	-18388	3229	-0.25571	0.94906	0.15323
4.126	15.151	-18384	3228.5	-0.25571	0.94926	0.15226
4.128	15.152	-18386	3228	-0.25571	0.94945	0.15128
4.13	15.133	-18388	3227.6	-0.25571	0.94965	0.1503
4.132	15.123	-18391	3227.1	-0.25571	0.94984	0.15001
4.134	15.099	-18394	3226.6	-0.25571	0.95004	0.14972
4.136	15.053	-18388	3226.1	-0.25571	0.95023	0.14943
4.138	15.041	-18383	3225.7	-0.25571	0.95043	0.14913
4.14	15.056	-18393	3225.2	-0.25571	0.95062	0.14884
4.142	15.061	-18403	3224.8	-0.25493	0.95053	0.14913
4.144	15.067	-18398	3224.4	-0.25415	0.95043	0.14943
4.146	15.09	-18393	3223.9	-0.25337	0.95033	0.14972
4.148	15.119	-18395	3223.5	-0.25259	0.95023	0.15001
4.15	15.152	-18398	3223.1	-0.25181	0.95014	0.1503
4.152	15.185	-18399	3222.7	-0.2522	0.95111	0.15089
4.154	15.221	-18401	3222.4	-0.25259	0.95209	0.15148
4.156	15.265	-18397	3222	-0.25298	0.95306	0.15206
4.158	15.312	-18393	3221.5	-0.25337	0.95404	0.15265
4.16	15.362	-18386	3221.1	-0.25376	0.95502	0.15323
4.162	15.403	-18380	3220.7	-0.25288	0.95424	0.15255
4.164	15.442	-18387	3220.4	-0.252	0.95345	0.15187
4.166	15.477	-18393	3220	-0.25112	0.95267	0.15118
4.168	15.497	-18398	3219.6	-0.25025	0.95189	0.1505
4.17	15.532	-18402	3219.2	-0.24937	0.95111	0.14982
4.172	15.564	-18404	3218.8	-0.2482	0.95072	0.14972
4.174	15.584	-18405	3218.5	-0.24703	0.95033	0.14962
4.176	15.603	-18404	3218.2	-0.24585	0.94994	0.14952
4.178	15.617	-18403	3217.9	-0.24468	0.94955	0.14943
4.18	15.639	-18394	3217.6	-0.24351	0.94916	0.14933
4.182	15.67	-18386	3217.3	-0.24351	0.95014	0.14913
4.184	15.688	-18390	3217	-0.24351	0.95111	0.14894
4.186	15.69	-18394	3216.7	-0.24351	0.95209	0.14874
4.188	15.689	-18398	3216.4	-0.24351	0.95306	0.14855
4.19	15.695	-18402	3216.1	-0.24351	0.95404	0.14835
4.192	15.697	-18403	3215.8	-0.24263	0.95345	0.14777
4.194	15.692	-18405	3215.5	-0.24176	0.95287	0.14718
4.196	15.682	-18399	3215.2	-0.24088	0.95228	0.1466
4.198	15.684	-18393	3215	-0.24	0.9517	0.14601
4.2	15.69	-18392	3214.7	-0.23912	0.95111	0.14542
4.202	15.688	-18392	3214.5	-0.24039	0.95072	0.1463
4.204	15.686	-18400	3214.3	-0.24166	0.95033	0.14718
4.206	15.683	-18408	3214.1	-0.24293	0.94994	0.14806
4.208	15.678	-18406	3213.9	-0.2442	0.94955	0.14894
4.21	15.672	-18404	3213.8	-0.24546	0.94916	0.14982
4.212	15.674	-18407	3213.7	-0.24595	0.94906	0.15089
4.214	15.68	-18410	3213.5	-0.24644	0.94896	0.15196
4.216	15.677	-18405	3213.5	-0.24693	0.94887	0.15304
4.218	15.674	-18399	3213.5	-0.24742	0.94877	0.15411
4.22	15.676	-18396	3213.5	-0.2479	0.94867	0.15518
4.222	15.67	-18393	3213.5	-0.24859	0.94975	0.15479
4.224	15.653	-18396	3213.6	-0.24927	0.95082	0.1544
4.226	15.641	-18399	3213.6	-0.24995	0.95189	0.15401
4.228	15.639	-18400	3213.7	-0.25064	0.95297	0.15362
4.23	15.64	-18400	3213.8	-0.25132	0.95404	0.15323
4.232	15.64	-18399	3213.9	-0.25112	0.95482	0.15411
4.234	15.644	-18398	3213.9	-0.25093	0.9556	0.15499
4.236	15.647	-18398	3214	-0.25073	0.95638	0.15587
4.238	15.638	-18399	3214.1	-0.25054	0.95716	0.15675
4.24	15.645	-18400	3214.2	-0.25034	0.95794	0.15762
4.242	15.641	-18402	3214.4	-0.25112	0.95775	0.15919
4.244	15.632	-18406	3214.6	-0.25191	0.95755	0.16075
4.246	15.622	-18409	3214.9	-0.25269	0.95736	0.16231
4.248	15.623	-18406	3215.3	-0.25347	0.95716	0.16387
4.25	15.624	-18403	3215.7	-0.25425	0.95697	0.16543
4.252	15.648	-18401	3216.6	-0.25561	0.95668	0.16641
4.254	15.647	-18400	3217.6	-0.25698	0.95638	0.16738
4.256	15.642	-18400	3218.9	-0.25835	0.95609	0.16836
4.258	15.639	-18399	3220.6	-0.25971	0.9558	0.16934
4.26	15.637	-18400	3222.4	-0.26108	0.9555	0.17031
4.262	15.634	-18400	3225.2	-0.26118	0.95365	0.16875
4.264	15.637	-18394	3228	-0.26128	0.9518	0.16719
4.266	15.659	-18387	3231.3	-0.26137	0.94994	0.16563
4.268	15.659	-18394	3235.3	-0.26147	0.94809	0.16407
4.27	15.65	-18402	3239.2	-0.26157	0.94623	0.1625
4.272	15.657	-18401	3244.2	-0.26118	0.94516	0.16221
4.274	15.663	-18401	3249.2	-0.26079	0.94408	0.16192
4.276	15.664	-18406	3254.6	-0.2604	0.94301	0.16163
4.278	15.664	-18410	3260.6	-0.26001	0.94194	0.16133
4.28	15.657	-18405	3266.5	-0.25962	0.94086	0.16104
4.282	15.661	-18400	3273.3	-0.25991	0.94067	0.16163
4.284	15.675	-18399	3280	-0.2602	0.94047	0.16221
4.286	15.681	-18397	3287.1	-0.26049	0.94028	0.1628
4.288	15.68	-18390	3294.5	-0.26079	0.94008	0.16338
4.29	15.675	-18382	3301.9	-0.26108	0.93989	0.16397
4.292	15.663	-18385	3309.6	-0.25942	0.93989	0.16299
4.294	15.665	-18388	3317.3	-0.25776	0.93989	0.16202
4.296	15.676	-18397	3324.9	-0.2561	0.93989	0.16104
4.298	15.68	-18407	3332.4	-0.25444	0.93989	0.16006
4.3	15.683	-18403	3339.9	-0.25278	0.93989	0.15909
4.302	15.689	-18399	3346.6	-0.25191	0.9394	0.15899
4.304	15.693	-18400	3353.4	-0.25103	0.93891	0.15889
4.306	15.695	-18401	3359.7	-0.25015	0.93842	0.1588
4.308	15.688	-18398	3365.4	-0.24927	0.93794	0.1587
4.31	15.673	-18395	3371.1	-0.24839	0.93745	0.1586
4.312	15.673	-18397	3375.7	-0.248	0.93842	0.15801
4.314	15.669	-18399	3380.2	-0.24761	0.9394	0.15743
4.316	15.668	-18403	3384.1	-0.24722	0.94038	0.15684
4.318	15.667	-18408	3387.5	-0.24683	0.94135	0.15626
4.32	15.662	-18405	3390.8	-0.24644	0.94233	0.15567
4.322	15.654	-18402	3393	-0.24683	0.94145	0.15518
4.324	15.641	-18403	3395.1	-0.24722	0.94057	0.1547
4.326	15.64	-18403	3396.8	-0.24761	0.93969	0.15421
4.328	15.631	-18405	3397.9	-0.248	0.93881	0.15372
4.33	15.628	-18406	3399.1	-0.24839	0.93794	0.15323
4.332	15.634	-18408	3399.4	-0.24868	0.94038	0.15216
4.334	15.619	-18410	3399.6	-0.24898	0.94282	0.15108
4.336	15.612	-18406	3399.5	-0.24927	0.94526	0.15001
4.338	15.598	-18402	3399	-0.24956	0.9477	0.14894
4.34	15.573	-18398	3398.6	-0.24986	0.95014	0.14786
4.342	15.569	-18393	3397.5	-0.24986	0.94975	0.14767
4.344	15.573	-18393	3396.5	-0.24986	0.94936	0.14747
4.346	15.575	-18393	3395.2	-0.24986	0.94896	0.14728
4.348	15.559	-18395	3393.8	-0.24986	0.94857	0.14708
4.35	15.55	-18397	3392.3	-0.24986	0.94818	0.14689
4.352	15.551	-18399	3390.5	-0.25122	0.94965	0.14884
4.354	15.542	-18401	3388.6	-0.25259	0.95111	0.15079
4.356	15.556	-18395	3386.7	-0.25396	0.95258	0.15274
4.358	15.554	-18390	3384.6	-0.25532	0.95404	0.1547
4.36	15.542	-18389	3382.6	-0.25669	0.9555	0.15665
4.362	15.545	-18389	3380.3	-0.25552	0.9558	0.15675
4.364	15.542	-18391	3378	-0.25435	0.95609	0.15684
4.366	15.538	-18393	3375.6	-0.25317	0.95638	0.15694
4.368	15.544	-18393	3373.2	-0.252	0.95668	0.15704
4.37	15.553	-18393	3370.8	-0.25083	0.95697	0.15714
4.372	15.566	-18392	3368.3	-0.25122	0.95697	0.15723
4.374	15.571	-18391	3365.7	-0.25161	0.95697	0.15733
4.376	15.568	-18391	3363.1	-0.252	0.95697	0.15743
4.378	15.569	-18390	3360.4	-0.25239	0.95697	0.15753
4.38	15.573	-18389	3357.7	-0.25278	0.95697	0.15762
4.382	15.568	-18388	3354.9	-0.25171	0.95589	0.1584
4.384	15.57	-18391	3352.2	-0.25064	0.95482	0.15919
4.386	15.585	-18394	3349.3	-0.24956	0.95375	0.15997
4.388	15.596	-18394	3346.4	-0.24849	0.95267	0.16075
4.39	15.6	-18394	3343.4	-0.24742	0.9516	0.16153
4.392	15.593	-18397	3340.5	-0.2479	0.95238	0.16153
4.394	15.588	-18401	3337.5	-0.24839	0.95316	0.16153
4.396	15.593	-18399	3334.6	-0.24888	0.95394	0.16153
4.398	15.59	-18398	3331.6	-0.24937	0.95472	0.16153
4.4	15.59	-18395	3328.6	-0.24986	0.9555	0.16153
4.402	15.597	-18393	3325.6	-0.24966	0.95482	0.16045
4.404	15.596	-18392	3322.7	-0.24947	0.95414	0.15938
4.406	15.597	-18392	3319.7	-0.24927	0.95345	0.15831
4.408	15.597	-18394	3316.7	-0.24908	0.95277	0.15723
4.41	15.597	-18397	3313.7	-0.24888	0.95209	0.15616
4.412	15.592	-18399	3310.8	-0.248	0.95228	0.15675
4.414	15.601	-18401	3307.9	-0.24712	0.95248	0.15733
4.416	15.606	-18395	3305	-0.24624	0.95267	0.15792
4.418	15.609	-18389	3302.1	-0.24537	0.95287	0.1585
4.42	15.601	-18387	3299.3	-0.24449	0.95306	0.15909
4.422	15.607	-18386	3296.5	-0.24478	0.95336	0.15899
4.424	15.608	-18384	3293.7	-0.24507	0.95365	0.15889
4.426	15.605	-18383	3291	-0.24537	0.95394	0.1588
4.428	15.603	-18389	3288.4	-0.24566	0.95424	0.1587
4.43	15.601	-18395	3285.7	-0.24595	0.95453	0.1586
4.432	15.619	-18394	3283.2	-0.24605	0.95433	0.15889
4.434	15.622	-18393	3280.8	-0.24615	0.95414	0.15919
4.436	15.629	-18388	3278.4	-0.24624	0.95394	0.15948
4.438	15.637	-18383	3276.1	-0.24634	0.95375	0.15977
4.44	15.63	-18381	3273.9	-0.24644	0.95355	0.16006
4.442	15.627	-18379	3271.8	-0.24546	0.95404	0.15967
4.444	15.628	-18383	3269.8	-0.24449	0.95453	0.15928
4.446	15.631	-18386	3267.9	-0.24351	0.95502	0.15889
4.448	15.643	-18384	3266	-0.24254	0.9555	0.1585
4.45	15.649	-18383	3264.2	-0.24156	0.95599	0.15811
4.452	15.647	-18384	3262.6	-0.24341	0.95521	0.15792
4.454	15.643	-18384	3260.9	-0.24527	0.95443	0.15772
4.456	15.64	-18386	3259.4	-0.24712	0.95365	0.15753
4.458	15.641	-18388	3258.1	-0.24898	0.95287	0.15733
4.46	15.651	-18386	3256.7	-0.25083	0.95209	0.15714
4.462	15.662	-18384	3255.5	-0.25112	0.9518	0.15655
4.464	15.666	-18385	3254.3	-0.25142	0.9515	0.15596
4.466	15.665	-18386	3253.2	-0.25171	0.95121	0.15538
4.468	15.654	-18390	3252.2	-0.252	0.95092	0.15479
4.47	15.64	-18395	3251.2	-0.2523	0.95062	0.15421
4.472	15.636	-18396	3250.4	-0.252	0.95092	0.1546
4.474	15.636	-18397	3249.7	-0.25171	0.95121	0.15499
4.476	15.639	-18395	3249	-0.25142	0.9515	0.15538
4.478	15.646	-18393	3248.4	-0.25112	0.9518	0.15577
4.48	15.653	-18394	3247.7	-0.25083	0.95209	0.15616
4.482	15.654	-18394	3247.3	-0.25152	0.95238	0.15626
4.484	15.642	-18389	3246.9	-0.2522	0.95267	0.15636
4.486	15.639	-18385	3246.5	-0.25288	0.95297	0.15645
4.488	15.648	-18386	3246.2	-0.25356	0.95326	0.15655
4.49	15.645	-18387	3245.9	-0.25425	0.95355	0.15665
4.492	15.623	-18384	3245.7	-0.25386	0.95355	0.15655
4.494	15.61	-18381	3245.5	-0.25347	0.95355	0.15645
4.496	15.614	-18384	3245.4	-0.25308	0.95355	0.15636
4.498	15.617	-18386	3245.4	-0.25269	0.95355	0.15626
4.5	15.614	-18389	3245.4	-0.2523	0.95355	0.15616
4.502	15.606	-18392	3245.6	-0.25376	0.95258	0.15528
4.504	15.611	-18390	3245.7	-0.25522	0.9516	0.1544
4.506	15.62	-18388	3245.9	-0.25669	0.95062	0.15352
4.508	15.611	-18387	3246	-0.25815	0.94965	0.15265
4.51	15.619	-18387	3246.2	-0.25962	0.94867	0.15177
4.512	15.628	-18389	3246.4	-0.25962	0.94867	0.15206
4.514	15.633	-18390	3246.6	-0.25962	0.94867	0.15235
4.516	15.632	-18388	3246.8	-0.25962	0.94867	0.15265
4.518	15.621	-18386	3247.1	-0.25962	0.94867	0.15294
4.52	15.619	-18386	3247.4	-0.25962	0.94867	0.15323
4.522	15.616	-18386	3247.6	-0.25874	0.94867	0.15235
4.524	15.617	-18388	3247.9	-0.25786	0.94867	0.15148
4.526	15.619	-18390	3248.2	-0.25698	0.94867	0.1506
4.528	15.625	-18397	3248.5	-0.2561	0.94867	0.14972
4.53	15.634	-18403	3248.8	-0.25522	0.94867	0.14884
4.532	15.624	-18396	3249	-0.25317	0.94867	0.14864
4.534	15.634	-18390	3249.3	-0.25112	0.94867	0.14845
4.536	15.649	-18388	3249.6	-0.24908	0.94867	0.14825
4.538	15.659	-18386	3249.8	-0.24703	0.94867	0.14806
4.54	15.68	-18394	3250	-0.24498	0.94867	0.14786
4.542	15.687	-18401	3250.2	-0.24605	0.9477	0.14864
4.544	15.691	-18397	3250.4	-0.24712	0.94672	0.14943
4.546	15.717	-18394	3250.6	-0.2482	0.94574	0.15021
4.548	15.744	-18400	3250.7	-0.24927	0.94477	0.15099
4.55	15.747	-18406	3250.9	-0.25034	0.94379	0.15177
4.552	15.743	-18402	3251	-0.25064	0.94565	0.15128
4.554	15.74	-18397	3251.1	-0.25093	0.9475	0.15079
4.556	15.733	-18393	3251.2	-0.25122	0.94936	0.1503
4.558	15.735	-18390	3251.3	-0.25152	0.95121	0.14982
4.56	15.743	-18393	3251.4	-0.25181	0.95306	0.14933
4.562	15.744	-18396	3251.4	-0.24986	0.95238	0.14845
4.564	15.743	-18396	3251.4	-0.2479	0.9517	0.14757
4.566	15.748	-18397	3251.3	-0.24595	0.95101	0.14669
4.568	15.755	-18397	3251.3	-0.244	0.95033	0.14581
4.57	15.748	-18398	3251.3	-0.24205	0.94965	0.14494
4.572	15.745	-18398	3251.2	-0.24293	0.95004	0.14572
4.574	15.751	-18398	3251.1	-0.2438	0.95043	0.1465
4.576	15.747	-18399	3251	-0.24468	0.95082	0.14728
4.578	15.752	-18400	3250.9	-0.24556	0.95121	0.14806
4.58	15.745	-18403	3250.8	-0.24644	0.9516	0.14884
4.582	15.751	-18407	3250.6	-0.24761	0.95228	0.15001
4.584	15.761	-18403	3250.4	-0.24878	0.95297	0.15118
4.586	15.762	-18400	3250.2	-0.24995	0.95365	0.15235
4.588	15.765	-18397	3250	-0.25112	0.95433	0.15352
4.59	15.763	-18394	3249.8	-0.2523	0.95502	0.1547
4.592	15.755	-18394	3249.6	-0.25142	0.95443	0.1546
4.594	15.759	-18394	3249.4	-0.25054	0.95384	0.1545
4.596	15.769	-18399	3249.2	-0.24966	0.95326	0.1544
4.598	15.767	-18404	3248.9	-0.24878	0.95267	0.15431
4.6	15.778	-18397	3248.6	-0.2479	0.95209	0.15421
4.602	15.765	-18389	3248.4	-0.24732	0.95199	0.1547
4.604	15.776	-18394	3248.2	-0.24673	0.95189	0.15518
4.606	15.774	-18400	3247.9	-0.24615	0.9518	0.15567
4.608	15.773	-18400	3247.7	-0.24556	0.9517	0.15616
4.61	15.78	-18401	3247.5	-0.24498	0.9516	0.15665
4.612	15.778	-18397	3247.2	-0.24527	0.9518	0.15704
4.614	15.778	-18394	3246.9	-0.24556	0.95199	0.15743
4.616	15.781	-18398	3246.7	-0.24585	0.95219	0.15782
4.618	15.784	-18402	3246.4	-0.24615	0.95238	0.15821
4.62	15.782	-18401	3246.1	-0.24644	0.95258	0.1586
4.622	15.777	-18400	3245.8	-0.24546	0.95336	0.15821
4.624	15.782	-18404	3245.4	-0.24449	0.95414	0.15782
4.626	15.79	-18407	3245.1	-0.24351	0.95492	0.15743
4.628	15.778	-18406	3244.8	-0.24254	0.9557	0.15704
4.63	15.763	-18405	3244.5	-0.24156	0.95648	0.15665
4.632	15.763	-18400	3244.1	-0.24185	0.95609	0.15684
4.634	15.769	-18396	3243.8	-0.24215	0.9557	0.15704
4.636	15.777	-18406	3243.4	-0.24244	0.95531	0.15723
4.638	15.777	-18416	3243	-0.24273	0.95492	0.15743
4.64	15.778	-18414	3242.6	-0.24302	0.95453	0.15762
4.642	15.791	-18412	3242.2	-0.2441	0.95384	0.15714
4.644	15.812	-18410	3241.8	-0.24517	0.95316	0.15665
4.646	15.818	-18408	3241.5	-0.24624	0.95248	0.15616
4.648	15.802	-18403	3241.1	-0.24732	0.9518	0.15567
4.65	15.793	-18398	3240.6	-0.24839	0.95111	0.15518
4.652	15.782	-18398	3240.2	-0.24839	0.9515	0.15499
4.654	15.768	-18397	3239.7	-0.24839	0.95189	0.15479
4.656	15.756	-18392	3239.3	-0.24839	0.95228	0.1546
4.658	15.741	-18388	3238.8	-0.24839	0.95267	0.1544
4.66	15.707	-18397	3238.4	-0.24839	0.95306	0.15421
4.662	15.668	-18407	3237.8	-0.248	0.95238	0.15323
4.664	15.622	-18401	3237.3	-0.24761	0.9517	0.15226
4.666	15.56	-18394	3236.8	-0.24722	0.95101	0.15128
4.668	15.505	-18394	3236.3	-0.24683	0.95033	0.1503
4.67	15.458	-18393	3235.9	-0.24644	0.94965	0.14933
4.672	15.415	-18397	3235.3	-0.24703	0.94936	0.14923
4.674	15.39	-18401	3234.8	-0.24761	0.94906	0.14913
4.676	15.374	-18401	3234.3	-0.2482	0.94877	0.14904
4.678	15.361	-18401	3233.8	-0.24878	0.94848	0.14894
4.68	15.358	-18400	3233.3	-0.24937	0.94818	0.14884
4.682	15.376	-18398	3232.9	-0.24859	0.9475	0.14855
4.684	15.393	-18398	3232.4	-0.24781	0.94682	0.14825
4.686	15.385	-18397	3231.9	-0.24703	0.94613	0.14796
4.688	15.393	-18398	3231.3	-0.24624	0.94545	0.14767
4.69	15.389	-18399	3230.8	-0.24546	0.94477	0.14738
