t	ekg	optical	pressure	accel_x	accel_y	accel_z
0	-11.705	-34816	2205.4	0.256	0.18339	0.95072
0.002	-11.712	-34818	2205.3	0.2561	0.18271	0.95043
0.004	-11.706	-34821	2205.2	0.2562	0.18202	0.95014
0.006	-11.667	-34823	2205.1	0.2563	0.18134	0.94984
0.008	-11.657	-34821	2205	0.2564	0.18066	0.94955
0.01	-11.695	-34818	2205	0.25649	0.17997	0.94926
0.012	-11.714	-34817	2205	0.25659	0.17929	0.94896
0.014	-11.698	-34815	2205.1	0.25669	0.17861	0.94867
0.016	-11.701	-34819	2205.2	0.25659	0.17919	0.94672
0.018	-11.762	-34824	2205.3	0.25649	0.17978	0.94477
0.02	-11.781	-34825	2205.4	0.2564	0.18036	0.94282
0.022	-11.778	-34826	2205.5	0.2563	0.18095	0.94086
0.024	-11.769	-34826	2205.6	0.2562	0.18154	0.93891
0.026	-11.758	-34827	2205.7	0.25727	0.18232	0.9395
0.028	-11.71	-34827	2205.8	0.25835	0.1831	0.94008
0.03	-11.685	-34827	2205.9	0.25942	0.18388	0.94067
0.032	-11.66	-34827	2206	0.26049	0.18466	0.94125
0.034	-11.625	-34827	2206.1	0.26157	0.18544	0.94184
0.036	-11.638	-34828	2206.1	0.25874	0.18495	0.94301
0.038	-11.673	-34829	2206.2	0.25591	0.18446	0.94418
0.04	-11.742	-34828	2206.2	0.25308	0.18398	0.94535
0.042	-11.752	-34827	2206.2	0.25025	0.18349	0.94652
0.044	-11.748	-34827	2206.2	0.24742	0.183	0.9477
0.046	-11.742	-34827	2206.2	0.24937	0.18183	0.94975
0.048	-11.784	-34826	2206.2	0.25132	0.18066	0.9518
0.05	-11.793	-34826	2206.1	0.25327	0.17949	0.95384
0.052	-11.657	-34828	2206	0.25522	0.17832	0.95589
0.054	-11.62	-34831	2206	0.25718	0.17714	0.95794
0.056	-11.667	-34832	2205.9	0.25571	0.17666	0.95921
0.058	-11.697	-34833	2205.8	0.25425	0.17617	0.96048
0.06	-11.727	-34833	2205.7	0.25278	0.17568	0.96175
0.062	-11.745	-34833	2205.5	0.25132	0.17519	0.96302
0.064	-11.724	-34835	2205.4	0.24986	0.1747	0.96429
0.066	-11.701	-34837	2205.3	0.25034	0.17548	0.96321
0.068	-11.679	-34839	2205.2	0.25083	0.17627	0.96214
0.07	-11.667	-34841	2205.1	0.25132	0.17705	0.96107
0.072	-11.682	-34841	2205.1	0.25181	0.17783	0.95999
0.074	-11.709	-34841	2205	0.2523	0.17861	0.95892
0.076	-11.72	-34844	2205	0.25317	0.17812	0.95872
0.078	-11.742	-34847	2204.9	0.25405	0.17763	0.95853
0.08	-11.738	-34848	2204.9	0.25493	0.17714	0.95833
0.082	-11.682	-34848	2204.8	0.25581	0.17666	0.95814
0.084	-11.674	-34848	2204.7	0.25669	0.17617	0.95794
0.086	-11.717	-34848	2204.5	0.25552	0.17607	0.95736
0.088	-11.74	-34851	2204.4	0.25435	0.17597	0.95677
0.09	-11.732	-34853	2204.3	0.25317	0.17588	0.95619
0.092	-11.683	-34852	2204.2	0.252	0.17578	0.9556
0.094	-11.673	-34851	2204.1	0.25083	0.17568	0.95502
0.096	-11.698	-34850	2204.1	0.25122	0.17539	0.95531
0.098	-11.735	-34850	2204	0.25161	0.17509	0.9556
0.1	-11.775	-34851	2204	0.252	0.1748	0.95589
0.102	-11.736	-34852	2204.1	0.25239	0.17451	0.95619
0.104	-11.68	-34850	2204.1	0.25278	0.17422	0.95648
0.106	-11.7	-34848	2204	0.25288	0.17451	0.95638
0.108	-11.697	-34848	2204	0.25298	0.1748	0.95628
0.11	-11.635	-34848	2204	0.25308	0.17509	0.95619
0.112	-11.65	-34853	2203.9	0.25317	0.17539	0.95609
0.114	-11.688	-34858	2203.9	0.25327	0.17568	0.95599
0.116	-11.712	-34857	2203.8	0.25425	0.17666	0.95638
0.118	-11.713	-34857	2203.7	0.25522	0.17763	0.95677
0.12	-11.703	-34861	2203.6	0.2562	0.17861	0.95716
0.122	-11.697	-34865	2203.5	0.25718	0.17958	0.95755
0.124	-11.62	-34867	2203.5	0.25815	0.18056	0.95794
0.126	-11.627	-34869	2203.4	0.25854	0.18085	0.95726
0.128	-11.674	-34868	2203.2	0.25893	0.18115	0.95658
0.13	-11.7	-34867	2203.1	0.25932	0.18144	0.95589
0.132	-11.721	-34869	2203.1	0.25971	0.18173	0.95521
0.134	-11.677	-34870	2203	0.2601	0.18202	0.95453
0.136	-11.628	-34876	2202.9	0.25991	0.18271	0.95453
0.138	-11.632	-34881	2202.9	0.25971	0.18339	0.95453
0.14	-11.669	-34879	2202.8	0.25952	0.18407	0.95453
0.142	-11.671	-34876	2202.8	0.25932	0.18476	0.95453
0.144	-11.669	-34876	2202.9	0.25913	0.18544	0.95453
0.146	-11.658	-34877	2203	0.25942	0.18603	0.95482
0.148	-11.62	-34873	2203.1	0.25971	0.18661	0.95511
0.15	-11.602	-34869	2203.3	0.26001	0.1872	0.95541
0.152	-11.648	-34873	2203.6	0.2603	0.18778	0.9557
0.154	-11.695	-34877	2203.8	0.26059	0.18837	0.95599
0.156	-11.72	-34885	2204.2	0.2603	0.18817	0.95541
0.158	-11.703	-34893	2204.5	0.26001	0.18798	0.95482
0.16	-11.663	-34893	2204.9	0.25971	0.18778	0.95424
0.162	-11.654	-34894	2205.3	0.25942	0.18759	0.95365
0.164	-11.664	-34894	2205.7	0.25913	0.18739	0.95306
0.166	-11.63	-34894	2206.1	0.25991	0.18739	0.95424
0.168	-11.587	-34888	2206.5	0.26069	0.18739	0.95541
0.17	-11.606	-34882	2206.8	0.26147	0.18739	0.95658
0.172	-11.659	-34882	2207.3	0.26225	0.18739	0.95775
0.174	-11.703	-34882	2207.7	0.26303	0.18739	0.95892
0.176	-11.734	-34886	2208.1	0.26313	0.18524	0.96009
0.178	-11.729	-34889	2208.6	0.26323	0.1831	0.96126
0.18	-11.672	-34883	2209	0.26332	0.18095	0.96243
0.182	-11.608	-34877	2209.5	0.26342	0.1788	0.9636
0.184	-11.572	-34880	2210	0.26352	0.17666	0.96478
0.186	-11.551	-34883	2210.3	0.26245	0.17763	0.96458
0.188	-11.545	-34885	2210.7	0.26137	0.17861	0.96439
0.19	-11.558	-34887	2211.1	0.2603	0.17958	0.96419
0.192	-11.541	-34887	2211.4	0.25923	0.18056	0.964
0.194	-11.582	-34886	2211.8	0.25815	0.18154	0.9638
0.196	-11.633	-34881	2212	0.25864	0.18056	0.96487
0.198	-11.643	-34876	2212.3	0.25913	0.17958	0.96595
0.2	-11.623	-34879	2212.6	0.25962	0.17861	0.96702
0.202	-11.651	-34882	2212.9	0.2601	0.17763	0.96809
0.204	-11.658	-34884	2213.2	0.26059	0.17666	0.96917
0.206	-11.659	-34887	2213.5	0.26118	0.17714	0.96966
0.208	-11.636	-34878	2213.9	0.26176	0.17763	0.97014
0.21	-11.603	-34869	2214.2	0.26235	0.17812	0.97063
0.212	-11.579	-34865	2214.6	0.26293	0.17861	0.97112
0.214	-11.605	-34862	2214.9	0.26352	0.1791	0.97161
0.216	-11.576	-34866	2215.3	0.26186	0.17851	0.97092
0.218	-11.569	-34870	2215.6	0.2602	0.17792	0.97024
0.22	-11.585	-34862	2215.9	0.25854	0.17734	0.96956
0.222	-11.598	-34853	2216.2	0.25688	0.17675	0.96888
0.224	-11.612	-34853	2216.5	0.25522	0.17617	0.96819
0.226	-11.643	-34852	2216.7	0.25454	0.17656	0.96761
0.228	-11.692	-34852	2217	0.25386	0.17695	0.96702
0.23	-11.695	-34852	2217.2	0.25317	0.17734	0.96644
0.232	-11.691	-34848	2217.4	0.25249	0.17773	0.96585
0.234	-11.702	-34845	2217.6	0.25181	0.17812	0.96526
0.236	-11.687	-34838	2217.7	0.25269	0.17871	0.96565
0.238	-11.664	-34831	2217.9	0.25356	0.17929	0.96604
0.24	-11.67	-34829	2218	0.25444	0.17988	0.96644
0.242	-11.684	-34826	2218.1	0.25532	0.18046	0.96683
0.244	-11.675	-34825	2218.2	0.2562	0.18105	0.96722
0.246	-11.634	-34825	2218.2	0.25679	0.18115	0.9678
0.248	-11.622	-34827	2218.2	0.25737	0.18124	0.96839
0.25	-11.649	-34829	2218.2	0.25796	0.18134	0.96897
0.252	-11.661	-34815	2218.1	0.25854	0.18144	0.96956
0.254	-11.668	-34802	2218	0.25913	0.18154	0.97014
0.256	-11.697	-34800	2218	0.25757	0.18085	0.96917
0.258	-11.728	-34798	2217.9	0.256	0.18017	0.96819
0.26	-11.737	-34798	2217.8	0.25444	0.17949	0.96722
0.262	-11.714	-34797	2217.7	0.25288	0.1788	0.96624
0.264	-11.681	-34786	2217.7	0.25132	0.17812	0.96526
0.266	-11.672	-34775	2217.7	0.25044	0.1788	0.96487
0.268	-11.691	-34775	2217.7	0.24956	0.17949	0.96448
0.27	-11.652	-34775	2217.8	0.24868	0.18017	0.96409
0.272	-11.644	-34774	2217.8	0.24781	0.18085	0.9637
0.274	-11.678	-34773	2217.9	0.24693	0.18154	0.96331
0.276	-11.717	-34768	2217.9	0.24839	0.18163	0.96185
0.278	-11.713	-34763	2218	0.24986	0.18173	0.96038
0.28	-11.69	-34763	2218	0.25132	0.18183	0.95892
0.282	-11.688	-34762	2218	0.25278	0.18193	0.95746
0.284	-11.701	-34754	2218.1	0.25425	0.18202	0.95599
0.286	-11.689	-34746	2218	0.25493	0.183	0.95668
0.288	-11.701	-34744	2217.9	0.25561	0.18398	0.95736
0.29	-11.708	-34742	2217.8	0.2563	0.18495	0.95804
0.292	-11.703	-34745	2217.8	0.25698	0.18593	0.95872
0.294	-11.743	-34748	2217.8	0.25766	0.1869	0.95941
0.296	-11.817	-34741	2217.7	0.25776	0.18593	0.95902
0.298	-11.857	-34733	2217.6	0.25786	0.18495	0.95863
0.3	-11.802	-34727	2217.5	0.25796	0.18398	0.95824
0.302	-11.693	-34721	2217.4	0.25805	0.183	0.95785
0.304	-11.672	-34724	2217.3	0.25815	0.18202	0.95746
0.306	-11.683	-34728	2217.2	0.25796	0.18202	0.95824
0.308	-11.707	-34719	2217	0.25776	0.18202	0.95902
0.31	-11.726	-34710	2216.8	0.25757	0.18202	0.9598
0.312	-11.731	-34709	2216.6	0.25737	0.18202	0.96058
0.314	-11.722	-34708	2216.5	0.25718	0.18202	0.96136
0.316	-11.699	-34710	2216.3	0.25688	0.18095	0.96312
0.318	-11.67	-34713	2216.1	0.25659	0.17988	0.96487
0.32	-11.697	-34713	2215.9	0.2563	0.1788	0.96663
0.322	-11.732	-34713	2215.8	0.256	0.17773	0.96839
0.324	-11.721	-34703	2215.7	0.25571	0.17666	0.97014
0.326	-11.667	-34693	2215.5	0.25444	0.17636	0.96868
0.328	-11.654	-34691	2215.4	0.25317	0.17607	0.96722
0.33	-11.693	-34690	2215.3	0.25191	0.17578	0.96575
0.332	-11.731	-34691	2215.1	0.25064	0.17548	0.96429
0.334	-11.778	-34692	2215	0.24937	0.17519	0.96282
0.336	-11.815	-34696	2214.8	0.25112	0.17607	0.96175
0.338	-11.805	-34699	2214.6	0.25288	0.17695	0.96068
0.34	-11.756	-34695	2214.4	0.25464	0.17783	0.9596
0.342	-11.669	-34691	2214.1	0.2564	0.17871	0.95853
0.344	-11.632	-34692	2213.9	0.25815	0.17958	0.95746
0.346	-11.683	-34694	2213.6	0.25854	0.17939	0.95707
0.348	-11.701	-34693	2213.2	0.25893	0.17919	0.95668
0.35	-11.701	-34693	2212.9	0.25932	0.179	0.95628
0.352	-11.687	-34687	2212.5	0.25971	0.1788	0.95589
0.354	-11.658	-34680	2212.2	0.2601	0.17861	0.9555
0.356	-11.619	-34682	2211.9	0.25962	0.17871	0.95521
0.358	-11.635	-34683	2211.6	0.25913	0.1788	0.95492
0.36	-11.683	-34681	2211.4	0.25864	0.1789	0.95463
0.362	-11.732	-34680	2211.2	0.25815	0.179	0.95433
0.364	-11.707	-34677	2211	0.25766	0.1791	0.95404
0.366	-11.704	-34675	2210.9	0.25786	0.1788	0.95394
0.368	-11.744	-34674	2210.8	0.25805	0.17851	0.95384
0.37	-11.765	-34673	2210.7	0.25825	0.17822	0.95375
0.372	-11.741	-34675	2210.6	0.25844	0.17792	0.95365
0.374	-11.737	-34676	2210.4	0.25864	0.17763	0.95355
0.376	-11.677	-34677	2210.4	0.25923	0.17832	0.95287
0.378	-11.659	-34677	2210.3	0.25981	0.179	0.95219
0.38	-11.691	-34671	2210.3	0.2604	0.17968	0.9515
0.382	-11.78	-34665	2210.2	0.26098	0.18036	0.95082
0.384	-11.822	-34669	2210.2	0.26157	0.18105	0.95014
0.386	-11.761	-34674	2210.1	0.2601	0.18007	0.95053
0.388	-11.681	-34677	2210.1	0.25864	0.1791	0.95092
0.39	-11.652	-34681	2210.1	0.25718	0.17812	0.95131
0.392	-11.624	-34672	2210.2	0.25571	0.17714	0.9517
0.394	-11.643	-34664	2210.2	0.25425	0.17617	0.95209
0.396	-11.679	-34672	2210.2	0.25532	0.17705	0.95189
0.398	-11.697	-34680	2210.2	0.2564	0.17792	0.9517
0.4	-11.713	-34681	2210.2	0.25747	0.1788	0.9515
0.402	-11.738	-34681	2210.2	0.25854	0.17968	0.95131
0.404	-11.758	-34677	2210.2	0.25962	0.18056	0.95111
0.406	-11.761	-34673	2210.3	0.25835	0.17949	0.95101
0.408	-11.754	-34673	2210.3	0.25708	0.17841	0.95092
0.41	-11.73	-34672	2210.3	0.25581	0.17734	0.95082
0.412	-11.701	-34672	2210.3	0.25454	0.17627	0.95072
0.414	-11.702	-34673	2210.3	0.25327	0.17519	0.95062
0.416	-11.724	-34678	2210.3	0.25425	0.17539	0.95082
0.418	-11.727	-34683	2210.2	0.25522	0.17558	0.95101
0.42	-11.731	-34677	2210.3	0.2562	0.17578	0.95121
0.422	-11.718	-34671	2210.3	0.25718	0.17597	0.9514
0.424	-11.717	-34676	2210.3	0.25815	0.17617	0.9516
0.426	-11.753	-34682	2210.3	0.25844	0.17705	0.95209
0.428	-11.768	-34677	2210.3	0.25874	0.17792	0.95258
0.43	-11.759	-34672	2210.3	0.25903	0.1788	0.95306
0.432	-11.713	-34669	2210.2	0.25932	0.17968	0.95355
0.434	-11.673	-34666	2210.2	0.25962	0.18056	0.95404
0.436	-11.667	-34666	2210.2	0.26049	0.18036	0.95384
0.438	-11.686	-34667	2210.1	0.26137	0.18017	0.95365
0.44	-11.705	-34672	2210	0.26225	0.17997	0.95345
0.442	-11.717	-34678	2210	0.26313	0.17978	0.95326
0.444	-11.741	-34672	2209.9	0.26401	0.17958	0.95306
0.446	-11.746	-34666	2209.9	0.2645	0.17832	0.95277
0.448	-11.744	-34666	2209.8	0.26498	0.17705	0.95248
0.45	-11.711	-34665	2209.8	0.26547	0.17578	0.95219
0.452	-11.63	-34671	2209.8	0.26596	0.17451	0.95189
0.454	-11.654	-34677	2209.8	0.26645	0.17324	0.9516
0.456	-11.7	-34673	2209.9	0.26528	0.17461	0.94955
0.458	-11.727	-34669	2210	0.26411	0.17597	0.9475
0.46	-11.695	-34667	2210.1	0.26293	0.17734	0.94545
0.462	-11.689	-34666	2210.2	0.26176	0.17871	0.9434
0.464	-11.729	-34665	2210.3	0.26059	0.18007	0.94135
0.466	-11.766	-34663	2210.4	0.26176	0.17958	0.94194
0.468	-11.755	-34663	2210.5	0.26293	0.1791	0.94252
0.47	-11.726	-34662	2210.6	0.26411	0.17861	0.94311
0.472	-11.73	-34662	2210.7	0.26528	0.17812	0.94369
0.474	-11.793	-34662	2210.8	0.26645	0.17763	0.94428
0.476	-11.814	-34661	2210.8	0.26547	0.17792	0.94418
0.478	-11.739	-34660	2210.8	0.2645	0.17822	0.94408
0.48	-11.703	-34666	2210.9	0.26352	0.17851	0.94399
0.482	-11.671	-34672	2210.9	0.26254	0.1788	0.94389
0.484	-11.686	-34669	2210.9	0.26157	0.1791	0.94379
0.486	-11.744	-34666	2210.8	0.26108	0.17949	0.94448
0.488	-11.761	-34666	2210.8	0.26059	0.17988	0.94516
0.49	-11.751	-34665	2210.7	0.2601	0.18027	0.94584
0.492	-11.731	-34663	2210.7	0.25962	0.18066	0.94652
0.494	-11.715	-34662	2210.6	0.25913	0.18105	0.94721
0.496	-11.712	-34654	2210.6	0.2603	0.18134	0.94672
0.498	-11.702	-34646	2210.5	0.26147	0.18163	0.94623
0.5	-11.693	-34645	2210.4	0.26264	0.18193	0.94574
0.502	-11.695	-34644	2210.4	0.26381	0.18222	0.94526
0.504	-11.723	-34643	2210.4	0.26498	0.18251	0.94477
0.506	-11.78	-34642	2210.2	0.26332	0.18212	0.94516
0.508	-11.832	-34650	2210.1	0.26167	0.18173	0.94555
0.51	-11.818	-34657	2210	0.26001	0.18134	0.94594
0.512	-11.732	-34658	2209.9	0.25835	0.18095	0.94633
0.514	-11.705	-34659	2209.8	0.25669	0.18056	0.94672
0.516	-11.782	-34650	2209.6	0.25796	0.18085	0.94633
0.518	-11.807	-34642	2209.5	0.25923	0.18115	0.94594
0.52	-11.729	-34646	2209.4	0.26049	0.18144	0.94555
0.522	-11.643	-34650	2209.3	0.26176	0.18173	0.94516
0.524	-11.642	-34644	2209.3	0.26303	0.18202	0.94477
0.526	-11.669	-34638	2209.2	0.26264	0.18251	0.94418
0.528	-11.685	-34640	2209.1	0.26225	0.183	0.9436
0.53	-11.721	-34642	2209	0.26186	0.18349	0.94301
0.532	-11.731	-34647	2208.8	0.26147	0.18398	0.94243
0.534	-11.714	-34652	2208.7	0.26108	0.18446	0.94184
0.536	-11.758	-34651	2208.6	0.26098	0.18427	0.94233
0.538	-11.78	-34651	2208.5	0.26088	0.18407	0.94282
0.54	-11.751	-34650	2208.4	0.26079	0.18388	0.9433
0.542	-11.74	-34648	2208.4	0.26069	0.18368	0.94379
0.544	-11.709	-34643	2208.3	0.26059	0.18349	0.94428
0.546	-11.7	-34637	2208.1	0.26049	0.18339	0.94457
0.548	-11.707	-34638	2207.9	0.2604	0.18329	0.94487
0.55	-11.726	-34640	2207.8	0.2603	0.1832	0.94516
0.552	-11.745	-34639	2207.7	0.2602	0.1831	0.94545
0.554	-11.8	-34638	2207.6	0.2601	0.183	0.94574
0.556	-11.79	-34633	2207.5	0.25952	0.1832	0.94701
0.558	-11.711	-34628	2207.3	0.25893	0.18339	0.94828
0.56	-11.647	-34641	2207.2	0.25835	0.18359	0.94955
0.562	-11.687	-34653	2207.1	0.25776	0.18378	0.95082
0.564	-11.756	-34647	2207	0.25718	0.18398	0.95209
0.566	-11.802	-34641	2206.9	0.25786	0.18359	0.95228
0.568	-11.829	-34635	2206.7	0.25854	0.1832	0.95248
0.57	-11.817	-34629	2206.6	0.25923	0.1828	0.95267
0.572	-11.732	-34632	2206.4	0.25991	0.18241	0.95287
0.574	-11.676	-34635	2206.3	0.26059	0.18202	0.95306
0.576	-11.667	-34637	2206.1	0.25962	0.18202	0.95267
0.578	-11.704	-34639	2205.9	0.25864	0.18202	0.95228
0.58	-11.73	-34643	2205.7	0.25766	0.18202	0.95189
0.582	-11.731	-34647	2205.6	0.25669	0.18202	0.9515
0.584	-11.732	-34645	2205.5	0.25571	0.18202	0.95111
0.586	-11.712	-34644	2205.4	0.2563	0.18183	0.9514
0.588	-11.701	-34645	2205.4	0.25688	0.18163	0.9517
0.59	-11.708	-34645	2205.4	0.25747	0.18144	0.95199
0.592	-11.719	-34643	2205.3	0.25805	0.18124	0.95228
0.594	-11.734	-34641	2205.3	0.25864	0.18105	0.95258
0.596	-11.725	-34644	2205.1	0.25903	0.18046	0.95326
0.598	-11.719	-34647	2205	0.25942	0.17988	0.95394
0.6	-11.757	-34646	2204.8	0.25981	0.17929	0.95463
0.602	-11.776	-34645	2204.7	0.2602	0.17871	0.95531
0.604	-11.722	-34641	2204.6	0.26059	0.17812	0.95599
0.606	-11.638	-34636	2204.4	0.26157	0.17841	0.95599
0.608	-11.606	-34642	2204.2	0.26254	0.17871	0.95599
0.61	-11.651	-34647	2204.1	0.26352	0.179	0.95599
0.612	-11.65	-34647	2204.1	0.2645	0.17929	0.95599
0.614	-11.622	-34647	2204	0.26547	0.17958	0.95599
0.616	-11.663	-34645	2204	0.2644	0.17939	0.95716
0.618	-11.695	-34644	2204	0.26332	0.17919	0.95833
0.62	-11.698	-34644	2204	0.26225	0.179	0.95951
0.622	-11.672	-34645	2204	0.26118	0.1788	0.96068
0.624	-11.68	-34645	2203.9	0.2601	0.17861	0.96185
0.626	-11.722	-34646	2203.9	0.26186	0.17783	0.96136
0.628	-11.723	-34645	2204	0.26362	0.17705	0.96087
0.63	-11.716	-34643	2204	0.26537	0.17627	0.96038
0.632	-11.733	-34643	2204	0.26713	0.17548	0.9599
0.634	-11.75	-34642	2204	0.26889	0.1747	0.95941
0.636	-11.76	-34644	2204	0.26684	0.1747	0.96019
0.638	-11.712	-34645	2204	0.26479	0.1747	0.96097
0.64	-11.699	-34647	2203.9	0.26274	0.1747	0.96175
0.642	-11.725	-34648	2203.9	0.26069	0.1747	0.96253
0.644	-11.724	-34648	2203.8	0.25864	0.1747	0.96331
0.646	-11.741	-34648	2203.7	0.25991	0.17558	0.9637
0.648	-11.68	-34650	2203.6	0.26118	0.17646	0.96409
0.65	-11.641	-34653	2203.5	0.26245	0.17734	0.96448
0.652	-11.644	-34650	2203.5	0.26372	0.17822	0.96487
0.654	-11.645	-34647	2203.4	0.26498	0.1791	0.96526
0.656	-11.653	-34650	2203.4	0.26489	0.17871	0.96487
0.658	-11.737	-34652	2203.5	0.26479	0.17832	0.96448
0.66	-11.77	-34655	2203.5	0.26469	0.17792	0.96409
0.662	-11.723	-34657	2203.5	0.26459	0.17753	0.9637
0.664	-11.672	-34654	2203.5	0.2645	0.17714	0.96331
0.666	-11.678	-34651	2203.5	0.26411	0.17705	0.9636
0.668	-11.701	-34651	2203.5	0.26372	0.17695	0.9639
0.67	-11.736	-34652	2203.5	0.26332	0.17685	0.96419
0.672	-11.765	-34654	2203.5	0.26293	0.17675	0.96448
0.674	-11.777	-34656	2203.4	0.26254	0.17666	0.96478
0.676	-11.76	-34654	2203.4	0.26391	0.17627	0.9638
0.678	-11.758	-34652	2203.3	0.26528	0.17588	0.96282
0.68	-11.779	-34656	2203.3	0.26664	0.17548	0.96185
0.682	-11.76	-34661	2203.2	0.26801	0.17509	0.96087
0.684	-11.701	-34665	2203.1	0.26938	0.1747	0.9599
0.686	-11.671	-34669	2203	0.26752	0.17568	0.96058
0.688	-11.715	-34666	2203	0.26567	0.17666	0.96126
0.69	-11.75	-34664	2202.8	0.26381	0.17763	0.96195
0.692	-11.742	-34663	2202.6	0.26196	0.17861	0.96263
0.694	-11.744	-34662	2202.4	0.2601	0.17958	0.96331
0.696	-11.785	-34660	2202.2	0.26157	0.17851	0.9638
0.698	-11.806	-34659	2202	0.26303	0.17744	0.96429
0.7	-11.755	-34665	2201.7	0.2645	0.17636	0.96478
0.702	-11.748	-34672	2201.4	0.26596	0.17529	0.96526
0.704	-11.749	-34670	2201.2	0.26742	0.17422	0.96575
0.706	-11.661	-34668	2200.9	0.26625	0.1747	0.96546
0.708	-11.635	-34669	2200.6	0.26508	0.17519	0.96517
0.71	-11.658	-34669	2200.3	0.26391	0.17568	0.96487
0.712	-11.677	-34672	2200.2	0.26274	0.17617	0.96458
0.714	-11.674	-34675	2200.1	0.26157	0.17666	0.96429
0.716	-11.71	-34676	2200.2	0.26264	0.17607	0.96321
0.718	-11.768	-34676	2200.3	0.26372	0.17548	0.96214
0.72	-11.762	-34679	2200.5	0.26479	0.1749	0.96107
0.722	-11.79	-34681	2200.8	0.26586	0.17431	0.95999
0.724	-11.714	-34678	2201.1	0.26694	0.17373	0.95892
0.726	-11.692	-34676	2201.4	0.26498	0.17402	0.95697
0.728	-11.73	-34678	2201.7	0.26303	0.17431	0.95502
0.73	-11.762	-34680	2201.9	0.26108	0.17461	0.95306
0.732	-11.785	-34683	2202	0.25913	0.1749	0.95111
0.734	-11.764	-34686	2202.1	0.25718	0.17519	0.94916
0.736	-11.76	-34687	2202.3	0.25718	0.17558	0.94975
0.738	-11.717	-34688	2202.4	0.25718	0.17597	0.95033
0.74	-11.68	-34690	2202.6	0.25718	0.17636	0.95092
0.742	-11.664	-34691	2202.6	0.25718	0.17675	0.9515
0.744	-11.648	-34690	2202.7	0.25718	0.17714	0.95209
0.746	-11.666	-34689	2202.8	0.25991	0.17666	0.95384
0.748	-11.713	-34688	2202.8	0.26264	0.17617	0.9556
0.75	-11.786	-34686	2202.9	0.26537	0.17568	0.95736
0.752	-11.865	-34686	2202.9	0.26811	0.17519	0.95912
0.754	-11.941	-34687	2202.8	0.27084	0.1747	0.96087
0.756	-11.97	-34687	2202.7	0.27123	0.17509	0.96282
0.758	-11.966	-34687	2202.6	0.27162	0.17548	0.96478
0.76	-11.941	-34692	2202.5	0.27201	0.17588	0.96673
0.762	-11.905	-34698	2202.5	0.2724	0.17627	0.96868
0.764	-11.881	-34694	2202.4	0.27279	0.17666	0.97063
0.766	-11.879	-34691	2202.3	0.27074	0.17675	0.96985
0.768	-11.876	-34691	2202.2	0.26869	0.17685	0.96907
0.77	-11.836	-34692	2202.2	0.26664	0.17695	0.96829
0.772	-11.8	-34703	2202.3	0.26459	0.17705	0.96751
0.774	-11.811	-34713	2202.3	0.26254	0.17714	0.96673
0.776	-11.799	-34713	2202.4	0.26245	0.17792	0.96292
0.778	-11.75	-34712	2202.5	0.26235	0.17871	0.95912
0.78	-11.701	-34711	2202.5	0.26225	0.17949	0.95531
0.782	-11.746	-34710	2202.6	0.26215	0.18027	0.9515
0.784	-11.797	-34710	2202.6	0.26206	0.18105	0.9477
0.786	-11.81	-34709	2202.7	0.26245	0.18056	0.94731
0.788	-11.751	-34711	2202.7	0.26284	0.18007	0.94692
0.79	-11.668	-34712	2202.7	0.26323	0.17958	0.94652
0.792	-11.669	-34709	2202.7	0.26362	0.1791	0.94613
0.794	-11.695	-34705	2202.7	0.26401	0.17861	0.94574
0.796	-11.705	-34706	2202.8	0.26284	0.17949	0.94574
0.798	-11.731	-34707	2202.9	0.26167	0.18036	0.94574
0.8	-11.712	-34709	2202.9	0.26049	0.18124	0.94574
0.802	-11.713	-34712	2202.9	0.25932	0.18212	0.94574
0.804	-11.733	-34709	2202.8	0.25815	0.183	0.94574
0.806	-11.756	-34705	2202.8	0.25854	0.1831	0.94643
0.808	-11.778	-34710	2202.8	0.25893	0.1832	0.94711
0.81	-11.75	-34714	2202.7	0.25932	0.18329	0.94779
0.812	-11.767	-34716	2202.6	0.25971	0.18339	0.94848
0.814	-11.743	-34719	2202.5	0.2601	0.18349	0.94916
0.816	-11.763	-34722	2202.4	0.26157	0.183	0.94984
0.818	-11.761	-34726	2202.3	0.26303	0.18251	0.95053
0.82	-11.76	-34723	2202.1	0.2645	0.18202	0.95121
0.822	-11.758	-34721	2202	0.26596	0.18154	0.95189
0.824	-11.721	-34720	2201.8	0.26742	0.18105	0.95258
0.826	-11.69	-34720	2201.7	0.26723	0.18017	0.95394
0.828	-11.683	-34719	2201.6	0.26703	0.17929	0.95531
0.83	-11.737	-34718	2201.5	0.26684	0.17841	0.95668
0.832	-11.787	-34723	2201.3	0.26664	0.17753	0.95804
0.834	-11.787	-34728	2201.2	0.26645	0.17666	0.95941
0.836	-11.785	-34728	2201	0.26557	0.17792	0.95785
0.838	-11.755	-34728	2200.8	0.26469	0.17919	0.95628
0.84	-11.69	-34729	2200.6	0.26381	0.18046	0.95472
0.842	-11.695	-34729	2200.4	0.26293	0.18173	0.95316
0.844	-11.726	-34728	2200.2	0.26206	0.183	0.9516
0.846	-11.71	-34726	2200	0.26128	0.18222	0.9515
0.848	-11.673	-34728	2199.8	0.26049	0.18144	0.9514
0.85	-11.652	-34730	2199.7	0.25971	0.18066	0.95131
0.852	-11.671	-34734	2199.6	0.25893	0.17988	0.95121
0.854	-11.727	-34737	2199.5	0.25815	0.1791	0.95111
0.856	-11.783	-34738	2199.5	0.25747	0.17871	0.95062
0.858	-11.794	-34738	2199.5	0.25679	0.17832	0.95014
0.86	-11.769	-34734	2199.6	0.2561	0.17792	0.94965
0.862	-11.716	-34730	2199.8	0.25542	0.17753	0.94916
0.864	-11.678	-34733	2199.9	0.25474	0.17714	0.94867
0.866	-11.686	-34736	2200.1	0.2561	0.17753	0.95004
0.868	-11.723	-34735	2200.2	0.25747	0.17792	0.9514
0.87	-11.752	-34734	2200.4	0.25884	0.17832	0.95277
0.872	-11.768	-34741	2200.5	0.2602	0.17871	0.95414
0.874	-11.754	-34748	2200.6	0.26157	0.1791	0.9555
0.876	-11.691	-34749	2200.7	0.2604	0.17929	0.95472
0.878	-11.693	-34750	2200.8	0.25923	0.17949	0.95394
0.88	-11.712	-34747	2200.8	0.25805	0.17968	0.95316
0.882	-11.743	-34744	2200.8	0.25688	0.17988	0.95238
0.884	-11.767	-34748	2200.7	0.25571	0.18007	0.9516
0.886	-11.774	-34751	2200.7	0.25718	0.17978	0.95375
0.888	-11.768	-34750	2200.7	0.25864	0.17949	0.95589
0.89	-11.801	-34749	2200.7	0.2601	0.17919	0.95804
0.892	-11.786	-34749	2200.6	0.26157	0.1789	0.96019
0.894	-11.687	-34749	2200.6	0.26303	0.17861	0.96234
0.896	-11.58	-34751	2200.4	0.26391	0.17802	0.96165
0.898	-11.626	-34754	2200.3	0.26479	0.17744	0.96097
0.9	-11.719	-34757	2200.1	0.26567	0.17685	0.96029
0.902	-11.746	-34760	2199.9	0.26655	0.17627	0.9596
0.904	-11.763	-34765	2199.7	0.26742	0.17568	0.95892
0.906	-11.738	-34769	2199.6	0.26723	0.17597	0.95853
0.908	-11.707	-34764	2199.4	0.26703	0.17627	0.95814
0.91	-11.688	-34758	2199.3	0.26684	0.17656	0.95775
0.912	-11.654	-34762	2199.2	0.26664	0.17685	0.95736
0.914	-11.674	-34766	2199.1	0.26645	0.17714	0.95697
0.916	-11.707	-34769	2199.2	0.26596	0.17773	0.95424
0.918	-11.672	-34772	2199.2	0.26547	0.17832	0.9515
0.92	-11.662	-34767	2199.2	0.26498	0.1789	0.94877
0.922	-11.67	-34761	2199.3	0.2645	0.17949	0.94604
0.924	-11.692	-34762	2199.3	0.26401	0.18007	0.9433
0.926	-11.698	-34764	2199.4	0.26459	0.17958	0.94369
0.928	-11.687	-34761	2199.5	0.26518	0.1791	0.94408
0.93	-11.691	-34759	2199.6	0.26576	0.17861	0.94448
0.932	-11.705	-34765	2199.7	0.26635	0.17812	0.94487
0.934	-11.704	-34772	2199.8	0.26694	0.17763	0.94526
0.936	-11.695	-34774	2200	0.26586	0.17822	0.94604
0.938	-11.698	-34776	2200.1	0.26479	0.1788	0.94682
0.94	-11.696	-34777	2200.3	0.26372	0.17939	0.9476
0.942	-11.685	-34777	2200.5	0.26264	0.17997	0.94838
0.944	-11.691	-34776	2200.8	0.26157	0.18056	0.94916
0.946	-11.707	-34776	2201	0.26225	0.18007	0.95033
0.948	-11.707	-34780	2201.3	0.26293	0.17958	0.9515
0.95	-11.699	-34783	2201.6	0.26362	0.1791	0.95267
0.952	-11.692	-34779	2201.9	0.2643	0.17861	0.95384
0.954	-11.723	-34775	2202.2	0.26498	0.17812	0.95502
0.956	-11.734	-34786	2202.6	0.2644	0.17734	0.95726
0.958	-11.647	-34798	2202.9	0.26381	0.17656	0.95951
0.96	-11.623	-34794	2203.2	0.26323	0.17578	0.96175
0.962	-11.621	-34791	2203.6	0.26264	0.175	0.964
0.964	-11.646	-34790	2203.9	0.26206	0.17422	0.96624
0.966	-11.698	-34788	2204.3	0.26264	0.1747	0.96585
0.968	-11.665	-34781	2204.6	0.26323	0.17519	0.96546
0.97	-11.607	-34774	2204.9	0.26381	0.17568	0.96507
0.972	-11.625	-34781	2205.2	0.2644	0.17617	0.96468
0.974	-11.622	-34788	2205.5	0.26498	0.17666	0.96429
0.976	-11.607	-34790	2205.8	0.26586	0.17578	0.96312
0.978	-11.603	-34792	2206.1	0.26674	0.1749	0.96195
0.98	-11.617	-34794	2206.3	0.26762	0.17402	0.96077
0.982	-11.637	-34797	2206.5	0.2685	0.17314	0.9596
0.984	-11.641	-34794	2206.8	0.26938	0.17226	0.95843
0.986	-11.6	-34790	2207.1	0.26967	0.17256	0.95775
0.988	-11.608	-34790	2207.3	0.26996	0.17285	0.95707
0.99	-11.646	-34789	2207.6	0.27025	0.17314	0.95638
0.992	-11.635	-34791	2207.9	0.27055	0.17344	0.9557
0.994	-11.614	-34792	2208.3	0.27084	0.17373	0.95502
0.996	-11.614	-34795	2208.5	0.26977	0.17324	0.95365
0.998	-11.61	-34798	2208.7	0.26869	0.17275	0.95228
1	-11.593	-34796	2208.9	0.26762	0.17226	0.95092
1.002	-11.584	-34794	2209.1	0.26655	0.17178	0.94955
1.004	-11.585	-34784	2209.3	0.26547	0.17129	0.94818
1.006	-11.597	-34774	2209.4	0.26616	0.1709	0.94936
1.008	-11.626	-34776	2209.4	0.26684	0.17051	0.95053
1.01	-11.662	-34778	2209.5	0.26752	0.17012	0.9517
1.012	-11.699	-34776	2209.6	0.2682	0.16973	0.95287
1.014	-11.69	-34775	2209.7	0.26889	0.16934	0.95404
1.016	-11.622	-34773	2209.4	0.27094	0.16992	0.95316
1.018	-11.597	-34771	2209.1	0.27299	0.17051	0.95228
1.02	-11.623	-34772	2208.9	0.27504	0.17109	0.9514
1.022	-11.621	-34773	2208.7	0.27709	0.17168	0.95053
1.024	-11.645	-34770	2208.5	0.27914	0.17226	0.94965
1.026	-11.719	-34767	2208.3	0.27738	0.17236	0.94955
1.028	-11.748	-34768	2208.1	0.27562	0.17246	0.94945
1.03	-11.713	-34769	2207.9	0.27387	0.17256	0.94936
1.032	-11.67	-34763	2207.9	0.27211	0.17265	0.94926
1.034	-11.716	-34757	2207.9	0.27035	0.17275	0.94916
1.036	-11.743	-34764	2207.8	0.27055	0.17265	0.94877
1.038	-11.687	-34772	2207.8	0.27074	0.17256	0.94838
1.04	-11.618	-34762	2207.9	0.27094	0.17246	0.94799
1.042	-11.622	-34752	2208.1	0.27113	0.17236	0.9476
1.044	-11.682	-34754	2208.3	0.27133	0.17226	0.94721
1.046	-11.678	-34756	2208.4	0.27318	0.17402	0.94555
1.048	-11.676	-34754	2208.4	0.27504	0.17578	0.94389
1.05	-11.708	-34751	2208.3	0.27689	0.17753	0.94223
1.052	-11.721	-34753	2208.1	0.27875	0.17929	0.94057
1.054	-11.699	-34756	2207.8	0.2806	0.18105	0.93891
1.056	-11.673	-34751	2207.6	0.27455	0.18095	0.94018
1.058	-11.705	-34746	2207.4	0.2685	0.18085	0.94145
1.06	-11.717	-34744	2207.1	0.26245	0.18076	0.94272
1.062	-11.714	-34742	2206.9	0.2564	0.18066	0.94399
1.064	-11.682	-34733	2206.6	0.25034	0.18056	0.94526
1.066	-11.73	-34724	2206.3	0.2523	0.17968	0.94594
1.068	-11.771	-34727	2206	0.25425	0.1788	0.94662
1.07	-11.822	-34731	2205.9	0.2562	0.17792	0.94731
1.072	-11.785	-34731	2205.8	0.25815	0.17705	0.94799
1.074	-11.681	-34730	2205.7	0.2601	0.17617	0.94867
1.076	-11.675	-34728	2205.8	0.2601	0.17675	0.94975
1.078	-11.719	-34725	2206	0.2601	0.17734	0.95082
1.08	-11.722	-34724	2206.1	0.2601	0.17792	0.95189
1.082	-11.753	-34723	2206.1	0.2601	0.17851	0.95297
1.084	-11.802	-34714	2206.2	0.2601	0.1791	0.95404
1.086	-11.792	-34704	2206	0.25952	0.1788	0.95345
1.088	-11.728	-34709	2205.8	0.25893	0.17851	0.95287
1.09	-11.698	-34715	2205.6	0.25835	0.17822	0.95228
1.092	-11.721	-34704	2205.5	0.25776	0.17792	0.9517
1.094	-11.732	-34693	2205.4	0.25718	0.17763	0.95111
1.096	-11.734	-34690	2205.3	0.25679	0.17675	0.95082
1.098	-11.742	-34687	2205.1	0.2564	0.17588	0.95053
1.1	-11.777	-34692	2205	0.256	0.175	0.95023
1.102	-11.851	-34697	2204.8	0.25561	0.17412	0.94994
1.104	-11.891	-34697	2204.6	0.25522	0.17324	0.94965
1.106	-11.83	-34697	2204.5	0.25718	0.17314	0.94984
1.108	-11.755	-34694	2204.4	0.25913	0.17304	0.95004
1.11	-11.735	-34690	2204.2	0.26108	0.17295	0.95023
1.112	-11.696	-34682	2204	0.26303	0.17285	0.95043
1.114	-11.667	-34673	2203.8	0.26498	0.17275	0.95062
1.116	-11.709	-34681	2203.6	0.26576	0.17304	0.95082
1.118	-11.742	-34689	2203.3	0.26655	0.17334	0.95101
1.12	-11.748	-34685	2203.1	0.26733	0.17363	0.95121
1.122	-11.718	-34682	2202.8	0.26811	0.17392	0.9514
1.124	-11.715	-34672	2202.5	0.26889	0.17422	0.9516
1.126	-11.742	-34663	2202.2	0.26908	0.17363	0.9517
1.128	-11.734	-34664	2201.9	0.26928	0.17304	0.9518
1.13	-11.714	-34666	2201.6	0.26947	0.17246	0.95189
1.132	-11.74	-34670	2201.3	0.26967	0.17187	0.95199
1.134	-11.775	-34674	2201.1	0.26986	0.17129	0.95209
1.136	-11.816	-34670	2200.7	0.27025	0.17109	0.9514
1.138	-11.796	-34666	2200.3	0.27064	0.1709	0.95072
1.14	-11.763	-34664	2200	0.27104	0.1707	0.95004
1.142	-11.746	-34662	2199.7	0.27143	0.17051	0.94936
1.144	-11.714	-34657	2199.3	0.27182	0.17031	0.94867
1.146	-11.726	-34652	2199	0.27094	0.17051	0.94867
1.148	-11.687	-34655	2198.7	0.27006	0.1707	0.94867
1.15	-11.7	-34658	2198.3	0.26918	0.1709	0.94867
1.152	-11.749	-34659	2198	0.2683	0.17109	0.94867
1.154	-11.747	-34661	2197.7	0.26742	0.17129	0.94867
1.156	-11.782	-34659	2197.4	0.26684	0.17158	0.94857
1.158	-11.777	-34658	2197.1	0.26625	0.17187	0.94848
1.16	-11.769	-34658	2196.9	0.26567	0.17217	0.94838
1.162	-11.768	-34657	2196.6	0.26508	0.17246	0.94828
1.164	-11.775	-34656	2196.3	0.2645	0.17275	0.94818
1.166	-11.768	-34656	2196.1	0.26586	0.17314	0.94965
1.168	-11.804	-34655	2195.9	0.26723	0.17353	0.95111
1.17	-11.897	-34654	2195.6	0.2686	0.17392	0.95258
1.172	-11.869	-34655	2195.4	0.26996	0.17431	0.95404
1.174	-11.708	-34656	2195.2	0.27133	0.1747	0.9555
1.176	-11.576	-34656	2195	0.2725	0.17539	0.9557
1.178	-11.591	-34656	2194.8	0.27367	0.17607	0.95589
1.18	-11.672	-34657	2194.7	0.27484	0.17675	0.95609
1.182	-11.723	-34658	2194.5	0.27601	0.17744	0.95628
1.184	-11.748	-34658	2194.4	0.27718	0.17812	0.95648
1.186	-11.747	-34657	2194.2	0.2766	0.17802	0.95619
1.188	-11.7	-34657	2194	0.27601	0.17792	0.95589
1.19	-11.676	-34658	2193.9	0.27543	0.17783	0.9556
1.192	-11.709	-34658	2193.8	0.27484	0.17773	0.95531
1.194	-11.751	-34658	2193.8	0.27426	0.17763	0.95502
1.196	-11.797	-34663	2193.7	0.27435	0.17744	0.95453
1.198	-11.797	-34669	2193.7	0.27445	0.17724	0.95404
1.2	-11.736	-34664	2193.7	0.27455	0.17705	0.95355
1.202	-11.7	-34659	2193.6	0.27465	0.17685	0.95306
1.204	-11.717	-34657	2193.5	0.27474	0.17666	0.95258
1.206	-11.746	-34654	2193.4	0.27552	0.17734	0.95404
1.208	-11.775	-34653	2193.3	0.27631	0.17802	0.9555
1.21	-11.789	-34651	2193.1	0.27709	0.17871	0.95697
1.212	-11.815	-34658	2193	0.27787	0.17939	0.95843
1.214	-11.823	-34666	2192.9	0.27865	0.18007	0.9599
1.216	-11.72	-34664	2192.9	0.27699	0.17939	0.96068
1.218	-11.627	-34662	2192.9	0.27533	0.17871	0.96146
1.22	-11.668	-34659	2192.9	0.27367	0.17802	0.96224
1.222	-11.74	-34657	2192.9	0.27201	0.17734	0.96302
1.224	-11.751	-34660	2192.8	0.27035	0.17666	0.9638
1.226	-11.763	-34662	2192.9	0.27055	0.17627	0.96351
1.228	-11.803	-34664	2192.9	0.27074	0.17588	0.96321
1.23	-11.795	-34666	2192.9	0.27094	0.17548	0.96292
1.232	-11.688	-34663	2193.1	0.27113	0.17509	0.96263
1.234	-11.71	-34660	2193.2	0.27133	0.1747	0.96234
1.236	-11.778	-34661	2193.3	0.27289	0.175	0.96107
1.238	-11.819	-34663	2193.4	0.27445	0.17529	0.9598
1.24	-11.826	-34665	2193.6	0.27601	0.17558	0.95853
1.242	-11.8	-34667	2193.7	0.27757	0.17588	0.95726
1.244	-11.789	-34673	2193.8	0.27914	0.17617	0.95599
1.246	-11.712	-34679	2193.9	0.27845	0.17656	0.95707
1.248	-11.669	-34675	2194	0.27777	0.17695	0.95814
1.25	-11.701	-34671	2194.1	0.27709	0.17734	0.95921
1.252	-11.737	-34674	2194.2	0.2764	0.17773	0.96029
1.254	-11.735	-34677	2194.3	0.27572	0.17812	0.96136
1.256	-11.723	-34671	2194.4	0.27289	0.17734	0.96243
1.258	-11.764	-34665	2194.6	0.27006	0.17656	0.96351
1.26	-11.746	-34666	2194.8	0.26723	0.17578	0.96458
1.262	-11.697	-34667	2195	0.2644	0.175	0.96565
1.264	-11.699	-34674	2195.2	0.26157	0.17422	0.96673
1.266	-11.717	-34680	2195.4	0.26342	0.17383	0.9679
1.268	-11.726	-34673	2195.6	0.26528	0.17344	0.96907
1.27	-11.738	-34667	2195.8	0.26713	0.17304	0.97024
1.272	-11.725	-34665	2196.1	0.26899	0.17265	0.97141
1.274	-11.722	-34663	2196.3	0.27084	0.17226	0.97258
1.276	-11.767	-34666	2196.5	0.27064	0.17285	0.97161
1.278	-11.811	-34668	2196.7	0.27045	0.17344	0.97063
1.28	-11.791	-34671	2196.8	0.27025	0.17402	0.96966
1.282	-11.707	-34674	2197	0.27006	0.17461	0.96868
1.284	-11.676	-34675	2197.1	0.26986	0.17519	0.9677
1.286	-11.734	-34676	2197.2	0.26967	0.1749	0.9679
1.288	-11.775	-34674	2197.4	0.26947	0.17461	0.96809
1.29	-11.773	-34672	2197.5	0.26928	0.17431	0.96829
1.292	-11.739	-34674	2197.6	0.26908	0.17402	0.96848
1.294	-11.71	-34676	2197.7	0.26889	0.17373	0.96868
1.296	-11.712	-34677	2197.8	0.26742	0.1748	0.9679
1.298	-11.714	-34678	2197.9	0.26596	0.17588	0.96712
1.3	-11.797	-34674	2198	0.2645	0.17695	0.96634
1.302	-11.857	-34669	2198.2	0.26303	0.17802	0.96556
1.304	-11.813	-34670	2198.3	0.26157	0.1791	0.96478
1.306	-11.743	-34671	2198.4	0.26167	0.17997	0.96341
1.308	-11.731	-34671	2198.5	0.26176	0.18085	0.96204
1.31	-11.762	-34672	2198.6	0.26186	0.18173	0.96068
1.312	-11.783	-34670	2198.8	0.26196	0.18261	0.95931
1.314	-11.788	-34668	2198.9	0.26206	0.18349	0.95794
1.316	-11.799	-34669	2198.9	0.26245	0.18261	0.95804
1.318	-11.771	-34671	2198.9	0.26284	0.18173	0.95814
1.32	-11.726	-34670	2198.9	0.26323	0.18085	0.95824
1.322	-11.706	-34670	2198.9	0.26362	0.17997	0.95833
1.324	-11.725	-34661	2198.9	0.26401	0.1791	0.95843
1.326	-11.793	-34653	2198.8	0.2642	0.17871	0.95912
1.328	-11.787	-34652	2198.8	0.2644	0.17832	0.9598
1.33	-11.768	-34652	2198.7	0.26459	0.17792	0.96048
1.332	-11.79	-34651	2198.7	0.26479	0.17753	0.96116
1.334	-11.836	-34650	2198.6	0.26498	0.17714	0.96185
1.336	-11.827	-34646	2198.6	0.26557	0.17783	0.96077
1.338	-11.681	-34643	2198.6	0.26616	0.17851	0.9597
1.34	-11.61	-34645	2198.6	0.26674	0.17919	0.95863
1.342	-11.667	-34648	2198.6	0.26733	0.17988	0.95755
1.344	-11.736	-34648	2198.6	0.26791	0.18056	0.95648
1.346	-11.783	-34649	2198.6	0.26694	0.18046	0.95697
1.348	-11.775	-34652	2198.6	0.26596	0.18036	0.95746
1.35	-11.739	-34655	2198.6	0.26498	0.18027	0.95794
1.352	-11.763	-34654	2198.5	0.26401	0.18017	0.95843
1.354	-11.823	-34653	2198.5	0.26303	0.18007	0.95892
1.356	-11.812	-34651	2198.5	0.26186	0.18036	0.95775
1.358	-11.75	-34648	2198.5	0.26069	0.18066	0.95658
1.36	-11.718	-34648	2198.5	0.25952	0.18095	0.95541
1.362	-11.725	-34649	2198.6	0.25835	0.18124	0.95424
1.364	-11.748	-34646	2198.6	0.25718	0.18154	0.95306
1.366	-11.754	-34644	2198.7	0.25747	0.18202	0.95326
1.368	-11.748	-34644	2198.8	0.25776	0.18251	0.95345
1.37	-11.757	-34643	2198.8	0.25805	0.183	0.95365
1.372	-11.77	-34644	2198.9	0.25835	0.18349	0.95384
1.374	-11.799	-34645	2198.9	0.25864	0.18398	0.95404
1.376	-11.805	-34645	2198.9	0.25854	0.1831	0.95414
1.378	-11.753	-34646	2198.9	0.25844	0.18222	0.95424
1.38	-11.69	-34645	2198.9	0.25835	0.18134	0.95433
1.382	-11.703	-34644	2198.8	0.25825	0.18046	0.95443
1.384	-11.746	-34643	2198.8	0.25815	0.17958	0.95453
1.386	-11.728	-34642	2198.9	0.25786	0.18007	0.95414
1.388	-11.686	-34646	2198.9	0.25757	0.18056	0.95375
1.39	-11.719	-34650	2198.9	0.25727	0.18105	0.95336
1.392	-11.784	-34650	2198.9	0.25698	0.18154	0.95297
1.394	-11.769	-34651	2198.9	0.25669	0.18202	0.95258
1.396	-11.771	-34652	2198.9	0.25737	0.18232	0.95219
1.398	-11.77	-34654	2198.9	0.25805	0.18261	0.9518
1.4	-11.761	-34652	2198.9	0.25874	0.1829	0.9514
1.402	-11.662	-34650	2198.8	0.25942	0.1832	0.95101
1.404	-11.645	-34648	2198.7	0.2601	0.18349	0.95062
1.406	-11.709	-34647	2198.7	0.26069	0.183	0.95111
1.408	-11.772	-34647	2198.7	0.26128	0.18251	0.9516
1.41	-11.781	-34647	2198.7	0.26186	0.18202	0.95209
1.412	-11.766	-34649	2198.7	0.26245	0.18154	0.95258
1.414	-11.72	-34650	2198.7	0.26303	0.18105	0.95306
1.416	-11.706	-34653	2198.6	0.26352	0.18105	0.95287
1.418	-11.713	-34656	2198.5	0.26401	0.18105	0.95267
1.42	-11.704	-34652	2198.4	0.2645	0.18105	0.95248
1.422	-11.711	-34647	2198.3	0.26498	0.18105	0.95228
1.424	-11.719	-34649	2198.3	0.26547	0.18105	0.95209
1.426	-11.701	-34651	2198.2	0.26508	0.18056	0.95424
1.428	-11.678	-34651	2198.1	0.26469	0.18007	0.95638
1.43	-11.684	-34652	2198	0.2643	0.17958	0.95853
1.432	-11.72	-34654	2198	0.26391	0.1791	0.96068
1.434	-11.753	-34656	2197.9	0.26352	0.17861	0.96282
1.436	-11.763	-34655	2197.7	0.26313	0.1789	0.96243
1.438	-11.766	-34654	2197.6	0.26274	0.17919	0.96204
1.44	-11.741	-34652	2197.5	0.26235	0.17949	0.96165
1.442	-11.683	-34649	2197.3	0.26196	0.17978	0.96126
1.444	-11.685	-34649	2197.2	0.26157	0.18007	0.96087
1.446	-11.725	-34650	2197.1	0.26215	0.17988	0.9597
1.448	-11.727	-34650	2197	0.26274	0.17968	0.95853
1.45	-11.689	-34651	2196.9	0.26332	0.17949	0.95736
1.452	-11.649	-34653	2196.8	0.26391	0.17929	0.95619
1.454	-11.666	-34655	2196.7	0.2645	0.1791	0.95502
1.456	-11.723	-34656	2196.7	0.26489	0.17832	0.9557
1.458	-11.775	-34658	2196.6	0.26528	0.17753	0.95638
1.46	-11.785	-34659	2196.6	0.26567	0.17675	0.95707
1.462	-11.786	-34661	2196.6	0.26606	0.17597	0.95775
1.464	-11.789	-34657	2196.6	0.26645	0.17519	0.95843
1.466	-11.761	-34653	2196.7	0.26664	0.1749	0.95843
1.468	-11.757	-34661	2196.7	0.26684	0.17461	0.95843
1.47	-11.826	-34668	2196.7	0.26703	0.17431	0.95843
1.472	-11.866	-34673	2196.7	0.26723	0.17402	0.95843
1.474	-11.887	-34678	2196.8	0.26742	0.17373	0.95843
1.476	-11.822	-34672	2196.8	0.26762	0.17383	0.95931
1.478	-11.753	-34667	2196.7	0.26781	0.17392	0.96019
1.48	-11.741	-34666	2196.7	0.26801	0.17402	0.96107
1.482	-11.754	-34665	2196.7	0.2682	0.17412	0.96195
1.484	-11.746	-34665	2196.7	0.2684	0.17422	0.96282
1.486	-11.733	-34665	2196.7	0.26742	0.1748	0.96224
1.488	-11.78	-34670	2196.6	0.26645	0.17539	0.96165
1.49	-11.837	-34675	2196.6	0.26547	0.17597	0.96107
1.492	-11.882	-34674	2196.6	0.2645	0.17656	0.96048
1.494	-11.923	-34673	2196.5	0.26352	0.17714	0.9599
1.496	-11.865	-34675	2196.5	0.26381	0.17588	0.95999
1.498	-11.719	-34677	2196.5	0.26411	0.17461	0.96009
1.5	-11.674	-34678	2196.5	0.2644	0.17334	0.96019
1.502	-11.717	-34678	2196.6	0.26469	0.17207	0.96029
1.504	-11.759	-34680	2196.7	0.26498	0.1708	0.96038
1.506	-11.765	-34682	2196.7	0.26576	0.1706	0.95941
1.508	-11.757	-34682	2196.7	0.26655	0.17041	0.95843
1.51	-11.709	-34682	2196.7	0.26733	0.17021	0.95746
1.512	-11.658	-34684	2196.8	0.26811	0.17002	0.95648
1.514	-11.664	-34686	2196.8	0.26889	0.16982	0.9555
1.516	-11.71	-34686	2196.8	0.26869	0.17031	0.9557
1.518	-11.767	-34686	2196.8	0.2685	0.1708	0.95589
1.52	-11.806	-34685	2196.8	0.2683	0.17129	0.95609
1.522	-11.787	-34685	2196.8	0.26811	0.17178	0.95628
1.524	-11.764	-34683	2196.8	0.26791	0.17226	0.95648
1.526	-11.769	-34680	2196.7	0.26791	0.17207	0.9558
1.528	-11.754	-34685	2196.7	0.26791	0.17187	0.95511
1.53	-11.688	-34689	2196.6	0.26791	0.17168	0.95443
1.532	-11.636	-34687	2196.7	0.26791	0.17148	0.95375
1.534	-11.641	-34685	2196.7	0.26791	0.17129	0.95306
1.536	-11.659	-34681	2196.7	0.26713	0.17217	0.95326
1.538	-11.684	-34677	2196.7	0.26635	0.17304	0.95345
1.54	-11.722	-34686	2196.7	0.26557	0.17392	0.95365
1.542	-11.77	-34695	2196.7	0.26479	0.1748	0.95384
1.544	-11.82	-34696	2196.7	0.26401	0.17568	0.95404
1.546	-11.815	-34697	2196.7	0.26411	0.17548	0.95424
1.548	-11.818	-34700	2196.7	0.2642	0.17529	0.95443
1.55	-11.835	-34703	2196.7	0.2643	0.17509	0.95463
1.552	-11.857	-34704	2196.8	0.2644	0.1749	0.95482
1.554	-11.892	-34705	2196.9	0.2645	0.1747	0.95502
1.556	-11.909	-34701	2197	0.26313	0.17578	0.95414
1.558	-11.899	-34697	2197.1	0.26176	0.17685	0.95326
1.56	-11.914	-34699	2197.2	0.2604	0.17792	0.95238
1.562	-11.909	-34702	2197.3	0.25903	0.179	0.9515
1.564	-11.958	-34702	2197.5	0.25766	0.18007	0.95062
1.566	-11.979	-34703	2197.5	0.25718	0.17871	0.9514
1.568	-11.913	-34699	2197.5	0.25669	0.17734	0.95219
1.57	-11.823	-34696	2197.6	0.2562	0.17597	0.95297
1.572	-11.806	-34704	2197.6	0.25571	0.17461	0.95375
1.574	-11.856	-34712	2197.6	0.25522	0.17324	0.95453
1.576	-11.848	-34711	2197.7	0.2563	0.1749	0.95394
1.578	-11.791	-34711	2197.7	0.25737	0.17656	0.95336
1.58	-11.733	-34712	2197.8	0.25844	0.17822	0.95277
1.582	-11.691	-34713	2197.9	0.25952	0.17988	0.95219
1.584	-11.696	-34715	2198	0.26059	0.18154	0.9516
1.586	-11.71	-34717	2198	0.26069	0.18076	0.95219
1.588	-11.716	-34714	2198	0.26079	0.17997	0.95277
1.59	-11.726	-34711	2198	0.26088	0.17919	0.95336
1.592	-11.75	-34712	2198	0.26098	0.17841	0.95394
1.594	-11.744	-34714	2198	0.26108	0.17763	0.95453
1.596	-11.754	-34717	2198	0.2602	0.17861	0.95316
1.598	-11.757	-34720	2198	0.25932	0.17958	0.9518
1.6	-11.754	-34723	2198	0.25844	0.18056	0.95043
1.602	-11.778	-34726	2198	0.25757	0.18154	0.94906
1.604	-11.796	-34724	2198	0.25669	0.18251	0.9477
1.606	-11.786	-34722	2198	0.25688	0.18222	0.94838
1.608	-11.771	-34721	2198	0.25708	0.18193	0.94906
1.61	-11.756	-34721	2197.9	0.25727	0.18163	0.94975
1.612	-11.739	-34721	2197.9	0.25747	0.18134	0.95043
1.614	-11.738	-34721	2197.8	0.25766	0.18105	0.95111
1.616	-11.775	-34722	2197.7	0.25727	0.18046	0.9514
1.618	-11.811	-34723	2197.6	0.25688	0.17988	0.9517
1.62	-11.797	-34726	2197.6	0.25649	0.17929	0.95199
1.622	-11.763	-34730	2197.5	0.2561	0.17871	0.95228
1.624	-11.751	-34731	2197.5	0.25571	0.17812	0.95258
1.626	-11.775	-34733	2197.4	0.2562	0.1789	0.95306
1.628	-11.79	-34734	2197.3	0.25669	0.17968	0.95355
1.63	-11.771	-34736	2197.2	0.25718	0.18046	0.95404
1.632	-11.793	-34737	2197.1	0.25766	0.18124	0.95453
1.634	-11.823	-34738	2197	0.25815	0.18202	0.95502
1.636	-11.827	-34735	2196.9	0.25747	0.18095	0.95619
1.638	-11.815	-34732	2196.8	0.25679	0.17988	0.95736
1.64	-11.798	-34731	2196.7	0.2561	0.1788	0.95853
1.642	-11.764	-34730	2196.6	0.25542	0.17773	0.9597
1.644	-11.697	-34734	2196.5	0.25474	0.17666	0.96087
1.646	-11.696	-34738	2196.3	0.25405	0.17617	0.96195
1.648	-11.741	-34742	2196.2	0.25337	0.17568	0.96302
1.65	-11.74	-34745	2196.1	0.25269	0.17519	0.96409
1.652	-11.754	-34746	2195.9	0.252	0.1747	0.96517
1.654	-11.786	-34747	2195.7	0.25132	0.17422	0.96624
1.656	-11.799	-34747	2195.5	0.25122	0.17402	0.96673
1.658	-11.798	-34746	2195.3	0.25112	0.17383	0.96722
1.66	-11.837	-34743	2195.2	0.25103	0.17363	0.9677
1.662	-11.803	-34740	2195.1	0.25093	0.17344	0.96819
1.664	-11.694	-34752	2194.9	0.25083	0.17324	0.96868
1.666	-11.695	-34764	2194.8	0.25005	0.17392	0.9677
1.668	-11.7	-34759	2194.7	0.24927	0.17461	0.96673
1.67	-11.724	-34755	2194.6	0.24849	0.17529	0.96575
1.672	-11.749	-34758	2194.5	0.24771	0.17597	0.96478
1.674	-11.773	-34761	2194.4	0.24693	0.17666	0.9638
1.676	-11.781	-34754	2194.3	0.24888	0.17617	0.96312
1.678	-11.796	-34747	2194.2	0.25083	0.17568	0.96243
1.68	-11.799	-34753	2194.2	0.25278	0.17519	0.96175
1.682	-11.803	-34758	2194.1	0.25474	0.1747	0.96107
1.684	-11.785	-34759	2194.1	0.25669	0.17422	0.96038
1.686	-11.772	-34759	2194	0.25757	0.17548	0.95902
1.688	-11.763	-34759	2193.9	0.25844	0.17675	0.95765
1.69	-11.824	-34759	2193.9	0.25932	0.17802	0.95628
1.692	-11.847	-34763	2193.8	0.2602	0.17929	0.95492
1.694	-11.801	-34767	2193.8	0.26108	0.18056	0.95355
1.696	-11.769	-34766	2193.7	0.26079	0.18085	0.95355
1.698	-11.701	-34766	2193.7	0.26049	0.18115	0.95355
1.7	-11.642	-34773	2193.7	0.2602	0.18144	0.95355
1.702	-11.682	-34780	2193.6	0.25991	0.18173	0.95355
1.704	-11.737	-34777	2193.5	0.25962	0.18202	0.95355
1.706	-11.747	-34774	2193.4	0.25971	0.18173	0.95394
1.708	-11.753	-34775	2193.3	0.25981	0.18144	0.95433
1.71	-11.755	-34777	2193.2	0.25991	0.18115	0.95472
1.712	-11.752	-34777	2193.1	0.26001	0.18085	0.95511
1.714	-11.762	-34777	2193	0.2601	0.18056	0.9555
1.716	-11.755	-34783	2192.9	0.25981	0.18076	0.95599
1.718	-11.737	-34789	2192.8	0.25952	0.18095	0.95648
1.72	-11.748	-34787	2192.7	0.25923	0.18115	0.95697
1.722	-11.761	-34785	2192.7	0.25893	0.18134	0.95746
1.724	-11.772	-34787	2192.7	0.25864	0.18154	0.95794
1.726	-11.831	-34789	2192.7	0.25815	0.18163	0.95853
1.728	-11.845	-34787	2192.8	0.25766	0.18173	0.95912
1.73	-11.773	-34785	2192.9	0.25718	0.18183	0.9597
1.732	-11.666	-34785	2193	0.25669	0.18193	0.96029
1.734	-11.599	-34784	2193.1	0.2562	0.18202	0.96087
1.736	-11.69	-34789	2193.5	0.25503	0.18095	0.96126
1.738	-11.77	-34794	2193.8	0.25386	0.17988	0.96165
1.74	-11.804	-34791	2194.1	0.25269	0.1788	0.96204
1.742	-11.799	-34788	2194.5	0.25152	0.17773	0.96243
1.744	-11.659	-34791	2194.8	0.25034	0.17666	0.96282
1.746	-11.583	-34793	2195.2	0.25025	0.17734	0.96224
1.748	-11.688	-34800	2195.6	0.25015	0.17802	0.96165
1.75	-11.761	-34806	2196	0.25005	0.17871	0.96107
1.752	-11.746	-34801	2196.4	0.24995	0.17939	0.96048
1.754	-11.69	-34797	2196.7	0.24986	0.18007	0.9599
1.756	-11.67	-34800	2197.1	0.25112	0.18144	0.96116
1.758	-11.663	-34804	2197.5	0.25239	0.1828	0.96243
1.76	-11.726	-34799	2197.9	0.25366	0.18417	0.9637
1.762	-11.756	-34793	2198.3	0.25493	0.18554	0.96497
1.764	-11.75	-34797	2198.7	0.2562	0.1869	0.96624
1.766	-11.741	-34800	2199	0.25552	0.18515	0.96634
1.768	-11.702	-34797	2199.4	0.25483	0.18339	0.96644
1.77	-11.672	-34794	2199.8	0.25415	0.18163	0.96653
1.772	-11.681	-34797	2200.2	0.25347	0.17988	0.96663
1.774	-11.663	-34800	2200.7	0.25278	0.17812	0.96673
1.776	-11.65	-34799	2201.2	0.25259	0.17832	0.96585
1.778	-11.657	-34798	2201.6	0.25239	0.17851	0.96497
1.78	-11.638	-34797	2202.1	0.2522	0.17871	0.96409
1.782	-11.627	-34796	2202.6	0.252	0.1789	0.96321
1.784	-11.667	-34799	2203.1	0.25181	0.1791	0.96234
1.786	-11.694	-34802	2203.5	0.25093	0.17968	0.96263
1.788	-11.71	-34793	2203.9	0.25005	0.18027	0.96292
1.79	-11.738	-34784	2204.3	0.24917	0.18085	0.96321
1.792	-11.765	-34782	2204.7	0.24829	0.18144	0.96351
1.794	-11.793	-34779	2205.1	0.24742	0.18202	0.9638
1.796	-11.804	-34783	2205.5	0.24712	0.18222	0.96351
1.798	-11.778	-34787	2205.9	0.24683	0.18241	0.96321
1.8	-11.67	-34780	2206.3	0.24654	0.18261	0.96292
1.802	-11.584	-34772	2206.7	0.24624	0.1828	0.96263
1.804	-11.632	-34776	2207	0.24595	0.183	0.96234
1.806	-11.652	-34780	2207.4	0.24585	0.18222	0.96302
1.808	-11.648	-34774	2207.7	0.24576	0.18144	0.9637
1.81	-11.671	-34769	2208.1	0.24566	0.18066	0.96439
1.812	-11.669	-34770	2208.4	0.24556	0.17988	0.96507
1.814	-11.688	-34770	2208.7	0.24546	0.1791	0.96575
1.816	-11.717	-34764	2209	0.24439	0.17861	0.96644
1.818	-11.687	-34758	2209.2	0.24332	0.17812	0.96712
1.82	-11.645	-34755	2209.5	0.24224	0.17763	0.9678
1.822	-11.676	-34751	2209.8	0.24117	0.17714	0.96848
1.824	-11.725	-34749	2210.1	0.2401	0.17666	0.96917
1.826	-11.806	-34747	2210.3	0.24166	0.17753	0.96741
1.828	-11.798	-34744	2210.5	0.24322	0.17841	0.96565
1.83	-11.728	-34742	2210.7	0.24478	0.17929	0.9639
1.832	-11.639	-34734	2210.8	0.24634	0.18017	0.96214
1.834	-11.667	-34726	2210.9	0.2479	0.18105	0.96038
1.836	-11.704	-34725	2210.9	0.24781	0.18144	0.96038
1.838	-11.742	-34724	2211	0.24771	0.18183	0.96038
1.84	-11.775	-34720	2211.1	0.24761	0.18222	0.96038
1.842	-11.809	-34716	2211.1	0.24751	0.18261	0.96038
1.844	-11.783	-34703	2211.2	0.24742	0.183	0.96038
1.846	-11.737	-34690	2211.2	0.24585	0.18212	0.96126
1.848	-11.723	-34693	2211.1	0.24429	0.18124	0.96214
1.85	-11.731	-34697	2211.1	0.24273	0.18036	0.96302
1.852	-11.758	-34695	2211.1	0.24117	0.17949	0.9639
1.854	-11.804	-34694	2211.1	0.23961	0.17861	0.96478
1.856	-11.772	-34693	2211.2	0.2398	0.17871	0.96526
1.858	-11.735	-34692	2211.2	0.24	0.1788	0.96575
1.86	-11.712	-34688	2211.2	0.24019	0.1789	0.96624
1.862	-11.745	-34684	2211.3	0.24039	0.179	0.96673
1.864	-11.795	-34680	2211.3	0.24058	0.1791	0.96722
1.866	-11.804	-34676	2211.4	0.2399	0.17822	0.96731
1.868	-11.786	-34670	2211.5	0.23922	0.17734	0.96741
1.87	-11.766	-34665	2211.6	0.23853	0.17646	0.96751
1.872	-11.776	-34660	2211.6	0.23785	0.17558	0.96761
1.874	-11.8	-34655	2211.6	0.23717	0.1747	0.9677
1.876	-11.802	-34651	2211.5	0.23688	0.17529	0.96683
1.878	-11.808	-34647	2211.5	0.23658	0.17588	0.96595
1.88	-11.822	-34642	2211.5	0.23629	0.17646	0.96507
1.882	-11.797	-34637	2211.5	0.236	0.17705	0.96419
1.884	-11.736	-34636	2211.5	0.2357	0.17763	0.96331
1.886	-11.706	-34636	2211.4	0.23619	0.17792	0.96331
1.888	-11.721	-34635	2211.4	0.23668	0.17822	0.96331
1.89	-11.74	-34634	2211.4	0.23717	0.17851	0.96331
1.892	-11.736	-34631	2211.3	0.23766	0.1788	0.96331
1.894	-11.776	-34628	2211.3	0.23814	0.1791	0.96331
1.896	-11.81	-34626	2211.1	0.2398	0.18066	0.96224
1.898	-11.783	-34625	2211	0.24146	0.18222	0.96116
1.9	-11.771	-34618	2210.9	0.24312	0.18378	0.96009
1.902	-11.765	-34612	2210.8	0.24478	0.18534	0.95902
1.904	-11.725	-34609	2210.8	0.24644	0.1869	0.95794
1.906	-11.708	-34606	2210.7	0.24683	0.18524	0.95882
1.908	-11.768	-34603	2210.6	0.24722	0.18359	0.9597
1.91	-11.828	-34600	2210.6	0.24761	0.18193	0.96058
1.912	-11.798	-34601	2210.6	0.248	0.18027	0.96146
1.914	-11.794	-34601	2210.6	0.24839	0.17861	0.96234
1.916	-11.746	-34597	2210.6	0.24888	0.17939	0.96136
1.918	-11.778	-34593	2210.5	0.24937	0.18017	0.96038
1.92	-11.826	-34593	2210.4	0.24986	0.18095	0.95941
1.922	-11.805	-34593	2210.3	0.25034	0.18173	0.95843
1.924	-11.79	-34589	2210.2	0.25083	0.18251	0.95746
1.926	-11.808	-34585	2210.1	0.25112	0.18144	0.95785
1.928	-11.757	-34585	2210	0.25142	0.18036	0.95824
1.93	-11.669	-34585	2209.8	0.25171	0.17929	0.95863
1.932	-11.678	-34587	2209.6	0.252	0.17822	0.95902
1.934	-11.737	-34589	2209.5	0.2523	0.17714	0.95941
1.936	-11.78	-34581	2209.4	0.252	0.17773	0.95931
1.938	-11.801	-34573	2209.3	0.25171	0.17832	0.95921
1.94	-11.773	-34576	2209.1	0.25142	0.1789	0.95912
1.942	-11.753	-34580	2209	0.25112	0.17949	0.95902
1.944	-11.783	-34580	2208.9	0.25083	0.18007	0.95892
1.946	-11.797	-34581	2208.9	0.25064	0.18066	0.95853
1.948	-11.793	-34577	2208.9	0.25044	0.18124	0.95814
1.95	-11.813	-34574	2208.8	0.25025	0.18183	0.95775
1.952	-11.828	-34570	2208.8	0.25005	0.18241	0.95736
1.954	-11.797	-34567	2208.8	0.24986	0.183	0.95697
1.956	-11.766	-34567	2208.7	0.25025	0.18271	0.95668
1.958	-11.754	-34567	2208.6	0.25064	0.18241	0.95638
1.96	-11.737	-34572	2208.5	0.25103	0.18212	0.95609
1.962	-11.737	-34577	2208.4	0.25142	0.18183	0.9558
1.964	-11.769	-34571	2208.3	0.25181	0.18154	0.9555
1.966	-11.802	-34565	2208.1	0.252	0.18115	0.95628
1.968	-11.79	-34564	2207.9	0.2522	0.18076	0.95707
1.97	-11.76	-34562	2207.7	0.25239	0.18036	0.95785
1.972	-11.75	-34560	2207.5	0.25259	0.17997	0.95863
1.974	-11.745	-34557	2207.2	0.25278	0.17958	0.95941
1.976	-11.771	-34558	2207	0.25298	0.17978	0.95941
1.978	-11.764	-34558	2206.8	0.25317	0.17997	0.95941
1.98	-11.747	-34557	2206.6	0.25337	0.18017	0.95941
1.982	-11.74	-34556	2206.3	0.25356	0.18036	0.95941
1.984	-11.743	-34555	2206.1	0.25376	0.18056	0.95941
1.986	-11.717	-34554	2205.9	0.25415	0.18085	0.95863
1.988	-11.686	-34555	2205.6	0.25454	0.18115	0.95785
1.99	-11.751	-34556	2205.4	0.25493	0.18144	0.95707
1.992	-11.828	-34557	2205.3	0.25532	0.18173	0.95628
1.994	-11.862	-34558	2205.1	0.25571	0.18202	0.9555
1.996	-11.841	-34563	2205	0.25522	0.18193	0.95472
1.998	-11.809	-34567	2205	0.25474	0.18183	0.95394
2	-11.784	-34565	2204.9	0.25425	0.18173	0.95316
2.002	-11.752	-34563	2204.7	0.25376	0.18163	0.95238
2.004	-11.761	-34559	2204.6	0.25327	0.18154	0.9516
2.006	-11.759	-34556	2204.5	0.25376	0.18105	0.95248
2.008	-11.77	-34555	2204.4	0.25425	0.18056	0.95336
2.01	-11.739	-34555	2204.2	0.25474	0.18007	0.95424
2.012	-11.718	-34554	2204.1	0.25522	0.17958	0.95511
2.014	-11.755	-34552	2204	0.25571	0.1791	0.95599
2.016	-11.787	-34552	2204	0.25532	0.179	0.95589
2.018	-11.801	-34552	2203.9	0.25493	0.1789	0.9558
2.02	-11.8	-34558	2203.8	0.25454	0.1788	0.9557
2.022	-11.799	-34564	2203.6	0.25415	0.17871	0.9556
2.024	-11.785	-34565	2203.5	0.25376	0.17861	0.9555
2.026	-11.76	-34566	2203.4	0.25366	0.17812	0.95638
2.028	-11.744	-34564	2203.2	0.25356	0.17763	0.95726
2.03	-11.747	-34563	2203.1	0.25347	0.17714	0.95814
2.032	-11.759	-34560	2203	0.25337	0.17666	0.95902
2.034	-11.788	-34556	2202.9	0.25327	0.17617	0.9599
2.036	-11.807	-34554	2202.9	0.25356	0.17607	0.9598
2.038	-11.796	-34552	2202.8	0.25386	0.17597	0.9597
2.04	-11.797	-34551	2202.8	0.25415	0.17588	0.9596
2.042	-11.825	-34549	2202.8	0.25444	0.17578	0.95951
2.044	-11.806	-34552	2202.8	0.25474	0.17568	0.95941
2.046	-11.746	-34555	2202.9	0.25425	0.17588	0.95951
2.048	-11.737	-34554	2203	0.25376	0.17607	0.9596
2.05	-11.775	-34553	2203.1	0.25327	0.17627	0.9597
2.052	-11.786	-34554	2203.3	0.25278	0.17646	0.9598
2.054	-11.768	-34554	2203.4	0.2523	0.17666	0.9599
2.056	-11.78	-34555	2203.6	0.25356	0.17714	0.95912
2.058	-11.785	-34557	2203.7	0.25483	0.17763	0.95833
2.06	-11.793	-34556	2203.9	0.2561	0.17812	0.95755
2.062	-11.811	-34555	2204.1	0.25737	0.17861	0.95677
2.064	-11.801	-34556	2204.3	0.25864	0.1791	0.95599
2.066	-11.764	-34557	2204.5	0.25786	0.17861	0.95707
2.068	-11.759	-34554	2204.6	0.25708	0.17812	0.95814
2.07	-11.757	-34551	2204.7	0.2563	0.17763	0.95921
2.072	-11.739	-34549	2204.8	0.25552	0.17714	0.96029
2.074	-11.735	-34547	2204.9	0.25474	0.17666	0.96136
2.076	-11.739	-34548	2205	0.25386	0.17685	0.96165
2.078	-11.785	-34550	2205.1	0.25298	0.17705	0.96195
2.08	-11.844	-34547	2205.2	0.2521	0.17724	0.96224
2.082	-11.794	-34545	2205.4	0.25122	0.17744	0.96253
2.084	-11.756	-34543	2205.5	0.25034	0.17763	0.96282
2.086	-11.762	-34541	2205.6	0.25064	0.17724	0.96282
2.088	-11.845	-34543	2205.7	0.25093	0.17685	0.96282
2.09	-11.893	-34544	2205.8	0.25122	0.17646	0.96282
2.092	-11.846	-34543	2205.9	0.25152	0.17607	0.96282
2.094	-11.789	-34543	2206.1	0.25181	0.17568	0.96282
2.096	-11.698	-34542	2206.1	0.25122	0.17607	0.96224
2.098	-11.696	-34542	2206.1	0.25064	0.17646	0.96165
2.1	-11.77	-34542	2206.2	0.25005	0.17685	0.96107
2.102	-11.826	-34543	2206.3	0.24947	0.17724	0.96048
2.104	-11.83	-34542	2206.3	0.24888	0.17763	0.9599
2.106	-11.776	-34542	2206.4	0.2479	0.17832	0.9598
2.108	-11.764	-34541	2206.4	0.24693	0.179	0.9597
2.11	-11.76	-34540	2206.5	0.24595	0.17968	0.9596
2.112	-11.731	-34540	2206.5	0.24498	0.18036	0.95951
2.114	-11.703	-34541	2206.6	0.244	0.18105	0.95941
2.116	-11.724	-34540	2206.6	0.24468	0.18017	0.9598
2.118	-11.767	-34539	2206.7	0.24537	0.17929	0.96019
2.12	-11.818	-34540	2206.7	0.24605	0.17841	0.96058
2.122	-11.848	-34541	2206.6	0.24673	0.17753	0.96097
2.124	-11.848	-34543	2206.6	0.24742	0.17666	0.96136
2.126	-11.838	-34544	2206.5	0.24751	0.17783	0.95999
2.128	-11.822	-34539	2206.4	0.24761	0.179	0.95863
2.13	-11.831	-34534	2206.4	0.24771	0.18017	0.95726
2.132	-11.843	-34534	2206.3	0.24781	0.18134	0.95589
2.134	-11.81	-34534	2206.2	0.2479	0.18251	0.95453
2.136	-11.762	-34533	2206	0.24781	0.18193	0.9558
2.138	-11.723	-34532	2205.9	0.24771	0.18134	0.95707
2.14	-11.711	-34528	2205.7	0.24761	0.18076	0.95833
2.142	-11.72	-34524	2205.6	0.24751	0.18017	0.9596
2.144	-11.744	-34526	2205.4	0.24742	0.17958	0.96087
2.146	-11.759	-34528	2205.3	0.24664	0.18036	0.95999
2.148	-11.786	-34524	2205.2	0.24585	0.18115	0.95912
2.15	-11.835	-34521	2205.1	0.24507	0.18193	0.95824
2.152	-11.852	-34518	2205	0.24429	0.18271	0.95736
2.154	-11.809	-34516	2204.9	0.24351	0.18349	0.95648
2.156	-11.799	-34521	2204.8	0.24371	0.1831	0.9555
2.158	-11.808	-34527	2204.7	0.2439	0.18271	0.95453
2.16	-11.771	-34527	2204.6	0.2441	0.18232	0.95355
2.162	-11.692	-34526	2204.5	0.24429	0.18193	0.95258
2.164	-11.733	-34526	2204.4	0.24449	0.18154	0.9516
2.166	-11.817	-34527	2204.5	0.24351	0.18115	0.95228
2.168	-11.883	-34525	2204.5	0.24254	0.18076	0.95297
2.17	-11.915	-34524	2204.5	0.24156	0.18036	0.95365
2.172	-11.877	-34522	2204.4	0.24058	0.17997	0.95433
2.174	-11.702	-34520	2204.3	0.23961	0.17958	0.95502
2.176	-11.681	-34519	2204.2	0.24068	0.18076	0.95531
2.178	-11.71	-34518	2204.1	0.24176	0.18193	0.9556
2.18	-11.72	-34515	2204	0.24283	0.1831	0.95589
2.182	-11.74	-34511	2203.8	0.2439	0.18427	0.95619
2.184	-11.764	-34518	2203.6	0.24498	0.18544	0.95648
2.186	-11.784	-34525	2203.4	0.24439	0.18524	0.95746
2.188	-11.777	-34527	2203.3	0.2438	0.18505	0.95843
2.19	-11.78	-34530	2203.1	0.24322	0.18485	0.95941
2.192	-11.774	-34528	2203	0.24263	0.18466	0.96038
2.194	-11.733	-34525	2202.8	0.24205	0.18446	0.96136
2.196	-11.736	-34526	2202.8	0.24283	0.18515	0.96146
2.198	-11.7	-34527	2202.7	0.24361	0.18583	0.96156
2.2	-11.713	-34525	2202.7	0.24439	0.18651	0.96165
2.202	-11.796	-34523	2202.7	0.24517	0.1872	0.96175
2.204	-11.866	-34525	2202.7	0.24595	0.18788	0.96185
2.206	-11.884	-34527	2202.7	0.24556	0.18739	0.96136
2.208	-11.844	-34524	2202.6	0.24517	0.1869	0.96087
2.21	-11.785	-34522	2202.6	0.24478	0.18642	0.96038
2.212	-11.729	-34524	2202.6	0.24439	0.18593	0.9599
2.214	-11.674	-34526	2202.7	0.244	0.18544	0.95941
2.216	-11.659	-34527	2202.6	0.24556	0.18407	0.95921
2.218	-11.708	-34527	2202.6	0.24712	0.18271	0.95902
2.22	-11.765	-34526	2202.6	0.24868	0.18134	0.95882
2.222	-11.76	-34526	2202.6	0.25025	0.17997	0.95863
2.224	-11.732	-34522	2202.6	0.25181	0.17861	0.95843
2.226	-11.74	-34518	2202.6	0.25152	0.17939	0.95843
2.228	-11.719	-34516	2202.6	0.25122	0.18017	0.95843
2.23	-11.678	-34514	2202.6	0.25093	0.18095	0.95843
2.232	-11.672	-34518	2202.5	0.25064	0.18173	0.95843
2.234	-11.709	-34522	2202.5	0.25034	0.18251	0.95843
2.236	-11.73	-34518	2202.4	0.24966	0.18183	0.9597
2.238	-11.735	-34513	2202.3	0.24898	0.18115	0.96097
2.24	-11.798	-34515	2202.2	0.24829	0.18046	0.96224
2.242	-11.848	-34517	2202.1	0.24761	0.17978	0.96351
2.244	-11.865	-34519	2201.9	0.24693	0.1791	0.96478
2.246	-11.872	-34520	2201.8	0.24742	0.18066	0.96448
2.248	-11.859	-34521	2201.7	0.2479	0.18222	0.96419
2.25	-11.832	-34521	2201.5	0.24839	0.18378	0.9639
2.252	-11.799	-34526	2201.4	0.24888	0.18534	0.9636
2.254	-11.703	-34531	2201.2	0.24937	0.1869	0.96331
2.256	-11.669	-34530	2201.2	0.24956	0.18564	0.9636
2.258	-11.777	-34528	2201.1	0.24976	0.18437	0.9639
2.26	-11.823	-34527	2201	0.24995	0.1831	0.96419
2.262	-11.84	-34527	2200.9	0.25015	0.18183	0.96448
2.264	-11.806	-34526	2200.8	0.25034	0.18056	0.96478
2.266	-11.762	-34526	2200.8	0.25015	0.18173	0.96478
2.268	-11.795	-34520	2200.7	0.24995	0.1829	0.96478
2.27	-11.811	-34515	2200.7	0.24976	0.18407	0.96478
2.272	-11.825	-34520	2200.6	0.24956	0.18524	0.96478
2.274	-11.772	-34525	2200.6	0.24937	0.18642	0.96478
2.276	-11.731	-34530	2200.6	0.25112	0.18612	0.96321
2.278	-11.772	-34535	2200.6	0.25288	0.18583	0.96165
2.28	-11.766	-34531	2200.6	0.25464	0.18554	0.96009
2.282	-11.761	-34528	2200.6	0.2564	0.18524	0.95853
2.284	-11.788	-34531	2200.6	0.25815	0.18495	0.95697
2.286	-11.84	-34534	2200.6	0.25903	0.18573	0.95765
2.288	-11.882	-34537	2200.6	0.25991	0.18651	0.95833
2.29	-11.891	-34539	2200.6	0.26079	0.18729	0.95902
2.292	-11.873	-34538	2200.5	0.26167	0.18808	0.9597
2.294	-11.809	-34537	2200.5	0.26254	0.18886	0.96038
2.296	-11.719	-34535	2200.4	0.2604	0.18768	0.96126
2.298	-11.685	-34533	2200.2	0.25825	0.18651	0.96214
2.3	-11.725	-34534	2200.1	0.2561	0.18534	0.96302
2.302	-11.795	-34534	2200	0.25396	0.18417	0.9639
2.304	-11.836	-34537	2199.8	0.25181	0.183	0.96478
2.306	-11.811	-34539	2199.6	0.2523	0.183	0.96468
2.308	-11.751	-34540	2199.5	0.25278	0.183	0.96458
2.31	-11.696	-34540	2199.3	0.25327	0.183	0.96448
2.312	-11.697	-34538	2199.2	0.25376	0.183	0.96439
2.314	-11.73	-34537	2199	0.25425	0.183	0.96429
2.316	-11.701	-34546	2198.8	0.25396	0.18232	0.96448
2.318	-11.651	-34554	2198.7	0.25366	0.18163	0.96468
2.32	-11.646	-34556	2198.5	0.25337	0.18095	0.96487
2.322	-11.665	-34557	2198.4	0.25308	0.18027	0.96507
2.324	-11.669	-34557	2198.3	0.25278	0.17958	0.96526
2.326	-11.695	-34557	2198.2	0.25298	0.17978	0.9639
2.328	-11.718	-34551	2198.2	0.25317	0.17997	0.96253
2.33	-11.731	-34544	2198.2	0.25337	0.18017	0.96116
2.332	-11.738	-34547	2198.2	0.25356	0.18036	0.9598
2.334	-11.711	-34550	2198.2	0.25376	0.18056	0.95843
2.336	-11.716	-34551	2198.2	0.25327	0.18095	0.95697
2.338	-11.79	-34553	2198.3	0.25278	0.18134	0.9555
2.34	-11.843	-34555	2198.3	0.2523	0.18173	0.95404
2.342	-11.891	-34556	2198.3	0.25181	0.18212	0.95258
2.344	-11.909	-34556	2198.4	0.25132	0.18251	0.95111
2.346	-11.9	-34557	2198.4	0.25171	0.18232	0.95189
2.348	-11.891	-34560	2198.4	0.2521	0.18212	0.95267
2.35	-11.844	-34564	2198.5	0.25249	0.18193	0.95345
2.352	-11.796	-34565	2198.5	0.25288	0.18173	0.95424
2.354	-11.77	-34566	2198.6	0.25327	0.18154	0.95502
2.356	-11.782	-34567	2198.7	0.25386	0.18271	0.95609
2.358	-11.775	-34569	2198.7	0.25444	0.18388	0.95716
2.36	-11.778	-34563	2198.9	0.25503	0.18505	0.95824
2.362	-11.806	-34558	2199	0.25561	0.18622	0.95931
2.364	-11.784	-34560	2199.2	0.2562	0.18739	0.96038
2.366	-11.756	-34563	2199.3	0.25522	0.18593	0.96048
2.368	-11.775	-34563	2199.4	0.25425	0.18446	0.96058
2.37	-11.822	-34564	2199.5	0.25327	0.183	0.96068
2.372	-11.861	-34561	2199.7	0.2523	0.18154	0.96077
2.374	-11.858	-34558	2199.8	0.25132	0.18007	0.96087
2.376	-11.832	-34563	2199.9	0.25249	0.17968	0.96029
2.378	-11.812	-34569	2199.9	0.25366	0.17929	0.9597
2.38	-11.794	-34571	2200	0.25483	0.1789	0.95912
2.382	-11.805	-34574	2200.1	0.256	0.17851	0.95853
2.384	-11.825	-34572	2200.1	0.25718	0.17812	0.95794
2.386	-11.798	-34570	2200.1	0.25561	0.1788	0.95677
2.388	-11.745	-34573	2200.1	0.25405	0.17949	0.9556
2.39	-11.726	-34575	2200.1	0.25249	0.18017	0.95443
2.392	-11.746	-34577	2200.2	0.25093	0.18085	0.95326
2.394	-11.776	-34579	2200.2	0.24937	0.18154	0.95209
2.396	-11.81	-34580	2200.2	0.24839	0.1829	0.95189
2.398	-11.853	-34581	2200.2	0.24742	0.18427	0.9517
2.4	-11.85	-34578	2200.2	0.24644	0.18564	0.9515
2.402	-11.803	-34576	2200.1	0.24546	0.187	0.95131
2.404	-11.766	-34581	2200.1	0.24449	0.18837	0.95111
2.406	-11.772	-34587	2200.1	0.24507	0.18837	0.9518
2.408	-11.791	-34583	2200.1	0.24566	0.18837	0.95248
2.41	-11.832	-34578	2200.1	0.24624	0.18837	0.95316
2.412	-11.883	-34580	2200.1	0.24683	0.18837	0.95384
2.414	-11.892	-34582	2200.1	0.24742	0.18837	0.95453
2.416	-11.819	-34582	2200.2	0.24693	0.18808	0.95404
2.418	-11.761	-34583	2200.2	0.24644	0.18778	0.95355
2.42	-11.722	-34589	2200.2	0.24595	0.18749	0.95306
2.422	-11.742	-34594	2200.2	0.24546	0.1872	0.95258
2.424	-11.743	-34590	2200.1	0.24498	0.1869	0.95209
2.426	-11.771	-34586	2200.1	0.24556	0.18651	0.95209
2.428	-11.784	-34593	2200	0.24615	0.18612	0.95209
2.43	-11.777	-34601	2199.9	0.24673	0.18573	0.95209
2.432	-11.758	-34596	2199.9	0.24732	0.18534	0.95209
2.434	-11.768	-34592	2199.9	0.2479	0.18495	0.95209
2.436	-11.782	-34593	2199.8	0.2479	0.18505	0.95248
2.438	-11.813	-34593	2199.7	0.2479	0.18515	0.95287
2.44	-11.806	-34590	2199.7	0.2479	0.18524	0.95326
2.442	-11.82	-34587	2199.7	0.2479	0.18534	0.95365
2.444	-11.837	-34593	2199.7	0.2479	0.18544	0.95404
2.446	-11.782	-34599	2199.7	0.24693	0.18495	0.95228
2.448	-11.772	-34601	2199.7	0.24595	0.18446	0.95053
2.45	-11.781	-34603	2199.7	0.24498	0.18398	0.94877
2.452	-11.758	-34603	2199.8	0.244	0.18349	0.94701
2.454	-11.761	-34603	2199.8	0.24302	0.183	0.94526
2.456	-11.816	-34606	2199.8	0.24459	0.18241	0.94477
2.458	-11.865	-34610	2199.8	0.24615	0.18183	0.94428
2.46	-11.853	-34603	2199.9	0.24771	0.18124	0.94379
2.462	-11.806	-34597	2199.8	0.24927	0.18066	0.9433
2.464	-11.766	-34607	2199.8	0.25083	0.18007	0.94282
2.466	-11.764	-34618	2199.8	0.25005	0.18056	0.94369
2.468	-11.792	-34613	2199.7	0.24927	0.18105	0.94457
2.47	-11.802	-34607	2199.7	0.24849	0.18154	0.94545
2.472	-11.799	-34605	2199.6	0.24771	0.18202	0.94633
2.474	-11.779	-34602	2199.5	0.24693	0.18251	0.94721
2.476	-11.717	-34602	2199.4	0.24751	0.1828	0.94779
2.478	-11.694	-34603	2199.3	0.2481	0.1831	0.94838
2.48	-11.766	-34606	2199.3	0.24868	0.18339	0.94896
2.482	-11.85	-34609	2199.3	0.24927	0.18368	0.94955
2.484	-11.891	-34614	2199.3	0.24986	0.18398	0.95014
2.486	-11.898	-34619	2199.3	0.25142	0.18359	0.95101
2.488	-11.875	-34621	2199.3	0.25298	0.1832	0.95189
2.49	-11.759	-34624	2199.3	0.25454	0.1828	0.95277
2.492	-11.678	-34623	2199.3	0.2561	0.18241	0.95365
2.494	-11.7	-34623	2199.4	0.25766	0.18202	0.95453
2.496	-11.797	-34623	2199.4	0.25513	0.18202	0.95316
2.498	-11.799	-34622	2199.5	0.25259	0.18202	0.9518
2.5	-11.755	-34624	2199.5	0.25005	0.18202	0.95043
2.502	-11.763	-34626	2199.6	0.24751	0.18202	0.94906
2.504	-11.753	-34625	2199.6	0.24498	0.18202	0.9477
2.506	-11.717	-34623	2199.6	0.24556	0.18271	0.94857
2.508	-11.706	-34628	2199.7	0.24615	0.18339	0.94945
2.51	-11.754	-34633	2199.8	0.24673	0.18407	0.95033
2.512	-11.795	-34634	2200	0.24732	0.18476	0.95121
2.514	-11.794	-34636	2200.1	0.2479	0.18544	0.95209
2.516	-11.757	-34636	2200.4	0.24917	0.18427	0.95209
2.518	-11.752	-34636	2200.7	0.25044	0.1831	0.95209
2.52	-11.807	-34632	2201	0.25171	0.18193	0.95209
2.522	-11.806	-34628	2201.3	0.25298	0.18076	0.95209
2.524	-11.794	-34632	2201.7	0.25425	0.17958	0.95209
2.526	-11.752	-34636	2202	0.25376	0.17949	0.9514
2.528	-11.672	-34636	2202.4	0.25327	0.17939	0.95072
2.53	-11.712	-34635	2202.7	0.25278	0.17929	0.95004
2.532	-11.775	-34634	2203.1	0.2523	0.17919	0.94936
2.534	-11.802	-34633	2203.5	0.25181	0.1791	0.94867
2.536	-11.837	-34636	2203.9	0.25298	0.18036	0.94955
2.538	-11.843	-34638	2204.3	0.25415	0.18163	0.95043
2.54	-11.79	-34637	2204.8	0.25532	0.1829	0.95131
2.542	-11.738	-34636	2205.2	0.25649	0.18417	0.95219
2.544	-11.711	-34635	2205.6	0.25766	0.18544	0.95306
2.546	-11.711	-34634	2206	0.25708	0.18632	0.95531
2.548	-11.717	-34637	2206.4	0.25649	0.1872	0.95755
2.55	-11.795	-34639	2206.8	0.25591	0.18808	0.9598
2.552	-11.873	-34640	2207.2	0.25532	0.18895	0.96204
2.554	-11.817	-34641	2207.6	0.25474	0.18983	0.96429
2.556	-11.71	-34638	2208	0.25581	0.18915	0.96292
2.558	-11.656	-34635	2208.4	0.25688	0.18847	0.96156
2.56	-11.637	-34635	2208.8	0.25796	0.18778	0.96019
2.562	-11.642	-34634	2209.3	0.25903	0.1871	0.95882
2.564	-11.669	-34630	2209.7	0.2601	0.18642	0.95746
2.566	-11.687	-34626	2210	0.25932	0.18622	0.95824
2.568	-11.685	-34625	2210.4	0.25854	0.18603	0.95902
2.57	-11.702	-34624	2210.7	0.25776	0.18583	0.9598
2.572	-11.743	-34626	2211	0.25698	0.18564	0.96058
2.574	-11.761	-34628	2211.3	0.2562	0.18544	0.96136
2.576	-11.754	-34624	2211.6	0.25688	0.18573	0.96087
2.578	-11.742	-34621	2211.9	0.25757	0.18603	0.96038
2.58	-11.726	-34618	2212.2	0.25825	0.18632	0.9599
2.582	-11.73	-34615	2212.5	0.25893	0.18661	0.95941
2.584	-11.783	-34616	2212.7	0.25962	0.1869	0.95892
2.586	-11.783	-34616	2213.1	0.25815	0.18515	0.95912
2.588	-11.747	-34609	2213.4	0.25669	0.18339	0.95931
2.59	-11.71	-34602	2213.7	0.25522	0.18163	0.95951
2.592	-11.661	-34595	2214	0.25376	0.17988	0.9597
2.594	-11.69	-34588	2214.3	0.2523	0.17812	0.9599
2.596	-11.721	-34589	2214.6	0.25112	0.1791	0.96029
2.598	-11.769	-34590	2214.9	0.24995	0.18007	0.96068
2.6	-11.785	-34584	2215.1	0.24878	0.18105	0.96107
2.602	-11.758	-34577	2215.3	0.24761	0.18202	0.96146
2.604	-11.724	-34576	2215.5	0.24644	0.183	0.96185
2.606	-11.732	-34575	2215.7	0.24478	0.18349	0.96234
2.608	-11.748	-34567	2215.9	0.24312	0.18398	0.96282
2.61	-11.777	-34559	2216.1	0.24146	0.18446	0.96331
2.612	-11.843	-34558	2216.2	0.2398	0.18495	0.9638
2.614	-11.849	-34558	2216.4	0.23814	0.18544	0.96429
2.616	-11.774	-34559	2216.5	0.23892	0.18603	0.96448
2.618	-11.738	-34560	2216.6	0.23971	0.18661	0.96468
2.62	-11.7	-34551	2216.7	0.24049	0.1872	0.96487
2.622	-11.677	-34543	2216.8	0.24127	0.18778	0.96507
2.624	-11.689	-34537	2216.9	0.24205	0.18837	0.96526
2.626	-11.728	-34531	2216.9	0.24273	0.18729	0.96458
2.628	-11.742	-34529	2216.8	0.24341	0.18622	0.9639
2.63	-11.734	-34528	2216.8	0.2441	0.18515	0.96321
2.632	-11.715	-34521	2216.7	0.24478	0.18407	0.96253
2.634	-11.728	-34515	2216.7	0.24546	0.183	0.96185
2.636	-11.789	-34512	2216.6	0.24468	0.18368	0.96253
2.638	-11.843	-34510	2216.5	0.2439	0.18437	0.96321
2.64	-11.843	-34505	2216.5	0.24312	0.18505	0.9639
2.642	-11.815	-34500	2216.4	0.24234	0.18573	0.96458
2.644	-11.817	-34493	2216.4	0.24156	0.18642	0.96526
2.646	-11.831	-34486	2216.3	0.24195	0.1869	0.96595
2.648	-11.795	-34482	2216.2	0.24234	0.18739	0.96663
2.65	-11.719	-34479	2216.2	0.24273	0.18788	0.96731
2.652	-11.685	-34473	2216.3	0.24312	0.18837	0.968
2.654	-11.742	-34467	2216.3	0.24351	0.18886	0.96868
2.656	-11.821	-34465	2216.5	0.24341	0.18856	0.96731
2.658	-11.864	-34462	2216.6	0.24332	0.18827	0.96595
2.66	-11.871	-34459	2216.7	0.24322	0.18798	0.96458
2.662	-11.838	-34456	2216.8	0.24312	0.18768	0.96321
2.664	-11.768	-34456	2217	0.24302	0.18739	0.96185
2.666	-11.776	-34457	2217	0.24361	0.18739	0.96126
2.668	-11.786	-34449	2217	0.2442	0.18739	0.96068
2.67	-11.745	-34442	2217	0.24478	0.18739	0.96009
2.672	-11.788	-34437	2217	0.24537	0.18739	0.95951
2.674	-11.836	-34432	2217	0.24595	0.18739	0.95892
2.676	-11.816	-34432	2217	0.24585	0.18827	0.96029
2.678	-11.747	-34432	2217	0.24576	0.18915	0.96165
2.68	-11.759	-34428	2216.9	0.24566	0.19003	0.96302
2.682	-11.768	-34424	2216.9	0.24556	0.19091	0.96439
2.684	-11.792	-34423	2216.8	0.24546	0.19178	0.96575
2.686	-11.789	-34422	2216.7	0.24624	0.1912	0.96634
2.688	-11.802	-34421	2216.6	0.24703	0.19061	0.96692
2.69	-11.833	-34420	2216.5	0.24781	0.19003	0.96751
2.692	-11.79	-34409	2216.4	0.24859	0.18944	0.96809
2.694	-11.695	-34399	2216.3	0.24937	0.18886	0.96868
2.696	-11.745	-34401	2216.1	0.24908	0.18837	0.96731
2.698	-11.772	-34404	2216	0.24878	0.18788	0.96595
2.7	-11.756	-34405	2215.8	0.24849	0.18739	0.96458
2.702	-11.734	-34406	2215.7	0.2482	0.1869	0.96321
2.704	-11.788	-34402	2215.5	0.2479	0.18642	0.96185
2.706	-11.839	-34397	2215.4	0.2479	0.18681	0.96253
2.708	-11.843	-34396	2215.3	0.2479	0.1872	0.96321
2.71	-11.843	-34394	2215.1	0.2479	0.18759	0.9639
2.712	-11.842	-34386	2215	0.2479	0.18798	0.96458
2.714	-11.848	-34378	2214.8	0.2479	0.18837	0.96526
2.716	-11.815	-34370	2214.6	0.24742	0.18866	0.96478
2.718	-11.752	-34362	2214.4	0.24693	0.18895	0.96429
2.72	-11.748	-34361	2214.2	0.24644	0.18925	0.9638
2.722	-11.809	-34360	2214	0.24595	0.18954	0.96331
2.724	-11.875	-34360	2213.8	0.24546	0.18983	0.96282
2.726	-11.895	-34361	2213.7	0.24634	0.18944	0.96351
2.728	-11.844	-34362	2213.5	0.24722	0.18905	0.96419
2.73	-11.776	-34363	2213.4	0.2481	0.18866	0.96487
2.732	-11.721	-34359	2213.3	0.24898	0.18827	0.96556
2.734	-11.696	-34354	2213.2	0.24986	0.18788	0.96624
2.736	-11.748	-34352	2213.1	0.25103	0.1869	0.96439
2.738	-11.8	-34351	2213	0.2522	0.18593	0.96253
2.74	-11.831	-34349	2212.9	0.25337	0.18495	0.96068
2.742	-11.814	-34347	2212.8	0.25454	0.18398	0.95882
2.744	-11.745	-34345	2212.7	0.25571	0.183	0.95697
2.746	-11.759	-34342	2212.6	0.25591	0.18359	0.95785
2.748	-11.806	-34339	2212.6	0.2561	0.18417	0.95872
2.75	-11.817	-34336	2212.5	0.2563	0.18476	0.9596
2.752	-11.795	-34332	2212.4	0.25649	0.18534	0.96048
2.754	-11.802	-34327	2212.3	0.25669	0.18593	0.96136
2.756	-11.836	-34332	2212.2	0.2564	0.18544	0.96038
2.758	-11.81	-34336	2212.1	0.2561	0.18495	0.95941
2.76	-11.805	-34337	2212	0.25581	0.18446	0.95843
2.762	-11.769	-34338	2211.9	0.25552	0.18398	0.95746
2.764	-11.783	-34333	2211.8	0.25522	0.18349	0.95648
2.766	-11.812	-34328	2211.7	0.2562	0.18485	0.95716
2.768	-11.831	-34328	2211.7	0.25718	0.18622	0.95785
2.77	-11.809	-34329	2211.6	0.25815	0.18759	0.95853
2.772	-11.825	-34328	2211.5	0.25913	0.18895	0.95921
2.774	-11.767	-34328	2211.5	0.2601	0.19032	0.9599
2.776	-11.746	-34328	2211.4	0.25942	0.18973	0.96019
2.778	-11.753	-34328	2211.4	0.25874	0.18915	0.96048
2.78	-11.8	-34325	2211.4	0.25805	0.18856	0.96077
2.782	-11.824	-34321	2211.3	0.25737	0.18798	0.96107
2.784	-11.836	-34319	2211.3	0.25669	0.18739	0.96136
2.786	-11.849	-34317	2211.3	0.25708	0.187	0.96097
2.788	-11.868	-34315	2211.2	0.25747	0.18661	0.96058
2.79	-11.891	-34312	2211.2	0.25786	0.18622	0.96019
2.792	-11.817	-34312	2211.2	0.25825	0.18583	0.9598
2.794	-11.726	-34312	2211.3	0.25864	0.18544	0.95941
2.796	-11.704	-34313	2211.3	0.25864	0.18524	0.95872
2.798	-11.723	-34314	2211.3	0.25864	0.18505	0.95804
2.8	-11.752	-34312	2211.3	0.25864	0.18485	0.95736
2.802	-11.772	-34310	2211.3	0.25864	0.18466	0.95668
2.804	-11.762	-34308	2211.3	0.25864	0.18446	0.95599
2.806	-11.765	-34306	2211.4	0.25903	0.18476	0.95589
2.808	-11.791	-34306	2211.4	0.25942	0.18505	0.9558
2.81	-11.814	-34306	2211.4	0.25981	0.18534	0.9557
2.812	-11.814	-34309	2211.5	0.2602	0.18564	0.9556
2.814	-11.805	-34312	2211.5	0.26059	0.18593	0.9555
2.816	-11.81	-34308	2211.6	0.25786	0.18583	0.95394
2.818	-11.835	-34303	2211.7	0.25513	0.18573	0.95238
2.82	-11.878	-34302	2211.8	0.25239	0.18564	0.95082
2.822	-11.874	-34300	2211.8	0.24966	0.18554	0.94926
2.824	-11.808	-34302	2211.9	0.24693	0.18544	0.9477
2.826	-11.768	-34304	2212	0.2479	0.18495	0.94818
2.828	-11.781	-34304	2212.1	0.24888	0.18446	0.94867
2.83	-11.782	-34305	2212.1	0.24986	0.18398	0.94916
2.832	-11.798	-34305	2212.2	0.25083	0.18349	0.94965
2.834	-11.83	-34306	2212.3	0.25181	0.183	0.95014
2.836	-11.843	-34306	2212.4	0.25073	0.18339	0.95033
2.838	-11.785	-34305	2212.5	0.24966	0.18378	0.95053
2.84	-11.783	-34306	2212.6	0.24859	0.18417	0.95072
2.842	-11.856	-34308	2212.7	0.24751	0.18456	0.95092
2.844	-11.862	-34307	2212.8	0.24644	0.18495	0.95111
2.846	-11.796	-34305	2212.8	0.24644	0.18505	0.95072
2.848	-11.762	-34302	2212.9	0.24644	0.18515	0.95033
2.85	-11.765	-34298	2213	0.24644	0.18524	0.94994
2.852	-11.798	-34296	2213	0.24644	0.18534	0.94955
2.854	-11.816	-34294	2213.1	0.24644	0.18544	0.94916
2.856	-11.801	-34293	2213.2	0.24664	0.18485	0.94945
2.858	-11.798	-34292	2213.2	0.24683	0.18427	0.94975
2.86	-11.802	-34296	2213.3	0.24703	0.18368	0.95004
2.862	-11.812	-34300	2213.4	0.24722	0.1831	0.95033
2.864	-11.849	-34294	2213.5	0.24742	0.18251	0.95062
2.866	-11.883	-34288	2213.5	0.24732	0.18359	0.95131
2.868	-11.849	-34286	2213.5	0.24722	0.18466	0.95199
2.87	-11.79	-34284	2213.5	0.24712	0.18573	0.95267
2.872	-11.749	-34285	2213.6	0.24703	0.18681	0.95336
2.874	-11.748	-34287	2213.6	0.24693	0.18788	0.95404
2.876	-11.773	-34283	2213.7	0.24654	0.18729	0.95287
2.878	-11.806	-34280	2213.8	0.24615	0.18671	0.9517
2.88	-11.83	-34285	2213.8	0.24576	0.18612	0.95053
2.882	-11.811	-34290	2213.8	0.24537	0.18554	0.94936
2.884	-11.778	-34284	2213.8	0.24498	0.18495	0.94818
2.886	-11.739	-34278	2213.8	0.24507	0.18544	0.94926
2.888	-11.751	-34282	2213.8	0.24517	0.18593	0.95033
2.89	-11.799	-34286	2213.9	0.24527	0.18642	0.9514
2.892	-11.85	-34279	2213.9	0.24537	0.1869	0.95248
2.894	-11.874	-34271	2214	0.24546	0.18739	0.95355
2.896	-11.864	-34268	2214	0.24605	0.18749	0.95345
2.898	-11.851	-34264	2214.1	0.24664	0.18759	0.95336
2.9	-11.824	-34264	2214.1	0.24722	0.18768	0.95326
2.902	-11.77	-34264	2214.1	0.24781	0.18778	0.95316
2.904	-11.747	-34264	2214.1	0.24839	0.18788	0.95306
2.906	-11.783	-34264	2214.1	0.24761	0.18759	0.95306
2.908	-11.828	-34264	2214.1	0.24683	0.18729	0.95306
2.91	-11.836	-34263	2214	0.24605	0.187	0.95306
2.912	-11.835	-34265	2213.9	0.24527	0.18671	0.95306
2.914	-11.82	-34266	2213.9	0.24449	0.18642	0.95306
2.916	-11.829	-34263	2213.8	0.24449	0.18651	0.95297
2.918	-11.859	-34261	2213.8	0.24449	0.18661	0.95287
2.92	-11.856	-34258	2213.7	0.24449	0.18671	0.95277
2.922	-11.862	-34256	2213.6	0.24449	0.18681	0.95267
2.924	-11.835	-34256	2213.6	0.24449	0.1869	0.95258
2.926	-11.77	-34256	2213.5	0.24556	0.18573	0.95219
2.928	-11.757	-34255	2213.5	0.24664	0.18456	0.9518
2.93	-11.8	-34254	2213.5	0.24771	0.18339	0.9514
2.932	-11.846	-34253	2213.4	0.24878	0.18222	0.95101
2.934	-11.796	-34253	2213.4	0.24986	0.18105	0.95062
2.936	-11.829	-34248	2213.4	0.25005	0.18173	0.95053
2.938	-11.861	-34243	2213.3	0.25025	0.18241	0.95043
2.94	-11.844	-34248	2213.3	0.25044	0.1831	0.95033
2.942	-11.778	-34252	2213.3	0.25064	0.18378	0.95023
2.944	-11.712	-34249	2213.2	0.25083	0.18446	0.95014
2.946	-11.72	-34245	2213.2	0.24995	0.18466	0.95023
2.948	-11.753	-34243	2213.1	0.24908	0.18485	0.95033
2.95	-11.775	-34242	2213	0.2482	0.18505	0.95043
2.952	-11.771	-34242	2212.8	0.24732	0.18524	0.95053
2.954	-11.796	-34242	2212.7	0.24644	0.18544	0.95062
2.956	-11.815	-34240	2212.5	0.248	0.18485	0.95092
2.958	-11.796	-34238	2212.4	0.24956	0.18427	0.95121
2.96	-11.794	-34240	2212.3	0.25112	0.18368	0.9515
2.962	-11.815	-34242	2212.2	0.25269	0.1831	0.9518
2.964	-11.836	-34243	2212	0.25425	0.18251	0.95209
2.966	-11.865	-34244	2212	0.25435	0.18183	0.95316
2.968	-11.903	-34248	2211.9	0.25444	0.18115	0.95424
2.97	-11.909	-34251	2211.8	0.25454	0.18046	0.95531
2.972	-11.867	-34246	2211.6	0.25464	0.17978	0.95638
2.974	-11.81	-34242	2211.5	0.25474	0.1791	0.95746
2.976	-11.74	-34244	2211.4	0.25561	0.18046	0.95736
2.978	-11.722	-34246	2211.3	0.25649	0.18183	0.95726
2.98	-11.773	-34246	2211.2	0.25737	0.1832	0.95716
2.982	-11.811	-34246	2211	0.25825	0.18456	0.95707
2.984	-11.829	-34243	2210.9	0.25913	0.18593	0.95697
2.986	-11.834	-34239	2210.8	0.25884	0.18515	0.95687
2.988	-11.822	-34238	2210.7	0.25854	0.18437	0.95677
2.99	-11.822	-34236	2210.5	0.25825	0.18359	0.95668
2.992	-11.849	-34242	2210.4	0.25796	0.1828	0.95658
2.994	-11.877	-34247	2210.2	0.25766	0.18202	0.95648
2.996	-11.843	-34248	2210	0.25747	0.18271	0.95755
2.998	-11.767	-34248	2209.8	0.25727	0.18339	0.95863
3	-11.726	-34248	2209.7	0.25708	0.18407	0.9597
3.002	-11.75	-34249	2209.5	0.25688	0.18476	0.96077
3.004	-11.713	-34247	2209.4	0.25669	0.18544	0.96185
3.006	-11.754	-34246	2209.2	0.25718	0.18515	0.96136
3.008	-11.81	-34241	2209.1	0.25766	0.18485	0.96087
3.01	-11.758	-34235	2208.9	0.25815	0.18456	0.96038
3.012	-11.732	-34240	2208.7	0.25864	0.18427	0.9599
3.014	-11.73	-34246	2208.5	0.25913	0.18398	0.95941
3.016	-11.717	-34246	2208.3	0.26049	0.18407	0.95843
3.018	-11.681	-34246	2208.1	0.26186	0.18417	0.95746
3.02	-11.723	-34238	2207.9	0.26323	0.18427	0.95648
3.022	-11.723	-34229	2207.8	0.26459	0.18437	0.9555
3.024	-11.791	-34234	2207.7	0.26596	0.18446	0.95453
3.026	-11.802	-34239	2207.7	0.26567	0.18485	0.95502
3.028	-11.779	-34241	2207.7	0.26537	0.18524	0.9555
3.03	-11.736	-34243	2207.7	0.26508	0.18564	0.95599
3.032	-11.763	-34250	2207.6	0.26479	0.18603	0.95648
3.034	-11.813	-34256	2207.5	0.2645	0.18642	0.95697
3.036	-11.844	-34245	2207.4	0.2643	0.18573	0.95736
3.038	-11.856	-34234	2207.3	0.26411	0.18505	0.95775
3.04	-11.824	-34242	2207.3	0.26391	0.18437	0.95814
3.042	-11.787	-34249	2207.2	0.26372	0.18368	0.95853
3.044	-11.759	-34242	2207.1	0.26352	0.183	0.95892
3.046	-11.782	-34235	2207	0.26167	0.18251	0.95941
3.048	-11.833	-34244	2207	0.25981	0.18202	0.9599
3.05	-11.856	-34253	2206.9	0.25796	0.18154	0.96038
3.052	-11.862	-34251	2206.9	0.2561	0.18105	0.96087
3.054	-11.854	-34249	2206.8	0.25425	0.18056	0.96136
3.056	-11.792	-34252	2206.8	0.25308	0.18115	0.96204
3.058	-11.746	-34254	2206.7	0.25191	0.18173	0.96273
3.06	-11.771	-34250	2206.6	0.25073	0.18232	0.96341
3.062	-11.804	-34245	2206.6	0.24956	0.1829	0.96409
3.064	-11.831	-34248	2206.5	0.24839	0.18349	0.96478
3.066	-11.88	-34251	2206.5	0.24966	0.18271	0.964
3.068	-11.902	-34252	2206.5	0.25093	0.18193	0.96321
3.07	-11.865	-34253	2206.5	0.2522	0.18115	0.96243
3.072	-11.838	-34249	2206.5	0.25347	0.18036	0.96165
3.074	-11.883	-34246	2206.5	0.25474	0.17958	0.96087
3.076	-11.935	-34248	2206.5	0.25561	0.18046	0.96019
3.078	-11.868	-34251	2206.5	0.25649	0.18134	0.95951
3.08	-11.749	-34251	2206.5	0.25737	0.18222	0.95882
3.082	-11.75	-34251	2206.5	0.25825	0.1831	0.95814
3.084	-11.783	-34261	2206.5	0.25913	0.18398	0.95746
3.086	-11.777	-34271	2206.4	0.26069	0.18329	0.95736
3.088	-11.777	-34267	2206.3	0.26225	0.18261	0.95726
3.09	-11.777	-34262	2206.3	0.26381	0.18193	0.95716
3.092	-11.786	-34253	2206.2	0.26537	0.18124	0.95707
3.094	-11.833	-34244	2206.1	0.26694	0.18056	0.95697
3.096	-11.841	-34253	2206	0.26684	0.18056	0.95726
3.098	-11.808	-34262	2205.9	0.26674	0.18056	0.95755
3.1	-11.784	-34259	2205.8	0.26664	0.18056	0.95785
3.102	-11.755	-34255	2205.7	0.26655	0.18056	0.95814
3.104	-11.77	-34256	2205.6	0.26645	0.18056	0.95843
3.106	-11.773	-34258	2205.6	0.26557	0.18154	0.95902
3.108	-11.796	-34263	2205.5	0.26469	0.18251	0.9596
3.11	-11.777	-34268	2205.5	0.26381	0.18349	0.96019
3.112	-11.768	-34272	2205.6	0.26293	0.18446	0.96077
3.114	-11.737	-34277	2205.6	0.26206	0.18544	0.96136
3.116	-11.661	-34270	2205.6	0.26128	0.18515	0.96019
3.118	-11.641	-34263	2205.6	0.26049	0.18485	0.95902
3.12	-11.679	-34261	2205.5	0.25971	0.18456	0.95785
3.122	-11.676	-34260	2205.5	0.25893	0.18427	0.95668
3.124	-11.667	-34264	2205.5	0.25815	0.18398	0.9555
3.126	-11.702	-34269	2205.5	0.25727	0.18349	0.95482
3.128	-11.742	-34270	2205.4	0.2564	0.183	0.95414
3.13	-11.732	-34271	2205.4	0.25552	0.18251	0.95345
3.132	-11.745	-34268	2205.4	0.25464	0.18202	0.95277
3.134	-11.804	-34265	2205.4	0.25376	0.18154	0.95209
3.136	-11.9	-34267	2205.3	0.2522	0.18271	0.95209
3.138	-11.981	-34270	2205.3	0.25064	0.18388	0.95209
3.14	-11.951	-34269	2205.2	0.24908	0.18505	0.95209
3.142	-11.874	-34268	2205.2	0.24751	0.18622	0.95209
3.144	-11.889	-34274	2205.1	0.24595	0.18739	0.95209
3.146	-11.95	-34281	2205.1	0.24683	0.18593	0.9514
3.148	-11.938	-34280	2205	0.24771	0.18446	0.95072
3.15	-11.866	-34279	2205	0.24859	0.183	0.95004
3.152	-11.803	-34280	2205.1	0.24947	0.18154	0.94936
3.154	-11.812	-34280	2205.1	0.25034	0.18007	0.94867
3.156	-11.848	-34283	2205.2	0.25073	0.18056	0.94867
3.158	-11.83	-34286	2205.3	0.25112	0.18105	0.94867
3.16	-11.826	-34284	2205.2	0.25152	0.18154	0.94867
3.162	-11.834	-34281	2205	0.25191	0.18202	0.94867
3.164	-11.792	-34285	2204.8	0.2523	0.18251	0.94867
3.166	-11.776	-34290	2204.8	0.25317	0.1832	0.94975
3.168	-11.793	-34293	2204.7	0.25405	0.18388	0.95082
3.17	-11.8	-34295	2204.7	0.25493	0.18456	0.95189
3.172	-11.857	-34293	2204.7	0.25581	0.18524	0.95297
3.174	-11.936	-34290	2204.8	0.25669	0.18593	0.95404
3.176	-11.884	-34297	2204.8	0.25571	0.18437	0.95384
3.178	-11.742	-34305	2204.8	0.25474	0.1828	0.95365
3.18	-11.714	-34303	2204.8	0.25376	0.18124	0.95345
3.182	-11.737	-34300	2204.7	0.25278	0.17968	0.95326
3.184	-11.78	-34299	2204.7	0.25181	0.17812	0.95306
3.186	-11.794	-34297	2204.5	0.25005	0.17949	0.95238
3.188	-11.786	-34301	2204.3	0.24829	0.18085	0.9517
3.19	-11.841	-34304	2204.1	0.24654	0.18222	0.95101
3.192	-11.854	-34304	2203.9	0.24478	0.18359	0.95033
3.194	-11.808	-34305	2203.6	0.24302	0.18495	0.94965
3.196	-11.841	-34302	2203.4	0.24361	0.18485	0.94994
3.198	-11.872	-34300	2203.2	0.2442	0.18476	0.95023
3.2	-11.869	-34306	2203	0.24478	0.18466	0.95053
3.202	-11.854	-34313	2202.9	0.24537	0.18456	0.95082
3.204	-11.815	-34307	2202.8	0.24595	0.18446	0.95111
3.206	-11.842	-34300	2202.6	0.2441	0.18388	0.95043
3.208	-11.849	-34301	2202.4	0.24224	0.18329	0.94975
3.21	-11.802	-34301	2202.3	0.24039	0.18271	0.94906
3.212	-11.802	-34307	2202.2	0.23853	0.18212	0.94838
3.214	-11.845	-34314	2202.1	0.23668	0.18154	0.9477
3.216	-11.853	-34312	2202.1	0.23824	0.18154	0.94652
3.218	-11.881	-34310	2202.1	0.2398	0.18154	0.94535
3.22	-11.914	-34309	2202.2	0.24136	0.18154	0.94418
3.222	-11.899	-34308	2202.2	0.24293	0.18154	0.94301
3.224	-11.842	-34305	2202.3	0.24449	0.18154	0.94184
3.226	-11.808	-34301	2202.4	0.24683	0.18124	0.94194
3.228	-11.774	-34302	2202.4	0.24917	0.18095	0.94204
3.23	-11.761	-34303	2202.4	0.25152	0.18066	0.94213
3.232	-11.797	-34310	2202.4	0.25386	0.18036	0.94223
3.234	-11.814	-34317	2202.4	0.2562	0.18007	0.94233
3.236	-11.793	-34318	2202.3	0.25513	0.17958	0.94438
3.238	-11.809	-34319	2202.2	0.25405	0.1791	0.94643
3.24	-11.845	-34323	2202.1	0.25298	0.17861	0.94848
3.242	-11.836	-34326	2201.9	0.25191	0.17812	0.95053
3.244	-11.803	-34325	2201.8	0.25083	0.17763	0.95258
3.246	-11.78	-34324	2201.7	0.25308	0.17861	0.95336
3.248	-11.782	-34326	2201.6	0.25532	0.17958	0.95414
3.25	-11.783	-34329	2201.5	0.25757	0.18056	0.95492
3.252	-11.771	-34329	2201.4	0.25981	0.18154	0.9557
3.254	-11.79	-34330	2201.3	0.26206	0.18251	0.95648
3.256	-11.823	-34329	2201.3	0.26215	0.18241	0.95599
3.258	-11.831	-34329	2201.2	0.26225	0.18232	0.9555
3.26	-11.831	-34325	2201.1	0.26235	0.18222	0.95502
3.262	-11.837	-34322	2201	0.26245	0.18212	0.95453
3.264	-11.843	-34326	2201	0.26254	0.18202	0.95404
3.266	-11.811	-34330	2200.9	0.26147	0.18183	0.95472
3.268	-11.74	-34336	2200.8	0.2604	0.18163	0.95541
3.27	-11.772	-34342	2200.7	0.25932	0.18144	0.95609
3.272	-11.825	-34336	2200.7	0.25825	0.18124	0.95677
3.274	-11.799	-34331	2200.6	0.25718	0.18105	0.95746
3.276	-11.804	-34331	2200.6	0.25561	0.18085	0.95609
3.278	-11.871	-34331	2200.5	0.25405	0.18066	0.95472
3.28	-11.891	-34338	2200.4	0.25249	0.18046	0.95336
3.282	-11.831	-34345	2200.3	0.25093	0.18027	0.95199
3.284	-11.779	-34341	2200.2	0.24937	0.18007	0.95062
3.286	-11.761	-34338	2200	0.24956	0.18095	0.95111
3.288	-11.772	-34341	2199.9	0.24976	0.18183	0.9516
3.29	-11.805	-34344	2199.7	0.24995	0.18271	0.95209
3.292	-11.846	-34345	2199.6	0.25015	0.18359	0.95258
3.294	-11.898	-34346	2199.4	0.25034	0.18446	0.95306
3.296	-11.917	-34353	2199.4	0.25152	0.18398	0.95453
3.298	-11.805	-34361	2199.4	0.25269	0.18349	0.95599
3.3	-11.706	-34361	2199.3	0.25386	0.183	0.95746
3.302	-11.733	-34360	2199.4	0.25503	0.18251	0.95892
3.304	-11.793	-34354	2199.4	0.2562	0.18202	0.96038
3.306	-11.838	-34348	2199.4	0.25747	0.18261	0.95951
3.308	-11.819	-34351	2199.5	0.25874	0.1832	0.95863
3.31	-11.781	-34353	2199.6	0.26001	0.18378	0.95775
3.312	-11.766	-34354	2199.7	0.26128	0.18437	0.95687
3.314	-11.785	-34355	2199.8	0.26254	0.18495	0.95599
3.316	-11.798	-34356	2199.9	0.26264	0.18495	0.95609
3.318	-11.785	-34357	2200	0.26274	0.18495	0.95619
3.32	-11.774	-34359	2200.2	0.26284	0.18495	0.95628
3.322	-11.78	-34360	2200.5	0.26293	0.18495	0.95638
3.324	-11.796	-34366	2200.8	0.26303	0.18495	0.95648
3.326	-11.819	-34371	2201	0.26362	0.18417	0.95619
3.328	-11.837	-34375	2201.3	0.2642	0.18339	0.95589
3.33	-11.837	-34378	2201.6	0.26479	0.18261	0.9556
3.332	-11.799	-34368	2201.9	0.26537	0.18183	0.95531
3.334	-11.745	-34358	2202.2	0.26596	0.18105	0.95502
3.336	-11.751	-34358	2202.6	0.26469	0.18173	0.9555
3.338	-11.752	-34358	2202.9	0.26342	0.18241	0.95599
3.34	-11.739	-34367	2203.3	0.26215	0.1831	0.95648
3.342	-11.749	-34375	2203.7	0.26088	0.18378	0.95697
3.344	-11.73	-34369	2204.1	0.25962	0.18446	0.95746
3.346	-11.729	-34363	2204.4	0.25893	0.18554	0.95863
3.348	-11.684	-34364	2204.7	0.25825	0.18661	0.9598
3.35	-11.698	-34365	2205.1	0.25757	0.18768	0.96097
3.352	-11.751	-34365	2205.4	0.25688	0.18876	0.96214
3.354	-11.752	-34364	2205.8	0.2562	0.18983	0.96331
3.356	-11.788	-34364	2206.2	0.2562	0.18827	0.96224
3.358	-11.809	-34364	2206.6	0.2562	0.18671	0.96116
3.36	-11.829	-34366	2206.9	0.2562	0.18515	0.96009
3.362	-11.786	-34369	2207.2	0.2562	0.18359	0.95902
3.364	-11.774	-34363	2207.5	0.2562	0.18202	0.95794
3.366	-11.744	-34358	2207.9	0.25454	0.18173	0.95931
3.368	-11.72	-34355	2208.2	0.25288	0.18144	0.96068
3.37	-11.727	-34353	2208.6	0.25122	0.18115	0.96204
3.372	-11.79	-34352	2209	0.24956	0.18085	0.96341
3.374	-11.823	-34352	2209.4	0.2479	0.18056	0.96478
3.376	-11.833	-34345	2209.8	0.24859	0.17988	0.96478
3.378	-11.795	-34337	2210.3	0.24927	0.17919	0.96478
3.38	-11.799	-34336	2210.7	0.24995	0.17851	0.96478
3.382	-11.725	-34334	2211.1	0.25064	0.17783	0.96478
3.384	-11.655	-34333	2211.5	0.25132	0.17714	0.96478
3.386	-11.681	-34332	2211.7	0.25054	0.17724	0.96507
3.388	-11.723	-34328	2212	0.24976	0.17734	0.96536
3.39	-11.74	-34324	2212.3	0.24898	0.17744	0.96565
3.392	-11.759	-34326	2212.7	0.2482	0.17753	0.96595
3.394	-11.78	-34328	2213	0.24742	0.17763	0.96624
3.396	-11.777	-34328	2213.1	0.24771	0.17744	0.96702
3.398	-11.791	-34329	2213.3	0.248	0.17724	0.9678
3.4	-11.795	-34315	2213.4	0.24829	0.17705	0.96858
3.402	-11.771	-34302	2213.5	0.24859	0.17685	0.96936
3.404	-11.742	-34300	2213.6	0.24888	0.17666	0.97014
3.406	-11.747	-34299	2213.6	0.2482	0.17607	0.96946
3.408	-11.764	-34296	2213.7	0.24751	0.17548	0.96878
3.41	-11.762	-34293	2213.8	0.24683	0.1749	0.96809
3.412	-11.775	-34287	2214	0.24615	0.17431	0.96741
3.414	-11.805	-34281	2214.1	0.24546	0.17373	0.96673
3.416	-11.809	-34281	2214.3	0.24566	0.1748	0.96487
3.418	-11.79	-34280	2214.4	0.24585	0.17588	0.96302
3.42	-11.779	-34276	2214.5	0.24605	0.17695	0.96116
3.422	-11.787	-34271	2214.5	0.24624	0.17802	0.95931
3.424	-11.815	-34262	2214.5	0.24644	0.1791	0.95746
3.426	-11.83	-34252	2214.5	0.24742	0.17792	0.95824
3.428	-11.834	-34248	2214.4	0.24839	0.17675	0.95902
3.43	-11.838	-34244	2214.4	0.24937	0.17558	0.9598
3.432	-11.817	-34242	2214.5	0.25034	0.17441	0.96058
3.434	-11.817	-34239	2214.5	0.25132	0.17324	0.96136
3.436	-11.822	-34239	2214.5	0.25064	0.1748	0.96077
3.438	-11.834	-34238	2214.5	0.24995	0.17636	0.96019
3.44	-11.826	-34234	2214.5	0.24927	0.17792	0.9596
3.442	-11.789	-34229	2214.5	0.24859	0.17949	0.95902
3.444	-11.785	-34225	2214.6	0.2479	0.18105	0.95843
3.446	-11.81	-34220	2214.5	0.24859	0.17988	0.95872
3.448	-11.821	-34222	2214.4	0.24927	0.17871	0.95902
3.45	-11.819	-34224	2214.3	0.24995	0.17753	0.95931
3.452	-11.795	-34217	2214.3	0.25064	0.17636	0.9596
3.454	-11.771	-34211	2214.2	0.25132	0.17519	0.9599
3.456	-11.786	-34204	2214.1	0.252	0.17519	0.9598
3.458	-11.812	-34198	2214	0.25269	0.17519	0.9597
3.46	-11.814	-34192	2213.9	0.25337	0.17519	0.9596
3.462	-11.794	-34186	2213.9	0.25405	0.17519	0.95951
3.464	-11.797	-34185	2213.8	0.25474	0.17519	0.95941
3.466	-11.831	-34184	2213.8	0.25474	0.17539	0.9597
3.468	-11.851	-34182	2213.7	0.25474	0.17558	0.95999
3.47	-11.883	-34180	2213.7	0.25474	0.17578	0.96029
3.472	-11.894	-34174	2213.6	0.25474	0.17597	0.96058
3.474	-11.873	-34169	2213.6	0.25474	0.17617	0.96087
3.476	-11.825	-34167	2213.6	0.25347	0.17636	0.96058
3.478	-11.797	-34166	2213.5	0.2522	0.17656	0.96029
3.48	-11.812	-34165	2213.5	0.25093	0.17675	0.95999
3.482	-11.773	-34164	2213.4	0.24966	0.17695	0.9597
3.484	-11.784	-34160	2213.4	0.24839	0.17714	0.95941
3.486	-11.845	-34156	2213.3	0.24947	0.17617	0.95941
3.488	-11.859	-34154	2213.2	0.25054	0.17519	0.95941
3.49	-11.819	-34153	2213.1	0.25161	0.17422	0.95941
3.492	-11.8	-34152	2213	0.25269	0.17324	0.95941
3.494	-11.811	-34151	2212.9	0.25376	0.17226	0.95941
3.496	-11.818	-34144	2212.9	0.25444	0.17265	0.95931
3.498	-11.846	-34137	2212.8	0.25513	0.17304	0.95921
3.5	-11.899	-34136	2212.8	0.25581	0.17344	0.95912
3.502	-11.949	-34136	2212.7	0.25649	0.17383	0.95902
3.504	-11.946	-34135	2212.7	0.25718	0.17422	0.95892
3.506	-11.858	-34133	2212.6	0.25581	0.1748	0.9596
3.508	-11.761	-34127	2212.4	0.25444	0.17539	0.96029
3.51	-11.718	-34120	2212.3	0.25308	0.17597	0.96097
3.512	-11.745	-34117	2212.2	0.25171	0.17656	0.96165
3.514	-11.802	-34114	2212	0.25034	0.17714	0.96234
3.516	-11.851	-34114	2211.8	0.25152	0.17734	0.96068
3.518	-11.861	-34113	2211.7	0.25269	0.17753	0.95902
3.52	-11.831	-34115	2211.5	0.25386	0.17773	0.95736
3.522	-11.797	-34116	2211.3	0.25503	0.17792	0.9557
3.524	-11.852	-34113	2211.1	0.2562	0.17812	0.95404
3.526	-11.881	-34109	2211	0.25552	0.17851	0.95336
3.528	-11.827	-34107	2210.9	0.25483	0.1789	0.95267
3.53	-11.787	-34104	2210.7	0.25415	0.17929	0.95199
3.532	-11.798	-34103	2210.6	0.25347	0.17968	0.95131
3.534	-11.836	-34102	2210.4	0.25278	0.18007	0.95062
3.536	-11.848	-34096	2210.4	0.25356	0.17997	0.95189
3.538	-11.844	-34090	2210.3	0.25435	0.17988	0.95316
3.54	-11.852	-34091	2210.2	0.25513	0.17978	0.95443
3.542	-11.847	-34093	2210.2	0.25591	0.17968	0.9557
3.544	-11.811	-34091	2210.1	0.25669	0.17958	0.95697
3.546	-11.831	-34089	2210	0.256	0.17919	0.95638
3.548	-11.873	-34091	2210	0.25532	0.1788	0.9558
3.55	-11.881	-34093	2209.9	0.25464	0.17841	0.95521
3.552	-11.877	-34090	2209.9	0.25396	0.17802	0.95463
3.554	-11.851	-34088	2209.8	0.25327	0.17763	0.95404
3.556	-11.815	-34087	2209.7	0.25298	0.17763	0.95521
3.558	-11.812	-34087	2209.7	0.25269	0.17763	0.95638
3.56	-11.83	-34082	2209.6	0.25239	0.17763	0.95755
3.562	-11.822	-34077	2209.6	0.2521	0.17763	0.95872
3.564	-11.803	-34078	2209.6	0.25181	0.17763	0.9599
3.566	-11.783	-34079	2209.5	0.252	0.17773	0.95931
3.568	-11.776	-34078	2209.4	0.2522	0.17783	0.95872
3.57	-11.807	-34076	2209.4	0.25239	0.17792	0.95814
3.572	-11.839	-34078	2209.3	0.25259	0.17802	0.95755
3.574	-11.836	-34079	2209.3	0.25278	0.17812	0.95697
3.576	-11.814	-34078	2209.2	0.25269	0.1789	0.95707
3.578	-11.8	-34077	2209.1	0.25259	0.17968	0.95716
3.58	-11.814	-34075	2209	0.25249	0.18046	0.95726
3.582	-11.839	-34072	2208.9	0.25239	0.18124	0.95736
3.584	-11.835	-34072	2208.7	0.2523	0.18202	0.95746
3.586	-11.816	-34072	2208.7	0.2523	0.18115	0.95824
3.588	-11.823	-34075	2208.7	0.2523	0.18027	0.95902
3.59	-11.826	-34078	2208.7	0.2523	0.17939	0.9598
3.592	-11.805	-34080	2208.7	0.2523	0.17851	0.96058
3.594	-11.819	-34082	2208.7	0.2523	0.17763	0.96136
3.596	-11.859	-34075	2208.7	0.25239	0.17812	0.96077
3.598	-11.904	-34068	2208.7	0.25249	0.17861	0.96019
3.6	-11.9	-34074	2208.7	0.25259	0.1791	0.9596
3.602	-11.875	-34081	2208.7	0.25269	0.17958	0.95902
3.604	-11.874	-34075	2208.7	0.25278	0.18007	0.95843
3.606	-11.866	-34069	2208.7	0.25132	0.18124	0.95941
3.608	-11.834	-34069	2208.7	0.24986	0.18241	0.96038
3.61	-11.755	-34069	2208.6	0.24839	0.18359	0.96136
3.612	-11.815	-34071	2208.4	0.24693	0.18476	0.96234
3.614	-11.849	-34072	2208.3	0.24546	0.18593	0.96331
3.616	-11.89	-34075	2208.1	0.24478	0.18466	0.9636
3.618	-11.915	-34077	2207.9	0.2441	0.18339	0.9639
3.62	-11.834	-34078	2207.8	0.24341	0.18212	0.96419
3.622	-11.777	-34079	2207.6	0.24273	0.18085	0.96448
3.624	-11.748	-34075	2207.5	0.24205	0.17958	0.96478
3.626	-11.786	-34071	2207.4	0.24254	0.18027	0.96487
3.628	-11.853	-34069	2207.3	0.24302	0.18095	0.96497
3.63	-11.849	-34068	2207.3	0.24351	0.18163	0.96507
3.632	-11.869	-34075	2207.3	0.244	0.18232	0.96517
3.634	-11.893	-34082	2207.2	0.24449	0.183	0.96526
3.636	-11.862	-34075	2207.3	0.24439	0.183	0.96448
3.638	-11.807	-34068	2207.4	0.24429	0.183	0.9637
3.64	-11.81	-34066	2207.5	0.2442	0.183	0.96292
3.642	-11.798	-34064	2207.6	0.2441	0.183	0.96214
3.644	-11.822	-34070	2207.7	0.244	0.183	0.96136
3.646	-11.844	-34075	2207.7	0.2439	0.1832	0.96097
3.648	-11.816	-34073	2207.8	0.2438	0.18339	0.96058
3.65	-11.81	-34072	2207.9	0.24371	0.18359	0.96019
3.652	-11.83	-34065	2208	0.24361	0.18378	0.9598
3.654	-11.846	-34057	2208.1	0.24351	0.18398	0.95941
3.656	-11.873	-34057	2208.1	0.24371	0.18437	0.96146
3.658	-11.925	-34056	2208	0.2439	0.18476	0.96351
3.66	-11.987	-34058	2207.9	0.2441	0.18515	0.96556
3.662	-11.956	-34059	2207.9	0.24429	0.18554	0.96761
3.664	-11.795	-34061	2207.8	0.24449	0.18593	0.96966
3.666	-11.695	-34064	2207.9	0.24341	0.18446	0.96868
3.668	-11.739	-34058	2208	0.24234	0.183	0.9677
3.67	-11.786	-34052	2208	0.24127	0.18154	0.96673
3.672	-11.788	-34059	2208.1	0.24019	0.18007	0.96575
3.674	-11.811	-34066	2208.2	0.23912	0.17861	0.96478
3.676	-11.863	-34064	2208.2	0.2401	0.17919	0.96448
3.678	-11.875	-34063	2208.3	0.24107	0.17978	0.96419
3.68	-11.883	-34063	2208.3	0.24205	0.18036	0.9639
3.682	-11.902	-34064	2208.3	0.24302	0.18095	0.9636
3.684	-11.885	-34064	2208.3	0.244	0.18154	0.96331
3.686	-11.915	-34064	2208.2	0.24468	0.18115	0.96341
3.688	-11.933	-34063	2208.2	0.24537	0.18076	0.96351
3.69	-11.867	-34062	2208.2	0.24605	0.18036	0.9636
3.692	-11.847	-34060	2208.2	0.24673	0.17997	0.9637
3.694	-11.81	-34058	2208.2	0.24742	0.17958	0.9638
3.696	-11.808	-34052	2208.2	0.24683	0.17968	0.96341
3.698	-11.843	-34045	2208.2	0.24624	0.17978	0.96302
3.7	-11.878	-34048	2208.2	0.24566	0.17988	0.96263
3.702	-11.846	-34051	2208.1	0.24507	0.17997	0.96224
3.704	-11.795	-34050	2208.1	0.24449	0.18007	0.96185
3.706	-11.799	-34049	2208	0.24546	0.17939	0.96214
3.708	-11.846	-34052	2207.9	0.24644	0.17871	0.96243
3.71	-11.867	-34054	2207.8	0.24742	0.17802	0.96273
3.712	-11.873	-34049	2207.7	0.24839	0.17734	0.96302
3.714	-11.868	-34044	2207.6	0.24937	0.17666	0.96331
3.716	-11.826	-34047	2207.6	0.24908	0.17705	0.96253
3.718	-11.777	-34051	2207.6	0.24878	0.17744	0.96175
3.72	-11.808	-34053	2207.6	0.24849	0.17783	0.96097
3.722	-11.835	-34054	2207.6	0.2482	0.17822	0.96019
3.724	-11.841	-34052	2207.6	0.2479	0.17861	0.95941
3.726	-11.845	-34049	2207.5	0.24898	0.17783	0.95931
3.728	-11.854	-34048	2207.5	0.25005	0.17705	0.95921
3.73	-11.842	-34048	2207.4	0.25112	0.17627	0.95912
3.732	-11.872	-34049	2207.3	0.2522	0.17548	0.95902
3.734	-11.885	-34051	2207.3	0.25327	0.1747	0.95892
3.736	-11.861	-34050	2207.2	0.25356	0.175	0.95824
3.738	-11.834	-34049	2207	0.25386	0.17529	0.95755
3.74	-11.826	-34052	2206.9	0.25415	0.17558	0.95687
3.742	-11.837	-34054	2206.8	0.25444	0.17588	0.95619
3.744	-11.857	-34044	2206.8	0.25474	0.17617	0.9555
3.746	-11.824	-34033	2206.6	0.25425	0.17597	0.9556
3.748	-11.806	-34039	2206.5	0.25376	0.17578	0.9557
3.75	-11.84	-34045	2206.4	0.25327	0.17558	0.9558
3.752	-11.867	-34045	2206.3	0.25278	0.17539	0.95589
3.754	-11.867	-34046	2206.2	0.2523	0.17519	0.95599
3.756	-11.817	-34044	2206.1	0.25249	0.17509	0.95638
3.758	-11.771	-34041	2205.9	0.25269	0.175	0.95677
3.76	-11.8	-34043	2205.8	0.25288	0.1749	0.95716
3.762	-11.861	-34045	2205.8	0.25308	0.1748	0.95755
3.764	-11.888	-34041	2205.7	0.25327	0.1747	0.95794
3.766	-11.903	-34038	2205.6	0.25239	0.17588	0.95599
3.768	-11.92	-34038	2205.5	0.25152	0.17705	0.95404
3.77	-11.906	-34038	2205.4	0.25064	0.17822	0.95209
3.772	-11.885	-34041	2205.4	0.24976	0.17939	0.95014
3.774	-11.848	-34044	2205.3	0.24888	0.18056	0.94818
3.776	-11.852	-34048	2205.3	0.24888	0.18046	0.94789
3.778	-11.851	-34051	2205.2	0.24888	0.18036	0.9476
3.78	-11.844	-34045	2205.2	0.24888	0.18027	0.94731
3.782	-11.858	-34038	2205.1	0.24888	0.18017	0.94701
3.784	-11.904	-34039	2205	0.24888	0.18007	0.94672
3.786	-11.915	-34040	2204.9	0.24849	0.18085	0.94682
3.788	-11.894	-34044	2204.8	0.2481	0.18163	0.94692
3.79	-11.878	-34048	2204.6	0.24771	0.18241	0.94701
3.792	-11.818	-34049	2204.5	0.24732	0.1832	0.94711
3.794	-11.764	-34050	2204.3	0.24693	0.18398	0.94721
3.796	-11.754	-34046	2204.2	0.24683	0.18378	0.94731
3.798	-11.773	-34042	2204	0.24673	0.18359	0.9474
3.8	-11.796	-34041	2203.8	0.24664	0.18339	0.9475
3.802	-11.831	-34040	2203.6	0.24654	0.1832	0.9476
3.804	-11.844	-34045	2203.4	0.24644	0.183	0.9477
3.806	-11.848	-34050	2203.2	0.248	0.18163	0.94896
3.808	-11.862	-34049	2203.1	0.24956	0.18027	0.95023
3.81	-11.861	-34049	2203.1	0.25112	0.1789	0.9515
3.812	-11.89	-34044	2203	0.25269	0.17753	0.95277
3.814	-11.903	-34040	2202.9	0.25425	0.17617	0.95404
3.816	-11.824	-34042	2202.9	0.25444	0.17627	0.95316
3.818	-11.776	-34045	2202.8	0.25464	0.17636	0.95228
3.82	-11.803	-34045	2202.7	0.25483	0.17646	0.9514
3.822	-11.785	-34045	2202.6	0.25503	0.17656	0.95053
3.824	-11.76	-34043	2202.5	0.25522	0.17666	0.94965
3.826	-11.765	-34040	2202.2	0.256	0.17675	0.95111
3.828	-11.77	-34047	2201.9	0.25679	0.17685	0.95258
3.83	-11.783	-34054	2201.7	0.25757	0.17695	0.95404
3.832	-11.818	-34050	2201.4	0.25835	0.17705	0.9555
3.834	-11.841	-34046	2201.2	0.25913	0.17714	0.95697
3.836	-11.849	-34052	2201.1	0.25893	0.17666	0.95707
3.838	-11.851	-34058	2201	0.25874	0.17617	0.95716
3.84	-11.832	-34059	2200.9	0.25854	0.17568	0.95726
3.842	-11.806	-34060	2200.8	0.25835	0.17519	0.95736
3.844	-11.804	-34060	2200.8	0.25815	0.1747	0.95746
3.846	-11.827	-34059	2200.7	0.25884	0.17529	0.95697
3.848	-11.834	-34058	2200.6	0.25952	0.17588	0.95648
3.85	-11.848	-34057	2200.6	0.2602	0.17646	0.95599
3.852	-11.886	-34058	2200.5	0.26088	0.17705	0.9555
3.854	-11.876	-34060	2200.4	0.26157	0.17763	0.95502
3.856	-11.834	-34060	2200.3	0.25991	0.17705	0.95463
3.858	-11.837	-34060	2200.2	0.25825	0.17646	0.95424
3.86	-11.831	-34061	2200.1	0.25659	0.17588	0.95384
3.862	-11.814	-34063	2200	0.25493	0.17529	0.95345
3.864	-11.812	-34062	2199.8	0.25327	0.1747	0.95306
3.866	-11.859	-34061	2199.7	0.25376	0.17588	0.95248
3.868	-11.908	-34064	2199.5	0.25425	0.17705	0.95189
3.87	-11.935	-34066	2199.4	0.25474	0.17822	0.95131
3.872	-11.925	-34068	2199.3	0.25522	0.17939	0.95072
3.874	-11.872	-34071	2199.2	0.25571	0.18056	0.95014
3.876	-11.848	-34072	2199	0.2564	0.18115	0.9517
3.878	-11.886	-34073	2198.8	0.25708	0.18173	0.95326
3.88	-11.912	-34074	2198.6	0.25776	0.18232	0.95482
3.882	-11.931	-34075	2198.4	0.25844	0.1829	0.95638
3.884	-11.852	-34079	2198.1	0.25913	0.18349	0.95794
3.886	-11.85	-34083	2198.2	0.25893	0.18329	0.95677
3.888	-11.827	-34079	2198.3	0.25874	0.1831	0.9556
3.89	-11.836	-34074	2198.4	0.25854	0.1829	0.95443
3.892	-11.874	-34074	2198.5	0.25835	0.18271	0.95326
3.894	-11.846	-34075	2198.7	0.25815	0.18251	0.95209
3.896	-11.834	-34075	2198.8	0.25786	0.18193	0.95228
3.898	-11.855	-34076	2198.9	0.25757	0.18134	0.95248
3.9	-11.895	-34082	2199	0.25727	0.18076	0.95267
3.902	-11.896	-34087	2199	0.25698	0.18017	0.95287
3.904	-11.863	-34084	2199	0.25669	0.17958	0.95306
3.906	-11.808	-34081	2198.9	0.25796	0.17968	0.95365
3.908	-11.797	-34085	2198.8	0.25923	0.17978	0.95424
3.91	-11.828	-34090	2198.8	0.26049	0.17988	0.95482
3.912	-11.883	-34090	2198.7	0.26176	0.17997	0.95541
3.914	-11.918	-34091	2198.6	0.26303	0.18007	0.95599
3.916	-11.887	-34092	2198.7	0.26088	0.17919	0.95882
3.918	-11.807	-34093	2198.7	0.25874	0.17832	0.96165
3.92	-11.742	-34096	2198.8	0.25659	0.17744	0.96448
3.922	-11.736	-34099	2198.7	0.25444	0.17656	0.96731
3.924	-11.76	-34098	2198.7	0.2523	0.17568	0.97014
3.926	-11.796	-34097	2198.7	0.252	0.17588	0.96956
3.928	-11.826	-34091	2198.6	0.25171	0.17607	0.96897
3.93	-11.776	-34085	2198.6	0.25142	0.17627	0.96839
3.932	-11.701	-34095	2198.6	0.25112	0.17646	0.9678
3.934	-11.694	-34106	2198.6	0.25083	0.17666	0.96722
3.936	-11.699	-34103	2198.6	0.25132	0.17597	0.9679
3.938	-11.72	-34101	2198.6	0.25181	0.17529	0.96858
3.94	-11.773	-34105	2198.6	0.2523	0.17461	0.96927
3.942	-11.768	-34110	2198.6	0.25278	0.17392	0.96995
3.944	-11.75	-34112	2198.6	0.25327	0.17324	0.97063
3.946	-11.808	-34114	2198.6	0.25259	0.17509	0.96858
3.948	-11.896	-34114	2198.6	0.25191	0.17695	0.96653
3.95	-11.976	-34113	2198.6	0.25122	0.1788	0.96448
3.952	-12.002	-34108	2198.5	0.25054	0.18066	0.96243
3.954	-11.964	-34104	2198.5	0.24986	0.18251	0.96038
3.956	-11.948	-34109	2198.4	0.24898	0.18251	0.95999
3.958	-11.935	-34114	2198.3	0.2481	0.18251	0.9596
3.96	-11.943	-34116	2198.2	0.24722	0.18251	0.95921
3.962	-11.91	-34119	2198.1	0.24634	0.18251	0.95882
3.964	-11.904	-34122	2198	0.24546	0.18251	0.95843
3.966	-11.907	-34124	2197.9	0.24585	0.18183	0.95921
3.968	-11.903	-34118	2197.8	0.24624	0.18115	0.95999
3.97	-11.899	-34111	2197.7	0.24664	0.18046	0.96077
3.972	-11.92	-34111	2197.6	0.24703	0.17978	0.96156
3.974	-11.926	-34111	2197.4	0.24742	0.1791	0.96234
3.976	-11.888	-34119	2197.4	0.24849	0.17949	0.96136
3.978	-11.878	-34127	2197.3	0.24956	0.17988	0.96038
3.98	-11.891	-34122	2197.2	0.25064	0.18027	0.95941
3.982	-11.874	-34116	2197.2	0.25171	0.18066	0.95843
3.984	-11.888	-34123	2197.2	0.25278	0.18105	0.95746
3.986	-11.929	-34131	2197.2	0.25142	0.18085	0.95814
3.988	-11.953	-34133	2197.2	0.25005	0.18066	0.95882
3.99	-11.894	-34135	2197.3	0.24868	0.18046	0.95951
3.992	-11.785	-34128	2197.4	0.24732	0.18027	0.96019
3.994	-11.774	-34121	2197.4	0.24595	0.18007	0.96087
3.996	-11.797	-34126	2197.5	0.24449	0.18007	0.95912
3.998	-11.809	-34131	2197.6	0.24302	0.18007	0.95736
4	-11.867	-34133	2197.7	0.24156	0.18007	0.9556
4.002	-11.936	-34135	2197.7	0.2401	0.18007	0.95384
4.004	-11.938	-34131	2197.8	0.23863	0.18007	0.95209
4.006	-11.877	-34128	2197.8	0.23902	0.18046	0.95219
4.008	-11.835	-34130	2197.8	0.23941	0.18085	0.95228
4.01	-11.834	-34132	2197.8	0.2398	0.18124	0.95238
4.012	-11.81	-34133	2197.8	0.24019	0.18163	0.95248
4.014	-11.803	-34135	2197.8	0.24058	0.18202	0.95258
4.016	-11.867	-34143	2197.8	0.24117	0.18271	0.95258
4.018	-11.919	-34150	2197.8	0.24176	0.18339	0.95258
4.02	-11.912	-34144	2197.7	0.24234	0.18407	0.95258
4.022	-11.89	-34138	2197.7	0.24293	0.18476	0.95258
4.024	-11.899	-34139	2197.7	0.24351	0.18544	0.95258
4.026	-11.878	-34140	2197.7	0.2441	0.18612	0.95404
4.028	-11.843	-34142	2197.6	0.24468	0.18681	0.9555
4.03	-11.799	-34144	2197.5	0.24527	0.18749	0.95697
4.032	-11.821	-34150	2197.4	0.24585	0.18817	0.95843
4.034	-11.85	-34155	2197.3	0.24644	0.18886	0.9599
4.036	-11.874	-34152	2197.2	0.24615	0.18856	0.95999
4.038	-11.887	-34149	2197.1	0.24585	0.18827	0.96009
4.04	-11.872	-34148	2196.9	0.24556	0.18798	0.96019
4.042	-11.924	-34148	2196.7	0.24527	0.18768	0.96029
4.044	-11.988	-34148	2196.5	0.24498	0.18739	0.96038
4.046	-12.035	-34149	2196.3	0.24537	0.18583	0.96058
4.048	-11.907	-34150	2196.1	0.24576	0.18427	0.96077
4.05	-11.729	-34151	2195.8	0.24615	0.18271	0.96097
4.052	-11.738	-34152	2195.6	0.24654	0.18115	0.96116
4.054	-11.797	-34152	2195.3	0.24693	0.17958	0.96136
4.056	-11.826	-34151	2195.1	0.24712	0.17939	0.96077
4.058	-11.804	-34150	2194.8	0.24732	0.17919	0.96019
4.06	-11.795	-34154	2194.6	0.24751	0.179	0.9596
4.062	-11.82	-34159	2194.5	0.24771	0.1788	0.95902
4.064	-11.863	-34159	2194.3	0.2479	0.17861	0.95843
4.066	-11.926	-34160	2194.1	0.24732	0.17929	0.95726
4.068	-11.958	-34159	2194	0.24673	0.17997	0.95609
4.07	-11.94	-34158	2193.9	0.24615	0.18066	0.95492
4.072	-11.9	-34159	2193.8	0.24556	0.18134	0.95375
4.074	-11.849	-34160	2193.7	0.24498	0.18202	0.95258
4.076	-11.816	-34159	2193.6	0.24566	0.18183	0.95277
4.078	-11.797	-34159	2193.6	0.24634	0.18163	0.95297
4.08	-11.823	-34159	2193.5	0.24703	0.18144	0.95316
4.082	-11.852	-34159	2193.4	0.24771	0.18124	0.95336
4.084	-11.871	-34161	2193.3	0.24839	0.18105	0.95355
4.086	-11.877	-34164	2193.1	0.24859	0.18115	0.95384
4.088	-11.846	-34169	2193	0.24878	0.18124	0.95414
4.09	-11.845	-34173	2192.9	0.24898	0.18134	0.95443
4.092	-11.876	-34175	2192.8	0.24917	0.18144	0.95472
4.094	-11.88	-34177	2192.6	0.24937	0.18154	0.95502
4.096	-11.842	-34174	2192.4	0.24849	0.18154	0.95658
4.098	-11.79	-34171	2192.2	0.24761	0.18154	0.95814
4.1	-11.786	-34175	2192.1	0.24673	0.18154	0.9597
4.102	-11.814	-34179	2191.9	0.24585	0.18154	0.96126
4.104	-11.843	-34185	2191.8	0.24498	0.18154	0.96282
4.106	-11.877	-34191	2191.6	0.24507	0.18154	0.96243
4.108	-11.883	-34186	2191.5	0.24517	0.18154	0.96204
4.11	-11.855	-34182	2191.4	0.24527	0.18154	0.96165
4.112	-11.816	-34181	2191.4	0.24537	0.18154	0.96126
4.114	-11.822	-34179	2191.3	0.24546	0.18154	0.96087
4.116	-11.848	-34182	2191.3	0.24615	0.18144	0.96019
4.118	-11.876	-34184	2191.3	0.24683	0.18134	0.95951
4.12	-11.86	-34191	2191.2	0.24751	0.18124	0.95882
4.122	-11.792	-34197	2191.2	0.2482	0.18115	0.95814
4.124	-11.77	-34199	2191.2	0.24888	0.18105	0.95746
4.126	-11.791	-34200	2191.3	0.24868	0.17997	0.95775
4.128	-11.841	-34201	2191.4	0.24849	0.1789	0.95804
4.13	-11.862	-34202	2191.5	0.24829	0.17783	0.95833
4.132	-11.833	-34208	2191.6	0.2481	0.17675	0.95863
4.134	-11.794	-34214	2191.8	0.2479	0.17568	0.95892
4.136	-11.826	-34210	2191.9	0.24956	0.17597	0.95931
4.138	-11.9	-34206	2192	0.25122	0.17627	0.9597
4.14	-11.969	-34200	2192.1	0.25288	0.17656	0.96009
4.142	-11.931	-34194	2192.3	0.25454	0.17685	0.96048
4.144	-11.826	-34202	2192.6	0.2562	0.17714	0.96087
4.146	-11.775	-34210	2192.8	0.25503	0.17861	0.96068
4.148	-11.771	-34209	2193.1	0.25386	0.18007	0.96048
4.15	-11.78	-34208	2193.4	0.25269	0.18154	0.96029
4.152	-11.768	-34206	2193.9	0.25152	0.183	0.96009
4.154	-11.733	-34204	2194.3	0.25034	0.18446	0.9599
4.156	-11.752	-34208	2194.7	0.25073	0.183	0.95999
4.158	-11.778	-34211	2195.1	0.25112	0.18154	0.96009
4.16	-11.805	-34210	2195.5	0.25152	0.18007	0.96019
4.162	-11.822	-34209	2195.9	0.25191	0.17861	0.96029
4.164	-11.805	-34209	2196.3	0.2523	0.17714	0.96038
4.166	-11.768	-34210	2196.7	0.25366	0.17822	0.95912
4.168	-11.779	-34212	2197	0.25503	0.17929	0.95785
4.17	-11.807	-34214	2197.4	0.2564	0.18036	0.95658
4.172	-11.816	-34216	2197.7	0.25776	0.18144	0.95531
4.174	-11.843	-34218	2198.1	0.25913	0.18251	0.95404
4.176	-11.848	-34218	2198.4	0.25884	0.1828	0.95472
4.178	-11.803	-34219	2198.7	0.25854	0.1831	0.95541
4.18	-11.758	-34213	2199.1	0.25825	0.18339	0.95609
4.182	-11.732	-34207	2199.4	0.25796	0.18368	0.95677
4.184	-11.75	-34207	2199.8	0.25766	0.18398	0.95746
4.186	-11.786	-34208	2200.1	0.25571	0.18329	0.95824
4.188	-11.792	-34208	2200.4	0.25376	0.18261	0.95902
4.19	-11.802	-34207	2200.7	0.25181	0.18193	0.9598
4.192	-11.789	-34206	2201	0.24986	0.18124	0.96058
4.194	-11.734	-34204	2201.3	0.2479	0.18056	0.96136
4.196	-11.746	-34199	2201.6	0.24839	0.17988	0.96204
4.198	-11.797	-34193	2201.9	0.24888	0.17919	0.96273
4.2	-11.838	-34190	2202.2	0.24937	0.17851	0.96341
4.202	-11.815	-34186	2202.4	0.24986	0.17783	0.96409
4.204	-11.78	-34189	2202.7	0.25034	0.17714	0.96478
4.206	-11.784	-34191	2202.9	0.24966	0.17832	0.96439
4.208	-11.768	-34192	2203.1	0.24898	0.17949	0.964
4.21	-11.789	-34192	2203.3	0.24829	0.18066	0.9636
4.212	-11.862	-34180	2203.4	0.24761	0.18183	0.96321
4.214	-11.897	-34169	2203.5	0.24693	0.183	0.96282
4.216	-11.842	-34168	2203.6	0.24644	0.1829	0.96273
4.218	-11.792	-34168	2203.6	0.24595	0.1828	0.96263
4.22	-11.843	-34163	2203.7	0.24546	0.18271	0.96253
4.222	-11.863	-34158	2203.7	0.24498	0.18261	0.96243
4.224	-11.821	-34154	2203.7	0.24449	0.18251	0.96234
4.226	-11.762	-34151	2203.7	0.244	0.18241	0.96243
4.228	-11.739	-34150	2203.7	0.24351	0.18232	0.96253
4.23	-11.777	-34149	2203.7	0.24302	0.18222	0.96263
4.232	-11.829	-34148	2203.7	0.24254	0.18212	0.96273
4.234	-11.865	-34148	2203.7	0.24205	0.18202	0.96282
4.236	-11.846	-34137	2203.7	0.24234	0.18271	0.96185
4.238	-11.819	-34127	2203.8	0.24263	0.18339	0.96087
4.24	-11.789	-34129	2203.9	0.24293	0.18407	0.9599
4.242	-11.778	-34131	2203.9	0.24322	0.18476	0.95892
4.244	-11.785	-34127	2204	0.24351	0.18544	0.95794
4.246	-11.803	-34123	2204	0.2438	0.18564	0.95814
4.248	-11.846	-34114	2204	0.2441	0.18583	0.95833
4.25	-11.877	-34105	2204	0.24439	0.18603	0.95853
4.252	-11.929	-34102	2204	0.24468	0.18622	0.95872
4.254	-11.993	-34099	2204	0.24498	0.18642	0.95892
4.256	-11.978	-34098	2203.9	0.24449	0.18612	0.95921
4.258	-11.888	-34097	2203.9	0.244	0.18583	0.95951
4.26	-11.813	-34091	2203.8	0.24351	0.18554	0.9598
4.262	-11.788	-34085	2203.7	0.24302	0.18524	0.96009
4.264	-11.798	-34079	2203.5	0.24254	0.18495	0.96038
4.266	-11.825	-34073	2203.4	0.24273	0.18476	0.96038
4.268	-11.83	-34072	2203.2	0.24293	0.18456	0.96038
4.27	-11.82	-34071	2203.1	0.24312	0.18437	0.96038
4.272	-11.83	-34066	2203.1	0.24332	0.18417	0.96038
4.274	-11.829	-34062	2203.1	0.24351	0.18398	0.96038
4.276	-11.837	-34061	2203.1	0.24498	0.18349	0.95882
4.278	-11.862	-34060	2203	0.24644	0.183	0.95726
4.28	-11.901	-34057	2203	0.2479	0.18251	0.9557
4.282	-11.926	-34055	2203	0.24937	0.18202	0.95414
4.284	-11.912	-34048	2203	0.25083	0.18154	0.95258
4.286	-11.954	-34041	2203	0.25103	0.18163	0.95287
4.288	-11.928	-34041	2202.9	0.25122	0.18173	0.95316
4.29	-11.812	-34041	2202.8	0.25142	0.18183	0.95345
4.292	-11.813	-34041	2202.7	0.25161	0.18193	0.95375
4.294	-11.853	-34041	2202.7	0.25181	0.18202	0.95404
4.296	-11.878	-34040	2202.5	0.2521	0.18163	0.95472
4.298	-11.92	-34038	2202.3	0.25239	0.18124	0.95541
4.3	-11.941	-34031	2202.1	0.25269	0.18085	0.95609
4.302	-11.976	-34024	2201.9	0.25298	0.18046	0.95677
4.304	-11.964	-34028	2201.7	0.25327	0.18007	0.95746
4.306	-11.927	-34031	2201.4	0.25015	0.18027	0.95882
4.308	-11.915	-34023	2201.2	0.24703	0.18046	0.96019
4.31	-11.849	-34015	2200.9	0.2439	0.18066	0.96156
4.312	-11.793	-34012	2200.6	0.24078	0.18085	0.96292
4.314	-11.828	-34009	2200.4	0.23766	0.18105	0.96429
4.316	-11.863	-34011	2200.1	0.23746	0.18115	0.96458
4.318	-11.854	-34012	2199.9	0.23727	0.18124	0.96487
4.32	-11.845	-34007	2199.7	0.23707	0.18134	0.96517
4.322	-11.82	-34002	2199.5	0.23688	0.18144	0.96546
4.324	-11.781	-33999	2199.3	0.23668	0.18154	0.96575
4.326	-11.79	-33996	2199.3	0.23609	0.18105	0.96487
4.328	-11.823	-33994	2199.2	0.23551	0.18056	0.964
4.33	-11.836	-33993	2199.2	0.23492	0.18007	0.96312
4.332	-11.905	-33993	2199.2	0.23434	0.17958	0.96224
4.334	-11.952	-33994	2199.2	0.23375	0.1791	0.96136
4.336	-11.957	-33996	2199.1	0.2358	0.17997	0.96029
4.338	-11.914	-33998	2199.1	0.23785	0.18085	0.95921
4.34	-11.874	-33993	2199.1	0.2399	0.18173	0.95814
4.342	-11.881	-33987	2199	0.24195	0.18261	0.95707
4.344	-11.851	-33984	2199	0.244	0.18349	0.95599
4.346	-11.802	-33980	2198.9	0.24312	0.18339	0.95658
4.348	-11.809	-33978	2198.7	0.24224	0.18329	0.95716
4.35	-11.822	-33976	2198.6	0.24136	0.1832	0.95775
4.352	-11.821	-33977	2198.4	0.24049	0.1831	0.95833
4.354	-11.848	-33977	2198.3	0.23961	0.183	0.95892
4.356	-11.878	-33977	2198.2	0.23932	0.18183	0.96058
4.358	-11.88	-33976	2198.1	0.23902	0.18066	0.96224
4.36	-11.861	-33979	2198	0.23873	0.17949	0.9639
4.362	-11.849	-33982	2197.9	0.23844	0.17832	0.96556
4.364	-11.846	-33977	2197.8	0.23814	0.17714	0.96722
4.366	-11.858	-33972	2197.7	0.24058	0.17802	0.9677
4.368	-11.897	-33973	2197.7	0.24302	0.1789	0.96819
4.37	-11.93	-33975	2197.6	0.24546	0.17978	0.96868
4.372	-11.929	-33973	2197.5	0.2479	0.18066	0.96917
4.374	-11.924	-33970	2197.3	0.25034	0.18154	0.96966
4.376	-11.948	-33968	2197.2	0.24898	0.18222	0.96907
4.378	-11.942	-33966	2197	0.24761	0.1829	0.96848
4.38	-11.885	-33970	2196.9	0.24624	0.18359	0.9679
4.382	-11.878	-33974	2196.7	0.24488	0.18427	0.96731
4.384	-11.908	-33971	2196.6	0.24351	0.18495	0.96673
4.386	-11.917	-33967	2196.4	0.244	0.18446	0.96526
4.388	-11.888	-33964	2196.2	0.24449	0.18398	0.9638
4.39	-11.876	-33962	2196	0.24498	0.18349	0.96234
4.392	-11.872	-33963	2195.8	0.24546	0.183	0.96087
4.394	-11.793	-33964	2195.6	0.24595	0.18251	0.95941
4.396	-11.824	-33968	2195.3	0.24585	0.18271	0.95892
4.398	-11.852	-33971	2195.1	0.24576	0.1829	0.95843
4.4	-11.829	-33971	2194.8	0.24566	0.1831	0.95794
4.402	-11.835	-33971	2194.6	0.24556	0.18329	0.95746
4.404	-11.866	-33968	2194.3	0.24546	0.18349	0.95697
4.406	-11.898	-33964	2194.1	0.24576	0.18251	0.95687
4.408	-11.86	-33966	2194	0.24605	0.18154	0.95677
4.41	-11.858	-33969	2193.9	0.24634	0.18056	0.95668
4.412	-11.904	-33968	2193.8	0.24664	0.17958	0.95658
4.414	-11.889	-33967	2193.7	0.24693	0.17861	0.95648
4.416	-11.843	-33967	2193.7	0.24556	0.1791	0.95502
4.418	-11.843	-33967	2193.8	0.2442	0.17958	0.95355
4.42	-11.902	-33967	2193.9	0.24283	0.18007	0.95209
4.422	-11.969	-33966	2194.1	0.24146	0.18056	0.95062
4.424	-11.996	-33966	2194.3	0.2401	0.18105	0.94916
4.426	-11.953	-33965	2194.5	0.2401	0.18046	0.94975
4.428	-11.885	-33968	2194.6	0.2401	0.17988	0.95033
4.43	-11.842	-33971	2194.7	0.2401	0.17929	0.95092
4.432	-11.84	-33973	2194.9	0.2401	0.17871	0.9515
4.434	-11.841	-33975	2195	0.2401	0.17812	0.95209
4.436	-11.828	-33973	2195	0.24097	0.17919	0.95258
4.438	-11.833	-33971	2195	0.24185	0.18027	0.95306
4.44	-11.861	-33964	2195.1	0.24273	0.18134	0.95355
4.442	-11.889	-33958	2195.1	0.24361	0.18241	0.95404
4.444	-11.909	-33962	2195.2	0.24449	0.18349	0.95453
4.446	-11.93	-33966	2195.1	0.24624	0.18212	0.9557
4.448	-11.9	-33962	2195.1	0.248	0.18076	0.95687
4.45	-11.905	-33958	2195.1	0.24976	0.17939	0.95804
4.452	-11.904	-33958	2195	0.25152	0.17802	0.95921
4.454	-11.884	-33957	2194.9	0.25327	0.17666	0.96038
4.456	-11.893	-33958	2194.8	0.25259	0.17734	0.9597
4.458	-11.903	-33958	2194.8	0.25191	0.17802	0.95902
4.46	-11.89	-33960	2194.7	0.25122	0.17871	0.95833
4.462	-11.827	-33962	2194.7	0.25054	0.17939	0.95765
4.464	-11.806	-33961	2194.7	0.24986	0.18007	0.95697
4.466	-11.833	-33961	2194.7	0.24976	0.17978	0.95746
4.468	-11.919	-33964	2194.8	0.24966	0.17949	0.95794
4.47	-11.95	-33967	2194.9	0.24956	0.17919	0.95843
4.472	-11.91	-33967	2194.9	0.24947	0.1789	0.95892
4.474	-11.919	-33966	2195	0.24937	0.17861	0.95941
4.476	-11.982	-33960	2195	0.24859	0.17949	0.95833
4.478	-11.993	-33955	2195	0.24781	0.18036	0.95726
4.48	-11.92	-33959	2195.1	0.24703	0.18124	0.95619
4.482	-11.841	-33962	2195	0.24624	0.18212	0.95511
4.484	-11.818	-33956	2195	0.24546	0.183	0.95404
4.486	-11.875	-33949	2194.9	0.24468	0.1828	0.95433
4.488	-11.864	-33953	2194.9	0.2439	0.18261	0.95463
4.49	-11.823	-33958	2194.8	0.24312	0.18241	0.95492
4.492	-11.821	-33955	2194.7	0.24234	0.18222	0.95521
4.494	-11.855	-33952	2194.6	0.24156	0.18202	0.9555
4.496	-11.842	-33956	2194.5	0.24215	0.18232	0.9557
4.498	-11.859	-33960	2194.5	0.24273	0.18261	0.95589
4.5	-11.895	-33953	2194.5	0.24332	0.1829	0.95609
4.502	-11.899	-33945	2194.4	0.2439	0.1832	0.95628
4.504	-11.884	-33945	2194.4	0.24449	0.18349	0.95648
4.506	-11.894	-33945	2194.5	0.24507	0.18378	0.95658
4.508	-11.916	-33948	2194.6	0.24566	0.18407	0.95668
4.51	-11.929	-33952	2194.7	0.24624	0.18437	0.95677
4.512	-11.93	-33954	2194.8	0.24683	0.18466	0.95687
4.514	-11.904	-33957	2194.9	0.24742	0.18495	0.95697
4.516	-11.898	-33948	2195	0.24703	0.18476	0.95628
4.518	-11.922	-33939	2195.1	0.24664	0.18456	0.9556
4.52	-11.916	-33947	2195.2	0.24624	0.18437	0.95492
4.522	-11.874	-33955	2195.2	0.24585	0.18417	0.95424
4.524	-11.862	-33952	2195.2	0.24546	0.18398	0.95355
4.526	-11.914	-33949	2195.2	0.24664	0.1832	0.95443
4.528	-11.974	-33949	2195.1	0.24781	0.18241	0.95531
4.53	-11.965	-33948	2195.1	0.24898	0.18163	0.95619
4.532	-11.881	-33945	2195	0.25015	0.18085	0.95707
4.534	-11.815	-33942	2194.9	0.25132	0.18007	0.95794
4.536	-11.811	-33940	2194.7	0.24956	0.18134	0.95931
4.538	-11.864	-33938	2194.6	0.24781	0.18261	0.96068
4.54	-11.889	-33942	2194.4	0.24605	0.18388	0.96204
4.542	-11.919	-33946	2194.3	0.24429	0.18515	0.96341
4.544	-11.925	-33952	2194.2	0.24254	0.18642	0.96478
4.546	-11.9	-33959	2194	0.24097	0.18476	0.96536
4.548	-11.862	-33952	2193.8	0.23941	0.1831	0.96595
4.55	-11.803	-33945	2193.7	0.23785	0.18144	0.96653
4.552	-11.87	-33940	2193.6	0.23629	0.17978	0.96712
4.554	-11.948	-33935	2193.5	0.23473	0.17812	0.9677
4.556	-11.945	-33941	2193.4	0.23463	0.17802	0.9677
4.558	-11.932	-33946	2193.4	0.23453	0.17792	0.9677
4.56	-11.882	-33942	2193.3	0.23444	0.17783	0.9677
4.562	-11.863	-33938	2193.3	0.23434	0.17773	0.9677
4.564	-11.927	-33946	2193.2	0.23424	0.17763	0.9677
4.566	-11.995	-33954	2193.2	0.23648	0.17783	0.96595
4.568	-11.974	-33956	2193.1	0.23873	0.17802	0.96419
4.57	-11.898	-33957	2193	0.24097	0.17822	0.96243
4.572	-11.791	-33952	2192.9	0.24322	0.17841	0.96068
4.574	-11.772	-33947	2192.8	0.24546	0.17861	0.95892
4.576	-11.845	-33946	2192.9	0.24517	0.17958	0.95902
4.578	-11.868	-33945	2192.9	0.24488	0.18056	0.95912
4.58	-11.848	-33942	2192.9	0.24459	0.18154	0.95921
4.582	-11.891	-33940	2192.8	0.24429	0.18251	0.95931
4.584	-11.98	-33939	2192.8	0.244	0.18349	0.95941
4.586	-12.02	-33937	2192.7	0.24439	0.18271	0.95999
4.588	-11.96	-33937	2192.7	0.24478	0.18193	0.96058
4.59	-11.881	-33937	2192.6	0.24517	0.18115	0.96116
4.592	-11.844	-33946	2192.6	0.24556	0.18036	0.96175
4.594	-11.846	-33954	2192.6	0.24595	0.17958	0.96234
4.596	-11.841	-33954	2192.5	0.24566	0.18027	0.96282
4.598	-11.831	-33953	2192.4	0.24537	0.18095	0.96331
4.6	-11.857	-33948	2192.3	0.24507	0.18163	0.9638
4.602	-11.883	-33943	2192.2	0.24478	0.18232	0.96429
4.604	-11.866	-33944	2192.1	0.24449	0.183	0.96478
4.606	-11.844	-33946	2192	0.24468	0.18241	0.96517
4.608	-11.866	-33947	2191.8	0.24488	0.18183	0.96556
4.61	-11.907	-33947	2191.7	0.24507	0.18124	0.96595
4.612	-11.924	-33949	2191.6	0.24527	0.18066	0.96634
4.614	-11.941	-33951	2191.4	0.24546	0.18007	0.96673
4.616	-11.935	-33951	2191.4	0.24498	0.18056	0.96595
4.618	-11.858	-33951	2191.3	0.24449	0.18105	0.96517
4.62	-11.775	-33952	2191.2	0.244	0.18154	0.96439
4.622	-11.795	-33952	2191.1	0.24351	0.18202	0.9636
4.624	-11.861	-33957	2190.9	0.24302	0.18251	0.96282
4.626	-11.863	-33962	2190.8	0.24293	0.18271	0.96273
4.628	-11.801	-33960	2190.7	0.24283	0.1829	0.96263
4.63	-11.763	-33959	2190.6	0.24273	0.1831	0.96253
4.632	-11.845	-33957	2190.5	0.24263	0.18329	0.96243
4.634	-11.877	-33955	2190.5	0.24254	0.18349	0.96234
4.636	-11.871	-33961	2190.5	0.24429	0.1829	0.96175
4.638	-11.871	-33967	2190.5	0.24605	0.18232	0.96116
4.64	-11.868	-33967	2190.5	0.24781	0.18173	0.96058
4.642	-11.889	-33966	2190.5	0.24956	0.18115	0.95999
4.644	-11.891	-33963	2190.5	0.25132	0.18056	0.95941
4.646	-11.859	-33959	2190.5	0.2523	0.17978	0.9598
4.648	-11.819	-33964	2190.5	0.25327	0.179	0.96019
4.65	-11.837	-33969	2190.5	0.25425	0.17822	0.96058
4.652	-11.853	-33961	2190.4	0.25522	0.17744	0.96097
4.654	-11.88	-33953	2190.4	0.2562	0.17666	0.96136
4.656	-11.85	-33957	2190.4	0.25522	0.17675	0.96204
4.658	-11.859	-33961	2190.4	0.25425	0.17685	0.96273
4.66	-11.907	-33964	2190.4	0.25327	0.17695	0.96341
4.662	-11.92	-33966	2190.4	0.2523	0.17705	0.96409
4.664	-11.913	-33967	2190.4	0.25132	0.17714	0.96478
4.666	-11.903	-33969	2190.4	0.252	0.17685	0.96536
4.668	-11.893	-33970	2190.4	0.25269	0.17656	0.96595
4.67	-11.893	-33970	2190.4	0.25337	0.17627	0.96653
4.672	-11.889	-33972	2190.4	0.25405	0.17597	0.96712
4.674	-11.912	-33973	2190.4	0.25474	0.17568	0.9677
4.676	-11.927	-33973	2190.5	0.25522	0.17656	0.96731
4.678	-11.93	-33972	2190.5	0.25571	0.17744	0.96692
4.68	-11.92	-33975	2190.5	0.2562	0.17832	0.96653
4.682	-11.931	-33979	2190.5	0.25669	0.17919	0.96614
4.684	-11.967	-33979	2190.5	0.25718	0.18007	0.96575
4.686	-11.976	-33979	2190.4	0.25552	0.17939	0.96585
4.688	-11.955	-33981	2190.4	0.25386	0.17871	0.96595
4.69	-11.945	-33984	2190.4	0.2522	0.17802	0.96604
4.692	-11.936	-33983	2190.4	0.25054	0.17734	0.96614
4.694	-11.907	-33982	2190.4	0.24888	0.17666	0.96624
