t	ekg	optical	pressure	accel_x	accel_y	accel_z
0	15.235	-39164	2708.8	0.023424	0.14982	1.0082
0.002	15.259	-39156	2708.6	0.025474	0.14962	1.0079
0.004	15.249	-39149	2708.3	0.027523	0.14943	1.0076
0.006	15.224	-39147	2708.2	0.029573	0.14923	1.0073
0.008	15.182	-39146	2708.1	0.031622	0.14904	1.007
0.01	15.171	-39143	2708	0.033672	0.14884	1.0067
0.012	15.203	-39140	2707.8	0.033379	0.14982	1.0067
0.014	15.201	-39140	2707.6	0.033086	0.15079	1.0067
0.016	15.182	-39139	2707.2	0.032794	0.15177	1.0067
0.018	15.221	-39130	2706.8	0.032501	0.15274	1.0067
0.02	15.295	-39121	2706.4	0.032208	0.15372	1.0067
0.022	15.296	-39119	2706.1	0.030549	0.15294	1.0071
0.024	15.235	-39116	2705.7	0.02889	0.15216	1.0075
0.026	15.208	-39116	2705.3	0.02723	0.15138	1.0079
0.028	15.215	-39117	2704.8	0.025571	0.1506	1.0083
0.03	15.236	-39114	2704.3	0.023912	0.14982	1.0087
0.032	15.265	-39111	2703.9	0.0244	0.15099	1.0085
0.034	15.214	-39106	2703.5	0.024888	0.15216	1.0083
0.036	15.189	-39101	2703.2	0.025376	0.15333	1.0081
0.038	15.256	-39096	2702.9	0.025864	0.1545	1.0079
0.04	15.221	-39092	2702.7	0.026352	0.15567	1.0077
0.042	15.208	-39089	2702.4	0.027328	0.15372	1.0075
0.044	15.241	-39086	2702.1	0.028304	0.15177	1.0073
0.046	15.229	-39090	2701.8	0.02928	0.14982	1.0071
0.048	15.248	-39094	2701.5	0.030256	0.14786	1.0069
0.05	15.297	-39088	2701.2	0.031232	0.14591	1.0067
0.052	15.274	-39082	2700.8	0.030744	0.14708	1.0062
0.054	15.184	-39079	2700.5	0.030256	0.14825	1.0056
0.056	15.16	-39076	2700.2	0.029768	0.14943	1.005
0.058	15.153	-39074	2699.8	0.02928	0.1506	1.0044
0.06	15.198	-39071	2699.4	0.028792	0.15177	1.0038
0.062	15.208	-39070	2699	0.028402	0.15138	1.003
0.064	15.202	-39068	2698.5	0.028011	0.15099	1.0023
0.066	15.216	-39063	2698.1	0.027621	0.1506	1.0015
0.068	15.249	-39057	2697.7	0.02723	0.15021	1.0007
0.07	15.253	-39062	2697.2	0.02684	0.14982	0.99991
0.072	15.229	-39067	2696.7	0.026157	0.1503	0.99972
0.074	15.202	-39064	2696.3	0.025474	0.15079	0.99952
0.076	15.17	-39060	2695.8	0.02479	0.15128	0.99933
0.078	15.165	-39060	2695.4	0.024107	0.15177	0.99913
0.08	15.183	-39061	2695	0.023424	0.15226	0.99894
0.082	15.192	-39052	2694.6	0.023034	0.15108	0.99923
0.084	15.191	-39044	2694.2	0.022643	0.14991	0.99952
0.086	15.178	-39049	2693.8	0.022253	0.14874	0.99981
0.088	15.184	-39054	2693.4	0.021862	0.14757	1.0001
0.09	15.186	-39047	2693.1	0.021472	0.1464	1.0004
0.092	15.17	-39039	2692.8	0.021277	0.14611	1.0001
0.094	15.159	-39042	2692.5	0.021082	0.14581	0.99981
0.096	15.169	-39045	2692.2	0.020886	0.14552	0.99952
0.098	15.222	-39046	2691.9	0.020691	0.14523	0.99923
0.1	15.269	-39047	2691.6	0.020496	0.14494	0.99894
0.102	15.268	-39039	2691.4	0.019325	0.14533	0.99855
0.104	15.241	-39032	2691.3	0.018154	0.14572	0.99816
0.106	15.19	-39036	2691.1	0.016982	0.14611	0.99776
0.108	15.16	-39041	2691	0.015811	0.1465	0.99737
0.11	15.156	-39041	2690.9	0.01464	0.14689	0.99698
0.112	15.138	-39042	2690.7	0.015226	0.1465	0.99679
0.114	15.136	-39038	2690.6	0.015811	0.14611	0.99659
0.116	15.143	-39035	2690.5	0.016397	0.14572	0.9964
0.118	15.224	-39031	2690.4	0.016982	0.14533	0.9962
0.12	15.242	-39028	2690.3	0.017568	0.14494	0.99601
0.122	15.218	-39025	2690.2	0.017373	0.14552	0.99572
0.124	15.211	-39023	2690.2	0.017178	0.14611	0.99542
0.126	15.26	-39026	2690.2	0.016982	0.14669	0.99513
0.128	15.222	-39029	2690.1	0.016787	0.14728	0.99484
0.13	15.223	-39029	2690.1	0.016592	0.14786	0.99454
0.132	15.232	-39029	2690.2	0.016299	0.14796	0.99532
0.134	15.21	-39027	2690.2	0.016006	0.14806	0.99611
0.136	15.19	-39026	2690.2	0.015714	0.14816	0.99689
0.138	15.151	-39027	2690.2	0.015421	0.14825	0.99767
0.14	15.183	-39028	2690.3	0.015128	0.14835	0.99845
0.142	15.232	-39022	2690.4	0.01503	0.14786	0.99796
0.144	15.189	-39016	2690.5	0.014933	0.14738	0.99747
0.146	15.172	-39018	2690.6	0.014835	0.14689	0.99698
0.148	15.149	-39019	2690.8	0.014738	0.1464	0.9965
0.15	15.161	-39014	2691	0.01464	0.14591	0.99601
0.152	15.185	-39009	2691.2	0.015518	0.14552	0.99679
0.154	15.181	-39010	2691.5	0.016397	0.14513	0.99757
0.156	15.182	-39011	2691.7	0.017275	0.14474	0.99835
0.158	15.203	-39011	2691.9	0.018154	0.14435	0.99913
0.16	15.217	-39010	2692.1	0.019032	0.14396	0.99991
0.162	15.189	-39010	2692.3	0.01991	0.14464	1.0001
0.164	15.152	-39011	2692.4	0.020789	0.14533	1.0003
0.166	15.142	-39006	2692.6	0.021667	0.14601	1.0005
0.168	15.183	-39001	2692.8	0.022546	0.14669	1.0007
0.17	15.215	-38997	2692.9	0.023424	0.14738	1.0009
0.172	15.187	-38993	2693	0.023424	0.14699	1.0012
0.174	15.158	-38996	2693.1	0.023424	0.1466	1.0015
0.176	15.169	-39000	2693.2	0.023424	0.1462	1.0018
0.178	15.183	-39001	2693.3	0.023424	0.14581	1.0021
0.18	15.178	-39002	2693.4	0.023424	0.14542	1.0024
0.182	15.163	-39000	2693.6	0.022058	0.14523	1.0019
0.184	15.156	-38999	2693.7	0.020691	0.14503	1.0014
0.186	15.162	-38993	2693.8	0.019325	0.14484	1.0009
0.188	15.177	-38987	2694	0.017958	0.14464	1.0004
0.19	15.191	-38988	2694.1	0.016592	0.14445	0.99991
0.192	15.184	-38989	2694.2	0.016982	0.14367	1
0.194	15.184	-38989	2694.3	0.017373	0.14289	1.0001
0.196	15.199	-38988	2694.5	0.017763	0.14211	1.0002
0.198	15.198	-38983	2694.6	0.018154	0.14132	1.0003
0.2	15.177	-38979	2694.7	0.018544	0.14054	1.0004
0.202	15.151	-38985	2694.7	0.018934	0.14191	0.99981
0.204	15.142	-38990	2694.8	0.019325	0.14328	0.99923
0.206	15.15	-38988	2694.8	0.019715	0.14464	0.99864
0.208	15.139	-38987	2694.8	0.020106	0.14601	0.99806
0.21	15.13	-38979	2694.8	0.020496	0.14738	0.99747
0.212	15.178	-38971	2694.8	0.020008	0.14699	0.99757
0.214	15.204	-38974	2694.8	0.01952	0.1466	0.99767
0.216	15.166	-38977	2694.8	0.019032	0.1462	0.99776
0.218	15.148	-38974	2694.8	0.018544	0.14581	0.99786
0.22	15.168	-38970	2694.8	0.018056	0.14542	0.99796
0.222	15.196	-38973	2694.7	0.018934	0.14581	0.99825
0.224	15.183	-38976	2694.7	0.019813	0.1462	0.99855
0.226	15.215	-38979	2694.6	0.020691	0.1466	0.99884
0.228	15.151	-38981	2694.5	0.02157	0.14699	0.99913
0.23	15.123	-38971	2694.4	0.022448	0.14738	0.99942
0.232	15.117	-38961	2694.3	0.022253	0.14767	0.99972
0.234	15.099	-38964	2694.2	0.022058	0.14796	1
0.236	15.103	-38968	2694.1	0.021862	0.14825	1.0003
0.238	15.142	-38971	2694	0.021667	0.14855	1.0006
0.24	15.175	-38973	2693.9	0.021472	0.14884	1.0009
0.242	15.187	-38973	2693.6	0.020984	0.14835	1.0008
0.244	15.171	-38972	2693.4	0.020496	0.14786	1.0007
0.246	15.141	-38966	2693.1	0.020008	0.14738	1.0006
0.248	15.105	-38961	2692.9	0.01952	0.14689	1.0005
0.25	15.105	-38955	2692.7	0.019032	0.1464	1.0004
0.252	15.11	-38949	2692.4	0.019227	0.14679	1
0.254	15.118	-38952	2692.1	0.019422	0.14718	0.99962
0.256	15.145	-38955	2691.8	0.019618	0.14757	0.99923
0.258	15.166	-38950	2691.4	0.019813	0.14796	0.99884
0.26	15.177	-38946	2691	0.020008	0.14835	0.99845
0.262	15.198	-38952	2690.6	0.019813	0.14796	0.99903
0.264	15.221	-38959	2690.2	0.019618	0.14757	0.99962
0.266	15.204	-38957	2689.8	0.019422	0.14718	1.0002
0.268	15.153	-38956	2689.4	0.019227	0.14679	1.0008
0.27	15.145	-38952	2689	0.019032	0.1464	1.0014
0.272	15.178	-38949	2688.7	0.018739	0.14757	1
0.274	15.191	-38947	2688.4	0.018446	0.14874	0.99864
0.276	15.161	-38946	2688	0.018154	0.14991	0.99728
0.278	15.11	-38945	2687.7	0.017861	0.15108	0.99591
0.28	15.101	-38945	2687.3	0.017568	0.15226	0.99454
0.282	15.113	-38943	2686.9	0.018739	0.15226	0.99415
0.284	15.119	-38942	2686.6	0.01991	0.15226	0.99376
0.286	15.123	-38941	2686.2	0.021082	0.15226	0.99337
0.288	15.106	-38940	2685.8	0.022253	0.15226	0.99298
0.29	15.071	-38942	2685.5	0.023424	0.15226	0.99259
0.292	15.109	-38943	2685.1	0.023131	0.15157	0.99415
0.294	15.166	-38941	2684.7	0.022838	0.15089	0.99572
0.296	15.173	-38938	2684.3	0.022546	0.15021	0.99728
0.298	15.169	-38937	2683.9	0.022253	0.14952	0.99884
0.3	15.192	-38936	2683.6	0.02196	0.14884	1.0004
0.302	15.195	-38934	2683.1	0.022838	0.14923	1.0001
0.304	15.135	-38933	2682.7	0.023717	0.14962	0.99981
0.306	15.103	-38934	2682.3	0.024595	0.15001	0.99952
0.308	15.093	-38936	2681.9	0.025474	0.1504	0.99923
0.31	15.118	-38939	2681.5	0.026352	0.15079	0.99894
0.312	15.13	-38943	2681.1	0.026645	0.15128	1
0.314	15.112	-38938	2680.7	0.026938	0.15177	1.0011
0.316	15.118	-38933	2680.3	0.02723	0.15226	1.0022
0.318	15.133	-38932	2679.9	0.027523	0.15274	1.0032
0.32	15.086	-38930	2679.5	0.027816	0.15323	1.0043
0.322	15.064	-38931	2679.2	0.026157	0.15343	1.0052
0.324	15.064	-38931	2678.8	0.024498	0.15362	1.0061
0.326	15.085	-38938	2678.4	0.022838	0.15382	1.0069
0.328	15.091	-38945	2678.1	0.021179	0.15401	1.0078
0.33	15.106	-38945	2677.7	0.01952	0.15421	1.0087
0.332	15.125	-38946	2677.4	0.021082	0.15421	1.008
0.334	15.133	-38944	2677	0.022643	0.15421	1.0073
0.336	15.133	-38942	2676.7	0.024205	0.15421	1.0066
0.338	15.146	-38935	2676.4	0.025766	0.15421	1.006
0.34	15.129	-38928	2676.1	0.027328	0.15421	1.0053
0.342	15.132	-38928	2675.9	0.027621	0.15401	1.0051
0.344	15.177	-38928	2675.6	0.027914	0.15382	1.0049
0.346	15.197	-38933	2675.4	0.028206	0.15362	1.0047
0.348	15.165	-38938	2675.2	0.028499	0.15343	1.0045
0.35	15.114	-38937	2675	0.028792	0.15323	1.0043
0.352	15.089	-38936	2674.8	0.028109	0.15362	1.0033
0.354	15.077	-38935	2674.6	0.027426	0.15401	1.0024
0.356	15.063	-38935	2674.5	0.026742	0.1544	1.0014
0.358	15.084	-38935	2674.4	0.026059	0.15479	1.0004
0.36	15.122	-38935	2674.3	0.025376	0.15518	0.99942
0.362	15.137	-38936	2674.2	0.024205	0.15411	0.99913
0.364	15.139	-38937	2674.2	0.023034	0.15304	0.99884
0.366	15.105	-38940	2674.1	0.021862	0.15196	0.99855
0.368	15.065	-38942	2674	0.020691	0.15089	0.99825
0.37	15.099	-38943	2673.8	0.01952	0.14982	0.99796
0.372	15.17	-38943	2673.7	0.02157	0.1504	0.99874
0.374	15.179	-38944	2673.6	0.023619	0.15099	0.99952
0.376	15.15	-38945	2673.5	0.025669	0.15157	1.0003
0.378	15.134	-38944	2673.3	0.027718	0.15216	1.0011
0.38	15.132	-38943	2673.2	0.029768	0.15274	1.0019
0.382	15.148	-38941	2673	0.02928	0.15226	1.0031
0.384	15.141	-38940	2672.8	0.028792	0.15177	1.0044
0.386	15.111	-38947	2672.7	0.028304	0.15128	1.0057
0.388	15.109	-38954	2672.6	0.027816	0.15079	1.0069
0.39	15.125	-38953	2672.4	0.027328	0.1503	1.0082
0.392	15.145	-38952	2672.3	0.02684	0.15148	1.0084
0.394	15.169	-38949	2672.1	0.026352	0.15265	1.0086
0.396	15.152	-38946	2672	0.025864	0.15382	1.0088
0.398	15.173	-38953	2671.8	0.025376	0.15499	1.009
0.4	15.171	-38959	2671.7	0.024888	0.15616	1.0092
0.402	15.145	-38957	2671.6	0.024498	0.15587	1.0082
0.404	15.139	-38956	2671.6	0.024107	0.15557	1.0072
0.406	15.14	-38954	2671.5	0.023717	0.15528	1.0063
0.408	15.158	-38952	2671.5	0.023326	0.15499	1.0053
0.41	15.163	-38951	2671.5	0.022936	0.1547	1.0043
0.412	15.14	-38950	2671.5	0.023814	0.15518	1.0042
0.414	15.129	-38951	2671.6	0.024693	0.15567	1.0041
0.416	15.099	-38951	2671.6	0.025571	0.15616	1.004
0.418	15.078	-38953	2671.6	0.02645	0.15665	1.0039
0.42	15.117	-38955	2671.6	0.027328	0.15714	1.0038
0.422	15.163	-38954	2671.6	0.027133	0.15733	1.0039
0.424	15.168	-38954	2671.6	0.026938	0.15753	1.004
0.426	15.177	-38956	2671.5	0.026742	0.15772	1.0041
0.428	15.165	-38958	2671.5	0.026547	0.15792	1.0042
0.43	15.161	-38956	2671.5	0.026352	0.15811	1.0043
0.432	15.18	-38955	2671.4	0.025864	0.15762	1.0054
0.434	15.158	-38954	2671.4	0.025376	0.15714	1.0065
0.436	15.137	-38954	2671.4	0.024888	0.15665	1.0075
0.438	15.134	-38956	2671.3	0.0244	0.15616	1.0086
0.44	15.102	-38958	2671.3	0.023912	0.15567	1.0097
0.442	15.084	-38964	2671.3	0.025278	0.15401	1.0081
0.444	15.103	-38971	2671.3	0.026645	0.15235	1.0065
0.446	15.128	-38966	2671.3	0.028011	0.15069	1.005
0.448	15.123	-38960	2671.2	0.029378	0.14904	1.0034
0.45	15.098	-38959	2671.1	0.030744	0.14738	1.0019
0.452	15.061	-38958	2671.1	0.028206	0.14747	1.0011
0.454	15.045	-38965	2671	0.025669	0.14757	1.0003
0.456	15.061	-38971	2671	0.023131	0.14767	0.99952
0.458	15.098	-38971	2670.9	0.020594	0.14777	0.99874
0.46	15.081	-38971	2670.8	0.018056	0.14786	0.99796
0.462	15.081	-38973	2670.7	0.017958	0.14767	0.99835
0.464	15.076	-38975	2670.6	0.017861	0.14747	0.99874
0.466	15.044	-38977	2670.5	0.017763	0.14728	0.99913
0.468	15.018	-38979	2670.3	0.017666	0.14708	0.99952
0.47	15.045	-38976	2670.2	0.017568	0.14689	0.99991
0.472	15.097	-38973	2670	0.018251	0.14796	0.99962
0.474	15.084	-38974	2669.9	0.018934	0.14904	0.99933
0.476	15.08	-38976	2669.8	0.019618	0.15011	0.99903
0.478	15.091	-38981	2669.7	0.020301	0.15118	0.99874
0.48	15.11	-38986	2669.6	0.020984	0.15226	0.99845
0.482	15.059	-38985	2669.4	0.021082	0.15089	0.99923
0.484	15.087	-38983	2669.3	0.021179	0.14952	1
0.486	15.116	-38983	2669.2	0.021277	0.14816	1.0008
0.488	15.116	-38983	2669.1	0.021374	0.14679	1.0016
0.49	15.113	-38985	2669.1	0.021472	0.14542	1.0024
0.492	15.085	-38987	2669	0.020301	0.1465	1.0009
0.494	15.036	-38982	2668.9	0.01913	0.14757	0.99942
0.496	15.02	-38977	2668.9	0.017958	0.14864	0.99796
0.498	15.044	-38979	2668.8	0.016787	0.14972	0.9965
0.5	15.121	-38980	2668.7	0.015616	0.15079	0.99503
0.502	15.185	-38979	2668.6	0.015616	0.15099	0.99552
0.504	15.17	-38977	2668.5	0.015616	0.15118	0.99601
0.506	15.114	-38976	2668.4	0.015616	0.15138	0.9965
0.508	15.093	-38974	2668.3	0.015616	0.15157	0.99698
0.51	15.129	-38973	2668.2	0.015616	0.15177	0.99747
0.512	15.199	-38971	2668.1	0.015714	0.15099	0.99767
0.514	15.214	-38977	2667.9	0.015811	0.15021	0.99786
0.516	15.175	-38984	2667.8	0.015909	0.14943	0.99806
0.518	15.17	-38983	2667.7	0.016006	0.14864	0.99825
0.52	15.198	-38982	2667.6	0.016104	0.14786	0.99845
0.522	15.2	-38980	2667.6	0.016885	0.14855	0.99786
0.524	15.162	-38977	2667.5	0.017666	0.14923	0.99728
0.526	15.141	-38984	2667.4	0.018446	0.14991	0.99669
0.528	15.16	-38990	2667.2	0.019227	0.1506	0.99611
0.53	15.16	-38993	2667.1	0.020008	0.15128	0.99552
0.532	15.125	-38996	2667	0.019715	0.15089	0.99523
0.534	15.107	-38996	2666.9	0.019422	0.1505	0.99493
0.536	15.107	-38996	2666.7	0.01913	0.15011	0.99464
0.538	15.083	-38997	2666.6	0.018837	0.14972	0.99435
0.54	15.01	-38998	2666.4	0.018544	0.14933	0.99406
0.542	14.907	-39001	2666.2	0.017568	0.14913	0.99435
0.544	14.83	-39003	2666.1	0.016592	0.14894	0.99464
0.546	14.84	-39000	2665.9	0.015616	0.14874	0.99493
0.548	14.913	-38996	2665.7	0.01464	0.14855	0.99523
0.55	15.066	-39000	2665.5	0.013664	0.14835	0.99552
0.552	15.108	-39005	2665.2	0.015518	0.14864	0.99581
0.554	15.084	-39005	2664.9	0.017373	0.14894	0.99611
0.556	15.098	-39006	2664.6	0.019227	0.14923	0.9964
0.558	15.062	-39001	2664.4	0.021082	0.14952	0.99669
0.56	15.054	-38997	2664.1	0.022936	0.14982	0.99698
0.562	15.064	-39003	2663.9	0.023131	0.1506	0.99767
0.564	15.062	-39008	2663.7	0.023326	0.15138	0.99835
0.566	15.107	-39012	2663.5	0.023522	0.15216	0.99903
0.568	15.15	-39015	2663.4	0.023717	0.15294	0.99972
0.57	15.104	-39011	2663.3	0.023912	0.15372	1.0004
0.572	15.058	-39007	2663.1	0.022838	0.15265	0.99942
0.574	15.04	-39010	2663	0.021765	0.15157	0.99845
0.576	15.026	-39012	2662.8	0.020691	0.1505	0.99747
0.578	15.059	-39013	2662.6	0.019618	0.14943	0.9965
0.58	15.04	-39013	2662.3	0.018544	0.14835	0.99552
0.582	15.012	-39014	2662.1	0.017763	0.14777	0.99591
0.584	15.03	-39015	2661.9	0.016982	0.14718	0.9963
0.586	15.081	-39018	2661.7	0.016202	0.1466	0.99669
0.588	15.117	-39020	2661.5	0.015421	0.14601	0.99708
0.59	15.084	-39015	2661.3	0.01464	0.14542	0.99747
0.592	15.04	-39010	2661.1	0.01503	0.14601	0.99708
0.594	15.047	-39013	2660.9	0.015421	0.1466	0.99669
0.596	15.075	-39017	2660.7	0.015811	0.14718	0.9963
0.598	15.082	-39016	2660.5	0.016202	0.14777	0.99591
0.6	15.049	-39014	2660.3	0.016592	0.14835	0.99552
0.602	15.005	-39023	2660.1	0.016592	0.14855	0.99562
0.604	14.988	-39032	2659.9	0.016592	0.14874	0.99572
0.606	15.005	-39027	2659.7	0.016592	0.14894	0.99581
0.608	15.061	-39022	2659.5	0.016592	0.14913	0.99591
0.61	15.098	-39026	2659.3	0.016592	0.14933	0.99601
0.612	15.063	-39031	2659.1	0.01669	0.14913	0.99572
0.614	15.018	-39033	2658.9	0.016787	0.14894	0.99542
0.616	15.001	-39036	2658.7	0.016885	0.14874	0.99513
0.618	15.017	-39031	2658.5	0.016982	0.14855	0.99484
0.62	15.051	-39027	2658.2	0.01708	0.14835	0.99454
0.622	15.027	-39033	2657.9	0.017763	0.14855	0.99445
0.624	14.991	-39039	2657.6	0.018446	0.14874	0.99435
0.626	14.986	-39043	2657.3	0.01913	0.14894	0.99425
0.628	15.009	-39047	2657	0.019813	0.14913	0.99415
0.63	15.067	-39040	2656.8	0.020496	0.14933	0.99406
0.632	15.085	-39033	2656.5	0.019813	0.14904	0.99493
0.634	15.113	-39039	2656.3	0.01913	0.14874	0.99581
0.636	15.112	-39044	2656	0.018446	0.14845	0.99669
0.638	15.082	-39041	2655.7	0.017763	0.14816	0.99757
0.64	15.068	-39037	2655.4	0.01708	0.14786	0.99845
0.642	15.065	-39037	2655.1	0.017568	0.14816	0.99825
0.644	15.048	-39037	2654.9	0.018056	0.14845	0.99806
0.646	15.042	-39043	2654.6	0.018544	0.14874	0.99786
0.648	15.046	-39050	2654.3	0.019032	0.14904	0.99767
0.65	15.044	-39052	2654.1	0.01952	0.14933	0.99747
0.652	15.047	-39054	2653.9	0.020594	0.14943	0.99796
0.654	15.08	-39047	2653.6	0.021667	0.14952	0.99845
0.656	15.12	-39041	2653.4	0.022741	0.14962	0.99894
0.658	15.102	-39045	2653.2	0.023814	0.14972	0.99942
0.66	15.037	-39049	2652.9	0.024888	0.14982	0.99991
0.662	15.013	-39057	2652.8	0.023619	0.14874	0.99972
0.664	15.034	-39066	2652.6	0.02235	0.14767	0.99952
0.666	15.069	-39059	2652.3	0.021082	0.1466	0.99933
0.668	15.06	-39052	2652	0.019813	0.14552	0.99913
0.67	15.067	-39053	2651.7	0.018544	0.14445	0.99894
0.672	15.06	-39054	2651.4	0.019618	0.14523	0.99913
0.674	15.036	-39054	2651.2	0.020691	0.14601	0.99933
0.676	15.045	-39054	2650.9	0.021765	0.14679	0.99952
0.678	15.036	-39061	2650.6	0.022838	0.14757	0.99972
0.68	15.012	-39068	2650.3	0.023912	0.14835	0.99991
0.682	15.015	-39069	2650	0.023717	0.14796	1.0008
0.684	15.038	-39070	2649.7	0.023522	0.14757	1.0017
0.686	15.044	-39072	2649.5	0.023326	0.14718	1.0025
0.688	15.027	-39074	2649.2	0.023131	0.14679	1.0034
0.69	15.046	-39078	2649	0.022936	0.1464	1.0043
0.692	15.092	-39083	2648.9	0.023522	0.14777	1.0034
0.694	15.101	-39076	2648.7	0.024107	0.14913	1.0025
0.696	15.087	-39068	2648.6	0.024693	0.1505	1.0017
0.698	15.05	-39071	2648.5	0.025278	0.15187	1.0008
0.7	15.021	-39075	2648.4	0.025864	0.15323	0.99991
0.702	15.058	-39083	2648.6	0.024693	0.15206	0.99942
0.704	15.061	-39091	2648.8	0.023522	0.15089	0.99894
0.706	15.051	-39088	2649	0.02235	0.14972	0.99845
0.708	15.062	-39084	2649.4	0.021179	0.14855	0.99796
0.71	15.053	-39081	2649.8	0.020008	0.14738	0.99747
0.712	15.032	-39078	2650.5	0.020301	0.14718	0.99767
0.714	15.008	-39087	2651.2	0.020594	0.14699	0.99786
0.716	14.976	-39095	2652.1	0.020886	0.14679	0.99806
0.718	15.003	-39090	2653.1	0.021179	0.1466	0.99825
0.72	15.059	-39085	2654.2	0.021472	0.1464	0.99845
0.722	15.086	-39094	2655.6	0.020984	0.14669	0.99737
0.724	15.078	-39103	2656.9	0.020496	0.14699	0.9963
0.726	15.083	-39103	2658.5	0.020008	0.14728	0.99523
0.728	15.059	-39102	2660.2	0.01952	0.14757	0.99415
0.73	15.045	-39103	2661.9	0.019032	0.14786	0.99308
0.732	15.078	-39105	2663.8	0.020398	0.14855	0.99249
0.734	15.109	-39103	2665.8	0.021765	0.14923	0.99191
0.736	15.086	-39101	2667.8	0.023131	0.14991	0.99132
0.738	15.053	-39096	2669.9	0.024498	0.1506	0.99074
0.74	15.067	-39091	2672	0.025864	0.15128	0.99015
0.742	15.081	-39092	2674.1	0.024986	0.15128	0.99044
0.744	15.086	-39093	2676.3	0.024107	0.15128	0.99074
0.746	15.103	-39095	2678.4	0.023229	0.15128	0.99103
0.748	15.083	-39097	2680.6	0.02235	0.15128	0.99132
0.75	15.104	-39101	2682.7	0.021472	0.15128	0.99162
0.752	15.081	-39106	2684.8	0.020984	0.15069	0.99259
0.754	15.063	-39104	2686.9	0.020496	0.15011	0.99357
0.756	15.077	-39102	2688.9	0.020008	0.14952	0.99454
0.758	15.075	-39098	2690.9	0.01952	0.14894	0.99552
0.76	15.047	-39094	2693	0.019032	0.14835	0.9965
0.762	15.043	-39097	2694.8	0.019813	0.14913	0.99679
0.764	15.052	-39100	2696.7	0.020594	0.14991	0.99708
0.766	15.094	-39098	2698.5	0.021374	0.15069	0.99737
0.768	15.147	-39096	2700.2	0.022155	0.15148	0.99767
0.77	15.163	-39092	2702	0.022936	0.15226	0.99796
0.772	15.131	-39088	2703.6	0.023326	0.15148	0.99903
0.774	15.111	-39086	2705.2	0.023717	0.15069	1.0001
0.776	15.114	-39083	2706.7	0.024107	0.14991	1.0012
0.778	15.102	-39083	2708.3	0.024498	0.14913	1.0023
0.78	15.086	-39084	2709.8	0.024888	0.14835	1.0033
0.782	15.092	-39077	2711.2	0.022741	0.14806	1.0024
0.784	15.109	-39071	2712.6	0.020594	0.14777	1.0016
0.786	15.114	-39070	2713.9	0.018446	0.14747	1.0007
0.788	15.126	-39070	2715.1	0.016299	0.14718	0.99981
0.79	15.133	-39064	2716.3	0.014152	0.14689	0.99894
0.792	15.129	-39059	2717.2	0.015714	0.14738	0.99903
0.794	15.133	-39057	2718.2	0.017275	0.14786	0.99913
0.796	15.104	-39056	2719	0.018837	0.14835	0.99923
0.798	15.069	-39052	2719.7	0.020398	0.14884	0.99933
0.8	15.056	-39049	2720.4	0.02196	0.14933	0.99942
0.802	15.075	-39044	2721	0.021277	0.14835	1.0019
0.804	15.087	-39039	2721.6	0.020594	0.14738	1.0043
0.806	15.091	-39034	2722.1	0.01991	0.1464	1.0067
0.808	15.109	-39028	2722.5	0.019227	0.14542	1.0092
0.81	15.11	-39022	2723	0.018544	0.14445	1.0116
0.812	15.086	-39017	2723.3	0.018446	0.14445	1.0123
0.814	15.123	-39011	2723.7	0.018349	0.14445	1.013
0.816	15.116	-39004	2723.9	0.018251	0.14445	1.0137
0.818	15.079	-38997	2724.1	0.018154	0.14445	1.0144
0.82	15.05	-38990	2724.3	0.018056	0.14445	1.015
0.822	15.106	-38981	2724.5	0.017568	0.14455	1.0146
0.824	15.15	-38973	2724.7	0.01708	0.14464	1.0141
0.826	15.115	-38972	2724.8	0.016592	0.14474	1.0136
0.828	15.093	-38971	2724.8	0.016104	0.14484	1.0131
0.83	15.078	-38968	2724.9	0.015616	0.14494	1.0126
0.832	15.066	-38964	2724.9	0.016202	0.14455	1.0119
0.834	15.078	-38956	2724.9	0.016787	0.14416	1.0112
0.836	15.077	-38949	2724.9	0.017373	0.14376	1.0106
0.838	15.063	-38948	2724.8	0.017958	0.14337	1.0099
0.84	15.05	-38947	2724.7	0.018544	0.14298	1.0092
0.842	15.06	-38940	2724.6	0.018739	0.14337	1.0091
0.844	15.083	-38933	2724.6	0.018934	0.14376	1.009
0.846	15.095	-38928	2724.5	0.01913	0.14416	1.0089
0.848	15.086	-38923	2724.4	0.019325	0.14455	1.0088
0.85	15.091	-38919	2724.3	0.01952	0.14494	1.0087
0.852	15.077	-38914	2724.1	0.020398	0.14572	1.0082
0.854	15.023	-38905	2723.9	0.021277	0.1465	1.0077
0.856	15.017	-38896	2723.8	0.022155	0.14728	1.0072
0.858	15.054	-38891	2723.6	0.023034	0.14806	1.0067
0.86	15.043	-38886	2723.4	0.023912	0.14884	1.0063
0.862	15.02	-38883	2723.2	0.025278	0.14855	1.0062
0.864	15.028	-38881	2722.9	0.026645	0.14825	1.0061
0.866	15.035	-38881	2722.7	0.028011	0.14796	1.006
0.868	15.043	-38881	2722.4	0.029378	0.14767	1.0059
0.87	15.066	-38880	2722.2	0.030744	0.14738	1.0058
0.872	15.076	-38879	2721.9	0.029866	0.14835	1.0061
0.874	15.027	-38874	2721.6	0.028987	0.14933	1.0064
0.876	14.992	-38870	2721.3	0.028109	0.1503	1.0066
0.878	15.011	-38861	2721	0.02723	0.15128	1.0069
0.88	14.998	-38853	2720.7	0.026352	0.15226	1.0072
0.882	15.017	-38848	2720.4	0.026157	0.15216	1.0067
0.884	15.014	-38842	2720.1	0.025962	0.15206	1.0063
0.886	15.018	-38839	2719.8	0.025766	0.15196	1.0058
0.888	15.007	-38835	2719.6	0.025571	0.15187	1.0053
0.89	14.964	-38830	2719.3	0.025376	0.15177	1.0048
0.892	14.945	-38825	2719	0.025669	0.15235	1.0038
0.894	14.95	-38823	2718.7	0.025962	0.15294	1.0028
0.896	15.024	-38820	2718.5	0.026254	0.15352	1.0019
0.898	15.081	-38820	2718.2	0.026547	0.15411	1.0009
0.9	15.054	-38821	2718	0.02684	0.1547	0.99991
0.902	15.029	-38815	2717.7	0.02645	0.15411	0.99981
0.904	15.025	-38809	2717.5	0.026059	0.15352	0.99972
0.906	15.005	-38804	2717.3	0.025669	0.15294	0.99962
0.908	14.955	-38799	2717.1	0.025278	0.15235	0.99952
0.91	14.926	-38796	2716.9	0.024888	0.15177	0.99942
0.912	14.986	-38793	2716.7	0.025474	0.15196	0.99942
0.914	15.041	-38787	2716.5	0.026059	0.15216	0.99942
0.916	15.029	-38781	2716.3	0.026645	0.15235	0.99942
0.918	14.987	-38778	2716.1	0.02723	0.15255	0.99942
0.92	14.951	-38775	2715.9	0.027816	0.15274	0.99942
0.922	14.997	-38774	2715.8	0.027816	0.15196	1.0002
0.924	15.03	-38772	2715.6	0.027816	0.15118	1.001
0.926	15.03	-38770	2715.4	0.027816	0.1504	1.0018
0.928	15.022	-38767	2715.3	0.027816	0.14962	1.0025
0.93	14.978	-38762	2715.1	0.027816	0.14884	1.0033
0.932	14.956	-38757	2714.9	0.027816	0.14952	1.003
0.934	14.981	-38757	2714.7	0.027816	0.15021	1.0027
0.936	15.02	-38756	2714.6	0.027816	0.15089	1.0024
0.938	15.056	-38752	2714.3	0.027816	0.15157	1.0022
0.94	15.06	-38748	2714.1	0.027816	0.15226	1.0019
0.942	15.021	-38746	2713.9	0.028109	0.15187	1.0016
0.944	15.004	-38744	2713.6	0.028402	0.15148	1.0013
0.946	15.026	-38743	2713.3	0.028694	0.15108	1.001
0.948	15.029	-38742	2712.9	0.028987	0.15069	1.0007
0.95	15.008	-38741	2712.5	0.02928	0.1503	1.0004
0.952	14.99	-38739	2712	0.027035	0.14962	0.99972
0.954	14.996	-38736	2711.6	0.02479	0.14894	0.99903
0.956	15.011	-38733	2711.1	0.022546	0.14825	0.99835
0.958	14.995	-38730	2710.5	0.020301	0.14757	0.99767
0.96	14.977	-38727	2710	0.018056	0.14689	0.99698
0.962	14.962	-38723	2709.4	0.018349	0.14718	0.99689
0.964	14.975	-38719	2708.9	0.018642	0.14747	0.99679
0.966	15.011	-38718	2708.3	0.018934	0.14777	0.99669
0.968	15.004	-38717	2707.7	0.019227	0.14806	0.99659
0.97	14.99	-38718	2707.2	0.01952	0.14835	0.9965
0.972	14.983	-38719	2706.7	0.019813	0.14816	0.99728
0.974	14.95	-38715	2706.2	0.020106	0.14796	0.99806
0.976	14.934	-38711	2705.7	0.020398	0.14777	0.99884
0.978	15.001	-38711	2705.2	0.020691	0.14757	0.99962
0.98	15.02	-38711	2704.8	0.020984	0.14738	1.0004
0.982	14.999	-38710	2704.4	0.020203	0.14699	1
0.984	15.007	-38710	2704.1	0.019422	0.1466	0.99962
0.986	15.007	-38703	2703.8	0.018642	0.1462	0.99923
0.988	14.956	-38697	2703.5	0.017861	0.14581	0.99884
0.99	14.911	-38695	2703.3	0.01708	0.14542	0.99845
0.992	14.901	-38692	2703.1	0.016787	0.14581	0.99835
0.994	14.861	-38694	2702.9	0.016494	0.1462	0.99825
0.996	14.976	-38695	2702.7	0.016202	0.1466	0.99816
0.998	15.064	-38698	2702.6	0.015909	0.14699	0.99806
1	15.019	-38701	2702.5	0.015616	0.14738	0.99796
1.002	15.02	-38699	2702.4	0.015811	0.14767	0.99708
1.004	14.998	-38697	2702.3	0.016006	0.14796	0.9962
1.006	14.979	-38693	2702.2	0.016202	0.14825	0.99532
1.008	14.988	-38690	2702.1	0.016397	0.14855	0.99445
1.01	15.019	-38685	2702.1	0.016592	0.14884	0.99357
1.012	15.004	-38681	2702.1	0.018056	0.14904	0.99464
1.014	15.007	-38681	2702.1	0.01952	0.14923	0.99572
1.016	15.008	-38680	2702.1	0.020984	0.14943	0.99679
1.018	14.986	-38680	2702.1	0.022448	0.14962	0.99786
1.02	14.984	-38679	2702.1	0.023912	0.14982	0.99894
1.022	14.993	-38682	2702.1	0.022643	0.14845	0.99913
1.024	14.991	-38685	2702.1	0.021374	0.14708	0.99933
1.026	14.964	-38687	2702.1	0.020106	0.14572	0.99952
1.028	14.924	-38689	2702.2	0.018837	0.14435	0.99972
1.03	14.894	-38688	2702.3	0.017568	0.14298	0.99991
1.032	14.858	-38687	2702.3	0.018349	0.14386	0.99962
1.034	14.867	-38679	2702.4	0.01913	0.14474	0.99933
1.036	14.959	-38672	2702.4	0.01991	0.14562	0.99903
1.038	15.034	-38670	2702.5	0.020691	0.1465	0.99874
1.04	15.044	-38669	2702.6	0.021472	0.14738	0.99845
1.042	15.021	-38671	2702.6	0.021374	0.1466	0.99894
1.044	14.991	-38672	2702.7	0.021277	0.14581	0.99942
1.046	14.975	-38669	2702.8	0.021179	0.14503	0.99991
1.048	14.989	-38666	2702.9	0.021082	0.14425	1.0004
1.05	15.016	-38674	2703	0.020984	0.14347	1.0009
1.052	14.994	-38681	2703.1	0.021082	0.14396	1.0006
1.054	14.965	-38675	2703.1	0.021179	0.14445	1.0003
1.056	14.974	-38669	2703.2	0.021277	0.14494	1
1.058	14.985	-38666	2703.3	0.021374	0.14542	0.99972
1.06	14.989	-38664	2703.4	0.021472	0.14591	0.99942
1.062	14.964	-38663	2703.5	0.021765	0.14581	1.0002
1.064	14.93	-38663	2703.6	0.022058	0.14572	1.001
1.066	14.922	-38661	2703.6	0.02235	0.14562	1.0018
1.068	14.934	-38659	2703.7	0.022643	0.14552	1.0025
1.07	14.931	-38657	2703.8	0.022936	0.14542	1.0033
1.072	14.985	-38655	2703.9	0.021277	0.14455	1.0023
1.074	14.96	-38652	2704	0.019618	0.14367	1.0012
1.076	14.902	-38648	2704	0.017958	0.14279	1.0001
1.078	14.845	-38645	2704	0.016299	0.14191	0.99903
1.08	14.867	-38643	2704	0.01464	0.14103	0.99796
1.082	14.941	-38644	2704	0.014738	0.14211	0.99679
1.084	14.97	-38646	2704	0.014835	0.14318	0.99562
1.086	14.979	-38646	2703.9	0.014933	0.14425	0.99445
1.088	15.007	-38647	2703.9	0.01503	0.14533	0.99328
1.09	14.973	-38639	2704	0.015128	0.1464	0.9921
1.092	14.934	-38631	2703.9	0.015226	0.1466	0.99347
1.094	14.94	-38637	2703.9	0.015323	0.14679	0.99484
1.096	14.972	-38642	2703.8	0.015421	0.14699	0.9962
1.098	14.979	-38641	2703.6	0.015518	0.14718	0.99757
1.1	14.978	-38639	2703.5	0.015616	0.14738	0.99894
1.102	14.961	-38633	2703.3	0.016397	0.1463	0.99933
1.104	14.916	-38627	2703.1	0.017178	0.14523	0.99972
1.106	14.892	-38624	2703	0.017958	0.14416	1.0001
1.108	14.901	-38621	2702.8	0.018739	0.14308	1.0005
1.11	14.912	-38620	2702.6	0.01952	0.14201	1.0009
1.112	14.958	-38618	2702.5	0.020886	0.14318	1.0008
1.114	14.993	-38614	2702.3	0.022253	0.14435	1.0007
1.116	15.003	-38611	2702.1	0.023619	0.14552	1.0006
1.118	15.004	-38612	2702	0.024986	0.14669	1.0005
1.12	14.969	-38614	2701.8	0.026352	0.14786	1.0004
1.122	14.936	-38611	2701.6	0.025571	0.14718	1.0007
1.124	14.941	-38608	2701.4	0.02479	0.1465	1.001
1.126	14.953	-38613	2701.3	0.02401	0.14581	1.0013
1.128	14.96	-38618	2701.1	0.023229	0.14513	1.0016
1.13	14.97	-38615	2701	0.022448	0.14445	1.0019
1.132	14.955	-38611	2700.8	0.022643	0.14435	1.0021
1.134	14.938	-38613	2700.7	0.022838	0.14425	1.0023
1.136	14.948	-38614	2700.5	0.023034	0.14416	1.0024
1.138	14.924	-38616	2700.3	0.023229	0.14406	1.0026
1.14	14.89	-38618	2700.2	0.023424	0.14396	1.0028
1.142	14.914	-38612	2699.9	0.023424	0.14474	1.0022
1.144	14.969	-38607	2699.6	0.023424	0.14552	1.0015
1.146	15.013	-38605	2699.3	0.023424	0.1463	1.0008
1.148	14.974	-38603	2699	0.023424	0.14708	1.0001
1.15	14.921	-38600	2698.7	0.023424	0.14786	0.99942
1.152	14.927	-38597	2698.4	0.023912	0.14757	1.0003
1.154	14.933	-38599	2698	0.0244	0.14728	1.0012
1.156	14.955	-38601	2697.6	0.024888	0.14699	1.0021
1.158	14.963	-38600	2697.2	0.025376	0.14669	1.0029
1.16	14.943	-38600	2696.7	0.025864	0.1464	1.0038
1.162	14.935	-38601	2696.2	0.025474	0.14669	1.0034
1.164	14.944	-38601	2695.6	0.025083	0.14699	1.003
1.166	14.935	-38594	2695.1	0.024693	0.14728	1.0026
1.168	14.913	-38588	2694.6	0.024302	0.14757	1.0023
1.17	14.923	-38589	2694.2	0.023912	0.14786	1.0019
1.172	14.932	-38591	2693.8	0.026157	0.1464	1.0019
1.174	14.934	-38593	2693.4	0.028402	0.14494	1.0019
1.176	14.922	-38596	2693	0.030646	0.14347	1.0019
1.178	14.885	-38596	2692.6	0.032891	0.14201	1.0019
1.18	14.841	-38596	2692.3	0.035136	0.14054	1.0019
1.182	14.826	-38590	2691.9	0.031525	0.14123	1.0009
1.184	14.856	-38585	2691.4	0.027914	0.14191	0.99991
1.186	14.91	-38586	2691.1	0.024302	0.14259	0.99894
1.188	14.945	-38588	2690.7	0.020691	0.14328	0.99796
1.19	14.954	-38591	2690.3	0.01708	0.14396	0.99698
1.192	14.971	-38595	2689.9	0.019032	0.14513	0.99796
1.194	14.945	-38590	2689.5	0.020984	0.1463	0.99894
1.196	14.908	-38585	2689.1	0.022936	0.14747	0.99991
1.198	14.898	-38585	2688.7	0.024888	0.14864	1.0009
1.2	14.938	-38586	2688.3	0.02684	0.14982	1.0019
1.202	14.985	-38586	2688	0.026547	0.14991	1.0017
1.204	14.982	-38585	2687.6	0.026254	0.15001	1.0015
1.206	14.948	-38593	2687.3	0.025962	0.15011	1.0013
1.208	14.918	-38601	2687	0.025669	0.15021	1.0011
1.21	14.914	-38593	2686.7	0.025376	0.1503	1.0009
1.212	14.905	-38584	2686.3	0.02645	0.14972	1.0016
1.214	14.891	-38585	2685.9	0.027523	0.14913	1.0023
1.216	14.91	-38586	2685.5	0.028597	0.14855	1.0029
1.218	14.936	-38588	2685.2	0.02967	0.14796	1.0036
1.22	14.921	-38590	2684.8	0.030744	0.14738	1.0043
1.222	14.918	-38586	2684.5	0.029768	0.14738	1.0038
1.224	14.933	-38581	2684.2	0.028792	0.14738	1.0033
1.226	14.932	-38579	2683.9	0.027816	0.14738	1.0028
1.228	14.961	-38576	2683.6	0.02684	0.14738	1.0024
1.23	14.972	-38590	2683.3	0.025864	0.14738	1.0019
1.232	14.938	-38603	2683	0.025181	0.14796	1.0018
1.234	14.894	-38593	2682.7	0.024498	0.14855	1.0017
1.236	14.916	-38583	2682.5	0.023814	0.14913	1.0016
1.238	14.906	-38585	2682.3	0.023131	0.14972	1.0015
1.24	14.938	-38586	2682	0.022448	0.1503	1.0014
1.242	14.944	-38590	2681.8	0.023522	0.14991	1.0018
1.244	14.912	-38594	2681.6	0.024595	0.14952	1.0022
1.246	14.95	-38593	2681.4	0.025669	0.14913	1.0025
1.248	14.921	-38591	2681.3	0.026742	0.14874	1.0029
1.25	14.917	-38589	2681.2	0.027816	0.14835	1.0033
1.252	14.935	-38587	2681.1	0.027035	0.14874	1.003
1.254	14.934	-38590	2681	0.026254	0.14913	1.0027
1.256	14.934	-38592	2680.9	0.025474	0.14952	1.0024
1.258	14.925	-38591	2680.9	0.024693	0.14991	1.0022
1.26	14.926	-38589	2680.8	0.023912	0.1503	1.0019
1.262	14.887	-38592	2680.7	0.023034	0.14894	1.0037
1.264	14.891	-38595	2680.7	0.022155	0.14757	1.0056
1.266	14.96	-38596	2680.6	0.021277	0.1462	1.0074
1.268	14.986	-38598	2680.6	0.020398	0.14484	1.0093
1.27	14.987	-38601	2680.5	0.01952	0.14347	1.0111
1.272	14.975	-38604	2680.4	0.019422	0.14337	1.012
1.274	14.917	-38603	2680.3	0.019325	0.14328	1.0129
1.276	14.887	-38601	2680.3	0.019227	0.14318	1.0138
1.278	14.9	-38604	2680.3	0.01913	0.14308	1.0146
1.28	14.931	-38606	2680.3	0.019032	0.14298	1.0155
1.282	14.961	-38604	2680.2	0.019813	0.14337	1.0155
1.284	14.95	-38603	2680.2	0.020594	0.14376	1.0155
1.286	14.939	-38606	2680.2	0.021374	0.14416	1.0155
1.288	14.989	-38609	2680.2	0.022155	0.14455	1.0155
1.29	15.017	-38608	2680.2	0.022936	0.14494	1.0155
1.292	14.979	-38606	2680.2	0.022546	0.14464	1.0153
1.294	14.961	-38608	2680.2	0.022155	0.14435	1.0151
1.296	14.989	-38610	2680.3	0.021765	0.14406	1.0149
1.298	15.011	-38609	2680.3	0.021374	0.14376	1.0147
1.3	15.01	-38607	2680.3	0.020984	0.14347	1.0146
1.302	14.996	-38613	2680.4	0.020203	0.14318	1.0135
1.304	14.966	-38618	2680.4	0.019422	0.14289	1.0124
1.306	14.984	-38616	2680.5	0.018642	0.14259	1.0113
1.308	14.973	-38614	2680.5	0.017861	0.1423	1.0103
1.31	14.916	-38617	2680.6	0.01708	0.14201	1.0092
1.312	14.904	-38621	2680.6	0.018544	0.14269	1.009
1.314	14.906	-38617	2680.7	0.020008	0.14337	1.0088
1.316	14.934	-38612	2680.7	0.021472	0.14406	1.0086
1.318	14.972	-38616	2680.8	0.022936	0.14474	1.0084
1.32	14.988	-38620	2680.8	0.0244	0.14542	1.0082
1.322	14.946	-38613	2680.9	0.025278	0.1464	1.0068
1.324	14.908	-38606	2681	0.026157	0.14738	1.0055
1.326	14.933	-38616	2681	0.027035	0.14835	1.0041
1.328	14.932	-38626	2681.1	0.027914	0.14933	1.0027
1.33	14.908	-38619	2681.2	0.028792	0.1503	1.0014
1.332	14.876	-38613	2681.2	0.029378	0.14923	1.0019
1.334	14.839	-38617	2681.3	0.029963	0.14816	1.0024
1.336	14.831	-38622	2681.3	0.030549	0.14708	1.0028
1.338	14.84	-38621	2681.3	0.031134	0.14601	1.0033
1.34	14.899	-38620	2681.2	0.03172	0.14494	1.0038
1.342	14.946	-38625	2681.2	0.03211	0.14396	1.0044
1.344	14.897	-38630	2681.1	0.032501	0.14298	1.005
1.346	14.858	-38622	2681	0.032891	0.14201	1.0056
1.348	14.83	-38613	2680.9	0.033282	0.14103	1.0062
1.35	14.877	-38625	2680.8	0.033672	0.14006	1.0067
1.352	14.942	-38636	2680.7	0.032208	0.14191	1.0065
1.354	14.966	-38632	2680.5	0.030744	0.14376	1.0064
1.356	14.952	-38627	2680.3	0.02928	0.14562	1.0062
1.358	14.925	-38627	2680.2	0.027816	0.14747	1.006
1.36	14.91	-38627	2680	0.026352	0.14933	1.0058
1.362	14.878	-38627	2679.9	0.026352	0.14855	1.0067
1.364	14.847	-38627	2679.8	0.026352	0.14777	1.0077
1.366	14.837	-38629	2679.6	0.026352	0.14699	1.0087
1.368	14.867	-38631	2679.5	0.026352	0.1462	1.0097
1.37	14.92	-38631	2679.4	0.026352	0.14542	1.0106
1.372	14.974	-38632	2679.4	0.02684	0.1464	1.0087
1.374	15.002	-38638	2679.3	0.027328	0.14738	1.0067
1.376	14.998	-38645	2679.2	0.027816	0.14835	1.0048
1.378	14.983	-38641	2679.1	0.028304	0.14933	1.0028
1.38	14.969	-38638	2679.1	0.028792	0.1503	1.0009
1.382	14.965	-38637	2679.1	0.027328	0.14972	1.0008
1.384	14.945	-38637	2679.1	0.025864	0.14913	1.0007
1.386	14.923	-38636	2679.1	0.0244	0.14855	1.0006
1.388	14.938	-38634	2679	0.022936	0.14796	1.0005
1.39	14.967	-38634	2679	0.021472	0.14738	1.0004
1.392	14.953	-38634	2678.9	0.022253	0.14786	1.0005
1.394	14.964	-38635	2678.8	0.023034	0.14835	1.0006
1.396	14.992	-38636	2678.7	0.023814	0.14884	1.0007
1.398	15.005	-38647	2678.6	0.024595	0.14933	1.0008
1.4	15.033	-38659	2678.5	0.025376	0.14982	1.0009
1.402	15.07	-38653	2678.5	0.024302	0.14864	1.0011
1.404	15.062	-38647	2678.4	0.023229	0.14747	1.0013
1.406	15.056	-38648	2678.4	0.022155	0.1463	1.0015
1.408	15.069	-38650	2678.4	0.021082	0.14513	1.0017
1.41	15.019	-38644	2678.4	0.020008	0.14396	1.0019
1.412	14.973	-38639	2678.3	0.020203	0.14445	1.0018
1.414	14.941	-38646	2678.3	0.020398	0.14494	1.0017
1.416	14.903	-38654	2678.2	0.020594	0.14542	1.0016
1.418	14.832	-38652	2678.1	0.020789	0.14591	1.0015
1.42	14.799	-38649	2678	0.020984	0.1464	1.0014
1.422	14.744	-38659	2677.9	0.020203	0.14572	1.0014
1.424	14.747	-38669	2677.9	0.019422	0.14503	1.0014
1.426	14.776	-38667	2677.8	0.018642	0.14435	1.0014
1.428	14.766	-38665	2677.7	0.017861	0.14367	1.0014
1.43	14.774	-38659	2677.6	0.01708	0.14298	1.0014
1.432	14.823	-38652	2677.5	0.017861	0.14376	1.001
1.434	14.862	-38654	2677.3	0.018642	0.14455	1.0006
1.436	14.871	-38656	2677.2	0.019422	0.14533	1.0002
1.438	14.876	-38657	2677	0.020203	0.14611	0.99981
1.44	14.888	-38659	2676.8	0.020984	0.14689	0.99942
1.442	14.896	-38661	2676.7	0.020106	0.14611	0.99962
1.444	14.902	-38662	2676.6	0.019227	0.14533	0.99981
1.446	14.902	-38667	2676.5	0.018349	0.14455	1
1.448	14.883	-38671	2676.3	0.01747	0.14376	1.0002
1.45	14.875	-38674	2676.1	0.016592	0.14298	1.0004
1.452	14.892	-38676	2676	0.016397	0.14367	0.99903
1.454	14.919	-38674	2675.9	0.016202	0.14435	0.99767
1.456	14.931	-38673	2675.7	0.016006	0.14503	0.9963
1.458	14.905	-38673	2675.6	0.015811	0.14572	0.99493
1.46	14.872	-38674	2675.4	0.015616	0.1464	0.99357
1.462	14.893	-38675	2675.2	0.015811	0.1462	0.99406
1.464	14.914	-38675	2675	0.016006	0.14601	0.99454
1.466	14.876	-38677	2674.8	0.016202	0.14581	0.99503
1.468	14.85	-38678	2674.6	0.016397	0.14562	0.99552
1.47	14.848	-38678	2674.5	0.016592	0.14542	0.99601
1.472	14.858	-38677	2674.3	0.01747	0.14533	0.99659
1.474	14.895	-38678	2674.2	0.018349	0.14523	0.99718
1.476	14.926	-38679	2674	0.019227	0.14513	0.99776
1.478	14.925	-38679	2673.9	0.020106	0.14503	0.99835
1.48	14.914	-38678	2673.7	0.020984	0.14494	0.99894
1.482	14.892	-38681	2673.6	0.01913	0.14562	0.99825
1.484	14.928	-38684	2673.4	0.017275	0.1463	0.99757
1.486	14.96	-38687	2673.2	0.015421	0.14699	0.99689
1.488	14.891	-38691	2673	0.013566	0.14767	0.9962
1.49	14.829	-38690	2672.8	0.011712	0.14835	0.99552
1.492	14.864	-38690	2672.5	0.012688	0.14816	0.99474
1.494	14.882	-38684	2672.3	0.013664	0.14796	0.99396
1.496	14.828	-38678	2672	0.01464	0.14777	0.99318
1.498	14.858	-38684	2671.7	0.015616	0.14757	0.9924
1.5	14.864	-38691	2671.5	0.016592	0.14738	0.99162
1.502	14.853	-38692	2671.2	0.016592	0.1466	0.99249
1.504	14.901	-38693	2671	0.016592	0.14581	0.99337
1.506	14.929	-38694	2670.7	0.016592	0.14503	0.99425
1.508	14.918	-38695	2670.5	0.016592	0.14425	0.99513
1.51	14.928	-38696	2670.2	0.016592	0.14347	0.99601
1.512	14.917	-38696	2670	0.016982	0.14347	0.9963
1.514	14.868	-38697	2669.7	0.017373	0.14347	0.99659
1.516	14.834	-38698	2669.4	0.017763	0.14347	0.99689
1.518	14.833	-38702	2669.2	0.018154	0.14347	0.99718
1.52	14.86	-38706	2668.9	0.018544	0.14347	0.99747
1.522	14.889	-38707	2668.6	0.020008	0.14445	0.99796
1.524	14.882	-38707	2668.3	0.021472	0.14542	0.99845
1.526	14.862	-38704	2668	0.022936	0.1464	0.99894
1.528	14.868	-38701	2667.6	0.0244	0.14738	0.99942
1.53	14.882	-38702	2667.2	0.025864	0.14835	0.99991
1.532	14.885	-38702	2666.9	0.025474	0.14816	1.0004
1.534	14.871	-38704	2666.6	0.025083	0.14796	1.0009
1.536	14.83	-38706	2666.2	0.024693	0.14777	1.0014
1.538	14.801	-38706	2665.7	0.024302	0.14757	1.0019
1.54	14.833	-38705	2665.3	0.023912	0.14738	1.0024
1.542	14.899	-38706	2664.9	0.02401	0.14718	1.0023
1.544	14.935	-38707	2664.5	0.024107	0.14699	1.0022
1.546	14.937	-38709	2664.1	0.024205	0.14679	1.0021
1.548	14.919	-38711	2663.6	0.024302	0.1466	1.002
1.55	14.893	-38713	2663.2	0.0244	0.1464	1.0019
1.552	14.884	-38715	2662.8	0.023912	0.14601	1.0015
1.554	14.884	-38723	2662.3	0.023424	0.14562	1.0011
1.556	14.893	-38730	2661.9	0.022936	0.14523	1.0007
1.558	14.878	-38731	2661.5	0.022448	0.14484	1.0003
1.56	14.84	-38732	2661.1	0.02196	0.14445	0.99991
1.562	14.844	-38728	2660.7	0.023034	0.14464	1.001
1.564	14.873	-38723	2660.3	0.024107	0.14484	1.0021
1.566	14.933	-38725	2659.9	0.025181	0.14503	1.0031
1.568	14.924	-38728	2659.6	0.026254	0.14523	1.0042
1.57	14.86	-38729	2659.2	0.027328	0.14542	1.0053
1.572	14.82	-38729	2658.9	0.024986	0.14552	1.0038
1.574	14.876	-38730	2658.7	0.022643	0.14562	1.0024
1.576	14.931	-38731	2658.5	0.020301	0.14572	1.0009
1.578	14.882	-38735	2658.4	0.017958	0.14581	0.99942
1.58	14.849	-38739	2658.3	0.015616	0.14591	0.99796
1.582	14.873	-38741	2658.4	0.015226	0.14581	0.99767
1.584	14.873	-38743	2658.4	0.014835	0.14572	0.99737
1.586	14.888	-38747	2658.6	0.014445	0.14562	0.99708
1.588	14.843	-38752	2658.8	0.014054	0.14552	0.99679
1.59	14.793	-38752	2659	0.013664	0.14542	0.9965
1.592	14.842	-38753	2659.5	0.014347	0.14484	0.99698
1.594	14.952	-38753	2660	0.01503	0.14425	0.99747
1.596	14.951	-38752	2660.6	0.015714	0.14367	0.99796
1.598	14.903	-38757	2661.4	0.016397	0.14308	0.99845
1.6	14.906	-38763	2662.1	0.01708	0.1425	0.99894
1.602	14.858	-38763	2663.2	0.019715	0.14298	0.99972
1.604	14.866	-38762	2664.3	0.02235	0.14347	1.0005
1.606	14.893	-38762	2665.5	0.024986	0.14396	1.0013
1.608	14.92	-38762	2666.9	0.027621	0.14445	1.0021
1.61	14.912	-38765	2668.4	0.030256	0.14494	1.0028
1.612	14.883	-38768	2670	0.030061	0.14523	1.0032
1.614	14.87	-38767	2671.7	0.029866	0.14552	1.0036
1.616	14.892	-38767	2673.4	0.02967	0.14581	1.004
1.618	14.92	-38766	2675.4	0.029475	0.14611	1.0044
1.62	14.94	-38765	2677.3	0.02928	0.1464	1.0048
1.622	14.919	-38763	2679.3	0.028597	0.1464	1.0037
1.624	14.892	-38761	2681.3	0.027914	0.1464	1.0026
1.626	14.894	-38761	2683.3	0.02723	0.1464	1.0016
1.628	14.899	-38760	2685.3	0.026547	0.1464	1.0005
1.63	14.898	-38764	2687.4	0.025864	0.1464	0.99942
1.632	14.889	-38767	2689.4	0.025181	0.14581	0.99972
1.634	14.861	-38767	2691.4	0.024498	0.14523	1
1.636	14.849	-38767	2693.4	0.023814	0.14464	1.0003
1.638	14.879	-38766	2695.3	0.023131	0.14406	1.0006
1.64	14.923	-38764	2697.2	0.022448	0.14347	1.0009
1.642	14.978	-38766	2699.1	0.023717	0.14435	1.0012
1.644	15.013	-38767	2700.9	0.024986	0.14523	1.0015
1.646	15.01	-38770	2702.6	0.026254	0.14611	1.0018
1.648	14.979	-38773	2704.3	0.027523	0.14699	1.0021
1.65	14.965	-38767	2706	0.028792	0.14786	1.0024
1.652	14.951	-38761	2707.6	0.028499	0.14767	1.0033
1.654	14.933	-38764	2709.2	0.028206	0.14747	1.0043
1.656	14.929	-38768	2710.7	0.027914	0.14728	1.0053
1.658	14.983	-38764	2712.2	0.027621	0.14708	1.0063
1.66	14.961	-38760	2713.7	0.027328	0.14689	1.0072
1.662	14.923	-38750	2715.1	0.026352	0.14572	1.0074
1.664	14.904	-38741	2716.4	0.025376	0.14455	1.0076
1.666	14.967	-38744	2717.7	0.0244	0.14337	1.0078
1.668	14.989	-38747	2718.8	0.023424	0.1422	1.008
1.67	14.969	-38744	2720	0.022448	0.14103	1.0082
1.672	14.933	-38740	2721	0.022058	0.14084	1.0082
1.674	14.908	-38740	2722	0.021667	0.14064	1.0082
1.676	14.936	-38740	2722.9	0.021277	0.14045	1.0082
1.678	14.935	-38734	2723.7	0.020886	0.14025	1.0082
1.68	14.927	-38729	2724.5	0.020496	0.14006	1.0082
1.682	14.96	-38728	2725.1	0.019032	0.14084	1.0094
1.684	14.969	-38727	2725.8	0.017568	0.14162	1.0106
1.686	14.969	-38720	2726.3	0.016104	0.1424	1.0117
1.688	14.977	-38713	2726.8	0.01464	0.14318	1.0129
1.69	14.988	-38706	2727.3	0.013176	0.14396	1.0141
1.692	14.998	-38699	2727.6	0.012981	0.14416	1.0139
1.694	14.965	-38697	2727.9	0.012786	0.14435	1.0137
1.696	14.932	-38695	2728.3	0.01259	0.14455	1.0135
1.698	14.924	-38700	2728.6	0.012395	0.14474	1.0133
1.7	14.92	-38705	2728.9	0.0122	0.14494	1.0131
1.702	14.913	-38693	2729.1	0.012786	0.14435	1.0119
1.704	14.891	-38682	2729.3	0.013371	0.14376	1.0107
1.706	14.862	-38676	2729.5	0.013957	0.14318	1.0096
1.708	14.861	-38670	2729.6	0.014542	0.14259	1.0084
1.71	14.914	-38664	2729.7	0.015128	0.14201	1.0072
1.712	14.973	-38658	2729.7	0.016397	0.14123	1.0073
1.714	14.947	-38644	2729.7	0.017666	0.14045	1.0074
1.716	14.884	-38629	2729.7	0.018934	0.13967	1.0075
1.718	14.891	-38632	2729.6	0.020203	0.13888	1.0076
1.72	14.902	-38634	2729.5	0.021472	0.1381	1.0077
1.722	14.878	-38631	2729.3	0.020789	0.13801	1.0076
1.724	14.911	-38627	2729.1	0.020106	0.13791	1.0075
1.726	14.935	-38618	2729	0.019422	0.13781	1.0074
1.728	14.902	-38609	2728.8	0.018739	0.13771	1.0073
1.73	14.916	-38609	2728.6	0.018056	0.13762	1.0072
1.732	14.943	-38610	2728.3	0.017275	0.1384	1.008
1.734	14.933	-38602	2728.1	0.016494	0.13918	1.0088
1.736	14.903	-38593	2727.8	0.015714	0.13996	1.0096
1.738	14.864	-38596	2727.6	0.014933	0.14074	1.0104
1.74	14.827	-38598	2727.3	0.014152	0.14152	1.0111
1.742	14.796	-38589	2727.1	0.013859	0.14279	1.011
1.744	14.801	-38581	2726.8	0.013566	0.14406	1.0109
1.746	14.826	-38576	2726.6	0.013274	0.14533	1.0108
1.748	14.833	-38572	2726.3	0.012981	0.1466	1.0107
1.75	14.869	-38571	2726	0.012688	0.14786	1.0106
1.752	14.878	-38569	2725.7	0.012786	0.14728	1.0108
1.754	14.891	-38566	2725.4	0.012883	0.14669	1.011
1.756	14.912	-38563	2725	0.012981	0.14611	1.0112
1.758	14.88	-38557	2724.6	0.013078	0.14552	1.0114
1.76	14.853	-38551	2724.3	0.013176	0.14494	1.0116
1.762	14.806	-38543	2723.9	0.014445	0.14611	1.0113
1.764	14.858	-38534	2723.5	0.015714	0.14728	1.011
1.766	14.921	-38533	2723.1	0.016982	0.14845	1.0107
1.768	14.874	-38531	2722.7	0.018251	0.14962	1.0105
1.77	14.884	-38526	2722.2	0.01952	0.15079	1.0102
1.772	14.884	-38521	2721.9	0.020691	0.15011	1.011
1.774	14.856	-38518	2721.5	0.021862	0.14943	1.0119
1.776	14.844	-38515	2721.1	0.023034	0.14874	1.0128
1.778	14.863	-38512	2720.7	0.024205	0.14806	1.0137
1.78	14.883	-38508	2720.3	0.025376	0.14738	1.0146
1.782	14.887	-38504	2719.8	0.025376	0.14708	1.0123
1.784	14.883	-38499	2719.4	0.025376	0.14679	1.0101
1.786	14.864	-38499	2718.7	0.025376	0.1465	1.0078
1.788	14.853	-38498	2717.8	0.025376	0.1462	1.0056
1.79	14.838	-38494	2716.8	0.025376	0.14591	1.0033
1.792	14.81	-38489	2715.9	0.025474	0.1463	1.0038
1.794	14.805	-38485	2714.9	0.025571	0.14669	1.0043
1.796	14.822	-38481	2714.3	0.025669	0.14708	1.0048
1.798	14.829	-38479	2714.1	0.025766	0.14747	1.0053
1.8	14.823	-38477	2713.8	0.025864	0.14786	1.0058
1.802	14.804	-38477	2713.7	0.024498	0.14738	1.0049
1.804	14.778	-38477	2713.6	0.023131	0.14689	1.004
1.806	14.787	-38477	2713.5	0.021765	0.1464	1.0031
1.808	14.819	-38477	2713.4	0.020398	0.14591	1.0023
1.81	14.815	-38476	2713.2	0.019032	0.14542	1.0014
1.812	14.804	-38474	2713	0.020203	0.1462	1.0019
1.814	14.827	-38471	2712.8	0.021374	0.14699	1.0024
1.816	14.838	-38469	2712.5	0.022546	0.14777	1.0028
1.818	14.85	-38465	2712.2	0.023717	0.14855	1.0033
1.82	14.876	-38462	2711.9	0.024888	0.14933	1.0038
1.822	14.898	-38451	2711.4	0.024888	0.14943	1.0043
1.824	14.923	-38440	2710.9	0.024888	0.14952	1.0048
1.826	14.921	-38441	2710.5	0.024888	0.14962	1.0053
1.828	14.877	-38442	2710	0.024888	0.14972	1.0058
1.83	14.829	-38442	2709.6	0.024888	0.14982	1.0063
1.832	14.817	-38442	2709	0.025181	0.14952	1.0063
1.834	14.789	-38438	2708.4	0.025474	0.14923	1.0063
1.836	14.792	-38433	2707.8	0.025766	0.14894	1.0063
1.838	14.857	-38432	2707.2	0.026059	0.14864	1.0063
1.84	14.857	-38431	2706.6	0.026352	0.14835	1.0063
1.842	14.834	-38425	2706	0.026059	0.14904	1.0051
1.844	14.8	-38419	2705.4	0.025766	0.14972	1.0039
1.846	14.797	-38426	2704.9	0.025474	0.1504	1.0027
1.848	14.831	-38434	2704.5	0.025181	0.15108	1.0016
1.85	14.837	-38427	2704.1	0.024888	0.15177	1.0004
1.852	14.831	-38419	2703.8	0.024107	0.15138	0.99991
1.854	14.835	-38422	2703.4	0.023326	0.15099	0.99942
1.856	14.81	-38424	2703.1	0.022546	0.1506	0.99894
1.858	14.802	-38425	2702.8	0.021765	0.15021	0.99845
1.86	14.845	-38426	2702.5	0.020984	0.14982	0.99796
1.862	14.864	-38425	2702.2	0.022155	0.15011	0.99835
1.864	14.82	-38424	2701.9	0.023326	0.1504	0.99874
1.866	14.846	-38424	2701.6	0.024498	0.15069	0.99913
1.868	14.879	-38423	2701.3	0.025669	0.15099	0.99952
1.87	14.842	-38418	2700.9	0.02684	0.15128	0.99991
1.872	14.831	-38414	2700.6	0.025474	0.15021	0.99972
1.874	14.822	-38419	2700.3	0.024107	0.14913	0.99952
1.876	14.795	-38424	2700.1	0.022741	0.14806	0.99933
1.878	14.808	-38415	2699.8	0.021374	0.14699	0.99913
1.88	14.842	-38405	2699.6	0.020008	0.14591	0.99894
1.882	14.845	-38409	2699.4	0.021374	0.14679	0.99874
1.884	14.83	-38414	2699.3	0.022741	0.14767	0.99855
1.886	14.819	-38411	2699.2	0.024107	0.14855	0.99835
1.888	14.818	-38408	2699.1	0.025474	0.14943	0.99816
1.89	14.831	-38408	2699	0.02684	0.1503	0.99796
1.892	14.836	-38408	2698.9	0.02479	0.14943	0.99747
1.894	14.819	-38405	2698.9	0.022741	0.14855	0.99698
1.896	14.803	-38401	2698.9	0.020691	0.14767	0.9965
1.898	14.796	-38407	2698.8	0.018642	0.14679	0.99601
1.9	14.779	-38414	2698.8	0.016592	0.14591	0.99552
1.902	14.732	-38409	2698.8	0.017178	0.14523	0.99601
1.904	14.715	-38404	2698.8	0.017763	0.14455	0.9965
1.906	14.766	-38402	2698.8	0.018349	0.14386	0.99698
1.908	14.834	-38399	2698.8	0.018934	0.14318	0.99747
1.91	14.86	-38405	2698.9	0.01952	0.1425	0.99796
1.912	14.829	-38412	2698.9	0.019715	0.1422	0.99845
1.914	14.859	-38410	2699	0.01991	0.14191	0.99894
1.916	14.892	-38408	2699.1	0.020106	0.14162	0.99942
1.918	14.846	-38397	2699.2	0.020301	0.14132	0.99991
1.92	14.834	-38386	2699.3	0.020496	0.14103	1.0004
1.922	14.803	-38391	2699.4	0.020008	0.14006	0.99864
1.924	14.801	-38395	2699.5	0.01952	0.13908	0.99689
1.926	14.847	-38400	2699.6	0.019032	0.1381	0.99513
1.928	14.882	-38406	2699.8	0.018544	0.13713	0.99337
1.93	14.835	-38400	2700	0.018056	0.13615	0.99162
1.932	14.784	-38394	2700.2	0.018642	0.13703	0.99181
1.934	14.762	-38399	2700.4	0.019227	0.13791	0.99201
1.936	14.755	-38405	2700.6	0.019813	0.13879	0.9922
1.938	14.744	-38406	2700.8	0.020398	0.13967	0.9924
1.94	14.762	-38407	2700.9	0.020984	0.14054	0.99259
1.942	14.862	-38398	2701.1	0.020106	0.14054	0.99298
1.944	14.911	-38389	2701.3	0.019227	0.14054	0.99337
1.946	14.865	-38390	2701.4	0.018349	0.14054	0.99376
1.948	14.836	-38391	2701.5	0.01747	0.14054	0.99415
1.95	14.824	-38381	2701.6	0.016592	0.14054	0.99454
1.952	14.812	-38371	2701.7	0.016202	0.14074	0.99435
1.954	14.807	-38380	2701.8	0.015811	0.14093	0.99415
1.956	14.818	-38389	2701.8	0.015421	0.14113	0.99396
1.958	14.818	-38394	2701.8	0.01503	0.14132	0.99376
1.96	14.813	-38399	2701.9	0.01464	0.14152	0.99357
1.962	14.807	-38404	2701.8	0.01503	0.14181	0.99503
1.964	14.82	-38409	2701.8	0.015421	0.14211	0.9965
1.966	14.82	-38406	2701.7	0.015811	0.1424	0.99796
1.968	14.804	-38403	2701.7	0.016202	0.14269	0.99942
1.97	14.813	-38402	2701.6	0.016592	0.14298	1.0009
1.972	14.828	-38402	2701.5	0.015226	0.14376	1.0001
1.974	14.82	-38402	2701.3	0.013859	0.14455	0.99933
1.976	14.809	-38402	2701.2	0.012493	0.14533	0.99855
1.978	14.814	-38395	2701	0.011126	0.14611	0.99776
1.98	14.81	-38389	2700.8	0.00976	0.14689	0.99698
1.982	14.782	-38387	2700.6	0.011322	0.1463	0.99572
1.984	14.755	-38386	2700.4	0.012883	0.14572	0.99445
1.986	14.734	-38384	2700.2	0.014445	0.14513	0.99318
1.988	14.738	-38381	2700	0.016006	0.14455	0.99191
1.99	14.73	-38381	2699.8	0.017568	0.14396	0.99064
1.992	14.745	-38380	2699.6	0.01747	0.14367	0.99074
1.994	14.806	-38378	2699.5	0.017373	0.14337	0.99084
1.996	14.839	-38376	2699.3	0.017275	0.14308	0.99093
1.998	14.862	-38378	2699.1	0.017178	0.14279	0.99103
2	14.849	-38380	2698.9	0.01708	0.1425	0.99113
2.002	14.795	-38383	2698.7	0.017568	0.1423	0.99142
2.004	14.75	-38386	2698.6	0.018056	0.14211	0.99171
2.006	14.783	-38385	2698.4	0.018544	0.14191	0.99201
2.008	14.849	-38384	2698.1	0.019032	0.14172	0.9923
2.01	14.814	-38382	2697.9	0.01952	0.14152	0.99259
2.012	14.806	-38381	2697.7	0.018251	0.14298	0.99288
2.014	14.823	-38380	2697.4	0.016982	0.14445	0.99318
2.016	14.825	-38379	2697.2	0.015714	0.14591	0.99347
2.018	14.812	-38376	2696.9	0.014445	0.14738	0.99376
2.02	14.823	-38373	2696.6	0.013176	0.14884	0.99406
2.022	14.793	-38376	2696.4	0.013176	0.14777	0.99484
2.024	14.738	-38379	2696.1	0.013176	0.14669	0.99562
2.026	14.739	-38374	2695.8	0.013176	0.14562	0.9964
2.028	14.747	-38368	2695.6	0.013176	0.14455	0.99718
2.03	14.776	-38366	2695.3	0.013176	0.14347	0.99796
2.032	14.796	-38363	2695	0.013762	0.14357	0.99708
2.034	14.808	-38361	2694.7	0.014347	0.14367	0.9962
2.036	14.829	-38359	2694.3	0.014933	0.14376	0.99532
2.038	14.82	-38360	2694	0.015518	0.14386	0.99445
2.04	14.772	-38361	2693.6	0.016104	0.14396	0.99357
2.042	14.743	-38359	2693.2	0.016299	0.14376	0.99493
2.044	14.742	-38357	2692.9	0.016494	0.14357	0.9963
2.046	14.779	-38354	2692.5	0.01669	0.14337	0.99767
2.048	14.809	-38351	2692	0.016885	0.14318	0.99903
2.05	14.824	-38347	2691.6	0.01708	0.14298	1.0004
2.052	14.844	-38342	2691.2	0.018349	0.14396	1.0003
2.054	14.839	-38345	2690.9	0.019618	0.14494	1.0002
2.056	14.816	-38347	2690.5	0.020886	0.14591	1.0001
2.058	14.805	-38349	2690.1	0.022155	0.14689	1
2.06	14.783	-38352	2689.7	0.023424	0.14786	0.99991
2.062	14.755	-38351	2689.3	0.024107	0.14835	1.0003
2.064	14.755	-38349	2688.9	0.02479	0.14884	1.0007
2.066	14.774	-38349	2688.6	0.025474	0.14933	1.0011
2.068	14.788	-38349	2688.2	0.026157	0.14982	1.0015
2.07	14.788	-38348	2687.9	0.02684	0.1503	1.0019
2.072	14.783	-38347	2687.5	0.026645	0.1504	1.0021
2.074	14.766	-38346	2687.1	0.02645	0.1505	1.0023
2.076	14.74	-38345	2686.7	0.026254	0.1506	1.0024
2.078	14.732	-38345	2686.4	0.026059	0.15069	1.0026
2.08	14.793	-38346	2686	0.025864	0.15079	1.0028
2.082	14.805	-38347	2685.6	0.025766	0.1506	1.0024
2.084	14.782	-38348	2685.3	0.025669	0.1504	1.0019
2.086	14.758	-38347	2684.9	0.025571	0.15021	1.0014
2.088	14.757	-38346	2684.5	0.025474	0.15001	1.0009
2.09	14.76	-38346	2684.2	0.025376	0.14982	1.0004
2.092	14.777	-38347	2683.8	0.024986	0.14972	1.0002
2.094	14.82	-38351	2683.5	0.024595	0.14962	1
2.096	14.807	-38356	2683.2	0.024205	0.14952	0.99981
2.098	14.807	-38353	2682.8	0.023814	0.14943	0.99962
2.1	14.773	-38351	2682.5	0.023424	0.14933	0.99942
2.102	14.792	-38350	2682.2	0.023619	0.14894	0.99962
2.104	14.779	-38349	2681.9	0.023814	0.14855	0.99981
2.106	14.781	-38349	2681.7	0.02401	0.14816	1
2.108	14.771	-38349	2681.5	0.024205	0.14777	1.0002
2.11	14.76	-38350	2681.2	0.0244	0.14738	1.0004
2.112	14.759	-38350	2681	0.025083	0.14747	1.0015
2.114	14.736	-38354	2680.7	0.025766	0.14757	1.0025
2.116	14.729	-38357	2680.5	0.02645	0.14767	1.0036
2.118	14.709	-38356	2680.3	0.027133	0.14777	1.0047
2.12	14.712	-38355	2680	0.027816	0.14786	1.0058
2.122	14.74	-38355	2679.8	0.027621	0.14796	1.0059
2.124	14.757	-38355	2679.6	0.027426	0.14806	1.006
2.126	14.737	-38361	2679.5	0.02723	0.14816	1.0061
2.128	14.716	-38367	2679.3	0.027035	0.14825	1.0062
2.13	14.749	-38364	2679.1	0.02684	0.14835	1.0063
2.132	14.785	-38362	2678.9	0.026059	0.14816	1.0065
2.134	14.772	-38362	2678.7	0.025278	0.14796	1.0068
2.136	14.758	-38363	2678.5	0.024498	0.14777	1.0071
2.138	14.748	-38364	2678.4	0.023717	0.14757	1.0074
2.14	14.731	-38365	2678.2	0.022936	0.14738	1.0077
2.142	14.754	-38365	2678	0.022936	0.1465	1.0094
2.144	14.8	-38365	2677.9	0.022936	0.14562	1.011
2.146	14.815	-38368	2677.7	0.022936	0.14474	1.0127
2.148	14.82	-38370	2677.5	0.022936	0.14386	1.0144
2.15	14.824	-38371	2677.3	0.022936	0.14298	1.016
2.152	14.806	-38371	2677.2	0.02196	0.1425	1.0153
2.154	14.77	-38370	2677	0.020984	0.14201	1.0146
2.156	14.75	-38369	2676.9	0.020008	0.14152	1.014
2.158	14.791	-38369	2676.7	0.019032	0.14103	1.0133
2.16	14.81	-38368	2676.6	0.018056	0.14054	1.0126
2.162	14.766	-38367	2676.4	0.017763	0.14035	1.0121
2.164	14.711	-38366	2676.3	0.01747	0.14015	1.0116
2.166	14.712	-38371	2676.1	0.017178	0.13996	1.0111
2.168	14.719	-38375	2675.8	0.016885	0.13976	1.0106
2.17	14.758	-38379	2675.6	0.016592	0.13957	1.0102
2.172	14.803	-38383	2675.4	0.016885	0.13976	1.0104
2.174	14.83	-38386	2675.2	0.017178	0.13996	1.0106
2.176	14.816	-38389	2675	0.01747	0.14015	1.0107
2.178	14.769	-38387	2674.9	0.017763	0.14035	1.0109
2.18	14.784	-38385	2674.8	0.018056	0.14054	1.0111
2.182	14.804	-38383	2674.8	0.017275	0.14113	1.0117
2.184	14.779	-38381	2674.7	0.016494	0.14172	1.0123
2.186	14.802	-38385	2674.6	0.015714	0.1423	1.0129
2.188	14.78	-38389	2674.6	0.014933	0.14289	1.0135
2.19	14.783	-38388	2674.5	0.014152	0.14347	1.0141
2.192	14.841	-38387	2674.4	0.013957	0.14445	1.0132
2.194	14.809	-38388	2674.4	0.013762	0.14542	1.0123
2.196	14.793	-38388	2674.3	0.013566	0.1464	1.0114
2.198	14.781	-38393	2674.3	0.013371	0.14738	1.0106
2.2	14.772	-38397	2674.3	0.013176	0.14835	1.0097
2.202	14.802	-38397	2674.3	0.013762	0.14718	1.0107
2.204	14.805	-38397	2674.3	0.014347	0.14601	1.0118
2.206	14.759	-38395	2674.2	0.014933	0.14484	1.0129
2.208	14.743	-38393	2674.3	0.015518	0.14367	1.014
2.21	14.786	-38397	2674.3	0.016104	0.1425	1.015
2.212	14.83	-38401	2674.2	0.016787	0.14298	1.015
2.214	14.841	-38406	2674.2	0.01747	0.14347	1.015
2.216	14.82	-38411	2674.1	0.018154	0.14396	1.015
2.218	14.796	-38411	2674	0.018837	0.14445	1.015
2.22	14.798	-38411	2674	0.01952	0.14494	1.015
2.222	14.797	-38406	2673.9	0.020886	0.14503	1.0154
2.224	14.784	-38400	2673.8	0.022253	0.14513	1.0158
2.226	14.765	-38401	2673.7	0.023619	0.14523	1.0162
2.228	14.753	-38402	2673.6	0.024986	0.14533	1.0166
2.23	14.75	-38404	2673.5	0.026352	0.14542	1.017
2.232	14.746	-38405	2673.4	0.023912	0.14464	1.016
2.234	14.729	-38406	2673.3	0.021472	0.14386	1.015
2.236	14.689	-38408	2673.2	0.019032	0.14308	1.0141
2.238	14.688	-38412	2673.1	0.016592	0.1423	1.0131
2.24	14.718	-38416	2673	0.014152	0.14152	1.0121
2.242	14.727	-38418	2672.9	0.015128	0.14191	1.011
2.244	14.778	-38419	2672.8	0.016104	0.1423	1.01
2.246	14.771	-38420	2672.7	0.01708	0.14269	1.0089
2.248	14.734	-38421	2672.5	0.018056	0.14308	1.0078
2.25	14.731	-38424	2672.4	0.019032	0.14347	1.0067
2.252	14.724	-38428	2672.3	0.018544	0.14328	1.0071
2.254	14.726	-38430	2672.1	0.018056	0.14308	1.0075
2.256	14.74	-38431	2672	0.017568	0.14289	1.0079
2.258	14.768	-38431	2671.9	0.01708	0.14269	1.0083
2.26	14.785	-38431	2671.8	0.016592	0.1425	1.0087
2.262	14.757	-38431	2671.7	0.01669	0.1422	1.0085
2.264	14.734	-38431	2671.6	0.016787	0.14191	1.0083
2.266	14.739	-38429	2671.6	0.016885	0.14162	1.0081
2.268	14.756	-38427	2671.5	0.016982	0.14132	1.0079
2.27	14.77	-38427	2671.5	0.01708	0.14103	1.0077
2.272	14.762	-38427	2671.5	0.017861	0.14152	1.0083
2.274	14.75	-38429	2671.4	0.018642	0.14201	1.0089
2.276	14.737	-38431	2671.3	0.019422	0.1425	1.0095
2.278	14.74	-38437	2671.2	0.020203	0.14298	1.0101
2.28	14.752	-38443	2671.1	0.020984	0.14347	1.0106
2.282	14.751	-38439	2671.1	0.021277	0.14357	1.0102
2.284	14.767	-38436	2671	0.02157	0.14367	1.0097
2.286	14.773	-38437	2670.9	0.021862	0.14376	1.0092
2.288	14.761	-38438	2670.9	0.022155	0.14386	1.0087
2.29	14.754	-38441	2670.8	0.022448	0.14396	1.0082
2.292	14.714	-38444	2670.7	0.020984	0.14425	1.0086
2.294	14.678	-38444	2670.6	0.01952	0.14455	1.009
2.296	14.732	-38444	2670.4	0.018056	0.14484	1.0094
2.298	14.831	-38448	2670.3	0.016592	0.14513	1.0098
2.3	14.907	-38452	2670.1	0.015128	0.14542	1.0102
2.302	14.912	-38450	2669.9	0.016787	0.14484	1.0092
2.304	14.886	-38448	2669.7	0.018446	0.14425	1.0082
2.306	14.853	-38448	2669.4	0.020106	0.14367	1.0072
2.308	14.834	-38448	2669.2	0.021765	0.14308	1.0063
2.31	14.857	-38450	2669	0.023424	0.1425	1.0053
2.312	14.923	-38453	2668.7	0.022155	0.1423	1.0059
2.314	14.957	-38459	2668.5	0.020886	0.14211	1.0065
2.316	14.892	-38464	2668.3	0.019618	0.14191	1.007
2.318	14.802	-38460	2668.3	0.018349	0.14172	1.0076
2.32	14.741	-38455	2668.2	0.01708	0.14152	1.0082
2.322	14.676	-38461	2668.1	0.017275	0.14289	1.0058
2.324	14.62	-38467	2668.1	0.01747	0.14425	1.0033
2.326	14.571	-38462	2668	0.017666	0.14562	1.0009
2.328	14.563	-38458	2668	0.017861	0.14699	0.99845
2.33	14.583	-38462	2668	0.018056	0.14835	0.99601
2.332	14.639	-38466	2668	0.016299	0.14845	0.99542
2.334	14.657	-38467	2667.9	0.014542	0.14855	0.99484
2.336	14.621	-38467	2667.8	0.012786	0.14864	0.99425
2.338	14.667	-38472	2667.8	0.011029	0.14874	0.99367
2.34	14.741	-38476	2667.7	0.009272	0.14884	0.99308
2.342	14.759	-38474	2667.5	0.010443	0.14806	0.99484
2.344	14.787	-38471	2667.4	0.011614	0.14728	0.99659
2.346	14.759	-38476	2667.2	0.012786	0.1465	0.99835
2.348	14.713	-38480	2667	0.013957	0.14572	1.0001
2.35	14.719	-38482	2666.9	0.015128	0.14494	1.0019
2.352	14.716	-38484	2666.7	0.016787	0.14425	1.0024
2.354	14.713	-38481	2666.5	0.018446	0.14357	1.003
2.356	14.722	-38478	2666.3	0.020106	0.14289	1.0036
2.358	14.74	-38478	2666.1	0.021765	0.1422	1.0042
2.36	14.779	-38477	2665.8	0.023424	0.14152	1.0048
2.362	14.748	-38481	2665.6	0.023229	0.1423	1.0049
2.364	14.677	-38485	2665.4	0.023034	0.14308	1.005
2.366	14.672	-38489	2665.2	0.022838	0.14386	1.0051
2.368	14.657	-38492	2665	0.022643	0.14464	1.0052
2.37	14.681	-38496	2664.8	0.022448	0.14542	1.0053
2.372	14.744	-38499	2664.6	0.021374	0.14455	1.0045
2.374	14.786	-38499	2664.4	0.020301	0.14367	1.0037
2.376	14.767	-38498	2664.2	0.019227	0.14279	1.0029
2.378	14.737	-38498	2664	0.018154	0.14191	1.0022
2.38	14.719	-38498	2663.8	0.01708	0.14103	1.0014
2.382	14.698	-38499	2663.6	0.016885	0.14162	1.0012
2.384	14.723	-38499	2663.4	0.01669	0.1422	1.001
2.386	14.752	-38498	2663.1	0.016494	0.14279	1.0008
2.388	14.749	-38497	2662.9	0.016299	0.14337	1.0006
2.39	14.719	-38502	2662.7	0.016104	0.14396	1.0004
2.392	14.71	-38507	2662.5	0.014738	0.14494	0.99981
2.394	14.722	-38510	2662.3	0.013371	0.14591	0.99923
2.396	14.738	-38513	2662.1	0.012005	0.14689	0.99864
2.398	14.733	-38514	2661.9	0.010638	0.14786	0.99806
2.4	14.71	-38515	2661.7	0.009272	0.14884	0.99747
2.402	14.747	-38516	2661.4	0.010541	0.14904	0.99581
2.404	14.806	-38516	2661.2	0.01181	0.14923	0.99415
2.406	14.771	-38515	2661	0.013078	0.14943	0.99249
2.408	14.701	-38514	2660.9	0.014347	0.14962	0.99084
2.41	14.688	-38520	2660.8	0.015616	0.14982	0.98918
2.412	14.689	-38527	2660.7	0.014738	0.14845	0.99064
2.414	14.722	-38531	2660.6	0.013859	0.14708	0.9921
2.416	14.749	-38534	2660.4	0.012981	0.14572	0.99357
2.418	14.738	-38533	2660.2	0.012102	0.14435	0.99503
2.42	14.734	-38532	2660	0.011224	0.14298	0.9965
2.422	14.731	-38536	2659.8	0.011224	0.14357	0.99689
2.424	14.737	-38540	2659.5	0.011224	0.14416	0.99728
2.426	14.763	-38536	2659.3	0.011224	0.14474	0.99767
2.428	14.736	-38532	2658.9	0.011224	0.14533	0.99806
2.43	14.674	-38535	2658.5	0.011224	0.14591	0.99845
2.432	14.646	-38537	2658.1	0.01425	0.14552	0.99991
2.434	14.666	-38540	2657.8	0.017275	0.14513	1.0014
2.436	14.706	-38543	2657.4	0.020301	0.14474	1.0028
2.438	14.802	-38549	2657	0.023326	0.14435	1.0043
2.44	14.801	-38554	2656.6	0.026352	0.14396	1.0058
2.442	14.749	-38550	2656.2	0.026254	0.14337	1.0054
2.444	14.684	-38545	2655.9	0.026157	0.14279	1.005
2.446	14.663	-38552	2655.5	0.026059	0.1422	1.0046
2.448	14.7	-38560	2655.1	0.025962	0.14162	1.0042
2.45	14.73	-38557	2654.7	0.025864	0.14103	1.0038
2.452	14.756	-38555	2654.4	0.024498	0.14015	1.003
2.454	14.764	-38554	2654.1	0.023131	0.13928	1.0023
2.456	14.73	-38553	2653.7	0.021765	0.1384	1.0015
2.458	14.706	-38558	2653.4	0.020398	0.13752	1.0007
2.46	14.683	-38563	2653.1	0.019032	0.13664	0.99991
2.462	14.679	-38567	2652.8	0.018544	0.13684	0.99981
2.464	14.713	-38572	2652.5	0.018056	0.13703	0.99972
2.466	14.68	-38571	2652.3	0.017568	0.13723	0.99962
2.468	14.628	-38569	2652	0.01708	0.13742	0.99952
2.47	14.642	-38571	2651.7	0.016592	0.13762	0.99942
2.472	14.722	-38574	2651.4	0.017958	0.1384	0.99991
2.474	14.826	-38578	2651.2	0.019325	0.13918	1.0004
2.476	14.848	-38582	2651	0.020691	0.13996	1.0009
2.478	14.767	-38581	2650.8	0.022058	0.14074	1.0014
2.48	14.711	-38579	2650.6	0.023424	0.14152	1.0019
2.482	14.722	-38585	2650.5	0.024498	0.14181	1.0024
2.484	14.751	-38590	2650.4	0.025571	0.14211	1.003
2.486	14.764	-38592	2650.4	0.026645	0.1424	1.0036
2.488	14.771	-38594	2650.5	0.027718	0.14269	1.0042
2.49	14.789	-38590	2650.5	0.028792	0.14298	1.0048
2.492	14.761	-38587	2650.8	0.026938	0.14318	1.0034
2.494	14.704	-38595	2651.1	0.025083	0.14337	1.0021
2.496	14.7	-38603	2651.5	0.023229	0.14357	1.0007
2.498	14.706	-38607	2652.1	0.021374	0.14376	0.99933
2.5	14.706	-38612	2652.6	0.01952	0.14396	0.99796
2.502	14.714	-38612	2653.5	0.01952	0.14357	0.99845
2.504	14.742	-38612	2654.3	0.01952	0.14318	0.99894
2.506	14.721	-38616	2655.3	0.01952	0.14279	0.99942
2.508	14.723	-38619	2656.4	0.01952	0.1424	0.99991
2.51	14.752	-38615	2657.5	0.01952	0.14201	1.0004
2.512	14.757	-38610	2658.9	0.019325	0.14152	1.0001
2.514	14.736	-38613	2660.2	0.01913	0.14103	0.99981
2.516	14.75	-38617	2661.7	0.018934	0.14054	0.99952
2.518	14.727	-38616	2663.3	0.018739	0.14006	0.99923
2.52	14.665	-38615	2664.9	0.018544	0.13957	0.99894
2.522	14.613	-38621	2666.7	0.020106	0.14054	1
2.524	14.627	-38628	2668.5	0.021667	0.14152	1.0011
2.526	14.677	-38627	2670.3	0.023229	0.1425	1.0022
2.528	14.791	-38626	2672.2	0.02479	0.14347	1.0032
2.53	14.866	-38626	2674	0.026352	0.14445	1.0043
2.532	14.846	-38626	2676	0.026742	0.14455	1.0049
2.534	14.805	-38624	2678	0.027133	0.14464	1.0055
2.536	14.756	-38621	2680	0.027523	0.14474	1.0061
2.538	14.764	-38624	2681.9	0.027914	0.14484	1.0066
2.54	14.798	-38626	2683.9	0.028304	0.14494	1.0072
2.542	14.791	-38628	2685.9	0.027816	0.14552	1.0066
2.544	14.761	-38631	2687.8	0.027328	0.14611	1.0061
2.546	14.747	-38630	2689.7	0.02684	0.14669	1.0055
2.548	14.716	-38629	2691.6	0.026352	0.14728	1.0049
2.55	14.711	-38634	2693.5	0.025864	0.14786	1.0043
2.552	14.735	-38638	2695.3	0.026254	0.14728	1.0043
2.554	14.75	-38627	2697.1	0.026645	0.14669	1.0043
2.556	14.776	-38616	2698.8	0.027035	0.14611	1.0043
2.558	14.82	-38614	2700.5	0.027426	0.14552	1.0043
2.56	14.83	-38612	2702.2	0.027816	0.14494	1.0043
2.562	14.794	-38617	2703.7	0.026645	0.14445	1.0048
2.564	14.763	-38621	2705.3	0.025474	0.14396	1.0053
2.566	14.78	-38623	2706.7	0.024302	0.14347	1.0058
2.568	14.831	-38625	2708	0.023131	0.14298	1.0063
2.57	14.841	-38618	2709.3	0.02196	0.1425	1.0067
2.572	14.813	-38611	2710.4	0.022058	0.14211	1.0067
2.574	14.822	-38607	2711.6	0.022155	0.14172	1.0067
2.576	14.842	-38604	2712.6	0.022253	0.14132	1.0067
2.578	14.843	-38599	2713.6	0.02235	0.14093	1.0067
2.58	14.858	-38594	2714.6	0.022448	0.14054	1.0067
2.582	14.854	-38591	2715.4	0.022838	0.14054	1.0064
2.584	14.818	-38588	2716.3	0.023229	0.14054	1.006
2.586	14.767	-38589	2717	0.023619	0.14054	1.0056
2.588	14.757	-38590	2717.5	0.02401	0.14054	1.0052
2.59	14.783	-38589	2718.1	0.0244	0.14054	1.0048
2.592	14.787	-38588	2718.5	0.023326	0.13947	1.0051
2.594	14.803	-38583	2719	0.022253	0.1384	1.0054
2.596	14.807	-38578	2719.3	0.021179	0.13732	1.0057
2.598	14.765	-38563	2719.6	0.020106	0.13625	1.006
2.6	14.763	-38548	2719.9	0.019032	0.13518	1.0063
2.602	14.809	-38551	2720.1	0.019325	0.13576	1.0058
2.604	14.784	-38554	2720.3	0.019618	0.13635	1.0053
2.606	14.731	-38552	2720.5	0.01991	0.13693	1.0048
2.608	14.787	-38549	2720.5	0.020203	0.13752	1.0043
2.61	14.856	-38546	2720.6	0.020496	0.1381	1.0038
2.612	14.776	-38543	2720.6	0.020203	0.13791	1.0048
2.614	14.702	-38543	2720.6	0.01991	0.13771	1.0058
2.616	14.734	-38543	2720.6	0.019618	0.13752	1.0067
2.618	14.768	-38537	2720.5	0.019325	0.13732	1.0077
2.62	14.799	-38531	2720.4	0.019032	0.13713	1.0087
2.622	14.782	-38512	2720.3	0.019422	0.13801	1.0088
2.624	14.739	-38493	2720.1	0.019813	0.13888	1.0089
2.626	14.759	-38495	2719.9	0.020203	0.13976	1.009
2.628	14.777	-38497	2719.6	0.020594	0.14064	1.0091
2.63	14.779	-38497	2719.4	0.020984	0.14152	1.0092
2.632	14.764	-38496	2719.1	0.019422	0.14191	1.0093
2.634	14.74	-38493	2718.9	0.017861	0.1423	1.0094
2.636	14.703	-38489	2718.6	0.016299	0.14269	1.0095
2.638	14.678	-38485	2718.3	0.014738	0.14308	1.0096
2.64	14.674	-38481	2718	0.013176	0.14347	1.0097
2.642	14.686	-38480	2717.7	0.015226	0.14367	1.0092
2.644	14.692	-38480	2717.4	0.017275	0.14386	1.0087
2.646	14.704	-38470	2717.1	0.019325	0.14406	1.0082
2.648	14.7	-38461	2716.8	0.021374	0.14425	1.0077
2.65	14.685	-38453	2716.4	0.023424	0.14445	1.0072
2.652	14.69	-38446	2716.1	0.02401	0.14523	1.006
2.654	14.71	-38443	2715.8	0.024595	0.14601	1.0047
2.656	14.736	-38440	2715.5	0.025181	0.14679	1.0034
2.658	14.735	-38444	2715.2	0.025766	0.14757	1.0022
2.66	14.706	-38448	2714.8	0.026352	0.14835	1.0009
2.662	14.704	-38448	2714.4	0.026938	0.14825	1.0011
2.664	14.732	-38448	2714	0.027523	0.14816	1.0013
2.666	14.735	-38439	2713.6	0.028109	0.14806	1.0015
2.668	14.707	-38431	2713.1	0.028694	0.14796	1.0017
2.67	14.706	-38428	2712.7	0.02928	0.14786	1.0019
2.672	14.713	-38425	2712.3	0.028206	0.14777	1.0024
2.674	14.698	-38421	2711.9	0.027133	0.14767	1.0028
2.676	14.651	-38416	2711.4	0.026059	0.14757	1.0033
2.678	14.655	-38416	2711	0.024986	0.14747	1.0038
2.68	14.669	-38416	2710.6	0.023912	0.14738	1.0043
2.682	14.684	-38412	2710.2	0.024888	0.14708	1.004
2.684	14.718	-38408	2709.8	0.025864	0.14679	1.0037
2.686	14.708	-38408	2709.4	0.02684	0.1465	1.0034
2.688	14.663	-38408	2708.9	0.027816	0.1462	1.0031
2.69	14.636	-38403	2708.5	0.028792	0.14591	1.0028
2.692	14.694	-38398	2708.1	0.027621	0.14591	1.0025
2.694	14.734	-38398	2707.7	0.02645	0.14591	1.0023
2.696	14.688	-38399	2707.3	0.025278	0.14591	1.002
2.698	14.663	-38395	2706.9	0.024107	0.14591	1.0017
2.7	14.635	-38391	2706.5	0.022936	0.14591	1.0014
2.702	14.683	-38391	2706.1	0.023034	0.14542	1.002
2.704	14.732	-38392	2705.7	0.023131	0.14494	1.0025
2.706	14.744	-38387	2705.3	0.023229	0.14445	1.0031
2.708	14.691	-38382	2704.9	0.023326	0.14396	1.0037
2.71	14.63	-38379	2704.6	0.023424	0.14347	1.0043
2.712	14.613	-38376	2704.1	0.023229	0.14298	1.0042
2.714	14.609	-38374	2703.7	0.023034	0.1425	1.0041
2.716	14.642	-38371	2703.3	0.022838	0.14201	1.004
2.718	14.693	-38367	2702.8	0.022643	0.14152	1.0039
2.72	14.723	-38363	2702.4	0.022448	0.14103	1.0038
2.722	14.708	-38368	2701.9	0.022741	0.14211	1.0037
2.724	14.668	-38373	2701.3	0.023034	0.14318	1.0036
2.726	14.633	-38370	2700.8	0.023326	0.14425	1.0035
2.728	14.594	-38368	2700.2	0.023619	0.14533	1.0034
2.73	14.645	-38359	2699.6	0.023912	0.1464	1.0033
2.732	14.726	-38350	2699	0.023912	0.1466	1.0024
2.734	14.696	-38353	2698.4	0.023912	0.14679	1.0016
2.736	14.655	-38356	2697.8	0.023912	0.14699	1.0007
2.738	14.675	-38352	2697.2	0.023912	0.14718	0.99981
2.74	14.691	-38348	2696.6	0.023912	0.14738	0.99894
2.742	14.684	-38349	2696.1	0.022838	0.14542	0.99816
2.744	14.674	-38350	2695.6	0.021765	0.14347	0.99737
2.746	14.662	-38349	2695	0.020691	0.14152	0.99659
2.748	14.63	-38347	2694.6	0.019618	0.13957	0.99581
2.75	14.601	-38343	2694.1	0.018544	0.13762	0.99503
2.752	14.606	-38340	2693.6	0.018837	0.13771	0.99464
2.754	14.649	-38339	2693.1	0.01913	0.13781	0.99425
2.756	14.686	-38339	2692.7	0.019422	0.13791	0.99386
2.758	14.657	-38342	2692.3	0.019715	0.13801	0.99347
2.76	14.698	-38345	2692	0.020008	0.1381	0.99308
2.762	14.717	-38344	2691.7	0.019227	0.1384	0.99386
2.764	14.707	-38343	2691.4	0.018446	0.13869	0.99464
2.766	14.696	-38342	2691.1	0.017666	0.13898	0.99542
2.768	14.658	-38342	2690.8	0.016885	0.13928	0.9962
2.77	14.593	-38342	2690.5	0.016104	0.13957	0.99698
2.772	14.606	-38341	2690.3	0.018642	0.14103	0.99825
2.774	14.69	-38338	2690	0.021179	0.1425	0.99952
2.776	14.728	-38335	2689.8	0.023717	0.14396	1.0008
2.778	14.695	-38333	2689.6	0.026254	0.14542	1.0021
2.78	14.645	-38331	2689.5	0.028792	0.14689	1.0033
2.782	14.649	-38332	2689.3	0.028987	0.14601	1.0036
2.784	14.667	-38334	2689.2	0.029182	0.14513	1.0039
2.786	14.679	-38336	2689.1	0.029378	0.14425	1.0042
2.788	14.66	-38338	2689.1	0.029573	0.14337	1.0045
2.79	14.638	-38337	2689.1	0.029768	0.1425	1.0048
2.792	14.603	-38336	2689.1	0.02928	0.14376	1.0044
2.794	14.576	-38337	2689.1	0.028792	0.14503	1.004
2.796	14.575	-38337	2689.2	0.028304	0.1463	1.0036
2.798	14.576	-38339	2689.2	0.027816	0.14757	1.0032
2.8	14.592	-38341	2689.3	0.027328	0.14884	1.0028
2.802	14.671	-38339	2689.5	0.02684	0.14777	1.0031
2.804	14.73	-38338	2689.6	0.026352	0.14669	1.0034
2.806	14.74	-38337	2689.8	0.025864	0.14562	1.0037
2.808	14.721	-38336	2689.9	0.025376	0.14455	1.004
2.81	14.673	-38335	2690.1	0.024888	0.14347	1.0043
2.812	14.627	-38335	2690.2	0.026157	0.14435	1.0042
2.814	14.632	-38338	2690.4	0.027426	0.14523	1.0041
2.816	14.674	-38341	2690.5	0.028694	0.14611	1.004
2.818	14.709	-38344	2690.7	0.029963	0.14699	1.0039
2.82	14.707	-38348	2690.9	0.031232	0.14786	1.0038
2.822	14.672	-38339	2691	0.030354	0.14708	1.0051
2.824	14.663	-38330	2691.2	0.029475	0.1463	1.0064
2.826	14.659	-38333	2691.4	0.028597	0.14552	1.0076
2.828	14.614	-38336	2691.6	0.027718	0.14474	1.0089
2.83	14.564	-38339	2691.9	0.02684	0.14396	1.0102
2.832	14.556	-38343	2692.1	0.024986	0.14328	1.0107
2.834	14.619	-38338	2692.3	0.023131	0.14259	1.0113
2.836	14.704	-38334	2692.6	0.021277	0.14191	1.0119
2.838	14.724	-38334	2692.9	0.019422	0.14123	1.0125
2.84	14.683	-38334	2693.2	0.017568	0.14054	1.0131
2.842	14.681	-38333	2693.4	0.018349	0.14035	1.012
2.844	14.673	-38332	2693.6	0.01913	0.14015	1.0109
2.846	14.635	-38329	2693.8	0.01991	0.13996	1.0099
2.848	14.631	-38326	2694	0.020691	0.13976	1.0088
2.85	14.646	-38328	2694.2	0.021472	0.13957	1.0077
2.852	14.635	-38330	2694.3	0.022155	0.14054	1.0071
2.854	14.601	-38331	2694.5	0.022838	0.14152	1.0065
2.856	14.568	-38332	2694.6	0.023522	0.1425	1.006
2.858	14.623	-38322	2694.8	0.024205	0.14347	1.0054
2.86	14.682	-38312	2694.9	0.024888	0.14445	1.0048
2.862	14.687	-38311	2694.9	0.025474	0.14445	1.0049
2.864	14.703	-38310	2694.9	0.026059	0.14445	1.005
2.866	14.684	-38316	2694.8	0.026645	0.14445	1.0051
2.868	14.721	-38322	2694.8	0.02723	0.14445	1.0052
2.87	14.707	-38318	2694.8	0.027816	0.14445	1.0053
2.872	14.647	-38315	2694.7	0.027718	0.14494	1.0054
2.874	14.674	-38316	2694.6	0.027621	0.14542	1.0055
2.876	14.667	-38317	2694.6	0.027523	0.14591	1.0056
2.878	14.61	-38317	2694.5	0.027426	0.1464	1.0057
2.88	14.593	-38317	2694.5	0.027328	0.14689	1.0058
2.882	14.593	-38317	2694.5	0.02645	0.14679	1.0049
2.884	14.598	-38318	2694.4	0.025571	0.14669	1.004
2.886	14.604	-38318	2694.4	0.024693	0.1466	1.0031
2.888	14.596	-38319	2694.3	0.023814	0.1465	1.0023
2.89	14.586	-38315	2694.2	0.022936	0.1464	1.0014
2.892	14.605	-38312	2694	0.023034	0.14611	1.0016
2.894	14.633	-38315	2693.9	0.023131	0.14581	1.0018
2.896	14.64	-38317	2693.7	0.023229	0.14552	1.002
2.898	14.606	-38313	2693.5	0.023326	0.14523	1.0022
2.9	14.576	-38308	2693.3	0.023424	0.14494	1.0024
2.902	14.601	-38303	2693.1	0.022155	0.14591	1.0014
2.904	14.656	-38299	2693	0.020886	0.14689	1.0004
2.906	14.684	-38301	2692.8	0.019618	0.14786	0.99942
2.908	14.681	-38304	2692.6	0.018349	0.14884	0.99845
2.91	14.664	-38299	2692.5	0.01708	0.14982	0.99747
2.912	14.652	-38294	2692.2	0.017275	0.14884	0.99806
2.914	14.655	-38299	2692	0.01747	0.14786	0.99864
2.916	14.648	-38304	2691.8	0.017666	0.14689	0.99923
2.918	14.645	-38305	2691.6	0.017861	0.14591	0.99981
2.92	14.67	-38307	2691.3	0.018056	0.14494	1.0004
2.922	14.665	-38305	2691	0.017568	0.14503	1.0002
2.924	14.639	-38304	2690.8	0.01708	0.14513	1
2.926	14.624	-38301	2690.5	0.016592	0.14523	0.99981
2.928	14.638	-38298	2690.2	0.016104	0.14533	0.99962
2.93	14.677	-38304	2689.9	0.015616	0.14542	0.99942
2.932	14.671	-38310	2689.6	0.017275	0.1462	0.99942
2.934	14.646	-38308	2689.3	0.018934	0.14699	0.99942
2.936	14.615	-38306	2689	0.020594	0.14777	0.99942
2.938	14.591	-38308	2688.7	0.022253	0.14855	0.99942
2.94	14.604	-38311	2688.4	0.023912	0.14933	0.99942
2.942	14.619	-38309	2688.1	0.024595	0.14923	0.99981
2.944	14.629	-38308	2687.8	0.025278	0.14913	1.0002
2.946	14.616	-38308	2687.5	0.025962	0.14904	1.0006
2.948	14.607	-38308	2687.1	0.026645	0.14894	1.001
2.95	14.589	-38307	2686.8	0.027328	0.14884	1.0014
2.952	14.615	-38307	2686.5	0.026352	0.14777	1.0021
2.954	14.634	-38305	2686.2	0.025376	0.14669	1.0027
2.956	14.647	-38303	2685.8	0.0244	0.14562	1.0034
2.958	14.659	-38306	2685.5	0.023424	0.14455	1.0041
2.96	14.642	-38310	2685.1	0.022448	0.14347	1.0048
2.962	14.627	-38304	2684.8	0.022936	0.14484	1.0036
2.964	14.647	-38298	2684.4	0.023424	0.1462	1.0024
2.966	14.652	-38300	2684.1	0.023912	0.14757	1.0013
2.968	14.607	-38301	2683.7	0.0244	0.14894	1.0001
2.97	14.55	-38303	2683.4	0.024888	0.1503	0.99894
2.972	14.546	-38304	2683.1	0.024986	0.15011	1
2.974	14.593	-38307	2682.8	0.025083	0.14991	1.0011
2.976	14.668	-38310	2682.4	0.025181	0.14972	1.0022
2.978	14.649	-38308	2682.2	0.025278	0.14952	1.0032
2.98	14.589	-38307	2681.9	0.025376	0.14933	1.0043
2.982	14.579	-38309	2681.5	0.025474	0.14962	1.0035
2.984	14.628	-38310	2681.2	0.025571	0.14991	1.0027
2.986	14.695	-38307	2680.9	0.025669	0.15021	1.002
2.988	14.694	-38304	2680.6	0.025766	0.1505	1.0012
2.99	14.663	-38307	2680.3	0.025864	0.15079	1.0004
2.992	14.644	-38311	2680	0.026254	0.14972	1.0015
2.994	14.652	-38311	2679.7	0.026645	0.14864	1.0025
2.996	14.66	-38312	2679.4	0.027035	0.14757	1.0036
2.998	14.61	-38310	2679.1	0.027426	0.1465	1.0047
3	14.573	-38308	2678.9	0.027816	0.14542	1.0058
3.002	14.584	-38307	2678.6	0.028109	0.14601	1.0056
3.004	14.581	-38307	2678.3	0.028402	0.1466	1.0054
3.006	14.594	-38309	2678.1	0.028694	0.14718	1.0052
3.008	14.613	-38310	2677.9	0.028987	0.14777	1.005
3.01	14.599	-38312	2677.6	0.02928	0.14835	1.0048
3.012	14.619	-38313	2677.5	0.028987	0.14806	1.0045
3.014	14.645	-38309	2677.3	0.028694	0.14777	1.0042
3.016	14.642	-38304	2677.1	0.028402	0.14747	1.0039
3.018	14.656	-38306	2676.9	0.028109	0.14718	1.0036
3.02	14.637	-38309	2676.7	0.027816	0.14689	1.0033
3.022	14.615	-38313	2676.5	0.028206	0.14728	1.003
3.024	14.615	-38318	2676.2	0.028597	0.14767	1.0027
3.026	14.582	-38318	2676.1	0.028987	0.14806	1.0024
3.028	14.58	-38319	2675.9	0.029378	0.14845	1.0022
3.03	14.625	-38315	2675.8	0.029768	0.14884	1.0019
3.032	14.647	-38311	2675.6	0.029768	0.14874	1.0028
3.034	14.613	-38320	2675.5	0.029768	0.14864	1.0038
3.036	14.572	-38329	2675.4	0.029768	0.14855	1.0048
3.038	14.574	-38327	2675.3	0.029768	0.14845	1.0058
3.04	14.584	-38325	2675.2	0.029768	0.14835	1.0067
3.042	14.563	-38326	2675.1	0.029085	0.14816	1.007
3.044	14.578	-38327	2675	0.028402	0.14796	1.0073
3.046	14.647	-38328	2675	0.027718	0.14777	1.0076
3.048	14.644	-38329	2674.9	0.027035	0.14757	1.0079
3.05	14.634	-38328	2674.8	0.026352	0.14738	1.0082
3.052	14.612	-38327	2674.7	0.026645	0.14669	1.0081
3.054	14.605	-38335	2674.7	0.026938	0.14601	1.008
3.056	14.589	-38342	2674.6	0.02723	0.14533	1.0079
3.058	14.559	-38344	2674.4	0.027523	0.14464	1.0078
3.06	14.509	-38345	2674.3	0.027816	0.14396	1.0077
3.062	14.514	-38343	2674.2	0.02723	0.14406	1.0083
3.064	14.548	-38340	2674	0.026645	0.14416	1.0089
3.066	14.621	-38345	2673.8	0.026059	0.14425	1.0095
3.068	14.696	-38350	2673.6	0.025474	0.14435	1.0101
3.07	14.694	-38347	2673.5	0.024888	0.14445	1.0106
3.072	14.668	-38344	2673.2	0.02479	0.14503	1.0097
3.074	14.657	-38341	2673	0.024693	0.14562	1.0087
3.076	14.638	-38338	2672.8	0.024595	0.1462	1.0077
3.078	14.65	-38347	2672.7	0.024498	0.14679	1.0067
3.08	14.695	-38355	2672.5	0.0244	0.14738	1.0058
3.082	14.704	-38350	2672.4	0.024302	0.14738	1.0047
3.084	14.664	-38344	2672.3	0.024205	0.14738	1.0036
3.086	14.637	-38345	2672.1	0.024107	0.14738	1.0025
3.088	14.661	-38347	2672	0.02401	0.14738	1.0015
3.09	14.673	-38346	2671.9	0.023912	0.14738	1.0004
3.092	14.635	-38346	2671.9	0.024302	0.14718	1.0004
3.094	14.616	-38352	2671.8	0.024693	0.14699	1.0004
3.096	14.626	-38358	2671.8	0.025083	0.14679	1.0004
3.098	14.632	-38358	2671.7	0.025474	0.1466	1.0004
3.1	14.635	-38357	2671.6	0.025864	0.1464	1.0004
3.102	14.626	-38360	2671.6	0.025864	0.14601	1.0011
3.104	14.617	-38362	2671.6	0.025864	0.14562	1.0018
3.106	14.634	-38364	2671.6	0.025864	0.14523	1.0024
3.108	14.643	-38365	2671.6	0.025864	0.14484	1.0031
3.11	14.659	-38370	2671.6	0.025864	0.14445	1.0038
3.112	14.673	-38374	2671.6	0.026742	0.14406	1.0041
3.114	14.704	-38374	2671.6	0.027621	0.14367	1.0044
3.116	14.69	-38374	2671.6	0.028499	0.14328	1.0047
3.118	14.617	-38371	2671.6	0.029378	0.14289	1.005
3.12	14.632	-38369	2671.6	0.030256	0.1425	1.0053
3.122	14.64	-38379	2671.6	0.028792	0.14298	1.0045
3.124	14.577	-38390	2671.6	0.027328	0.14347	1.0037
3.126	14.56	-38389	2671.6	0.025864	0.14396	1.0029
3.128	14.609	-38388	2671.6	0.0244	0.14445	1.0022
3.13	14.626	-38384	2671.7	0.022936	0.14494	1.0014
3.132	14.587	-38380	2671.7	0.022155	0.14484	1.0005
3.134	14.587	-38382	2671.7	0.021374	0.14474	0.99962
3.136	14.617	-38385	2671.7	0.020594	0.14464	0.99874
3.138	14.581	-38378	2671.7	0.019813	0.14455	0.99786
3.14	14.555	-38372	2671.7	0.019032	0.14445	0.99698
3.142	14.529	-38371	2671.7	0.018251	0.14337	0.99679
3.144	14.538	-38370	2671.6	0.01747	0.1423	0.99659
3.146	14.617	-38380	2671.6	0.01669	0.14123	0.9964
3.148	14.629	-38390	2671.5	0.015909	0.14015	0.9962
3.15	14.596	-38390	2671.5	0.015128	0.13908	0.99601
3.152	14.586	-38390	2671.4	0.016104	0.13957	0.99679
3.154	14.57	-38398	2671.4	0.01708	0.14006	0.99757
3.156	14.544	-38406	2671.3	0.018056	0.14054	0.99835
3.158	14.548	-38400	2671.2	0.019032	0.14103	0.99913
3.16	14.579	-38394	2671.2	0.020008	0.14152	0.99991
3.162	14.587	-38397	2671.1	0.021862	0.1424	1.0008
3.164	14.581	-38400	2671	0.023717	0.14328	1.0017
3.166	14.581	-38394	2671	0.025571	0.14416	1.0025
3.168	14.579	-38388	2670.9	0.027426	0.14503	1.0034
3.17	14.596	-38392	2670.8	0.02928	0.14591	1.0043
3.172	14.617	-38397	2670.7	0.028987	0.14601	1.0036
3.174	14.614	-38396	2670.5	0.028694	0.14611	1.0029
3.176	14.616	-38395	2670.3	0.028402	0.1462	1.0023
3.178	14.6	-38403	2670.1	0.028109	0.1463	1.0016
3.18	14.561	-38411	2669.8	0.027816	0.1464	1.0009
3.182	14.568	-38408	2669.6	0.025864	0.14474	0.99991
3.184	14.603	-38405	2669.3	0.023912	0.14308	0.99894
3.186	14.607	-38405	2669.1	0.02196	0.14142	0.99796
3.188	14.579	-38405	2668.9	0.020008	0.13976	0.99698
3.19	14.584	-38406	2668.7	0.018056	0.1381	0.99601
3.192	14.599	-38408	2668.5	0.01952	0.13888	0.99513
3.194	14.544	-38417	2668.4	0.020984	0.13967	0.99425
3.196	14.555	-38426	2668.2	0.022448	0.14045	0.99337
3.198	14.547	-38424	2668.1	0.023912	0.14123	0.99249
3.2	14.572	-38423	2667.9	0.025376	0.14201	0.99162
3.202	14.583	-38425	2667.8	0.0244	0.14172	0.99308
3.204	14.594	-38428	2667.7	0.023424	0.14142	0.99454
3.206	14.628	-38427	2667.6	0.022448	0.14113	0.99601
3.208	14.602	-38426	2667.6	0.021472	0.14084	0.99747
3.21	14.586	-38426	2667.5	0.020496	0.14054	0.99894
3.212	14.547	-38426	2667.3	0.020886	0.14084	0.99991
3.214	14.62	-38427	2667.1	0.021277	0.14113	1.0009
3.216	14.615	-38429	2667	0.021667	0.14142	1.0019
3.218	14.664	-38428	2666.9	0.022058	0.14172	1.0028
3.22	14.684	-38426	2666.8	0.022448	0.14201	1.0038
3.222	14.573	-38429	2666.9	0.02196	0.14191	1.003
3.224	14.465	-38432	2666.9	0.021472	0.14181	1.0023
3.226	14.436	-38435	2666.9	0.020984	0.14172	1.0015
3.228	14.387	-38437	2666.9	0.020496	0.14162	1.0007
3.23	14.385	-38440	2666.8	0.020008	0.14152	0.99991
3.232	14.411	-38443	2666.8	0.020106	0.14191	1.0007
3.234	14.412	-38445	2666.8	0.020203	0.1423	1.0015
3.236	14.404	-38447	2666.8	0.020301	0.14269	1.0023
3.238	14.443	-38445	2666.8	0.020398	0.14308	1.003
3.24	14.5	-38443	2666.7	0.020496	0.14347	1.0038
3.242	14.514	-38445	2666.6	0.020594	0.14337	1.0029
3.244	14.507	-38448	2666.4	0.020691	0.14328	1.0021
3.246	14.525	-38449	2666.2	0.020789	0.14318	1.0012
3.248	14.544	-38450	2666.1	0.020886	0.14308	1.0003
3.25	14.552	-38454	2665.9	0.020984	0.14298	0.99942
3.252	14.572	-38458	2665.7	0.021667	0.14337	1.0001
3.254	14.573	-38453	2665.6	0.02235	0.14376	1.0008
3.256	14.547	-38448	2665.4	0.023034	0.14416	1.0015
3.258	14.519	-38454	2665.2	0.023717	0.14455	1.0022
3.26	14.5	-38459	2665.1	0.0244	0.14494	1.0028
3.262	14.517	-38464	2664.8	0.023912	0.14445	1.0032
3.264	14.546	-38468	2664.6	0.023424	0.14396	1.0036
3.266	14.601	-38468	2664.4	0.022936	0.14347	1.004
3.268	14.638	-38467	2664.2	0.022448	0.14298	1.0044
3.27	14.626	-38468	2664	0.02196	0.1425	1.0048
3.272	14.636	-38468	2663.9	0.022155	0.14279	1.0038
3.274	14.63	-38468	2663.7	0.02235	0.14308	1.0028
3.276	14.612	-38467	2663.6	0.022546	0.14337	1.0019
3.278	14.583	-38472	2663.5	0.022741	0.14367	1.0009
3.28	14.57	-38477	2663.4	0.022936	0.14396	0.99991
3.282	14.536	-38478	2663.2	0.020398	0.14435	0.99913
3.284	14.504	-38478	2663	0.017861	0.14474	0.99835
3.286	14.486	-38482	2662.8	0.015323	0.14513	0.99757
3.288	14.499	-38485	2662.6	0.012786	0.14552	0.99679
3.29	14.503	-38487	2662.4	0.010248	0.14591	0.99601
3.292	14.522	-38488	2662.2	0.010443	0.1463	0.9962
3.294	14.641	-38491	2662	0.010638	0.14669	0.9964
3.296	14.656	-38495	2661.7	0.010834	0.14708	0.99659
3.298	14.579	-38495	2661.4	0.011029	0.14747	0.99679
3.3	14.544	-38496	2661.1	0.011224	0.14786	0.99698
3.302	14.558	-38497	2660.9	0.012883	0.14699	0.99825
3.304	14.551	-38498	2660.6	0.014542	0.14611	0.99952
3.306	14.541	-38496	2660.3	0.016202	0.14523	1.0008
3.308	14.526	-38494	2660	0.017861	0.14435	1.0021
3.31	14.558	-38494	2659.7	0.01952	0.14347	1.0033
3.312	14.566	-38495	2659.4	0.020594	0.14376	1.0038
3.314	14.558	-38494	2659.1	0.021667	0.14406	1.0043
3.316	14.552	-38493	2658.9	0.022741	0.14435	1.0048
3.318	14.562	-38503	2658.6	0.023814	0.14464	1.0053
3.32	14.55	-38514	2658.4	0.024888	0.14494	1.0058
3.322	14.531	-38511	2658.1	0.024302	0.14533	1.0048
3.324	14.533	-38509	2657.9	0.023717	0.14572	1.0038
3.326	14.557	-38508	2657.6	0.023131	0.14611	1.0028
3.328	14.579	-38507	2657.4	0.022546	0.1465	1.0019
3.33	14.591	-38505	2657.1	0.02196	0.14689	1.0009
3.332	14.588	-38503	2656.8	0.02235	0.1464	1.0015
3.334	14.559	-38507	2656.5	0.022741	0.14591	1.0021
3.336	14.544	-38512	2656.2	0.023131	0.14542	1.0026
3.338	14.558	-38518	2655.9	0.023522	0.14494	1.0032
3.34	14.565	-38525	2655.5	0.023912	0.14445	1.0038
3.342	14.576	-38527	2655.2	0.023619	0.14367	1.005
3.344	14.586	-38529	2654.8	0.023326	0.14289	1.0062
3.346	14.576	-38532	2654.5	0.023034	0.14211	1.0073
3.348	14.581	-38535	2654.1	0.022741	0.14132	1.0085
3.35	14.571	-38536	2653.8	0.022448	0.14054	1.0097
3.352	14.539	-38537	2653.4	0.023424	0.14113	1.0089
3.354	14.529	-38535	2653	0.0244	0.14172	1.0081
3.356	14.529	-38532	2652.6	0.025376	0.1423	1.0073
3.358	14.543	-38534	2652.2	0.026352	0.14289	1.0065
3.36	14.539	-38535	2651.8	0.027328	0.14347	1.0058
3.362	14.542	-38539	2651.4	0.026547	0.14279	1.0063
3.364	14.537	-38543	2651	0.025766	0.14211	1.0067
3.366	14.619	-38547	2650.5	0.024986	0.14142	1.0072
3.368	14.592	-38550	2650.1	0.024205	0.14074	1.0077
3.37	14.551	-38550	2649.7	0.023424	0.14006	1.0082
3.372	14.543	-38550	2649.2	0.025083	0.14015	1.0078
3.374	14.526	-38551	2648.8	0.026742	0.14025	1.0074
3.376	14.522	-38551	2648.3	0.028402	0.14035	1.007
3.378	14.519	-38551	2647.8	0.030061	0.14045	1.0066
3.38	14.574	-38551	2647.3	0.03172	0.14054	1.0063
3.382	14.565	-38551	2646.9	0.031134	0.14103	1.006
3.384	14.559	-38552	2646.4	0.030549	0.14152	1.0057
3.386	14.586	-38556	2646	0.029963	0.14201	1.0054
3.388	14.618	-38560	2645.6	0.029378	0.1425	1.0051
3.39	14.611	-38560	2645.3	0.028792	0.14298	1.0048
3.392	14.6	-38560	2645	0.028206	0.14347	1.0042
3.394	14.563	-38564	2644.7	0.027621	0.14396	1.0036
3.396	14.54	-38568	2644.6	0.027035	0.14445	1.003
3.398	14.535	-38574	2644.5	0.02645	0.14494	1.0024
3.4	14.562	-38579	2644.4	0.025864	0.14542	1.0019
3.402	14.607	-38579	2644.4	0.026645	0.14484	1.0019
3.404	14.586	-38579	2644.4	0.027426	0.14425	1.0019
3.406	14.522	-38579	2644.5	0.028206	0.14367	1.0019
3.408	14.504	-38580	2644.8	0.028987	0.14308	1.0019
3.41	14.533	-38585	2645	0.029768	0.1425	1.0019
3.412	14.562	-38590	2645.3	0.028792	0.14328	1.0017
3.414	14.556	-38589	2645.7	0.027816	0.14406	1.0015
3.416	14.557	-38589	2646.3	0.02684	0.14484	1.0013
3.418	14.581	-38589	2646.9	0.025864	0.14562	1.0011
3.42	14.595	-38588	2647.6	0.024888	0.1464	1.0009
3.422	14.575	-38589	2648.5	0.025962	0.14494	1.0006
3.424	14.55	-38590	2649.3	0.027035	0.14347	1.0003
3.426	14.549	-38591	2650.3	0.028109	0.14201	1
3.428	14.544	-38592	2651.3	0.029182	0.14054	0.99972
3.43	14.552	-38593	2652.4	0.030256	0.13908	0.99942
3.432	14.591	-38593	2653.6	0.030158	0.13918	0.99942
3.434	14.621	-38598	2654.9	0.030061	0.13928	0.99942
3.436	14.639	-38602	2656.3	0.029963	0.13937	0.99942
3.438	14.595	-38609	2657.9	0.029866	0.13947	0.99942
3.44	14.603	-38617	2659.5	0.029768	0.13957	0.99942
3.442	14.645	-38619	2660.8	0.030451	0.13888	1.0001
3.444	14.603	-38620	2662.2	0.031134	0.1382	1.0008
3.446	14.531	-38618	2663.9	0.031818	0.13752	1.0015
3.448	14.532	-38615	2665.9	0.032501	0.13684	1.0022
3.45	14.598	-38616	2668	0.033184	0.13615	1.0028
3.452	14.665	-38618	2669.8	0.03172	0.13684	1.0035
3.454	14.674	-38618	2671.6	0.030256	0.13752	1.0042
3.456	14.657	-38618	2673.5	0.028792	0.1382	1.0049
3.458	14.615	-38618	2675.6	0.027328	0.13888	1.0056
3.46	14.595	-38618	2677.6	0.025864	0.13957	1.0063
3.462	14.569	-38619	2678.8	0.024595	0.14015	1.0081
3.464	14.623	-38620	2680.1	0.023326	0.14074	1.01
3.466	14.686	-38619	2681.4	0.022058	0.14132	1.0118
3.468	14.657	-38619	2682.8	0.020789	0.14191	1.0137
3.47	14.638	-38613	2684.2	0.01952	0.1425	1.0155
3.472	14.661	-38607	2685.7	0.020886	0.14142	1.0139
3.474	14.698	-38607	2687.1	0.022253	0.14035	1.0122
3.476	14.698	-38606	2688.5	0.023619	0.13928	1.0106
3.478	14.683	-38609	2689.8	0.024986	0.1382	1.0089
3.48	14.646	-38611	2691.1	0.026352	0.13713	1.0072
3.482	14.629	-38606	2692.5	0.024888	0.13781	1.0082
3.484	14.688	-38600	2693.9	0.023424	0.13849	1.0092
3.486	14.677	-38596	2695.2	0.02196	0.13918	1.0102
3.488	14.632	-38592	2696.4	0.020496	0.13986	1.0111
3.49	14.62	-38593	2697.6	0.019032	0.14054	1.0121
3.492	14.617	-38594	2698.5	0.020106	0.14093	1.0107
3.494	14.62	-38592	2699.4	0.021179	0.14132	1.0094
3.496	14.638	-38590	2700.3	0.022253	0.14172	1.008
3.498	14.633	-38583	2701.1	0.023326	0.14211	1.0066
3.5	14.618	-38576	2701.9	0.0244	0.1425	1.0053
3.502	14.612	-38574	2702.7	0.024107	0.1424	1.0057
3.504	14.613	-38573	2703.5	0.023814	0.1423	1.0061
3.506	14.625	-38568	2704.2	0.023522	0.1422	1.0065
3.508	14.636	-38562	2704.7	0.023229	0.14211	1.0068
3.51	14.646	-38559	2705.2	0.022936	0.14201	1.0072
3.512	14.646	-38556	2705.4	0.02235	0.14162	1.0072
3.514	14.63	-38555	2705.6	0.021765	0.14123	1.0072
3.516	14.639	-38554	2705.8	0.021179	0.14084	1.0072
3.518	14.644	-38549	2705.9	0.020594	0.14045	1.0072
3.52	14.617	-38544	2706.1	0.020008	0.14006	1.0072
3.522	14.607	-38541	2706	0.019813	0.14035	1.009
3.524	14.651	-38539	2706	0.019618	0.14064	1.0107
3.526	14.67	-38535	2706	0.019422	0.14093	1.0125
3.528	14.616	-38532	2705.8	0.019227	0.14123	1.0143
3.53	14.586	-38527	2705.7	0.019032	0.14152	1.016
3.532	14.648	-38521	2705.6	0.018154	0.14181	1.0149
3.534	14.668	-38520	2705.5	0.017275	0.14211	1.0139
3.536	14.638	-38518	2705.4	0.016397	0.1424	1.0128
3.538	14.604	-38512	2705.2	0.015518	0.14269	1.0117
3.54	14.615	-38506	2705.1	0.01464	0.14298	1.0106
3.542	14.624	-38505	2705	0.016592	0.14455	1.0093
3.544	14.592	-38504	2704.8	0.018544	0.14611	1.0079
3.546	14.57	-38502	2704.7	0.020496	0.14767	1.0065
3.548	14.534	-38501	2704.6	0.022448	0.14923	1.0052
3.55	14.557	-38498	2704.5	0.0244	0.15079	1.0038
3.552	14.57	-38494	2704.2	0.025181	0.15138	1.0041
3.554	14.585	-38488	2704	0.025962	0.15196	1.0044
3.556	14.551	-38483	2703.7	0.026742	0.15255	1.0047
3.558	14.531	-38483	2703.5	0.027523	0.15313	1.005
3.56	14.509	-38484	2703.2	0.028304	0.15372	1.0053
3.562	14.505	-38478	2702.9	0.027328	0.15294	1.0049
3.564	14.55	-38473	2702.6	0.026352	0.15216	1.0045
3.566	14.579	-38472	2702.2	0.025376	0.15138	1.0041
3.568	14.571	-38472	2701.9	0.0244	0.1506	1.0037
3.57	14.553	-38474	2701.5	0.023424	0.14982	1.0033
3.572	14.57	-38475	2701.1	0.025083	0.14982	1.004
3.574	14.579	-38464	2700.7	0.026742	0.14982	1.0047
3.576	14.549	-38453	2700.2	0.028402	0.14982	1.0054
3.578	14.543	-38446	2699.7	0.030061	0.14982	1.0061
3.58	14.55	-38439	2699.2	0.03172	0.14982	1.0067
3.582	14.522	-38444	2698.8	0.029963	0.14913	1.0069
3.584	14.486	-38448	2698.3	0.028206	0.14845	1.0071
3.586	14.488	-38447	2697.8	0.02645	0.14777	1.0073
3.588	14.521	-38446	2697.3	0.024693	0.14708	1.0075
3.59	14.548	-38443	2696.8	0.022936	0.1464	1.0077
3.592	14.555	-38439	2696.3	0.022448	0.14484	1.0077
3.594	14.528	-38436	2695.8	0.02196	0.14328	1.0077
3.596	14.485	-38433	2695.3	0.021472	0.14172	1.0077
3.598	14.469	-38434	2694.7	0.020984	0.14015	1.0077
3.6	14.484	-38436	2694.2	0.020496	0.13859	1.0077
3.602	14.522	-38431	2693.7	0.020594	0.13918	1.0082
3.604	14.557	-38426	2693.1	0.020691	0.13976	1.0087
3.606	14.567	-38423	2692.6	0.020789	0.14035	1.0092
3.608	14.563	-38420	2692.1	0.020886	0.14093	1.0097
3.61	14.515	-38424	2691.7	0.020984	0.14152	1.0102
3.612	14.47	-38428	2691.1	0.021179	0.14132	1.009
3.614	14.473	-38420	2690.6	0.021374	0.14113	1.0078
3.616	14.485	-38413	2690.1	0.02157	0.14093	1.0066
3.618	14.582	-38414	2689.6	0.021765	0.14074	1.0055
3.62	14.571	-38415	2689.1	0.02196	0.14054	1.0043
3.622	14.475	-38411	2688.6	0.021765	0.14015	1.005
3.624	14.496	-38407	2688.1	0.02157	0.13976	1.0057
3.626	14.552	-38406	2687.6	0.021374	0.13937	1.0064
3.628	14.533	-38404	2687.1	0.021179	0.13898	1.007
3.63	14.515	-38406	2686.6	0.020984	0.13859	1.0077
3.632	14.518	-38407	2686.1	0.022838	0.13967	1.0066
3.634	14.53	-38403	2685.7	0.024693	0.14074	1.0056
3.636	14.493	-38400	2685.2	0.026547	0.14181	1.0045
3.638	14.45	-38401	2684.7	0.028402	0.14289	1.0034
3.64	14.443	-38403	2684.2	0.030256	0.14396	1.0024
3.642	14.457	-38402	2683.8	0.028792	0.14406	1.0015
3.644	14.533	-38400	2683.4	0.027328	0.14416	1.0006
3.646	14.581	-38398	2682.9	0.025864	0.14425	0.99972
3.648	14.546	-38395	2682.5	0.0244	0.14435	0.99884
3.65	14.522	-38393	2682	0.022936	0.14445	0.99796
3.652	14.51	-38390	2681.6	0.023424	0.14474	0.99767
3.654	14.52	-38398	2681.2	0.023912	0.14503	0.99737
3.656	14.58	-38405	2680.8	0.0244	0.14533	0.99708
3.658	14.575	-38402	2680.5	0.024888	0.14562	0.99679
3.66	14.517	-38399	2680.1	0.025376	0.14591	0.9965
3.662	14.514	-38394	2679.8	0.024888	0.14562	0.99708
3.664	14.525	-38389	2679.4	0.0244	0.14533	0.99767
3.666	14.529	-38387	2679	0.023912	0.14503	0.99825
3.668	14.52	-38386	2678.7	0.023424	0.14474	0.99884
3.67	14.492	-38385	2678.3	0.022936	0.14445	0.99942
3.672	14.484	-38383	2678.1	0.02479	0.14347	0.99942
3.674	14.496	-38389	2677.8	0.026645	0.1425	0.99942
3.676	14.492	-38395	2677.6	0.028499	0.14152	0.99942
3.678	14.491	-38396	2677.3	0.030354	0.14054	0.99942
3.68	14.484	-38397	2677.1	0.032208	0.13957	0.99942
3.682	14.473	-38397	2676.9	0.031622	0.14006	1.0001
3.684	14.528	-38398	2676.7	0.031037	0.14054	1.0008
3.686	14.569	-38396	2676.6	0.030451	0.14103	1.0015
3.688	14.513	-38395	2676.5	0.029866	0.14152	1.0022
3.69	14.49	-38392	2676.4	0.02928	0.14201	1.0028
3.692	14.49	-38389	2676.4	0.029085	0.14191	1.0026
3.694	14.476	-38386	2676.3	0.02889	0.14181	1.0024
3.696	14.481	-38384	2676.4	0.028694	0.14172	1.0023
3.698	14.495	-38388	2676.5	0.028499	0.14162	1.0021
3.7	14.504	-38393	2676.6	0.028304	0.14152	1.0019
3.702	14.558	-38391	2676.7	0.027328	0.1423	1.0011
3.704	14.559	-38388	2676.9	0.026352	0.14308	1.0003
3.706	14.522	-38393	2677.1	0.025376	0.14386	0.99952
3.708	14.512	-38399	2677.3	0.0244	0.14464	0.99874
3.71	14.503	-38397	2677.5	0.023424	0.14542	0.99796
3.712	14.489	-38394	2677.7	0.0244	0.14455	0.99874
3.714	14.453	-38391	2678	0.025376	0.14367	0.99952
3.716	14.501	-38387	2678.2	0.026352	0.14279	1.0003
3.718	14.56	-38393	2678.4	0.027328	0.14191	1.0011
3.72	14.547	-38399	2678.7	0.028304	0.14103	1.0019
3.722	14.493	-38402	2679	0.027816	0.14103	1.0016
3.724	14.463	-38404	2679.2	0.027328	0.14103	1.0013
3.726	14.421	-38405	2679.5	0.02684	0.14103	1.001
3.728	14.437	-38406	2679.8	0.026352	0.14103	1.0007
3.73	14.521	-38405	2680.2	0.025864	0.14103	1.0004
3.732	14.539	-38405	2680.4	0.027133	0.14015	1.0001
3.734	14.523	-38409	2680.6	0.028402	0.13928	0.99981
3.736	14.513	-38413	2680.8	0.02967	0.1384	0.99952
3.738	14.519	-38405	2681	0.030939	0.13752	0.99923
3.74	14.524	-38396	2681.2	0.032208	0.13664	0.99894
3.742	14.49	-38395	2681.4	0.030256	0.13723	0.99874
3.744	14.477	-38394	2681.6	0.028304	0.13781	0.99855
3.746	14.472	-38401	2681.8	0.026352	0.1384	0.99835
3.748	14.477	-38408	2682	0.0244	0.13898	0.99816
3.75	14.502	-38407	2682.2	0.022448	0.13957	0.99796
3.752	14.506	-38407	2682.3	0.022155	0.13947	0.99689
3.754	14.51	-38408	2682.4	0.021862	0.13937	0.99581
3.756	14.508	-38409	2682.5	0.02157	0.13928	0.99474
3.758	14.486	-38400	2682.7	0.021277	0.13918	0.99367
3.76	14.476	-38391	2682.9	0.020984	0.13908	0.99259
3.762	14.46	-38391	2683	0.021277	0.13888	0.99337
3.764	14.468	-38391	2683.2	0.02157	0.13869	0.99415
3.766	14.511	-38392	2683.4	0.021862	0.13849	0.99493
3.768	14.52	-38392	2683.5	0.022155	0.1383	0.99572
3.77	14.507	-38390	2683.7	0.022448	0.1381	0.9965
3.772	14.487	-38387	2683.9	0.02196	0.13732	0.99572
3.774	14.473	-38388	2684.1	0.021472	0.13654	0.99493
3.776	14.485	-38390	2684.3	0.020984	0.13576	0.99415
3.778	14.514	-38396	2684.5	0.020496	0.13498	0.99337
3.78	14.559	-38403	2684.7	0.020008	0.1342	0.99259
3.782	14.521	-38403	2684.8	0.020594	0.13518	0.99279
3.784	14.482	-38402	2684.9	0.021179	0.13615	0.99298
3.786	14.486	-38398	2685	0.021765	0.13713	0.99318
3.788	14.482	-38393	2685.1	0.02235	0.1381	0.99337
3.79	14.507	-38389	2685.1	0.022936	0.13908	0.99357
3.792	14.492	-38385	2685.2	0.022058	0.13849	0.99415
3.794	14.444	-38384	2685.2	0.021179	0.13791	0.99474
3.796	14.405	-38383	2685.2	0.020301	0.13732	0.99532
3.798	14.393	-38397	2685.2	0.019422	0.13674	0.99591
3.8	14.434	-38411	2685.2	0.018544	0.13615	0.9965
3.802	14.505	-38398	2685.1	0.018251	0.13635	0.9963
3.804	14.486	-38385	2685	0.017958	0.13654	0.99611
3.806	14.463	-38387	2684.9	0.017666	0.13674	0.99591
3.808	14.494	-38388	2684.8	0.017373	0.13693	0.99572
3.81	14.516	-38391	2684.7	0.01708	0.13713	0.99552
3.812	14.505	-38393	2684.6	0.01747	0.13713	0.99542
3.814	14.475	-38388	2684.5	0.017861	0.13713	0.99532
3.816	14.447	-38383	2684.4	0.018251	0.13713	0.99523
3.818	14.443	-38382	2684.2	0.018642	0.13713	0.99513
3.82	14.486	-38382	2684.1	0.019032	0.13713	0.99503
3.822	14.558	-38387	2683.9	0.018446	0.13742	0.99513
3.824	14.53	-38391	2683.7	0.017861	0.13771	0.99523
3.826	14.487	-38383	2683.4	0.017275	0.13801	0.99532
3.828	14.448	-38375	2683.1	0.01669	0.1383	0.99542
3.83	14.418	-38375	2682.9	0.016104	0.13859	0.99552
3.832	14.396	-38374	2682.5	0.016982	0.1384	0.99659
3.834	14.401	-38378	2682.2	0.017861	0.1382	0.99767
3.836	14.452	-38382	2681.8	0.018739	0.13801	0.99874
3.838	14.501	-38383	2681.5	0.019618	0.13781	0.99981
3.84	14.504	-38385	2681.1	0.020496	0.13762	1.0009
3.842	14.497	-38387	2680.8	0.019715	0.13762	1.0003
3.844	14.494	-38389	2680.4	0.018934	0.13762	0.99972
3.846	14.458	-38380	2680	0.018154	0.13762	0.99913
3.848	14.459	-38370	2679.7	0.017373	0.13762	0.99855
3.85	14.532	-38374	2679.4	0.016592	0.13762	0.99796
3.852	14.536	-38377	2679.1	0.017666	0.13859	0.99903
3.854	14.471	-38382	2678.7	0.018739	0.13957	1.0001
3.856	14.459	-38386	2678.4	0.019813	0.14054	1.0012
3.858	14.466	-38380	2678	0.020886	0.14152	1.0023
3.86	14.448	-38374	2677.7	0.02196	0.1425	1.0033
3.862	14.425	-38382	2677.3	0.02196	0.1425	1.003
3.864	14.446	-38390	2676.9	0.02196	0.1425	1.0027
3.866	14.488	-38392	2676.6	0.02196	0.1425	1.0024
3.868	14.504	-38394	2676.2	0.02196	0.1425	1.0022
3.87	14.479	-38395	2675.8	0.02196	0.1425	1.0019
3.872	14.446	-38396	2675.5	0.021374	0.1424	1.0017
3.874	14.496	-38394	2675.2	0.020789	0.1423	1.0015
3.876	14.532	-38392	2674.8	0.020203	0.1422	1.0013
3.878	14.468	-38387	2674.4	0.019618	0.14211	1.0011
3.88	14.445	-38382	2674	0.019032	0.14201	1.0009
3.882	14.44	-38384	2673.7	0.019032	0.14132	0.99981
3.884	14.43	-38387	2673.5	0.019032	0.14064	0.99874
3.886	14.433	-38386	2673.2	0.019032	0.13996	0.99767
3.888	14.485	-38386	2672.9	0.019032	0.13928	0.99659
3.89	14.503	-38389	2672.7	0.019032	0.13859	0.99552
3.892	14.448	-38392	2672.4	0.018837	0.13801	0.99572
3.894	14.43	-38399	2672.1	0.018642	0.13742	0.99591
3.896	14.431	-38406	2671.8	0.018446	0.13684	0.99611
3.898	14.413	-38403	2671.5	0.018251	0.13625	0.9963
3.9	14.43	-38400	2671.2	0.018056	0.13566	0.9965
3.902	14.473	-38394	2670.9	0.020106	0.13713	0.99767
3.904	14.468	-38388	2670.5	0.022155	0.13859	0.99884
3.906	14.451	-38396	2670.2	0.024205	0.14006	1
3.908	14.429	-38404	2669.9	0.026254	0.14152	1.0012
3.91	14.425	-38404	2669.5	0.028304	0.14298	1.0024
3.912	14.473	-38405	2669.2	0.02723	0.14308	1.0039
3.914	14.531	-38406	2668.8	0.026157	0.14318	1.0055
3.916	14.572	-38407	2668.5	0.025083	0.14328	1.007
3.918	14.536	-38409	2668.2	0.02401	0.14337	1.0086
3.92	14.45	-38411	2667.9	0.022936	0.14347	1.0102
3.922	14.437	-38411	2667.6	0.023522	0.14328	1.0094
3.924	14.463	-38411	2667.2	0.024107	0.14308	1.0086
3.926	14.443	-38410	2666.9	0.024693	0.14289	1.0078
3.928	14.449	-38408	2666.6	0.025278	0.14269	1.007
3.93	14.486	-38410	2666.3	0.025864	0.1425	1.0063
3.932	14.5	-38412	2665.9	0.026938	0.1425	1.0062
3.934	14.497	-38412	2665.6	0.028011	0.1425	1.0061
3.936	14.462	-38411	2665.3	0.029085	0.1425	1.006
3.938	14.427	-38415	2665	0.030158	0.1425	1.0059
3.94	14.425	-38419	2664.7	0.031232	0.1425	1.0058
3.942	14.425	-38417	2664.4	0.031525	0.14152	1.0058
3.944	14.422	-38414	2664.2	0.031818	0.14054	1.0058
3.946	14.4	-38416	2663.9	0.03211	0.13957	1.0058
3.948	14.403	-38418	2663.7	0.032403	0.13859	1.0058
3.95	14.466	-38417	2663.4	0.032696	0.13762	1.0058
3.952	14.545	-38416	2663.2	0.032696	0.13752	1.005
3.954	14.522	-38415	2663.1	0.032696	0.13742	1.0042
3.956	14.448	-38414	2662.9	0.032696	0.13732	1.0034
3.958	14.428	-38418	2662.7	0.032696	0.13723	1.0026
3.96	14.447	-38422	2662.5	0.032696	0.13713	1.0019
3.962	14.494	-38430	2662.4	0.033282	0.13742	1.0016
3.964	14.509	-38438	2662.2	0.033867	0.13771	1.0013
3.966	14.514	-38437	2662.1	0.034453	0.13801	1.001
3.968	14.475	-38436	2662	0.035038	0.1383	1.0007
3.97	14.518	-38430	2661.9	0.035624	0.13859	1.0004
3.972	14.53	-38425	2661.8	0.035722	0.13898	1.0014
3.974	14.512	-38432	2661.7	0.035819	0.13937	1.0024
3.976	14.545	-38439	2661.6	0.035917	0.13976	1.0033
3.978	14.523	-38436	2661.5	0.036014	0.14015	1.0043
3.98	14.483	-38433	2661.5	0.036112	0.14054	1.0053
3.982	14.518	-38434	2661.4	0.035917	0.14006	1.0051
3.984	14.555	-38434	2661.2	0.035722	0.13957	1.0049
3.986	14.537	-38439	2661.1	0.035526	0.13908	1.0047
3.988	14.495	-38444	2661	0.035331	0.13859	1.0045
3.99	14.424	-38450	2660.9	0.035136	0.1381	1.0043
3.992	14.419	-38456	2660.8	0.03455	0.13869	1.0056
3.994	14.462	-38457	2660.6	0.033965	0.13928	1.0068
3.996	14.523	-38458	2660.5	0.033379	0.13986	1.0081
3.998	14.554	-38457	2660.4	0.032794	0.14045	1.0094
4	14.513	-38456	2660.4	0.032208	0.14103	1.0106
4.002	14.492	-38453	2660.3	0.030451	0.14201	1.0104
4.004	14.519	-38451	2660.2	0.028694	0.14298	1.0101
4.006	14.522	-38447	2660.2	0.026938	0.14396	1.0098
4.008	14.487	-38444	2660.1	0.025181	0.14494	1.0095
4.01	14.488	-38448	2660	0.023424	0.14591	1.0092
4.012	14.52	-38451	2660	0.023717	0.1464	1.0097
4.014	14.506	-38452	2660	0.02401	0.14689	1.0102
4.016	14.463	-38453	2660	0.024302	0.14738	1.0106
4.018	14.439	-38454	2659.9	0.024595	0.14786	1.0111
4.02	14.436	-38455	2659.9	0.024888	0.14835	1.0116
4.022	14.435	-38460	2659.8	0.025864	0.14816	1.0106
4.024	14.415	-38464	2659.8	0.02684	0.14796	1.0095
4.026	14.38	-38463	2659.8	0.027816	0.14777	1.0084
4.028	14.351	-38462	2659.7	0.028792	0.14757	1.0073
4.03	14.378	-38463	2659.7	0.029768	0.14738	1.0063
4.032	14.463	-38464	2659.6	0.029768	0.14728	1.0061
4.034	14.483	-38470	2659.6	0.029768	0.14718	1.0059
4.036	14.448	-38476	2659.5	0.029768	0.14708	1.0057
4.038	14.432	-38476	2659.4	0.029768	0.14699	1.0055
4.04	14.417	-38476	2659.4	0.029768	0.14689	1.0053
4.042	14.419	-38477	2659.3	0.029866	0.14689	1.0052
4.044	14.461	-38478	2659.3	0.029963	0.14689	1.0051
4.046	14.484	-38480	2659.3	0.030061	0.14689	1.005
4.048	14.464	-38482	2659.3	0.030158	0.14689	1.0049
4.05	14.437	-38480	2659.3	0.030256	0.14689	1.0048
4.052	14.395	-38479	2659.3	0.030256	0.1465	1.0059
4.054	14.39	-38477	2659.3	0.030256	0.14611	1.0069
4.056	14.471	-38475	2659.2	0.030256	0.14572	1.008
4.058	14.518	-38484	2659.2	0.030256	0.14533	1.0091
4.06	14.469	-38492	2659.1	0.030256	0.14494	1.0102
4.062	14.428	-38494	2659.1	0.030549	0.14523	1.0088
4.064	14.356	-38496	2659.2	0.030842	0.14552	1.0074
4.066	14.304	-38496	2659.2	0.031134	0.14581	1.0061
4.068	14.351	-38496	2659.2	0.031427	0.14611	1.0047
4.07	14.435	-38497	2659.3	0.03172	0.1464	1.0033
4.072	14.502	-38498	2659.3	0.031915	0.14552	1.0036
4.074	14.512	-38499	2659.3	0.03211	0.14464	1.0039
4.076	14.51	-38501	2659.3	0.032306	0.14376	1.0042
4.078	14.449	-38501	2659.3	0.032501	0.14289	1.0045
4.08	14.392	-38502	2659.4	0.032696	0.14201	1.0048
4.082	14.414	-38501	2659.4	0.032598	0.14211	1.0052
4.084	14.47	-38500	2659.5	0.032501	0.1422	1.0056
4.086	14.48	-38500	2659.5	0.032403	0.1423	1.006
4.088	14.46	-38501	2659.6	0.032306	0.1424	1.0064
4.09	14.453	-38504	2659.6	0.032208	0.1425	1.0067
4.092	14.48	-38507	2659.6	0.030646	0.14455	1.0052
4.094	14.496	-38508	2659.6	0.029085	0.1466	1.0036
4.096	14.484	-38510	2659.6	0.027523	0.14864	1.0021
4.098	14.471	-38510	2659.7	0.025962	0.15069	1.0005
4.1	14.487	-38511	2659.7	0.0244	0.15274	0.99894
4.102	14.51	-38514	2659.7	0.024302	0.15138	0.99952
4.104	14.466	-38517	2659.7	0.024205	0.15001	1.0001
4.106	14.401	-38517	2659.6	0.024107	0.14864	1.0007
4.108	14.394	-38518	2659.6	0.02401	0.14728	1.0013
4.11	14.377	-38520	2659.5	0.023912	0.14591	1.0019
4.112	14.315	-38522	2659.4	0.023717	0.1464	1.0006
4.114	14.275	-38526	2659.4	0.023522	0.14689	0.99933
4.116	14.272	-38529	2659.3	0.023326	0.14738	0.99806
4.118	14.278	-38532	2659.3	0.023131	0.14786	0.99679
4.12	14.275	-38535	2659.2	0.022936	0.14835	0.99552
4.122	14.267	-38535	2659.1	0.024107	0.14825	0.9965
4.124	14.288	-38536	2658.9	0.025278	0.14816	0.99747
4.126	14.355	-38535	2658.8	0.02645	0.14806	0.99845
4.128	14.38	-38534	2658.6	0.027621	0.14796	0.99942
4.13	14.366	-38534	2658.5	0.028792	0.14786	1.0004
4.132	14.358	-38534	2658.4	0.026352	0.14689	1.0001
4.134	14.378	-38534	2658.2	0.023912	0.14591	0.99981
4.136	14.387	-38535	2658.1	0.021472	0.14494	0.99952
4.138	14.427	-38537	2657.9	0.019032	0.14396	0.99923
4.14	14.438	-38540	2657.7	0.016592	0.14298	0.99894
4.142	14.412	-38545	2657.5	0.017568	0.14416	0.99786
4.144	14.458	-38550	2657.3	0.018544	0.14533	0.99679
4.146	14.424	-38550	2657.1	0.01952	0.1465	0.99572
4.148	14.427	-38550	2656.9	0.020496	0.14767	0.99464
4.15	14.429	-38550	2656.7	0.021472	0.14884	0.99357
4.152	14.461	-38550	2656.6	0.023131	0.14816	0.99581
4.154	14.494	-38551	2656.4	0.02479	0.14747	0.99806
4.156	14.503	-38551	2656.3	0.02645	0.14679	1.0003
4.158	14.471	-38551	2656.1	0.028109	0.14611	1.0025
4.16	14.396	-38550	2656	0.029768	0.14542	1.0048
4.162	14.385	-38557	2655.9	0.029866	0.14513	1.0046
4.164	14.389	-38564	2655.7	0.029963	0.14484	1.0044
4.166	14.392	-38565	2655.5	0.030061	0.14455	1.0042
4.168	14.466	-38566	2655.3	0.030158	0.14425	1.004
4.17	14.462	-38574	2655.1	0.030256	0.14396	1.0038
4.172	14.429	-38582	2654.9	0.027914	0.14435	1.0027
4.174	14.382	-38573	2654.6	0.025571	0.14474	1.0017
4.176	14.369	-38564	2654.4	0.023229	0.14513	1.0006
4.178	14.392	-38564	2654.2	0.020886	0.14552	0.99952
4.18	14.456	-38564	2653.9	0.018544	0.14591	0.99845
4.182	14.506	-38564	2653.7	0.018056	0.1462	0.99825
4.184	14.489	-38564	2653.4	0.017568	0.1465	0.99806
4.186	14.472	-38566	2653.1	0.01708	0.14679	0.99786
4.188	14.47	-38568	2652.9	0.016592	0.14708	0.99767
4.19	14.443	-38568	2652.7	0.016104	0.14738	0.99747
4.192	14.408	-38567	2652.4	0.017275	0.14718	0.99835
4.194	14.378	-38576	2652.2	0.018446	0.14699	0.99923
4.196	14.374	-38585	2651.9	0.019618	0.14679	1.0001
4.198	14.388	-38581	2651.6	0.020789	0.1466	1.001
4.2	14.402	-38577	2651.4	0.02196	0.1464	1.0019
4.202	14.438	-38584	2651.1	0.022253	0.1463	1.0019
4.204	14.435	-38591	2650.9	0.022546	0.1462	1.0019
4.206	14.441	-38595	2650.6	0.022838	0.14611	1.0019
4.208	14.445	-38600	2650.4	0.023131	0.14601	1.0019
4.21	14.407	-38592	2650.2	0.023424	0.14591	1.0019
4.212	14.368	-38584	2650	0.024888	0.14503	1.0026
4.214	14.386	-38591	2649.7	0.026352	0.14416	1.0034
4.216	14.425	-38598	2649.5	0.027816	0.14328	1.0042
4.218	14.491	-38604	2649.2	0.02928	0.1424	1.005
4.22	14.484	-38609	2648.9	0.030744	0.14152	1.0058
4.222	14.434	-38606	2648.6	0.030354	0.1425	1.0053
4.224	14.425	-38603	2648.3	0.029963	0.14347	1.0048
4.226	14.412	-38604	2648.1	0.029573	0.14445	1.0043
4.228	14.43	-38605	2647.8	0.029182	0.14542	1.0038
4.23	14.401	-38610	2647.5	0.028792	0.1464	1.0033
4.232	14.446	-38615	2647.3	0.027621	0.1465	1.0023
4.234	14.456	-38612	2647	0.02645	0.1466	1.0012
4.236	14.428	-38608	2646.7	0.025278	0.14669	1.0001
4.238	14.444	-38609	2646.3	0.024107	0.14679	0.99903
4.24	14.423	-38610	2645.9	0.022936	0.14689	0.99796
4.242	14.399	-38614	2645.6	0.021862	0.14562	0.99825
4.244	14.419	-38618	2645.3	0.020789	0.14435	0.99855
4.246	14.463	-38620	2645	0.019715	0.14308	0.99884
4.248	14.453	-38622	2644.6	0.018642	0.14181	0.99913
4.25	14.401	-38622	2644.3	0.017568	0.14054	0.99942
4.252	14.373	-38622	2644	0.019618	0.14152	0.99972
4.254	14.414	-38627	2643.7	0.021667	0.1425	1
4.256	14.445	-38631	2643.5	0.023717	0.14347	1.0003
4.258	14.415	-38633	2643.2	0.025766	0.14445	1.0006
4.26	14.385	-38636	2643	0.027816	0.14542	1.0009
4.262	14.377	-38637	2642.7	0.02684	0.14523	1.0004
4.264	14.432	-38639	2642.4	0.025864	0.14503	0.99991
4.266	14.515	-38639	2642.2	0.024888	0.14484	0.99942
4.268	14.506	-38639	2641.9	0.023912	0.14464	0.99894
4.27	14.465	-38643	2641.7	0.022936	0.14445	0.99845
4.272	14.459	-38648	2641.5	0.023034	0.14435	0.99884
4.274	14.44	-38648	2641.3	0.023131	0.14425	0.99923
4.276	14.414	-38648	2641.2	0.023229	0.14416	0.99962
4.278	14.411	-38647	2641	0.023326	0.14406	1
4.28	14.433	-38646	2640.9	0.023424	0.14396	1.0004
4.282	14.434	-38646	2641	0.022838	0.14357	1.0007
4.284	14.385	-38645	2641	0.022253	0.14318	1.001
4.286	14.374	-38652	2641.1	0.021667	0.14279	1.0013
4.288	14.41	-38658	2641.3	0.021082	0.1424	1.0016
4.29	14.434	-38662	2641.5	0.020496	0.14201	1.0019
4.292	14.421	-38665	2642	0.020008	0.14152	1.001
4.294	14.384	-38664	2642.4	0.01952	0.14103	1.0001
4.296	14.378	-38664	2643	0.019032	0.14054	0.99923
4.298	14.395	-38669	2643.8	0.018544	0.14006	0.99835
4.3	14.459	-38674	2644.6	0.018056	0.13957	0.99747
4.302	14.514	-38676	2645.7	0.018154	0.13937	0.99718
4.304	14.477	-38678	2646.9	0.018251	0.13918	0.99689
4.306	14.466	-38676	2648.2	0.018349	0.13898	0.99659
4.308	14.462	-38674	2649.6	0.018446	0.13879	0.9963
4.31	14.427	-38675	2651.1	0.018544	0.13859	0.99601
4.312	14.414	-38677	2652.8	0.019227	0.1384	0.99542
4.314	14.454	-38684	2654.5	0.01991	0.1382	0.99484
4.316	14.455	-38692	2656.3	0.020594	0.13801	0.99425
4.318	14.463	-38692	2658.3	0.021277	0.13781	0.99367
4.32	14.449	-38693	2660.3	0.02196	0.13762	0.99308
4.322	14.456	-38698	2662.3	0.02196	0.13781	0.99298
4.324	14.504	-38703	2664.2	0.02196	0.13801	0.99288
4.326	14.468	-38699	2666.2	0.02196	0.1382	0.99279
4.328	14.397	-38695	2668.3	0.02196	0.1384	0.99269
4.33	14.403	-38697	2670.4	0.02196	0.13859	0.99259
4.332	14.484	-38700	2672.3	0.02196	0.13879	0.99357
4.334	14.549	-38700	2674.3	0.02196	0.13898	0.99454
4.336	14.526	-38699	2676.2	0.02196	0.13918	0.99552
4.338	14.474	-38694	2678.1	0.02196	0.13937	0.9965
4.34	14.443	-38688	2679.9	0.02196	0.13957	0.99747
4.342	14.437	-38697	2681.7	0.023814	0.14035	0.99903
4.344	14.466	-38707	2683.6	0.025669	0.14113	1.0006
4.346	14.517	-38708	2685.3	0.027523	0.14191	1.0022
4.348	14.544	-38709	2687	0.029378	0.14269	1.0037
4.35	14.526	-38704	2688.7	0.031232	0.14347	1.0053
4.352	14.502	-38699	2690.3	0.029475	0.14357	1.0059
4.354	14.518	-38697	2691.8	0.027718	0.14367	1.0065
4.356	14.54	-38694	2693.3	0.025962	0.14376	1.007
4.358	14.529	-38689	2694.7	0.024205	0.14386	1.0076
4.36	14.544	-38685	2696.2	0.022448	0.14396	1.0082
4.362	14.552	-38684	2697.4	0.022155	0.14259	1.0074
4.364	14.496	-38684	2698.7	0.021862	0.14123	1.0066
4.366	14.46	-38684	2699.9	0.02157	0.13986	1.0059
4.368	14.462	-38683	2701.1	0.021277	0.13849	1.0051
4.37	14.461	-38679	2702.3	0.020984	0.13713	1.0043
4.372	14.498	-38675	2703.3	0.020496	0.13752	1.0046
4.374	14.542	-38674	2704.3	0.020008	0.13791	1.0049
4.376	14.528	-38672	2705.2	0.01952	0.1383	1.0052
4.378	14.508	-38673	2706	0.019032	0.13869	1.0055
4.38	14.492	-38674	2706.8	0.018544	0.13908	1.0058
4.382	14.482	-38669	2707.4	0.018837	0.1384	1.0059
4.384	14.517	-38664	2708.1	0.01913	0.13771	1.006
4.386	14.547	-38665	2708.7	0.019422	0.13703	1.0061
4.388	14.536	-38666	2709.2	0.019715	0.13635	1.0062
4.39	14.52	-38655	2709.8	0.020008	0.13566	1.0063
4.392	14.499	-38643	2710.2	0.019227	0.13684	1.0073
4.394	14.491	-38636	2710.7	0.018446	0.13801	1.0084
4.396	14.512	-38628	2711	0.017666	0.13918	1.0095
4.398	14.476	-38635	2711.3	0.016885	0.14035	1.0106
4.4	14.459	-38642	2711.6	0.016104	0.14152	1.0116
4.402	14.418	-38629	2711.9	0.01503	0.1424	1.0113
4.404	14.462	-38617	2712.1	0.013957	0.14328	1.011
4.406	14.529	-38616	2712.3	0.012883	0.14416	1.0107
4.408	14.513	-38615	2712.4	0.01181	0.14503	1.0105
4.41	14.483	-38609	2712.4	0.010736	0.14591	1.0102
4.412	14.46	-38603	2712.4	0.011712	0.14533	1.01
4.414	14.437	-38602	2712.4	0.012688	0.14474	1.0098
4.416	14.473	-38600	2712.3	0.013664	0.14416	1.0096
4.418	14.482	-38597	2712.2	0.01464	0.14357	1.0094
4.42	14.491	-38594	2712	0.015616	0.14298	1.0092
4.422	14.543	-38580	2711.9	0.016006	0.14357	1.0098
4.424	14.549	-38566	2711.7	0.016397	0.14416	1.0104
4.426	14.492	-38572	2711.5	0.016787	0.14474	1.0109
4.428	14.443	-38577	2711.3	0.017178	0.14533	1.0115
4.43	14.439	-38578	2711	0.017568	0.14591	1.0121
4.432	14.428	-38580	2710.7	0.017275	0.14523	1.012
4.434	14.381	-38578	2710.4	0.016982	0.14455	1.0119
4.436	14.341	-38576	2710.1	0.01669	0.14386	1.0118
4.438	14.353	-38576	2709.8	0.016397	0.14318	1.0117
4.44	14.38	-38577	2709.5	0.016104	0.1425	1.0116
4.442	14.416	-38568	2709	0.016592	0.14259	1.0114
4.444	14.452	-38560	2708.6	0.01708	0.14269	1.0112
4.446	14.445	-38558	2708.2	0.017568	0.14279	1.011
4.448	14.421	-38557	2707.7	0.018056	0.14289	1.0108
4.45	14.403	-38558	2707.2	0.018544	0.14298	1.0106
4.452	14.37	-38560	2706.7	0.018446	0.14298	1.0111
4.454	14.357	-38554	2706.3	0.018349	0.14298	1.0116
4.456	14.367	-38549	2705.8	0.018251	0.14298	1.0121
4.458	14.377	-38542	2705.3	0.018154	0.14298	1.0126
4.46	14.399	-38536	2704.8	0.018056	0.14298	1.0131
4.462	14.412	-38528	2704.3	0.017958	0.14298	1.0135
4.464	14.424	-38521	2703.8	0.017861	0.14298	1.0139
4.466	14.435	-38520	2703.3	0.017763	0.14298	1.0143
4.468	14.434	-38519	2702.8	0.017666	0.14298	1.0146
4.47	14.414	-38516	2702.4	0.017568	0.14298	1.015
4.472	14.373	-38513	2701.9	0.01708	0.14279	1.0145
4.474	14.349	-38512	2701.5	0.016592	0.14259	1.0139
4.476	14.372	-38511	2701.1	0.016104	0.1424	1.0133
4.478	14.348	-38509	2700.6	0.015616	0.1422	1.0127
4.48	14.369	-38508	2700.1	0.015128	0.14201	1.0121
4.482	14.316	-38503	2699.7	0.016982	0.1424	1.013
4.484	14.3	-38498	2699.3	0.018837	0.14279	1.0139
4.486	14.298	-38496	2698.9	0.020691	0.14318	1.0147
4.488	14.345	-38494	2698.6	0.022546	0.14357	1.0156
4.49	14.429	-38492	2698.2	0.0244	0.14396	1.0165
4.492	14.38	-38491	2697.8	0.023034	0.14357	1.0158
4.494	14.389	-38488	2697.5	0.021667	0.14318	1.0151
4.496	14.371	-38485	2697.1	0.020301	0.14279	1.0145
4.498	14.334	-38483	2696.8	0.018934	0.1424	1.0138
4.5	14.374	-38482	2696.4	0.017568	0.14201	1.0131
4.502	14.417	-38485	2696.1	0.01747	0.14211	1.0129
4.504	14.417	-38488	2695.7	0.017373	0.1422	1.0127
4.506	14.4	-38485	2695.4	0.017275	0.1423	1.0125
4.508	14.368	-38482	2695	0.017178	0.1424	1.0123
4.51	14.324	-38480	2694.7	0.01708	0.1425	1.0121
4.512	14.328	-38479	2694.3	0.017568	0.14162	1.0113
4.514	14.365	-38480	2693.8	0.018056	0.14074	1.0106
4.516	14.369	-38481	2693.4	0.018544	0.13986	1.0098
4.518	14.357	-38482	2692.9	0.019032	0.13898	1.009
4.52	14.34	-38483	2692.4	0.01952	0.1381	1.0082
4.522	14.336	-38479	2691.8	0.020106	0.13976	1.0079
4.524	14.356	-38474	2691.3	0.020691	0.14142	1.0076
4.526	14.351	-38473	2690.7	0.021277	0.14308	1.0073
4.528	14.333	-38472	2690.2	0.021862	0.14474	1.007
4.53	14.321	-38469	2689.6	0.022448	0.1464	1.0067
4.532	14.311	-38465	2689.1	0.022448	0.14542	1.0065
4.534	14.308	-38469	2688.5	0.022448	0.14445	1.0064
4.536	14.291	-38473	2688	0.022448	0.14347	1.0062
4.538	14.282	-38472	2687.5	0.022448	0.1425	1.006
4.54	14.309	-38471	2686.9	0.022448	0.14152	1.0058
4.542	14.352	-38468	2686.4	0.022838	0.14318	1.0045
4.544	14.404	-38466	2685.8	0.023229	0.14484	1.0032
4.546	14.432	-38469	2685.3	0.023619	0.1465	1.002
4.548	14.432	-38471	2684.8	0.02401	0.14816	1.0007
4.55	14.415	-38471	2684.3	0.0244	0.14982	0.99942
4.552	14.385	-38470	2683.9	0.02479	0.1504	1.0003
4.554	14.36	-38467	2683.5	0.025181	0.15099	1.0012
4.556	14.304	-38463	2683.2	0.025571	0.15157	1.0021
4.558	14.337	-38466	2682.9	0.025962	0.15216	1.0029
4.56	14.405	-38468	2682.7	0.026352	0.15274	1.0038
4.562	14.396	-38470	2682.5	0.025766	0.15226	1.0035
4.564	14.386	-38472	2682.3	0.025181	0.15177	1.0032
4.566	14.364	-38478	2682.2	0.024595	0.15128	1.0029
4.568	14.349	-38484	2682.1	0.02401	0.15079	1.0026
4.57	14.32	-38479	2682	0.023424	0.1503	1.0024
4.572	14.334	-38474	2682	0.023717	0.1506	1.0024
4.574	14.355	-38465	2682	0.02401	0.15089	1.0025
4.576	14.323	-38457	2682	0.024302	0.15118	1.0026
4.578	14.357	-38469	2682.1	0.024595	0.15148	1.0027
4.58	14.379	-38480	2682.2	0.024888	0.15177	1.0028
4.582	14.363	-38483	2682.4	0.024107	0.15108	1.0024
4.584	14.355	-38485	2682.5	0.023326	0.1504	1.0019
4.586	14.316	-38477	2682.7	0.022546	0.14972	1.0014
4.588	14.293	-38469	2682.9	0.021765	0.14904	1.0009
4.59	14.33	-38468	2683.1	0.020984	0.14835	1.0004
4.592	14.392	-38467	2683.3	0.022448	0.14894	1.0006
4.594	14.389	-38466	2683.6	0.023912	0.14952	1.0008
4.596	14.361	-38465	2683.8	0.025376	0.15011	1.001
4.598	14.343	-38467	2684	0.02684	0.15069	1.0012
4.6	14.316	-38469	2684.2	0.028304	0.15128	1.0014
4.602	14.284	-38475	2684.5	0.028694	0.15138	1.002
4.604	14.247	-38482	2684.8	0.029085	0.15148	1.0025
4.606	14.305	-38484	2685.1	0.029475	0.15157	1.0031
4.608	14.386	-38485	2685.4	0.029866	0.15167	1.0037
4.61	14.392	-38477	2685.7	0.030256	0.15177	1.0043
4.612	14.387	-38468	2686	0.029378	0.15177	1.0047
4.614	14.4	-38470	2686.4	0.028499	0.15177	1.0051
4.616	14.401	-38471	2686.7	0.027621	0.15177	1.0055
4.618	14.385	-38473	2687	0.026742	0.15177	1.0059
4.62	14.349	-38474	2687.4	0.025864	0.15177	1.0063
4.622	14.331	-38472	2687.7	0.024986	0.15089	1.0067
4.624	14.365	-38471	2688	0.024107	0.15001	1.0072
4.626	14.387	-38472	2688.3	0.023229	0.14913	1.0077
4.628	14.358	-38472	2688.7	0.02235	0.14825	1.0082
4.63	14.343	-38473	2689.1	0.021472	0.14738	1.0087
4.632	14.381	-38474	2689.4	0.021862	0.14835	1.0087
4.634	14.409	-38473	2689.6	0.022253	0.14933	1.0087
4.636	14.393	-38472	2689.9	0.022643	0.1503	1.0087
4.638	14.303	-38471	2690.2	0.023034	0.15128	1.0087
4.64	14.233	-38471	2690.5	0.023424	0.15226	1.0087
4.642	14.273	-38472	2690.7	0.022936	0.15177	1.0088
4.644	14.386	-38474	2691	0.022448	0.15128	1.0089
4.646	14.428	-38476	2691.2	0.02196	0.15079	1.009
4.648	14.386	-38479	2691.3	0.021472	0.1503	1.0091
4.65	14.374	-38478	2691.5	0.020984	0.14982	1.0092
4.652	14.312	-38478	2691.7	0.021082	0.14943	1.0098
4.654	14.301	-38483	2691.9	0.021179	0.14904	1.0104
4.656	14.23	-38488	2692.1	0.021277	0.14864	1.0109
4.658	14.197	-38497	2692.3	0.021374	0.14825	1.0115
4.66	14.248	-38506	2692.4	0.021472	0.14786	1.0121
4.662	14.273	-38503	2692.6	0.021667	0.14835	1.0114
4.664	14.372	-38501	2692.7	0.021862	0.14884	1.0107
4.666	14.305	-38499	2692.8	0.022058	0.14933	1.0101
4.668	14.348	-38498	2692.9	0.022253	0.14982	1.0094
4.67	14.396	-38494	2692.9	0.022448	0.1503	1.0087
4.672	14.354	-38490	2693	0.022741	0.15099	1.0088
4.674	14.298	-38489	2693	0.023034	0.15167	1.0089
4.676	14.269	-38488	2693	0.023326	0.15235	1.009
4.678	14.273	-38487	2693.1	0.023619	0.15304	1.0091
4.68	14.292	-38486	2693.1	0.023912	0.15372	1.0092
4.682	14.362	-38488	2693.1	0.023912	0.15372	1.0096
4.684	14.392	-38491	2693.2	0.023912	0.15372	1.01
4.686	14.417	-38490	2693.2	0.023912	0.15372	1.0104
4.688	14.397	-38489	2693.1	0.023912	0.15372	1.0107
4.69	14.31	-38487	2693	0.023912	0.15372	1.0111
4.692	14.244	-38485	2692.9	0.023522	0.15323	1.011
4.694	14.273	-38487	2692.9	0.023131	0.15274	1.0109
4.696	14.382	-38490	2692.8	0.022741	0.15226	1.0108
4.698	14.437	-38489	2692.7	0.02235	0.15177	1.0107
4.7	14.391	-38488	2692.6	0.02196	0.15128	1.0106
4.702	14.333	-38487	2692.5	0.022936	0.15148	1.0112
4.704	14.314	-38486	2692.4	0.023912	0.15167	1.0118
4.706	14.311	-38492	2692.3	0.024888	0.15187	1.0124
4.708	14.292	-38497	2692.2	0.025864	0.15206	1.013
4.71	14.273	-38496	2692.1	0.02684	0.15226	1.0136
4.712	14.28	-38496	2692.1	0.027035	0.15206	1.0138
4.714	14.292	-38494	2692.1	0.02723	0.15187	1.014
4.716	14.255	-38492	2692.1	0.027426	0.15167	1.0142
4.718	14.216	-38492	2692.1	0.027621	0.15148	1.0144
4.72	14.244	-38492	2692.1	0.027816	0.15128	1.0146
4.722	14.354	-38496	2692.1	0.027914	0.15148	1.0146
4.724	14.441	-38499	2692.1	0.028011	0.15167	1.0146
4.726	14.403	-38501	2692.1	0.028109	0.15187	1.0146
4.728	14.341	-38502	2692.1	0.028206	0.15206	1.0146
4.73	14.306	-38503	2692	0.028304	0.15226	1.0146
4.732	14.305	-38504	2691.9	0.027914	0.15235	1.0143
4.734	14.287	-38501	2691.9	0.027523	0.15245	1.014
4.736	14.304	-38499	2691.7	0.027133	0.15255	1.0137
4.738	14.369	-38497	2691.6	0.026742	0.15265	1.0134
4.74	14.366	-38495	2691.5	0.026352	0.15274	1.0131
4.742	14.315	-38494	2691.4	0.027621	0.15196	1.0137
4.744	14.252	-38492	2691.2	0.02889	0.15118	1.0143
4.746	14.216	-38489	2691.1	0.030158	0.1504	1.0148
4.748	14.258	-38486	2690.9	0.031427	0.14962	1.0154
4.75	14.336	-38487	2690.7	0.032696	0.14884	1.016
4.752	14.383	-38488	2690.4	0.033379	0.14894	1.0161
