t	ekg	optical	pressure	accel_x	accel_y	accel_z
0	-16.299	-26627	2391	-0.64055	-0.70096	0.28997
0.002	-16.284	-26626	2391	-0.64162	-0.70135	0.29065
0.004	-16.284	-26625	2391	-0.6427	-0.70174	0.29134
0.006	-16.303	-26624	2391	-0.64377	-0.70213	0.29202
0.008	-16.325	-26624	2391	-0.64484	-0.70252	0.2927
0.01	-16.35	-26624	2391	-0.64592	-0.70292	0.29339
0.012	-16.394	-26624	2390.9	-0.64699	-0.70331	0.29407
0.014	-16.444	-26625	2390.9	-0.64806	-0.7037	0.29475
0.016	-16.487	-26623	2390.9	-0.64806	-0.70331	0.29485
0.018	-16.518	-26622	2390.9	-0.64806	-0.70292	0.29495
0.02	-16.541	-26621	2390.8	-0.64806	-0.70252	0.29504
0.022	-16.554	-26620	2390.8	-0.64806	-0.70213	0.29514
0.024	-16.55	-26620	2390.7	-0.64806	-0.70174	0.29524
0.026	-16.532	-26619	2390.7	-0.64816	-0.70194	0.29446
0.028	-16.505	-26619	2390.6	-0.64826	-0.70213	0.29368
0.03	-16.486	-26619	2390.6	-0.64836	-0.70233	0.2929
0.032	-16.474	-26620	2390.5	-0.64845	-0.70252	0.29212
0.034	-16.461	-26621	2390.4	-0.64855	-0.70272	0.29134
0.036	-16.453	-26621	2390.4	-0.64904	-0.70311	0.29182
0.038	-16.435	-26622	2390.3	-0.64953	-0.7035	0.29231
0.04	-16.424	-26627	2390.2	-0.65002	-0.70389	0.2928
0.042	-16.424	-26632	2390.1	-0.6505	-0.70428	0.29329
0.044	-16.429	-26630	2390	-0.65099	-0.70467	0.29378
0.046	-16.441	-26628	2389.9	-0.6506	-0.70428	0.29368
0.048	-16.443	-26627	2389.9	-0.65021	-0.70389	0.29358
0.05	-16.432	-26625	2389.8	-0.64982	-0.7035	0.29348
0.052	-16.416	-26627	2389.7	-0.64943	-0.70311	0.29339
0.054	-16.42	-26628	2389.6	-0.64904	-0.70272	0.29329
0.056	-16.426	-26630	2389.5	-0.64875	-0.70243	0.29368
0.058	-16.429	-26633	2389.4	-0.64845	-0.70213	0.29407
0.06	-16.434	-26635	2389.3	-0.64816	-0.70184	0.29446
0.062	-16.439	-26637	2389.3	-0.64787	-0.70155	0.29485
0.064	-16.44	-26637	2389.2	-0.64758	-0.70126	0.29524
0.066	-16.434	-26637	2389.2	-0.64719	-0.70174	0.29426
0.068	-16.43	-26639	2389.1	-0.6468	-0.70223	0.29329
0.07	-16.438	-26640	2389.1	-0.6464	-0.70272	0.29231
0.072	-16.441	-26635	2389	-0.64601	-0.70321	0.29134
0.074	-16.441	-26630	2389	-0.64562	-0.7037	0.29036
0.076	-16.444	-26635	2389	-0.64611	-0.7034	0.29095
0.078	-16.441	-26639	2389	-0.6466	-0.70311	0.29153
0.08	-16.436	-26637	2389	-0.64709	-0.70282	0.29212
0.082	-16.435	-26635	2389	-0.64758	-0.70252	0.2927
0.084	-16.439	-26636	2389.1	-0.64806	-0.70223	0.29329
0.086	-16.447	-26636	2389.1	-0.6467	-0.70262	0.29221
0.088	-16.449	-26638	2389.2	-0.64533	-0.70301	0.29114
0.09	-16.444	-26639	2389.3	-0.64396	-0.7034	0.29007
0.092	-16.44	-26639	2389.3	-0.6426	-0.70379	0.28899
0.094	-16.437	-26639	2389.4	-0.64123	-0.70418	0.28792
0.096	-16.434	-26642	2389.5	-0.64113	-0.70526	0.28763
0.098	-16.436	-26644	2389.5	-0.64104	-0.70633	0.28733
0.1	-16.437	-26640	2389.5	-0.64094	-0.7074	0.28704
0.102	-16.429	-26635	2389.5	-0.64084	-0.70848	0.28675
0.104	-16.423	-26631	2389.5	-0.64074	-0.70955	0.28646
0.106	-16.419	-26627	2389.5	-0.64162	-0.70819	0.28665
0.108	-16.425	-26629	2389.4	-0.6425	-0.70682	0.28685
0.11	-16.427	-26631	2389.4	-0.64338	-0.70545	0.28704
0.112	-16.427	-26632	2389.3	-0.64426	-0.70409	0.28724
0.114	-16.424	-26633	2389.2	-0.64514	-0.70272	0.28743
0.116	-16.428	-26634	2389.1	-0.64592	-0.70292	0.28792
0.118	-16.427	-26634	2388.9	-0.6467	-0.70311	0.28841
0.12	-16.423	-26635	2388.8	-0.64748	-0.70331	0.2889
0.122	-16.425	-26635	2388.7	-0.64826	-0.7035	0.28938
0.124	-16.43	-26633	2388.5	-0.64904	-0.7037	0.28987
0.126	-16.431	-26631	2388.3	-0.64806	-0.70252	0.29007
0.128	-16.433	-26630	2388.1	-0.64709	-0.70135	0.29026
0.13	-16.43	-26629	2387.8	-0.64611	-0.70018	0.29046
0.132	-16.426	-26628	2387.6	-0.64514	-0.69901	0.29065
0.134	-16.423	-26628	2387.4	-0.64416	-0.69784	0.29085
0.136	-16.422	-26627	2387.1	-0.64387	-0.69774	0.29065
0.138	-16.421	-26626	2386.9	-0.64357	-0.69764	0.29046
0.14	-16.416	-26630	2386.6	-0.64328	-0.69755	0.29026
0.142	-16.418	-26633	2386.3	-0.64299	-0.69745	0.29007
0.144	-16.422	-26632	2386	-0.6427	-0.69735	0.28987
0.146	-16.42	-26632	2385.7	-0.6424	-0.69755	0.29007
0.148	-16.414	-26633	2385.4	-0.64211	-0.69774	0.29026
0.15	-16.411	-26635	2385.2	-0.64182	-0.69794	0.29046
0.152	-16.411	-26635	2384.9	-0.64152	-0.69813	0.29065
0.154	-16.415	-26636	2384.7	-0.64123	-0.69833	0.29085
0.156	-16.416	-26635	2384.5	-0.64113	-0.69921	0.29143
0.158	-16.411	-26634	2384.3	-0.64104	-0.70008	0.29202
0.16	-16.405	-26637	2384.1	-0.64094	-0.70096	0.2926
0.162	-16.41	-26639	2383.9	-0.64084	-0.70184	0.29319
0.164	-16.416	-26637	2383.8	-0.64074	-0.70272	0.29378
0.166	-16.414	-26636	2383.7	-0.63987	-0.7037	0.29221
0.168	-16.402	-26637	2383.6	-0.63899	-0.70467	0.29065
0.17	-16.394	-26639	2383.6	-0.63811	-0.70565	0.28909
0.172	-16.399	-26638	2383.6	-0.63723	-0.70662	0.28753
0.174	-16.405	-26638	2383.7	-0.63635	-0.7076	0.28597
0.176	-16.408	-26638	2383.7	-0.63645	-0.70819	0.28665
0.178	-16.413	-26638	2383.8	-0.63655	-0.70877	0.28733
0.18	-16.416	-26640	2383.9	-0.63664	-0.70936	0.28802
0.182	-16.413	-26642	2384	-0.63674	-0.70994	0.2887
0.184	-16.405	-26644	2384.2	-0.63684	-0.71053	0.28938
0.186	-16.393	-26647	2384.4	-0.63811	-0.71004	0.28909
0.188	-16.386	-26648	2384.6	-0.63938	-0.70955	0.2888
0.19	-16.386	-26648	2384.9	-0.64065	-0.70906	0.28851
0.192	-16.383	-26648	2385.3	-0.64192	-0.70858	0.28821
0.194	-16.382	-26647	2385.6	-0.64318	-0.70809	0.28792
0.196	-16.383	-26645	2386.1	-0.6427	-0.70906	0.28851
0.198	-16.378	-26642	2386.5	-0.64221	-0.71004	0.28909
0.2	-16.379	-26641	2387	-0.64172	-0.71102	0.28968
0.202	-16.382	-26640	2387.5	-0.64123	-0.71199	0.29026
0.204	-16.381	-26644	2388.1	-0.64074	-0.71297	0.29085
0.206	-16.375	-26648	2388.6	-0.64328	-0.71258	0.29095
0.208	-16.373	-26647	2389.2	-0.64582	-0.71219	0.29104
0.21	-16.373	-26646	2389.8	-0.64836	-0.7118	0.29114
0.212	-16.364	-26648	2390.4	-0.65089	-0.71141	0.29124
0.214	-16.356	-26650	2390.9	-0.65343	-0.71102	0.29134
0.216	-16.363	-26645	2391.6	-0.65265	-0.71082	0.29046
0.218	-16.367	-26640	2392.2	-0.65187	-0.71063	0.28958
0.22	-16.365	-26645	2392.8	-0.65109	-0.71043	0.2887
0.222	-16.349	-26649	2393.3	-0.65031	-0.71024	0.28782
0.224	-16.349	-26650	2393.9	-0.64953	-0.71004	0.28694
0.226	-16.339	-26652	2394.4	-0.65031	-0.70936	0.28753
0.228	-16.338	-26646	2395	-0.65109	-0.70867	0.28812
0.23	-16.342	-26641	2395.5	-0.65187	-0.70799	0.2887
0.232	-16.351	-26639	2396	-0.65265	-0.70731	0.28929
0.234	-16.352	-26637	2396.5	-0.65343	-0.70662	0.28987
0.236	-16.35	-26633	2396.9	-0.65324	-0.70565	0.28997
0.238	-16.342	-26629	2397.3	-0.65304	-0.70467	0.29007
0.24	-16.337	-26640	2397.7	-0.65285	-0.7037	0.29016
0.242	-16.338	-26650	2398.1	-0.65265	-0.70272	0.29026
0.244	-16.346	-26645	2398.4	-0.65246	-0.70174	0.29036
0.246	-16.349	-26640	2398.7	-0.65285	-0.70213	0.29056
0.248	-16.349	-26634	2399.1	-0.65324	-0.70252	0.29075
0.25	-16.346	-26628	2399.4	-0.65363	-0.70292	0.29095
0.252	-16.345	-26631	2399.6	-0.65402	-0.70331	0.29114
0.254	-16.344	-26633	2399.9	-0.65441	-0.7037	0.29134
0.256	-16.341	-26633	2400.1	-0.65333	-0.7034	0.29212
0.258	-16.337	-26633	2400.3	-0.65226	-0.70311	0.2929
0.26	-16.334	-26627	2400.5	-0.65119	-0.70282	0.29368
0.262	-16.338	-26622	2400.7	-0.65011	-0.70252	0.29446
0.264	-16.344	-26628	2400.9	-0.64904	-0.70223	0.29524
0.266	-16.346	-26634	2401.1	-0.64728	-0.70262	0.29524
0.268	-16.345	-26635	2401.3	-0.64553	-0.70301	0.29524
0.27	-16.345	-26636	2401.5	-0.64377	-0.7034	0.29524
0.272	-16.347	-26629	2401.6	-0.64201	-0.70379	0.29524
0.274	-16.351	-26623	2401.7	-0.64026	-0.70418	0.29524
0.276	-16.349	-26610	2401.8	-0.64074	-0.70282	0.29534
0.278	-16.357	-26598	2401.9	-0.64123	-0.70145	0.29544
0.28	-16.366	-26608	2402	-0.64172	-0.70008	0.29553
0.282	-16.37	-26617	2402.2	-0.64221	-0.69872	0.29563
0.284	-16.366	-26613	2402.3	-0.6427	-0.69735	0.29573
0.286	-16.357	-26608	2402.4	-0.6427	-0.69852	0.29573
0.288	-16.352	-26613	2402.5	-0.6427	-0.69969	0.29573
0.29	-16.352	-26617	2402.6	-0.6427	-0.70087	0.29573
0.292	-16.361	-26619	2402.7	-0.6427	-0.70204	0.29573
0.294	-16.365	-26621	2402.7	-0.6427	-0.70321	0.29573
0.296	-16.378	-26606	2402.8	-0.64192	-0.70399	0.29485
0.298	-16.384	-26592	2402.9	-0.64113	-0.70477	0.29397
0.3	-16.391	-26604	2403	-0.64035	-0.70555	0.29309
0.302	-16.385	-26616	2403.1	-0.63957	-0.70633	0.29221
0.304	-16.391	-26614	2403.1	-0.63879	-0.70711	0.29134
0.306	-16.403	-26611	2403.2	-0.63957	-0.7074	0.29143
0.308	-16.4	-26608	2403.2	-0.64035	-0.7077	0.29153
0.31	-16.386	-26605	2403.3	-0.64113	-0.70799	0.29163
0.312	-16.39	-26609	2403.4	-0.64192	-0.70828	0.29173
0.314	-16.397	-26613	2403.4	-0.6427	-0.70858	0.29182
0.316	-16.397	-26604	2403.5	-0.64221	-0.70887	0.29134
0.318	-16.402	-26596	2403.6	-0.64172	-0.70916	0.29085
0.32	-16.407	-26594	2403.6	-0.64123	-0.70945	0.29036
0.322	-16.404	-26592	2403.7	-0.64074	-0.70975	0.28987
0.324	-16.405	-26590	2403.8	-0.64026	-0.71004	0.28938
0.326	-16.409	-26588	2403.8	-0.63977	-0.70984	0.28919
0.328	-16.413	-26593	2403.9	-0.63928	-0.70965	0.28899
0.33	-16.405	-26598	2403.9	-0.63879	-0.70945	0.2888
0.332	-16.399	-26596	2403.9	-0.6383	-0.70926	0.2886
0.334	-16.403	-26594	2404	-0.63782	-0.70906	0.28841
0.336	-16.408	-26593	2404	-0.63821	-0.70877	0.28831
0.338	-16.411	-26592	2404	-0.6386	-0.70848	0.28821
0.34	-16.412	-26587	2404.1	-0.63899	-0.70819	0.28812
0.342	-16.409	-26582	2404.1	-0.63938	-0.70789	0.28802
0.344	-16.406	-26585	2404.2	-0.63977	-0.7076	0.28792
0.346	-16.408	-26588	2404.2	-0.63967	-0.70819	0.28743
0.348	-16.413	-26587	2404.2	-0.63957	-0.70877	0.28694
0.35	-16.42	-26587	2404.2	-0.63948	-0.70936	0.28646
0.352	-16.422	-26586	2404.1	-0.63938	-0.70994	0.28597
0.354	-16.417	-26585	2404.1	-0.63928	-0.71053	0.28548
0.356	-16.406	-26588	2404.1	-0.63967	-0.70926	0.28577
0.358	-16.398	-26590	2404.1	-0.64006	-0.70799	0.28607
0.36	-16.404	-26590	2404	-0.64045	-0.70672	0.28636
0.362	-16.413	-26590	2403.9	-0.64084	-0.70545	0.28665
0.364	-16.413	-26586	2403.9	-0.64123	-0.70418	0.28694
0.366	-16.411	-26582	2403.8	-0.64211	-0.7035	0.28685
0.368	-16.407	-26579	2403.7	-0.64299	-0.70282	0.28675
0.37	-16.41	-26575	2403.6	-0.64387	-0.70213	0.28665
0.372	-16.411	-26580	2403.5	-0.64475	-0.70145	0.28655
0.374	-16.403	-26586	2403.3	-0.64562	-0.70077	0.28646
0.376	-16.393	-26587	2403.1	-0.64572	-0.70087	0.28694
0.378	-16.404	-26588	2403	-0.64582	-0.70096	0.28743
0.38	-16.404	-26589	2402.8	-0.64592	-0.70106	0.28792
0.382	-16.405	-26590	2402.6	-0.64601	-0.70116	0.28841
0.384	-16.407	-26587	2402.3	-0.64611	-0.70126	0.2889
0.386	-16.411	-26585	2402.1	-0.64728	-0.70204	0.28938
0.388	-16.414	-26578	2401.8	-0.64845	-0.70282	0.28987
0.39	-16.416	-26572	2401.5	-0.64963	-0.7036	0.29036
0.392	-16.414	-26580	2401.3	-0.6508	-0.70438	0.29085
0.394	-16.416	-26588	2401	-0.65197	-0.70516	0.29134
0.396	-16.41	-26584	2400.7	-0.65089	-0.70389	0.29143
0.398	-16.409	-26580	2400.4	-0.64982	-0.70262	0.29153
0.4	-16.41	-26578	2400.1	-0.64875	-0.70135	0.29163
0.402	-16.401	-26576	2399.8	-0.64767	-0.70008	0.29173
0.404	-16.395	-26575	2399.5	-0.6466	-0.69882	0.29182
0.406	-16.393	-26574	2399.2	-0.6465	-0.69891	0.29212
0.408	-16.397	-26579	2398.9	-0.6464	-0.69901	0.29241
0.41	-16.397	-26584	2398.6	-0.64631	-0.69911	0.2927
0.412	-16.398	-26584	2398.3	-0.64621	-0.69921	0.293
0.414	-16.398	-26585	2398.1	-0.64611	-0.6993	0.29329
0.416	-16.398	-26586	2397.8	-0.6464	-0.6995	0.29348
0.418	-16.396	-26587	2397.6	-0.6467	-0.69969	0.29368
0.42	-16.398	-26586	2397.4	-0.64699	-0.69989	0.29387
0.422	-16.404	-26586	2397.2	-0.64728	-0.70008	0.29407
0.424	-16.406	-26591	2397	-0.64758	-0.70028	0.29426
0.426	-16.404	-26596	2396.9	-0.64738	-0.70067	0.29426
0.428	-16.405	-26596	2396.8	-0.64719	-0.70106	0.29426
0.43	-16.406	-26595	2396.8	-0.64699	-0.70145	0.29426
0.432	-16.403	-26600	2396.7	-0.6468	-0.70184	0.29426
0.434	-16.395	-26605	2396.7	-0.6466	-0.70223	0.29426
0.436	-16.389	-26602	2396.7	-0.64611	-0.70155	0.29417
0.438	-16.39	-26599	2396.6	-0.64562	-0.70087	0.29407
0.44	-16.392	-26596	2396.6	-0.64514	-0.70018	0.29397
0.442	-16.392	-26594	2396.7	-0.64465	-0.6995	0.29387
0.444	-16.395	-26593	2396.7	-0.64416	-0.69882	0.29378
0.446	-16.398	-26592	2396.7	-0.64494	-0.69999	0.29339
0.448	-16.395	-26591	2396.8	-0.64572	-0.70116	0.293
0.45	-16.394	-26591	2396.9	-0.6465	-0.70233	0.2926
0.452	-16.395	-26594	2397	-0.64728	-0.7035	0.29221
0.454	-16.396	-26598	2397.1	-0.64806	-0.70467	0.29182
0.456	-16.4	-26600	2397.1	-0.64826	-0.70496	0.29134
0.458	-16.401	-26601	2397.2	-0.64845	-0.70526	0.29085
0.46	-16.403	-26597	2397.3	-0.64865	-0.70555	0.29036
0.462	-16.407	-26592	2397.3	-0.64884	-0.70584	0.28987
0.464	-16.403	-26599	2397.4	-0.64904	-0.70614	0.28938
0.466	-16.406	-26606	2397.5	-0.64884	-0.70594	0.29036
0.468	-16.407	-26606	2397.6	-0.64865	-0.70575	0.29134
0.47	-16.412	-26607	2397.6	-0.64845	-0.70555	0.29231
0.472	-16.407	-26606	2397.7	-0.64826	-0.70536	0.29329
0.474	-16.396	-26606	2397.7	-0.64806	-0.70516	0.29426
0.476	-16.395	-26598	2397.8	-0.64767	-0.70594	0.2929
0.478	-16.404	-26589	2397.8	-0.64728	-0.70672	0.29153
0.48	-16.394	-26594	2397.8	-0.64689	-0.7075	0.29016
0.482	-16.399	-26598	2397.9	-0.6465	-0.70828	0.2888
0.484	-16.408	-26602	2397.9	-0.64611	-0.70906	0.28743
0.486	-16.411	-26606	2398	-0.64631	-0.7078	0.28792
0.488	-16.403	-26604	2398	-0.6465	-0.70653	0.28841
0.49	-16.403	-26602	2398	-0.6467	-0.70526	0.2889
0.492	-16.409	-26602	2398.1	-0.64689	-0.70399	0.28938
0.494	-16.413	-26602	2398.1	-0.64709	-0.70272	0.28987
0.496	-16.414	-26603	2398.1	-0.64738	-0.70282	0.29016
0.498	-16.411	-26603	2398.2	-0.64767	-0.70292	0.29046
0.5	-16.406	-26601	2398.2	-0.64797	-0.70301	0.29075
0.502	-16.398	-26599	2398.2	-0.64826	-0.70311	0.29104
0.504	-16.399	-26596	2398.3	-0.64855	-0.70321	0.29134
0.506	-16.407	-26592	2398.3	-0.64855	-0.70301	0.29163
0.508	-16.415	-26595	2398.3	-0.64855	-0.70282	0.29192
0.51	-16.415	-26598	2398.3	-0.64855	-0.70262	0.29221
0.512	-16.41	-26599	2398.3	-0.64855	-0.70243	0.29251
0.514	-16.402	-26600	2398.3	-0.64855	-0.70223	0.2928
0.516	-16.4	-26597	2398.3	-0.64767	-0.70252	0.29231
0.518	-16.404	-26593	2398.3	-0.6468	-0.70282	0.29182
0.52	-16.4	-26597	2398.3	-0.64592	-0.70311	0.29134
0.522	-16.397	-26600	2398.3	-0.64504	-0.7034	0.29085
0.524	-16.402	-26593	2398.4	-0.64416	-0.7037	0.29036
0.526	-16.406	-26587	2398.3	-0.64348	-0.70321	0.29007
0.528	-16.406	-26588	2398.3	-0.64279	-0.70272	0.28977
0.53	-16.405	-26590	2398.2	-0.64211	-0.70223	0.28948
0.532	-16.403	-26591	2398.2	-0.64143	-0.70174	0.28919
0.534	-16.41	-26592	2398.2	-0.64074	-0.70126	0.2889
0.536	-16.413	-26591	2398.1	-0.63987	-0.70223	0.28772
0.538	-16.415	-26590	2398.1	-0.63899	-0.70321	0.28655
0.54	-16.413	-26594	2398	-0.63811	-0.70418	0.28538
0.542	-16.41	-26599	2398	-0.63723	-0.70516	0.28421
0.544	-16.405	-26595	2397.9	-0.63635	-0.70614	0.28304
0.546	-16.403	-26592	2397.9	-0.63547	-0.70536	0.28372
0.548	-16.402	-26592	2397.9	-0.6346	-0.70457	0.28441
0.55	-16.408	-26593	2397.8	-0.63372	-0.70379	0.28509
0.552	-16.405	-26595	2397.8	-0.63284	-0.70301	0.28577
0.554	-16.406	-26596	2397.8	-0.63196	-0.70223	0.28646
0.556	-16.411	-26595	2397.7	-0.63362	-0.7034	0.28528
0.558	-16.415	-26593	2397.7	-0.63528	-0.70457	0.28411
0.56	-16.42	-26596	2397.7	-0.63694	-0.70575	0.28294
0.562	-16.423	-26598	2397.6	-0.6386	-0.70692	0.28177
0.564	-16.42	-26598	2397.6	-0.64026	-0.70809	0.2806
0.566	-16.416	-26598	2397.6	-0.64035	-0.70809	0.2807
0.568	-16.41	-26598	2397.5	-0.64045	-0.70809	0.2808
0.57	-16.406	-26598	2397.5	-0.64055	-0.70809	0.28089
0.572	-16.407	-26593	2397.5	-0.64065	-0.70809	0.28099
0.574	-16.41	-26588	2397.4	-0.64074	-0.70809	0.28109
0.576	-16.402	-26594	2397.4	-0.64006	-0.70828	0.28177
0.578	-16.401	-26601	2397.3	-0.63938	-0.70848	0.28245
0.58	-16.403	-26599	2397.3	-0.63869	-0.70867	0.28314
0.582	-16.402	-26597	2397.2	-0.63801	-0.70887	0.28382
0.584	-16.396	-26591	2397.1	-0.63733	-0.70906	0.2845
0.586	-16.396	-26586	2397.1	-0.6383	-0.70877	0.2846
0.588	-16.397	-26584	2397	-0.63928	-0.70848	0.2847
0.59	-16.399	-26583	2396.9	-0.64026	-0.70819	0.2848
0.592	-16.399	-26589	2396.8	-0.64123	-0.70789	0.28489
0.594	-16.403	-26594	2396.8	-0.64221	-0.7076	0.28499
0.596	-16.408	-26592	2396.7	-0.64182	-0.70731	0.28519
0.598	-16.413	-26591	2396.6	-0.64143	-0.70701	0.28538
0.6	-16.421	-26589	2396.5	-0.64104	-0.70672	0.28558
0.602	-16.429	-26587	2396.4	-0.64065	-0.70643	0.28577
0.604	-16.429	-26591	2396.3	-0.64026	-0.70614	0.28597
0.606	-16.421	-26595	2396.1	-0.64006	-0.70672	0.28607
0.608	-16.416	-26596	2396	-0.63987	-0.70731	0.28616
0.61	-16.416	-26597	2395.9	-0.63967	-0.70789	0.28626
0.612	-16.421	-26596	2395.7	-0.63948	-0.70848	0.28636
0.614	-16.419	-26596	2395.6	-0.63928	-0.70906	0.28646
0.616	-16.414	-26598	2395.5	-0.63928	-0.70877	0.28714
0.618	-16.415	-26599	2395.4	-0.63928	-0.70848	0.28782
0.62	-16.407	-26598	2395.3	-0.63928	-0.70819	0.28851
0.622	-16.404	-26597	2395.2	-0.63928	-0.70789	0.28919
0.624	-16.41	-26596	2395.1	-0.63928	-0.7076	0.28987
0.626	-16.413	-26595	2395	-0.64084	-0.70682	0.29065
0.628	-16.418	-26596	2394.9	-0.6424	-0.70604	0.29143
0.63	-16.413	-26598	2394.8	-0.64396	-0.70526	0.29221
0.632	-16.405	-26600	2394.8	-0.64553	-0.70448	0.293
0.634	-16.405	-26602	2394.7	-0.64709	-0.7037	0.29378
0.636	-16.413	-26603	2394.6	-0.64719	-0.7034	0.29387
0.638	-16.421	-26604	2394.6	-0.64728	-0.70311	0.29397
0.64	-16.431	-26604	2394.5	-0.64738	-0.70282	0.29407
0.642	-16.431	-26604	2394.4	-0.64748	-0.70252	0.29417
0.644	-16.423	-26603	2394.4	-0.64758	-0.70223	0.29426
0.646	-16.419	-26602	2394.3	-0.64806	-0.70321	0.29319
0.648	-16.41	-26599	2394.2	-0.64855	-0.70418	0.29212
0.65	-16.406	-26595	2394.2	-0.64904	-0.70516	0.29104
0.652	-16.404	-26594	2394.1	-0.64953	-0.70614	0.28997
0.654	-16.406	-26592	2394	-0.65002	-0.70711	0.2889
0.656	-16.399	-26593	2393.9	-0.64855	-0.70623	0.2888
0.658	-16.414	-26595	2393.8	-0.64709	-0.70536	0.2887
0.66	-16.427	-26597	2393.8	-0.64562	-0.70448	0.2886
0.662	-16.428	-26599	2393.7	-0.64416	-0.7036	0.28851
0.664	-16.42	-26602	2393.7	-0.6427	-0.70272	0.28841
0.666	-16.416	-26606	2393.6	-0.64299	-0.70233	0.28909
0.668	-16.409	-26605	2393.5	-0.64328	-0.70194	0.28977
0.67	-16.403	-26604	2393.4	-0.64357	-0.70155	0.29046
0.672	-16.406	-26602	2393.3	-0.64387	-0.70116	0.29114
0.674	-16.409	-26599	2393.2	-0.64416	-0.70077	0.29182
0.676	-16.409	-26600	2393.1	-0.64426	-0.70087	0.29114
0.678	-16.408	-26600	2393	-0.64436	-0.70096	0.29046
0.68	-16.404	-26599	2392.9	-0.64445	-0.70106	0.28977
0.682	-16.402	-26599	2392.8	-0.64455	-0.70116	0.28909
0.684	-16.397	-26598	2392.7	-0.64465	-0.70126	0.28841
0.686	-16.387	-26597	2392.7	-0.64494	-0.70106	0.28938
0.688	-16.378	-26602	2392.6	-0.64523	-0.70087	0.29036
0.69	-16.374	-26607	2392.5	-0.64553	-0.70067	0.29134
0.692	-16.372	-26607	2392.4	-0.64582	-0.70048	0.29231
0.694	-16.368	-26607	2392.3	-0.64611	-0.70028	0.29329
0.696	-16.367	-26605	2392.3	-0.64553	-0.70077	0.29221
0.698	-16.367	-26602	2392.2	-0.64494	-0.70126	0.29114
0.7	-16.365	-26602	2392.1	-0.64436	-0.70174	0.29007
0.702	-16.361	-26602	2392	-0.64377	-0.70223	0.28899
0.704	-16.362	-26601	2391.9	-0.64318	-0.70272	0.28792
0.706	-16.365	-26601	2391.9	-0.64406	-0.70292	0.2886
0.708	-16.36	-26597	2391.8	-0.64494	-0.70311	0.28929
0.71	-16.357	-26593	2391.7	-0.64582	-0.70331	0.28997
0.712	-16.368	-26597	2391.7	-0.6467	-0.7035	0.29065
0.714	-16.371	-26600	2391.6	-0.64758	-0.7037	0.29134
0.716	-16.366	-26601	2391.6	-0.64748	-0.70301	0.29182
0.718	-16.364	-26602	2391.6	-0.64738	-0.70233	0.29231
0.72	-16.369	-26600	2391.5	-0.64728	-0.70165	0.2928
0.722	-16.37	-26598	2391.5	-0.64719	-0.70096	0.29329
0.724	-16.366	-26595	2391.4	-0.64709	-0.70028	0.29378
0.726	-16.351	-26593	2391.4	-0.64738	-0.70077	0.29358
0.728	-16.336	-26595	2391.3	-0.64767	-0.70126	0.29339
0.73	-16.344	-26596	2391.3	-0.64797	-0.70174	0.29319
0.732	-16.359	-26599	2391.2	-0.64826	-0.70223	0.293
0.734	-16.368	-26601	2391.2	-0.64855	-0.70272	0.2928
0.736	-16.381	-26601	2391.2	-0.64797	-0.70243	0.2926
0.738	-16.394	-26601	2391.2	-0.64738	-0.70213	0.29241
0.74	-16.405	-26602	2391.2	-0.6468	-0.70184	0.29221
0.742	-16.419	-26603	2391.1	-0.64621	-0.70155	0.29202
0.744	-16.427	-26603	2391.1	-0.64562	-0.70126	0.29182
0.746	-16.425	-26603	2391.1	-0.64582	-0.70116	0.29221
0.748	-16.419	-26604	2391.1	-0.64601	-0.70106	0.2926
0.75	-16.415	-26604	2391.1	-0.64621	-0.70096	0.293
0.752	-16.413	-26606	2391.1	-0.6464	-0.70087	0.29339
0.754	-16.416	-26607	2391.1	-0.6466	-0.70077	0.29378
0.756	-16.42	-26600	2391	-0.6465	-0.70116	0.29309
0.758	-16.421	-26594	2391	-0.6464	-0.70155	0.29241
0.76	-16.421	-26599	2390.9	-0.64631	-0.70194	0.29173
0.762	-16.421	-26604	2390.9	-0.64621	-0.70233	0.29104
0.764	-16.417	-26605	2390.9	-0.64611	-0.70272	0.29036
0.766	-16.414	-26606	2390.9	-0.64621	-0.7036	0.29036
0.768	-16.42	-26605	2390.8	-0.64631	-0.70448	0.29036
0.77	-16.43	-26603	2390.8	-0.6464	-0.70536	0.29036
0.772	-16.435	-26605	2390.8	-0.6465	-0.70623	0.29036
0.774	-16.431	-26606	2390.8	-0.6466	-0.70711	0.29036
0.776	-16.426	-26607	2390.8	-0.64582	-0.70692	0.28977
0.778	-16.425	-26608	2390.7	-0.64504	-0.70672	0.28919
0.78	-16.423	-26604	2390.7	-0.64426	-0.70653	0.2886
0.782	-16.411	-26600	2390.7	-0.64348	-0.70633	0.28802
0.784	-16.402	-26602	2390.7	-0.6427	-0.70614	0.28743
0.786	-16.403	-26604	2390.7	-0.64192	-0.70672	0.28724
0.788	-16.406	-26609	2390.7	-0.64113	-0.70731	0.28704
0.79	-16.407	-26614	2390.7	-0.64035	-0.70789	0.28685
0.792	-16.402	-26605	2390.7	-0.63957	-0.70848	0.28665
0.794	-16.396	-26596	2390.8	-0.63879	-0.70906	0.28646
0.796	-16.395	-26594	2390.8	-0.6386	-0.70936	0.28685
0.798	-16.403	-26593	2390.8	-0.6384	-0.70965	0.28724
0.8	-16.4	-26595	2390.8	-0.63821	-0.70994	0.28763
0.802	-16.392	-26597	2390.8	-0.63801	-0.71024	0.28802
0.804	-16.399	-26599	2390.8	-0.63782	-0.71053	0.28841
0.806	-16.395	-26601	2390.8	-0.64016	-0.70975	0.2889
0.808	-16.385	-26602	2390.8	-0.6425	-0.70897	0.28938
0.81	-16.37	-26603	2390.8	-0.64484	-0.70819	0.28987
0.812	-16.362	-26608	2390.9	-0.64719	-0.7074	0.29036
0.814	-16.339	-26613	2390.9	-0.64953	-0.70662	0.29085
0.816	-16.326	-26608	2390.9	-0.64836	-0.70614	0.29026
0.818	-16.327	-26602	2390.9	-0.64719	-0.70565	0.28968
0.82	-16.344	-26603	2390.9	-0.64601	-0.70516	0.28909
0.822	-16.355	-26604	2390.9	-0.64484	-0.70467	0.28851
0.824	-16.385	-26608	2390.9	-0.64367	-0.70418	0.28792
0.826	-16.428	-26611	2390.9	-0.64416	-0.7034	0.2889
0.828	-16.477	-26605	2390.9	-0.64465	-0.70262	0.28987
0.83	-16.519	-26598	2390.9	-0.64514	-0.70184	0.29085
0.832	-16.555	-26600	2390.9	-0.64562	-0.70106	0.29182
0.834	-16.584	-26602	2390.9	-0.64611	-0.70028	0.2928
0.836	-16.605	-26600	2390.8	-0.6467	-0.70087	0.29319
0.838	-16.604	-26597	2390.8	-0.64728	-0.70145	0.29358
0.84	-16.587	-26598	2390.7	-0.64787	-0.70204	0.29397
0.842	-16.57	-26598	2390.7	-0.64845	-0.70262	0.29436
0.844	-16.549	-26600	2390.6	-0.64904	-0.70321	0.29475
0.846	-16.524	-26601	2390.6	-0.64865	-0.70301	0.29465
0.848	-16.498	-26602	2390.5	-0.64826	-0.70282	0.29456
0.85	-16.473	-26604	2390.5	-0.64787	-0.70262	0.29446
0.852	-16.449	-26602	2390.4	-0.64748	-0.70243	0.29436
0.854	-16.431	-26599	2390.3	-0.64709	-0.70223	0.29426
0.856	-16.422	-26594	2390.3	-0.64777	-0.70223	0.29387
0.858	-16.418	-26589	2390.2	-0.64845	-0.70223	0.29348
0.86	-16.416	-26589	2390.2	-0.64914	-0.70223	0.29309
0.862	-16.416	-26589	2390.1	-0.64982	-0.70223	0.2927
0.864	-16.417	-26593	2390.1	-0.6505	-0.70223	0.29231
0.866	-16.424	-26598	2390	-0.65002	-0.70204	0.29231
0.868	-16.429	-26596	2390	-0.64953	-0.70184	0.29231
0.87	-16.418	-26593	2389.9	-0.64904	-0.70165	0.29231
0.872	-16.404	-26595	2389.9	-0.64855	-0.70145	0.29231
0.874	-16.392	-26597	2389.8	-0.64806	-0.70126	0.29231
0.876	-16.384	-26597	2389.8	-0.64806	-0.70194	0.29192
0.878	-16.392	-26597	2389.8	-0.64806	-0.70262	0.29153
0.88	-16.404	-26598	2389.7	-0.64806	-0.70331	0.29114
0.882	-16.407	-26600	2389.7	-0.64806	-0.70399	0.29075
0.884	-16.416	-26598	2389.7	-0.64806	-0.70467	0.29036
0.886	-16.42	-26597	2389.7	-0.6465	-0.70506	0.2886
0.888	-16.419	-26594	2389.8	-0.64494	-0.70545	0.28685
0.89	-16.422	-26591	2389.8	-0.64338	-0.70584	0.28509
0.892	-16.418	-26591	2389.8	-0.64182	-0.70623	0.28333
0.894	-16.412	-26592	2389.8	-0.64026	-0.70662	0.28158
0.896	-16.416	-26589	2389.8	-0.64084	-0.70662	0.28138
0.898	-16.408	-26585	2389.9	-0.64143	-0.70662	0.28119
0.9	-16.401	-26589	2389.9	-0.64201	-0.70662	0.28099
0.902	-16.403	-26594	2389.9	-0.6426	-0.70662	0.2808
0.904	-16.416	-26594	2390	-0.64318	-0.70662	0.2806
0.906	-16.425	-26594	2390	-0.6426	-0.70731	0.28206
0.908	-16.423	-26594	2390	-0.64201	-0.70799	0.28353
0.91	-16.414	-26594	2390	-0.64143	-0.70867	0.28499
0.912	-16.408	-26593	2390	-0.64084	-0.70936	0.28646
0.914	-16.414	-26593	2390	-0.64026	-0.71004	0.28792
0.916	-16.412	-26593	2390	-0.64074	-0.70926	0.28792
0.918	-16.408	-26594	2389.9	-0.64123	-0.70848	0.28792
0.92	-16.412	-26591	2389.9	-0.64172	-0.7077	0.28792
0.922	-16.409	-26587	2389.7	-0.64221	-0.70692	0.28792
0.924	-16.409	-26592	2389.6	-0.6427	-0.70614	0.28792
0.926	-16.411	-26597	2389.4	-0.64182	-0.70682	0.28792
0.928	-16.412	-26593	2389.3	-0.64094	-0.7075	0.28792
0.93	-16.409	-26589	2389.1	-0.64006	-0.70819	0.28792
0.932	-16.41	-26594	2389	-0.63918	-0.70887	0.28792
0.934	-16.414	-26600	2388.8	-0.6383	-0.70955	0.28792
0.936	-16.409	-26597	2388.6	-0.63752	-0.70945	0.28763
0.938	-16.401	-26594	2388.4	-0.63674	-0.70936	0.28733
0.94	-16.404	-26595	2388.2	-0.63596	-0.70926	0.28704
0.942	-16.407	-26596	2388	-0.63518	-0.70916	0.28675
0.944	-16.406	-26595	2387.8	-0.6344	-0.70906	0.28646
0.946	-16.41	-26594	2387.6	-0.6343	-0.7078	0.28655
0.948	-16.416	-26594	2387.4	-0.6342	-0.70653	0.28665
0.95	-16.418	-26594	2387.2	-0.63411	-0.70526	0.28675
0.952	-16.42	-26594	2387	-0.63401	-0.70399	0.28685
0.954	-16.42	-26594	2386.7	-0.63391	-0.70272	0.28694
0.956	-16.415	-26597	2386.6	-0.63391	-0.7036	0.28743
0.958	-16.396	-26600	2386.4	-0.63391	-0.70448	0.28792
0.96	-16.385	-26603	2386.2	-0.63391	-0.70536	0.28841
0.962	-16.391	-26607	2386	-0.63391	-0.70623	0.2889
0.964	-16.395	-26604	2385.8	-0.63391	-0.70711	0.28938
0.966	-16.391	-26601	2385.6	-0.63469	-0.70682	0.28987
0.968	-16.386	-26595	2385.5	-0.63547	-0.70653	0.29036
0.97	-16.388	-26588	2385.4	-0.63625	-0.70623	0.29085
0.972	-16.391	-26594	2385.3	-0.63704	-0.70594	0.29134
0.974	-16.392	-26600	2385.2	-0.63782	-0.70565	0.29182
0.976	-16.39	-26600	2385.2	-0.63596	-0.70555	0.29065
0.978	-16.389	-26600	2385.2	-0.63411	-0.70545	0.28948
0.98	-16.392	-26599	2385.1	-0.63225	-0.70536	0.28831
0.982	-16.391	-26598	2385.2	-0.6304	-0.70526	0.28714
0.984	-16.393	-26594	2385.2	-0.62854	-0.70516	0.28597
0.986	-16.387	-26589	2385.3	-0.62923	-0.70575	0.28616
0.988	-16.386	-26587	2385.4	-0.62991	-0.70633	0.28636
0.99	-16.39	-26584	2385.6	-0.63059	-0.70692	0.28655
0.992	-16.388	-26589	2385.7	-0.63128	-0.7075	0.28675
0.994	-16.378	-26594	2385.9	-0.63196	-0.70809	0.28694
0.996	-16.377	-26595	2386.2	-0.63469	-0.70897	0.28831
0.998	-16.37	-26597	2386.4	-0.63743	-0.70984	0.28968
1	-16.368	-26595	2386.7	-0.64016	-0.71072	0.29104
1.002	-16.37	-26593	2387	-0.64289	-0.7116	0.29241
1.004	-16.365	-26598	2387.3	-0.64562	-0.71248	0.29378
1.006	-16.362	-26602	2387.7	-0.64699	-0.71365	0.29368
1.008	-16.364	-26601	2388	-0.64836	-0.71482	0.29358
1.01	-16.367	-26601	2388.4	-0.64972	-0.71599	0.29348
1.012	-16.367	-26600	2388.8	-0.65109	-0.71716	0.29339
1.014	-16.361	-26600	2389.2	-0.65246	-0.71834	0.29329
1.016	-16.356	-26596	2389.6	-0.65363	-0.71726	0.29339
1.018	-16.352	-26593	2390	-0.6548	-0.71619	0.29348
1.02	-16.35	-26589	2390.4	-0.65597	-0.71512	0.29358
1.022	-16.349	-26585	2390.9	-0.65714	-0.71404	0.29368
1.024	-16.345	-26591	2391.3	-0.65831	-0.71297	0.29378
1.026	-16.338	-26597	2391.7	-0.65851	-0.71189	0.29358
1.028	-16.334	-26593	2392.1	-0.6587	-0.71082	0.29339
1.03	-16.334	-26589	2392.6	-0.6589	-0.70975	0.29319
1.032	-16.332	-26590	2393	-0.65909	-0.70867	0.293
1.034	-16.332	-26591	2393.4	-0.65929	-0.7076	0.2928
1.036	-16.329	-26588	2393.8	-0.65724	-0.7076	0.29153
1.038	-16.326	-26586	2394.2	-0.65519	-0.7076	0.29026
1.04	-16.328	-26584	2394.6	-0.65314	-0.7076	0.28899
1.042	-16.327	-26581	2395	-0.65109	-0.7076	0.28772
1.044	-16.318	-26579	2395.4	-0.64904	-0.7076	0.28646
1.046	-16.317	-26576	2395.8	-0.64953	-0.70643	0.28763
1.048	-16.313	-26575	2396.1	-0.65002	-0.70526	0.2888
1.05	-16.309	-26573	2396.4	-0.6505	-0.70409	0.28997
1.052	-16.315	-26577	2396.8	-0.65099	-0.70292	0.29114
1.054	-16.318	-26581	2397.1	-0.65148	-0.70174	0.29231
1.056	-16.314	-26589	2397.4	-0.6508	-0.70135	0.2926
1.058	-16.32	-26598	2397.7	-0.65011	-0.70096	0.2929
1.06	-16.316	-26592	2398	-0.64943	-0.70057	0.29319
1.062	-16.312	-26586	2398.3	-0.64875	-0.70018	0.29348
1.064	-16.307	-26588	2398.6	-0.64806	-0.69979	0.29378
1.066	-16.296	-26590	2398.9	-0.64738	-0.69989	0.29397
1.068	-16.288	-26588	2399.2	-0.6467	-0.69999	0.29417
1.07	-16.292	-26586	2399.5	-0.64601	-0.70008	0.29436
1.072	-16.299	-26582	2399.7	-0.64533	-0.70018	0.29456
1.074	-16.305	-26579	2400	-0.64465	-0.70028	0.29475
1.076	-16.311	-26581	2400.2	-0.64416	-0.69979	0.29514
1.078	-16.309	-26584	2400.5	-0.64367	-0.6993	0.29553
1.08	-16.311	-26575	2400.8	-0.64318	-0.69882	0.29592
1.082	-16.32	-26567	2401	-0.6427	-0.69833	0.29631
1.084	-16.317	-26565	2401.3	-0.64221	-0.69784	0.2967
1.086	-16.307	-26564	2401.5	-0.64201	-0.69823	0.29641
1.088	-16.307	-26566	2401.6	-0.64182	-0.69862	0.29612
1.09	-16.313	-26568	2401.8	-0.64162	-0.69901	0.29583
1.092	-16.313	-26568	2402	-0.64143	-0.6994	0.29553
1.094	-16.313	-26569	2402.2	-0.64123	-0.69979	0.29524
1.096	-16.323	-26567	2402.4	-0.64045	-0.70165	0.29417
1.098	-16.321	-26566	2402.6	-0.63967	-0.7035	0.29309
1.1	-16.317	-26570	2402.8	-0.63889	-0.70536	0.29202
1.102	-16.322	-26573	2403	-0.63811	-0.70721	0.29095
1.104	-16.332	-26572	2403.2	-0.63733	-0.70906	0.28987
1.106	-16.342	-26572	2403.3	-0.63684	-0.7077	0.29065
1.108	-16.35	-26569	2403.4	-0.63635	-0.70633	0.29143
1.11	-16.352	-26567	2403.5	-0.63586	-0.70496	0.29221
1.112	-16.353	-26561	2403.6	-0.63538	-0.7036	0.293
1.114	-16.355	-26555	2403.7	-0.63489	-0.70223	0.29378
1.116	-16.358	-26559	2403.9	-0.63469	-0.70321	0.2927
1.118	-16.363	-26564	2404	-0.6345	-0.70418	0.29163
1.12	-16.365	-26562	2404.1	-0.6343	-0.70516	0.29056
1.122	-16.36	-26560	2404.2	-0.63411	-0.70614	0.28948
1.124	-16.362	-26560	2404.4	-0.63391	-0.70711	0.28841
1.126	-16.366	-26561	2404.5	-0.63303	-0.70701	0.28841
1.128	-16.371	-26559	2404.6	-0.63216	-0.70692	0.28841
1.13	-16.378	-26557	2404.7	-0.63128	-0.70682	0.28841
1.132	-16.384	-26553	2404.8	-0.6304	-0.70672	0.28841
1.134	-16.39	-26548	2404.9	-0.62952	-0.70662	0.28841
1.136	-16.387	-26543	2404.9	-0.63011	-0.70662	0.28812
1.138	-16.382	-26538	2405	-0.63069	-0.70662	0.28782
1.14	-16.379	-26545	2405	-0.63128	-0.70662	0.28753
1.142	-16.379	-26551	2405.1	-0.63186	-0.70662	0.28724
1.144	-16.383	-26550	2405.1	-0.63245	-0.70662	0.28694
1.146	-16.388	-26548	2405.1	-0.63274	-0.70721	0.28694
1.148	-16.386	-26548	2405.2	-0.63303	-0.7078	0.28694
1.15	-16.383	-26549	2405.2	-0.63333	-0.70838	0.28694
1.152	-16.393	-26548	2405.3	-0.63362	-0.70897	0.28694
1.154	-16.406	-26547	2405.3	-0.63391	-0.70955	0.28694
1.156	-16.401	-26548	2405.3	-0.63704	-0.71033	0.28841
1.158	-16.391	-26549	2405.3	-0.64016	-0.71111	0.28987
1.16	-16.386	-26548	2405.3	-0.64328	-0.71189	0.29134
1.162	-16.381	-26548	2405.4	-0.6464	-0.71268	0.2928
1.164	-16.385	-26547	2405.4	-0.64953	-0.71346	0.29426
1.166	-16.384	-26547	2405.4	-0.65021	-0.71414	0.29475
1.168	-16.39	-26543	2405.4	-0.65089	-0.71482	0.29524
1.17	-16.401	-26538	2405.4	-0.65158	-0.71551	0.29573
1.172	-16.397	-26546	2405.3	-0.65226	-0.71619	0.29622
1.174	-16.392	-26554	2405.3	-0.65294	-0.71687	0.2967
1.176	-16.401	-26545	2405.2	-0.65236	-0.71609	0.29622
1.178	-16.398	-26537	2405.2	-0.65177	-0.71531	0.29573
1.18	-16.392	-26536	2405.1	-0.65119	-0.71453	0.29524
1.182	-16.386	-26535	2405	-0.6506	-0.71375	0.29475
1.184	-16.385	-26535	2404.9	-0.65002	-0.71297	0.29426
1.186	-16.39	-26534	2404.7	-0.64933	-0.71199	0.293
1.188	-16.392	-26537	2404.6	-0.64865	-0.71102	0.29173
1.19	-16.394	-26540	2404.4	-0.64797	-0.71004	0.29046
1.192	-16.395	-26536	2404.3	-0.64728	-0.70906	0.28919
1.194	-16.394	-26532	2404.1	-0.6466	-0.70809	0.28792
1.196	-16.394	-26538	2403.9	-0.64475	-0.70838	0.28753
1.198	-16.392	-26545	2403.6	-0.64289	-0.70867	0.28714
1.2	-16.391	-26538	2403.4	-0.64104	-0.70897	0.28675
1.202	-16.393	-26531	2403.2	-0.63918	-0.70926	0.28636
1.204	-16.391	-26533	2403	-0.63733	-0.70955	0.28597
1.206	-16.389	-26535	2402.8	-0.63684	-0.70965	0.28636
1.208	-16.391	-26530	2402.5	-0.63635	-0.70975	0.28675
1.21	-16.394	-26525	2402.3	-0.63586	-0.70984	0.28714
1.212	-16.397	-26531	2402.1	-0.63538	-0.70994	0.28753
1.214	-16.398	-26537	2401.9	-0.63489	-0.71004	0.28792
1.216	-16.4	-26540	2401.6	-0.63411	-0.70848	0.28802
1.218	-16.39	-26544	2401.4	-0.63333	-0.70692	0.28812
1.22	-16.375	-26541	2401.1	-0.63255	-0.70536	0.28821
1.222	-16.381	-26538	2400.9	-0.63176	-0.70379	0.28831
1.224	-16.385	-26533	2400.7	-0.63098	-0.70223	0.28841
1.226	-16.384	-26528	2400.5	-0.63176	-0.7037	0.28841
1.228	-16.394	-26534	2400.3	-0.63255	-0.70516	0.28841
1.23	-16.399	-26540	2400.1	-0.63333	-0.70662	0.28841
1.232	-16.388	-26530	2399.9	-0.63411	-0.70809	0.28841
1.234	-16.382	-26519	2399.8	-0.63489	-0.70955	0.28841
1.236	-16.388	-26522	2399.6	-0.63479	-0.70877	0.28851
1.238	-16.398	-26526	2399.5	-0.63469	-0.70799	0.2886
1.24	-16.389	-26532	2399.4	-0.6346	-0.70721	0.2887
1.242	-16.391	-26538	2399.3	-0.6345	-0.70643	0.2888
1.244	-16.393	-26533	2399.2	-0.6344	-0.70565	0.2889
1.246	-16.397	-26528	2399.2	-0.6343	-0.70575	0.28851
1.248	-16.38	-26534	2399.1	-0.6342	-0.70584	0.28812
1.25	-16.377	-26539	2399.1	-0.63411	-0.70594	0.28772
1.252	-16.387	-26540	2399	-0.63401	-0.70604	0.28733
1.254	-16.39	-26542	2399	-0.63391	-0.70614	0.28694
1.256	-16.383	-26541	2399	-0.6344	-0.7074	0.28636
1.258	-16.386	-26540	2399	-0.63489	-0.70867	0.28577
1.26	-16.394	-26539	2399	-0.63538	-0.70994	0.28519
1.262	-16.392	-26538	2399.1	-0.63586	-0.71121	0.2846
1.264	-16.389	-26539	2399.1	-0.63635	-0.71248	0.28402
1.266	-16.388	-26539	2399.2	-0.63694	-0.71228	0.2848
1.268	-16.386	-26541	2399.2	-0.63752	-0.71209	0.28558
1.27	-16.39	-26543	2399.3	-0.63811	-0.71189	0.28636
1.272	-16.398	-26542	2399.3	-0.63869	-0.7117	0.28714
1.274	-16.397	-26541	2399.4	-0.63928	-0.7115	0.28792
1.276	-16.388	-26550	2399.5	-0.63938	-0.71121	0.28792
1.278	-16.385	-26558	2399.6	-0.63948	-0.71092	0.28792
1.28	-16.386	-26565	2399.7	-0.63957	-0.71063	0.28792
1.282	-16.386	-26572	2399.8	-0.63967	-0.71033	0.28792
1.284	-16.381	-26571	2399.8	-0.63977	-0.71004	0.28792
1.286	-16.375	-26571	2399.9	-0.64045	-0.70877	0.28792
1.288	-16.38	-26563	2400	-0.64113	-0.7075	0.28792
1.29	-16.385	-26556	2400.1	-0.64182	-0.70623	0.28792
1.292	-16.38	-26556	2400.1	-0.6425	-0.70496	0.28792
1.294	-16.382	-26556	2400.2	-0.64318	-0.7037	0.28792
1.296	-16.391	-26560	2400.3	-0.64201	-0.70516	0.28821
1.298	-16.396	-26563	2400.4	-0.64084	-0.70662	0.28851
1.3	-16.402	-26564	2400.4	-0.63967	-0.70809	0.2888
1.302	-16.397	-26566	2400.4	-0.6385	-0.70955	0.28909
1.304	-16.394	-26566	2400.4	-0.63733	-0.71102	0.28938
1.306	-16.394	-26567	2400.5	-0.63821	-0.71033	0.2886
1.308	-16.389	-26568	2400.6	-0.63908	-0.70965	0.28782
1.31	-16.389	-26569	2400.7	-0.63996	-0.70897	0.28704
1.312	-16.383	-26564	2400.7	-0.64084	-0.70828	0.28626
1.314	-16.391	-26559	2400.7	-0.64172	-0.7076	0.28548
1.316	-16.403	-26559	2400.7	-0.64065	-0.70809	0.28568
1.318	-16.4	-26560	2400.7	-0.63957	-0.70858	0.28587
1.32	-16.39	-26563	2400.8	-0.6385	-0.70906	0.28607
1.322	-16.392	-26566	2400.8	-0.63743	-0.70955	0.28626
1.324	-16.39	-26568	2400.8	-0.63635	-0.71004	0.28646
1.326	-16.386	-26570	2400.8	-0.63547	-0.70936	0.28626
1.328	-16.381	-26568	2400.8	-0.6346	-0.70867	0.28607
1.33	-16.39	-26565	2400.8	-0.63372	-0.70799	0.28587
1.332	-16.398	-26564	2400.8	-0.63284	-0.70731	0.28568
1.334	-16.398	-26562	2400.8	-0.63196	-0.70662	0.28548
1.336	-16.39	-26562	2400.9	-0.63284	-0.70643	0.28636
1.338	-16.391	-26562	2400.9	-0.63372	-0.70623	0.28724
1.34	-16.395	-26560	2400.9	-0.6346	-0.70604	0.28812
1.342	-16.402	-26558	2400.9	-0.63547	-0.70584	0.28899
1.344	-16.405	-26558	2400.9	-0.63635	-0.70565	0.28987
1.346	-16.4	-26558	2400.9	-0.6346	-0.70545	0.28909
1.348	-16.39	-26560	2401	-0.63284	-0.70526	0.28831
1.35	-16.387	-26561	2401	-0.63108	-0.70506	0.28753
1.352	-16.385	-26560	2401.1	-0.62932	-0.70487	0.28675
1.354	-16.383	-26560	2401.1	-0.62757	-0.70467	0.28597
1.356	-16.379	-26560	2401.1	-0.62835	-0.70496	0.28626
1.358	-16.38	-26561	2401.1	-0.62913	-0.70526	0.28655
1.36	-16.384	-26559	2401.2	-0.62991	-0.70555	0.28685
1.362	-16.398	-26558	2401.2	-0.63069	-0.70584	0.28714
1.364	-16.409	-26559	2401.3	-0.63147	-0.70614	0.28743
1.366	-16.412	-26560	2401.3	-0.63313	-0.70682	0.28763
1.368	-16.407	-26560	2401.3	-0.63479	-0.7075	0.28782
1.37	-16.399	-26560	2401.3	-0.63645	-0.70819	0.28802
1.372	-16.399	-26556	2401.3	-0.63811	-0.70887	0.28821
1.374	-16.397	-26552	2401.4	-0.63977	-0.70955	0.28841
1.376	-16.398	-26554	2401.4	-0.63811	-0.70926	0.28792
1.378	-16.407	-26557	2401.5	-0.63645	-0.70897	0.28743
1.38	-16.413	-26558	2401.5	-0.63479	-0.70867	0.28694
1.382	-16.408	-26560	2401.5	-0.63313	-0.70838	0.28646
1.384	-16.399	-26562	2401.5	-0.63147	-0.70809	0.28597
1.386	-16.395	-26564	2401.5	-0.63196	-0.70809	0.28597
1.388	-16.389	-26560	2401.5	-0.63245	-0.70809	0.28597
1.39	-16.378	-26557	2401.6	-0.63294	-0.70809	0.28597
1.392	-16.371	-26556	2401.5	-0.63342	-0.70809	0.28597
1.394	-16.388	-26555	2401.5	-0.63391	-0.70809	0.28597
1.396	-16.396	-26557	2401.5	-0.63391	-0.7077	0.28626
1.398	-16.388	-26559	2401.5	-0.63391	-0.70731	0.28655
1.4	-16.39	-26557	2401.5	-0.63391	-0.70692	0.28685
1.402	-16.396	-26556	2401.5	-0.63391	-0.70653	0.28714
1.404	-16.404	-26554	2401.4	-0.63391	-0.70614	0.28743
1.406	-16.407	-26552	2401.4	-0.63547	-0.70662	0.28792
1.408	-16.402	-26552	2401.4	-0.63704	-0.70711	0.28841
1.41	-16.397	-26553	2401.3	-0.6386	-0.7076	0.2889
1.412	-16.409	-26555	2401.2	-0.64016	-0.70809	0.28938
1.414	-16.406	-26556	2401.2	-0.64172	-0.70858	0.28987
1.416	-16.402	-26557	2401.1	-0.64123	-0.70887	0.28919
1.418	-16.41	-26558	2401	-0.64074	-0.70916	0.28851
1.42	-16.413	-26555	2401	-0.64026	-0.70945	0.28782
1.422	-16.409	-26553	2400.9	-0.63977	-0.70975	0.28714
1.424	-16.396	-26551	2400.8	-0.63928	-0.71004	0.28646
1.426	-16.388	-26550	2400.7	-0.63918	-0.71024	0.28704
1.428	-16.39	-26550	2400.6	-0.63908	-0.71043	0.28763
1.43	-16.39	-26550	2400.5	-0.63899	-0.71063	0.28821
1.432	-16.391	-26550	2400.4	-0.63889	-0.71082	0.2888
1.434	-16.395	-26550	2400.3	-0.63879	-0.71102	0.28938
1.436	-16.398	-26551	2400.2	-0.6385	-0.71063	0.28929
1.438	-16.404	-26553	2400.1	-0.63821	-0.71024	0.28919
1.44	-16.412	-26556	2400	-0.63791	-0.70984	0.28909
1.442	-16.414	-26560	2399.8	-0.63762	-0.70945	0.28899
1.444	-16.408	-26559	2399.7	-0.63733	-0.70906	0.2889
1.446	-16.397	-26558	2399.6	-0.63821	-0.70916	0.28929
1.448	-16.395	-26553	2399.5	-0.63908	-0.70926	0.28968
1.45	-16.407	-26548	2399.4	-0.63996	-0.70936	0.29007
1.452	-16.416	-26555	2399.3	-0.64084	-0.70945	0.29046
1.454	-16.413	-26563	2399.2	-0.64172	-0.70955	0.29085
1.456	-16.407	-26561	2399	-0.64016	-0.70984	0.29036
1.458	-16.404	-26560	2398.9	-0.6386	-0.71014	0.28987
1.46	-16.4	-26560	2398.8	-0.63704	-0.71043	0.28938
1.462	-16.404	-26559	2398.7	-0.63547	-0.71072	0.2889
1.464	-16.41	-26552	2398.6	-0.63391	-0.71102	0.28841
1.466	-16.408	-26546	2398.4	-0.63567	-0.71004	0.28899
1.468	-16.402	-26554	2398.3	-0.63743	-0.70906	0.28958
1.47	-16.397	-26562	2398.2	-0.63918	-0.70809	0.29016
1.472	-16.401	-26563	2398.1	-0.64094	-0.70711	0.29075
1.474	-16.392	-26564	2398	-0.6427	-0.70614	0.29134
1.476	-16.386	-26561	2398	-0.64143	-0.70692	0.29095
1.478	-16.395	-26558	2397.9	-0.64016	-0.7077	0.29056
1.48	-16.404	-26557	2397.8	-0.63889	-0.70848	0.29016
1.482	-16.401	-26555	2397.8	-0.63762	-0.70926	0.28977
1.484	-16.396	-26551	2397.7	-0.63635	-0.71004	0.28938
1.486	-16.391	-26547	2397.7	-0.63694	-0.71014	0.28987
1.488	-16.394	-26554	2397.6	-0.63752	-0.71024	0.29036
1.49	-16.394	-26560	2397.6	-0.63811	-0.71033	0.29085
1.492	-16.391	-26561	2397.5	-0.63869	-0.71043	0.29134
1.494	-16.389	-26562	2397.5	-0.63928	-0.71053	0.29182
1.496	-16.394	-26560	2397.4	-0.63948	-0.71102	0.29241
1.498	-16.384	-26558	2397.4	-0.63967	-0.7115	0.293
1.5	-16.384	-26559	2397.4	-0.63987	-0.71199	0.29358
1.502	-16.377	-26560	2397.4	-0.64006	-0.71248	0.29417
1.504	-16.37	-26555	2397.3	-0.64026	-0.71297	0.29475
1.506	-16.368	-26551	2397.3	-0.63938	-0.71268	0.29368
1.508	-16.36	-26550	2397.4	-0.6385	-0.71238	0.2926
1.51	-16.361	-26550	2397.3	-0.63762	-0.71209	0.29153
1.512	-16.366	-26553	2397.3	-0.63674	-0.7118	0.29046
1.514	-16.368	-26555	2397.2	-0.63586	-0.7115	0.28938
1.516	-16.367	-26552	2397.2	-0.63664	-0.71063	0.28909
1.518	-16.361	-26548	2397.2	-0.63743	-0.70975	0.2888
1.52	-16.356	-26548	2397.2	-0.63821	-0.70887	0.28851
1.522	-16.351	-26548	2397.2	-0.63899	-0.70799	0.28821
1.524	-16.343	-26553	2397.2	-0.63977	-0.70711	0.28792
1.526	-16.336	-26558	2397.2	-0.63957	-0.70848	0.2889
1.528	-16.33	-26558	2397.2	-0.63938	-0.70984	0.28987
1.53	-16.328	-26558	2397.2	-0.63918	-0.71121	0.29085
1.532	-16.338	-26560	2397.1	-0.63899	-0.71258	0.29182
1.534	-16.343	-26561	2397.1	-0.63879	-0.71394	0.2928
1.536	-16.342	-26560	2397.1	-0.63977	-0.7116	0.2929
1.538	-16.343	-26558	2397	-0.64074	-0.70926	0.293
1.54	-16.343	-26559	2397	-0.64172	-0.70692	0.29309
1.542	-16.346	-26559	2396.9	-0.6427	-0.70457	0.29319
1.544	-16.348	-26563	2396.9	-0.64367	-0.70223	0.29329
1.546	-16.348	-26566	2396.8	-0.64357	-0.70223	0.29378
1.548	-16.352	-26564	2396.8	-0.64348	-0.70223	0.29426
1.55	-16.353	-26563	2396.8	-0.64338	-0.70223	0.29475
1.552	-16.349	-26562	2396.7	-0.64328	-0.70223	0.29524
1.554	-16.342	-26562	2396.7	-0.64318	-0.70223	0.29573
1.556	-16.339	-26563	2396.6	-0.64367	-0.70213	0.29514
1.558	-16.34	-26564	2396.6	-0.64416	-0.70204	0.29456
1.56	-16.348	-26563	2396.6	-0.64465	-0.70194	0.29397
1.562	-16.367	-26562	2396.6	-0.64514	-0.70184	0.29339
1.564	-16.381	-26564	2396.5	-0.64562	-0.70174	0.2928
1.566	-16.39	-26566	2396.6	-0.64582	-0.70174	0.29319
1.568	-16.401	-26568	2396.6	-0.64601	-0.70174	0.29358
1.57	-16.402	-26570	2396.5	-0.64621	-0.70174	0.29397
1.572	-16.403	-26571	2396.5	-0.6464	-0.70174	0.29436
1.574	-16.405	-26571	2396.4	-0.6466	-0.70174	0.29475
1.576	-16.408	-26571	2396.4	-0.64621	-0.70155	0.29514
1.578	-16.394	-26570	2396.4	-0.64582	-0.70135	0.29553
1.58	-16.401	-26567	2396.4	-0.64543	-0.70116	0.29592
1.582	-16.407	-26564	2396.4	-0.64504	-0.70096	0.29631
1.584	-16.407	-26566	2396.3	-0.64465	-0.70077	0.2967
1.586	-16.394	-26568	2396.3	-0.64436	-0.70184	0.29534
1.588	-16.393	-26566	2396.3	-0.64406	-0.70292	0.29397
1.59	-16.397	-26564	2396.3	-0.64377	-0.70399	0.2926
1.592	-16.397	-26565	2396.3	-0.64348	-0.70506	0.29124
1.594	-16.4	-26565	2396.2	-0.64318	-0.70614	0.28987
1.596	-16.406	-26564	2396.2	-0.64289	-0.70662	0.28968
1.598	-16.411	-26563	2396.2	-0.6426	-0.70711	0.28948
1.6	-16.414	-26561	2396.2	-0.64231	-0.7076	0.28929
1.602	-16.413	-26560	2396.2	-0.64201	-0.70809	0.28909
1.604	-16.416	-26563	2396.2	-0.64172	-0.70858	0.2889
1.606	-16.407	-26567	2396.2	-0.64123	-0.70945	0.28909
1.608	-16.394	-26569	2396.2	-0.64074	-0.71033	0.28929
1.61	-16.394	-26572	2396.2	-0.64026	-0.71121	0.28948
1.612	-16.397	-26569	2396.2	-0.63977	-0.71209	0.28968
1.614	-16.388	-26566	2396.2	-0.63928	-0.71297	0.28987
1.616	-16.386	-26564	2396.2	-0.63938	-0.71199	0.28938
1.618	-16.392	-26562	2396.1	-0.63948	-0.71102	0.2889
1.62	-16.394	-26561	2396.1	-0.63957	-0.71004	0.28841
1.622	-16.394	-26560	2396.1	-0.63967	-0.70906	0.28792
1.624	-16.399	-26564	2396.1	-0.63977	-0.70809	0.28743
1.626	-16.405	-26568	2396.1	-0.64094	-0.7077	0.28831
1.628	-16.403	-26569	2396.1	-0.64211	-0.70731	0.28919
1.63	-16.398	-26569	2396.1	-0.64328	-0.70692	0.29007
1.632	-16.392	-26568	2396	-0.64445	-0.70653	0.29095
1.634	-16.388	-26567	2396	-0.64562	-0.70614	0.29182
1.636	-16.38	-26562	2396	-0.64416	-0.70711	0.29134
1.638	-16.37	-26557	2396	-0.6427	-0.70809	0.29085
1.64	-16.359	-26560	2395.9	-0.64123	-0.70906	0.29036
1.642	-16.353	-26563	2395.9	-0.63977	-0.71004	0.28987
1.644	-16.35	-26568	2395.8	-0.6383	-0.71102	0.28938
1.646	-16.358	-26572	2395.8	-0.63791	-0.71092	0.28929
1.648	-16.367	-26568	2395.8	-0.63752	-0.71082	0.28919
1.65	-16.393	-26564	2395.7	-0.63713	-0.71072	0.28909
1.652	-16.44	-26563	2395.7	-0.63674	-0.71063	0.28899
1.654	-16.495	-26561	2395.6	-0.63635	-0.71053	0.2889
1.656	-16.538	-26566	2395.6	-0.63723	-0.71082	0.28938
1.658	-16.582	-26572	2395.5	-0.63811	-0.71111	0.28987
1.66	-16.614	-26571	2395.5	-0.63899	-0.71141	0.29036
1.662	-16.622	-26571	2395.4	-0.63987	-0.7117	0.29085
1.664	-16.61	-26571	2395.4	-0.64074	-0.71199	0.29134
1.666	-16.599	-26571	2395.4	-0.64152	-0.71131	0.29143
1.668	-16.581	-26563	2395.3	-0.64231	-0.71063	0.29153
1.67	-16.542	-26555	2395.3	-0.64309	-0.70994	0.29163
1.672	-16.502	-26559	2395.3	-0.64387	-0.70926	0.29173
1.674	-16.466	-26563	2395.3	-0.64465	-0.70858	0.29182
1.676	-16.438	-26561	2395.2	-0.64328	-0.70955	0.29163
1.678	-16.425	-26558	2395.1	-0.64192	-0.71053	0.29143
1.68	-16.421	-26556	2395.1	-0.64055	-0.7115	0.29124
1.682	-16.416	-26555	2395.1	-0.63918	-0.71248	0.29104
1.684	-16.404	-26558	2395.1	-0.63782	-0.71346	0.29085
1.686	-16.395	-26562	2395.1	-0.6383	-0.71248	0.29016
1.688	-16.396	-26558	2395.1	-0.63879	-0.7115	0.28948
1.69	-16.397	-26553	2395.1	-0.63928	-0.71053	0.2888
1.692	-16.4	-26555	2395.1	-0.63977	-0.70955	0.28812
1.694	-16.393	-26558	2395.2	-0.64026	-0.70858	0.28743
1.696	-16.385	-26552	2395.2	-0.64045	-0.70828	0.28772
1.698	-16.384	-26546	2395.1	-0.64065	-0.70799	0.28802
1.7	-16.388	-26546	2395.1	-0.64084	-0.7077	0.28831
1.702	-16.385	-26546	2395.2	-0.64104	-0.7074	0.2886
1.704	-16.382	-26545	2395.2	-0.64123	-0.70711	0.2889
1.706	-16.384	-26544	2395.2	-0.64104	-0.70867	0.28919
1.708	-16.381	-26549	2395.3	-0.64084	-0.71024	0.28948
1.71	-16.378	-26554	2395.3	-0.64065	-0.7118	0.28977
1.712	-16.384	-26551	2395.3	-0.64045	-0.71336	0.29007
1.714	-16.39	-26548	2395.3	-0.64026	-0.71492	0.29036
1.716	-16.391	-26554	2395.4	-0.64026	-0.71394	0.28948
1.718	-16.398	-26561	2395.4	-0.64026	-0.71297	0.2886
1.72	-16.403	-26553	2395.5	-0.64026	-0.71199	0.28772
1.722	-16.399	-26546	2395.5	-0.64026	-0.71102	0.28685
1.724	-16.391	-26549	2395.5	-0.64026	-0.71004	0.28597
1.726	-16.389	-26551	2395.5	-0.64182	-0.71082	0.28694
1.728	-16.39	-26550	2395.5	-0.64338	-0.7116	0.28792
1.73	-16.392	-26550	2395.6	-0.64494	-0.71238	0.2889
1.732	-16.395	-26554	2395.6	-0.6465	-0.71316	0.28987
1.734	-16.4	-26557	2395.5	-0.64806	-0.71394	0.29085
1.736	-16.402	-26555	2395.5	-0.6467	-0.71336	0.29075
1.738	-16.399	-26553	2395.4	-0.64533	-0.71277	0.29065
1.74	-16.394	-26552	2395.3	-0.64396	-0.71219	0.29056
1.742	-16.394	-26551	2395.2	-0.6426	-0.7116	0.29046
1.744	-16.391	-26553	2395.2	-0.64123	-0.71102	0.29036
1.746	-16.387	-26554	2395	-0.64133	-0.71053	0.29026
1.748	-16.385	-26550	2394.9	-0.64143	-0.71004	0.29016
1.75	-16.387	-26546	2394.7	-0.64152	-0.70955	0.29007
1.752	-16.393	-26549	2394.5	-0.64162	-0.70906	0.28997
1.754	-16.398	-26553	2394.3	-0.64172	-0.70858	0.28987
1.756	-16.398	-26546	2394.2	-0.63957	-0.7076	0.28909
1.758	-16.386	-26540	2394	-0.63743	-0.70662	0.28831
1.76	-16.38	-26549	2393.8	-0.63528	-0.70565	0.28753
1.762	-16.376	-26557	2393.6	-0.63313	-0.70467	0.28675
1.764	-16.374	-26553	2393.5	-0.63098	-0.7037	0.28597
1.766	-16.369	-26550	2393.2	-0.63128	-0.70418	0.28636
1.768	-16.37	-26552	2393	-0.63157	-0.70467	0.28675
1.77	-16.383	-26555	2392.8	-0.63186	-0.70516	0.28714
1.772	-16.394	-26551	2392.6	-0.63216	-0.70565	0.28753
1.774	-16.392	-26547	2392.4	-0.63245	-0.70614	0.28792
1.776	-16.391	-26551	2392.2	-0.63303	-0.70614	0.28802
1.778	-16.39	-26555	2391.9	-0.63362	-0.70614	0.28812
1.78	-16.384	-26552	2391.7	-0.6342	-0.70614	0.28821
1.782	-16.375	-26550	2391.6	-0.63479	-0.70614	0.28831
1.784	-16.369	-26552	2391.4	-0.63538	-0.70614	0.28841
1.786	-16.363	-26554	2391.2	-0.63606	-0.70692	0.28938
1.788	-16.363	-26552	2391.1	-0.63674	-0.7077	0.29036
1.79	-16.365	-26550	2390.9	-0.63743	-0.70848	0.29134
1.792	-16.36	-26551	2390.8	-0.63811	-0.70926	0.29231
1.794	-16.356	-26552	2390.7	-0.63879	-0.71004	0.29329
1.796	-16.364	-26554	2390.7	-0.63801	-0.71053	0.29436
1.798	-16.371	-26555	2390.6	-0.63723	-0.71102	0.29544
1.8	-16.373	-26559	2390.6	-0.63645	-0.7115	0.29651
1.802	-16.371	-26563	2390.6	-0.63567	-0.71199	0.29758
1.804	-16.367	-26562	2390.6	-0.63489	-0.71248	0.29866
1.806	-16.366	-26561	2390.7	-0.63577	-0.71355	0.29778
1.808	-16.368	-26557	2390.8	-0.63664	-0.71463	0.2969
1.81	-16.377	-26553	2391	-0.63752	-0.7157	0.29602
1.812	-16.374	-26553	2391.1	-0.6384	-0.71677	0.29514
1.814	-16.371	-26554	2391.3	-0.63928	-0.71785	0.29426
1.816	-16.376	-26553	2391.6	-0.64006	-0.71756	0.29358
1.818	-16.374	-26553	2391.8	-0.64084	-0.71726	0.2929
1.82	-16.365	-26554	2392.1	-0.64162	-0.71697	0.29221
1.822	-16.359	-26556	2392.4	-0.6424	-0.71668	0.29153
1.824	-16.349	-26556	2392.7	-0.64318	-0.71638	0.29085
1.826	-16.351	-26555	2393	-0.64465	-0.71697	0.29124
1.828	-16.339	-26557	2393.3	-0.64611	-0.71756	0.29163
1.83	-16.333	-26558	2393.6	-0.64758	-0.71814	0.29202
1.832	-16.334	-26563	2393.9	-0.64904	-0.71873	0.29241
1.834	-16.338	-26568	2394.2	-0.6505	-0.71931	0.2928
1.836	-16.343	-26562	2394.5	-0.65099	-0.71892	0.2926
1.838	-16.344	-26555	2394.9	-0.65148	-0.71853	0.29241
1.84	-16.341	-26555	2395.2	-0.65197	-0.71814	0.29221
1.842	-16.335	-26554	2395.5	-0.65246	-0.71775	0.29202
1.844	-16.328	-26562	2395.9	-0.65294	-0.71736	0.29182
1.846	-16.331	-26569	2396.2	-0.65382	-0.71668	0.29231
1.848	-16.33	-26563	2396.6	-0.6547	-0.71599	0.2928
1.85	-16.327	-26556	2396.9	-0.65558	-0.71531	0.29329
1.852	-16.324	-26552	2397.2	-0.65646	-0.71463	0.29378
1.854	-16.315	-26547	2397.6	-0.65734	-0.71394	0.29426
1.856	-16.31	-26553	2397.9	-0.6548	-0.7116	0.2929
1.858	-16.31	-26558	2398.2	-0.65226	-0.70926	0.29153
1.86	-16.309	-26554	2398.5	-0.64972	-0.70692	0.29016
1.862	-16.306	-26550	2398.8	-0.64719	-0.70457	0.2888
1.864	-16.298	-26551	2399.1	-0.64465	-0.70223	0.28743
1.866	-16.299	-26553	2399.4	-0.64514	-0.70233	0.28821
1.868	-16.302	-26548	2399.7	-0.64562	-0.70243	0.28899
1.87	-16.295	-26543	2400	-0.64611	-0.70252	0.28977
1.872	-16.289	-26544	2400.3	-0.6466	-0.70262	0.29056
1.874	-16.288	-26545	2400.6	-0.64709	-0.70272	0.29134
1.876	-16.287	-26547	2400.8	-0.64689	-0.70194	0.29173
1.878	-16.284	-26550	2401	-0.6467	-0.70116	0.29212
1.88	-16.284	-26552	2401.2	-0.6465	-0.70038	0.29251
1.882	-16.288	-26555	2401.5	-0.64631	-0.6996	0.2929
1.884	-16.285	-26549	2401.7	-0.64611	-0.69882	0.29329
1.886	-16.279	-26544	2402	-0.64553	-0.69901	0.29348
1.888	-16.278	-26546	2402.2	-0.64494	-0.69921	0.29368
1.89	-16.279	-26549	2402.4	-0.64436	-0.6994	0.29387
1.892	-16.28	-26553	2402.6	-0.64377	-0.6996	0.29407
1.894	-16.28	-26557	2402.8	-0.64318	-0.69979	0.29426
1.896	-16.282	-26556	2403.1	-0.64201	-0.70135	0.29348
1.898	-16.282	-26555	2403.3	-0.64084	-0.70292	0.2927
1.9	-16.28	-26553	2403.5	-0.63967	-0.70448	0.29192
1.902	-16.276	-26551	2403.8	-0.6385	-0.70604	0.29114
1.904	-16.275	-26546	2404	-0.63733	-0.7076	0.29036
1.906	-16.285	-26542	2404.2	-0.63694	-0.7075	0.29026
1.908	-16.286	-26538	2404.4	-0.63655	-0.7074	0.29016
1.91	-16.275	-26535	2404.6	-0.63616	-0.70731	0.29007
1.912	-16.28	-26542	2404.8	-0.63577	-0.70721	0.28997
1.914	-16.288	-26550	2405.1	-0.63538	-0.70711	0.28987
1.916	-16.291	-26548	2405.3	-0.63538	-0.70662	0.29026
1.918	-16.294	-26546	2405.6	-0.63538	-0.70614	0.29065
1.92	-16.301	-26548	2405.8	-0.63538	-0.70565	0.29104
1.922	-16.302	-26550	2406	-0.63538	-0.70516	0.29143
1.924	-16.299	-26547	2406.2	-0.63538	-0.70467	0.29182
1.926	-16.301	-26545	2406.4	-0.63489	-0.70516	0.29153
1.928	-16.302	-26547	2406.7	-0.6344	-0.70565	0.29124
1.93	-16.305	-26548	2406.9	-0.63391	-0.70614	0.29095
1.932	-16.318	-26548	2407.1	-0.63342	-0.70662	0.29065
1.934	-16.326	-26548	2407.4	-0.63294	-0.70711	0.29036
1.936	-16.33	-26546	2407.6	-0.63245	-0.70672	0.28987
1.938	-16.34	-26544	2407.8	-0.63196	-0.70633	0.28938
1.94	-16.345	-26540	2408	-0.63147	-0.70594	0.2889
1.942	-16.344	-26537	2408.2	-0.63098	-0.70555	0.28841
1.944	-16.338	-26530	2408.4	-0.6305	-0.70516	0.28792
1.946	-16.339	-26523	2408.6	-0.62991	-0.70594	0.28704
1.948	-16.35	-26527	2408.8	-0.62932	-0.70672	0.28616
1.95	-16.36	-26531	2408.9	-0.62874	-0.7075	0.28528
1.952	-16.364	-26533	2409.1	-0.62815	-0.70828	0.28441
1.954	-16.365	-26535	2409.2	-0.62757	-0.70906	0.28353
1.956	-16.365	-26535	2409.3	-0.62893	-0.70916	0.28431
1.958	-16.361	-26536	2409.4	-0.6303	-0.70926	0.28509
1.96	-16.364	-26537	2409.5	-0.63167	-0.70936	0.28587
1.962	-16.37	-26538	2409.6	-0.63303	-0.70945	0.28665
1.964	-16.367	-26537	2409.7	-0.6344	-0.70955	0.28743
1.966	-16.366	-26537	2409.7	-0.63625	-0.70975	0.2888
1.968	-16.368	-26534	2409.8	-0.63811	-0.70994	0.29016
1.97	-16.372	-26530	2409.8	-0.63996	-0.71014	0.29153
1.972	-16.379	-26528	2409.7	-0.64182	-0.71033	0.2929
1.974	-16.383	-26527	2409.6	-0.64367	-0.71053	0.29426
1.976	-16.384	-26527	2409.6	-0.64279	-0.71092	0.29339
1.978	-16.382	-26527	2409.5	-0.64192	-0.71131	0.29251
1.98	-16.378	-26527	2409.5	-0.64104	-0.7117	0.29163
1.982	-16.378	-26527	2409.4	-0.64016	-0.71209	0.29075
1.984	-16.382	-26529	2409.3	-0.63928	-0.71248	0.28987
1.986	-16.385	-26532	2409.1	-0.63957	-0.71219	0.28958
1.988	-16.391	-26528	2409	-0.63987	-0.71189	0.28929
1.99	-16.394	-26525	2408.9	-0.64016	-0.7116	0.28899
1.992	-16.385	-26523	2408.8	-0.64045	-0.71131	0.2887
1.994	-16.376	-26521	2408.7	-0.64074	-0.71102	0.28841
1.996	-16.372	-26524	2408.5	-0.64123	-0.71053	0.28851
1.998	-16.37	-26527	2408.4	-0.64172	-0.71004	0.2886
2	-16.374	-26524	2408.2	-0.64221	-0.70955	0.2887
2.002	-16.377	-26521	2408	-0.6427	-0.70906	0.2888
2.004	-16.373	-26520	2407.8	-0.64318	-0.70858	0.2889
2.006	-16.378	-26520	2407.6	-0.64367	-0.70867	0.28938
2.008	-16.381	-26521	2407.4	-0.64416	-0.70877	0.28987
2.01	-16.384	-26523	2407.2	-0.64465	-0.70887	0.29036
2.012	-16.383	-26522	2407	-0.64514	-0.70897	0.29085
2.014	-16.387	-26520	2406.8	-0.64562	-0.70906	0.29134
2.016	-16.392	-26520	2406.6	-0.64553	-0.7075	0.29202
2.018	-16.393	-26519	2406.3	-0.64543	-0.70594	0.2927
2.02	-16.387	-26517	2406.1	-0.64533	-0.70438	0.29339
2.022	-16.381	-26515	2405.8	-0.64523	-0.70282	0.29407
2.024	-16.373	-26515	2405.5	-0.64514	-0.70126	0.29475
2.026	-16.369	-26515	2405.3	-0.64396	-0.70145	0.29534
2.028	-16.371	-26518	2405.1	-0.64279	-0.70165	0.29592
2.03	-16.378	-26522	2404.8	-0.64162	-0.70184	0.29651
2.032	-16.383	-26520	2404.6	-0.64045	-0.70204	0.29709
2.034	-16.382	-26518	2404.3	-0.63928	-0.70223	0.29768
2.036	-16.376	-26517	2404	-0.64016	-0.70213	0.2968
2.038	-16.374	-26517	2403.8	-0.64104	-0.70204	0.29592
2.04	-16.377	-26519	2403.5	-0.64192	-0.70194	0.29504
2.042	-16.378	-26521	2403.2	-0.64279	-0.70184	0.29417
2.044	-16.374	-26523	2403	-0.64367	-0.70174	0.29329
2.046	-16.379	-26525	2402.7	-0.64367	-0.70243	0.2929
2.048	-16.383	-26525	2402.5	-0.64367	-0.70311	0.29251
2.05	-16.378	-26526	2402.2	-0.64367	-0.70379	0.29212
2.052	-16.379	-26525	2402	-0.64367	-0.70448	0.29173
2.054	-16.382	-26524	2401.7	-0.64367	-0.70516	0.29134
2.056	-16.375	-26527	2401.5	-0.64279	-0.70584	0.29065
2.058	-16.371	-26529	2401.3	-0.64192	-0.70653	0.28997
2.06	-16.382	-26531	2401.2	-0.64104	-0.70721	0.28929
2.062	-16.39	-26533	2401	-0.64016	-0.70789	0.2886
2.064	-16.389	-26532	2400.8	-0.63928	-0.70858	0.28792
2.066	-16.378	-26531	2400.6	-0.63918	-0.70916	0.28831
2.068	-16.375	-26533	2400.4	-0.63908	-0.70975	0.2887
2.07	-16.376	-26535	2400.3	-0.63899	-0.71033	0.28909
2.072	-16.37	-26533	2400.2	-0.63889	-0.71092	0.28948
2.074	-16.362	-26531	2400	-0.63879	-0.7115	0.28987
2.076	-16.372	-26528	2399.9	-0.63782	-0.71111	0.2887
2.078	-16.378	-26525	2399.8	-0.63684	-0.71072	0.28753
2.08	-16.375	-26525	2399.7	-0.63586	-0.71033	0.28636
2.082	-16.378	-26525	2399.6	-0.63489	-0.70994	0.28519
2.084	-16.383	-26526	2399.5	-0.63391	-0.70955	0.28402
2.086	-16.386	-26528	2399.4	-0.63508	-0.70994	0.28489
2.088	-16.388	-26529	2399.3	-0.63625	-0.71033	0.28577
2.09	-16.389	-26530	2399.3	-0.63743	-0.71072	0.28665
2.092	-16.389	-26532	2399.2	-0.6386	-0.71111	0.28753
2.094	-16.384	-26534	2399.1	-0.63977	-0.7115	0.28841
2.096	-16.382	-26535	2399.1	-0.63918	-0.71111	0.28772
2.098	-16.383	-26537	2399	-0.6386	-0.71072	0.28704
2.1	-16.371	-26536	2398.9	-0.63801	-0.71033	0.28636
2.102	-16.37	-26536	2398.9	-0.63743	-0.70994	0.28568
2.104	-16.374	-26538	2398.9	-0.63684	-0.70955	0.28499
2.106	-16.368	-26539	2398.8	-0.63801	-0.70926	0.28568
2.108	-16.357	-26535	2398.7	-0.63918	-0.70897	0.28636
2.11	-16.36	-26531	2398.6	-0.64035	-0.70867	0.28704
2.112	-16.366	-26527	2398.6	-0.64152	-0.70838	0.28772
2.114	-16.37	-26524	2398.6	-0.6427	-0.70809	0.28841
2.116	-16.373	-26527	2398.5	-0.64192	-0.70887	0.28831
2.118	-16.374	-26531	2398.4	-0.64113	-0.70965	0.28821
2.12	-16.37	-26530	2398.4	-0.64035	-0.71043	0.28812
2.122	-16.371	-26530	2398.3	-0.63957	-0.71121	0.28802
2.124	-16.375	-26531	2398.3	-0.63879	-0.71199	0.28792
2.126	-16.378	-26532	2398.3	-0.63899	-0.71189	0.28841
2.128	-16.379	-26535	2398.2	-0.63918	-0.7118	0.2889
2.13	-16.378	-26538	2398.1	-0.63938	-0.7117	0.28938
2.132	-16.377	-26536	2398.1	-0.63957	-0.7116	0.28987
2.134	-16.382	-26534	2398	-0.63977	-0.7115	0.29036
2.136	-16.385	-26533	2398	-0.63957	-0.71209	0.29016
2.138	-16.382	-26532	2398	-0.63938	-0.71268	0.28997
2.14	-16.382	-26531	2397.9	-0.63918	-0.71326	0.28977
2.142	-16.391	-26529	2397.9	-0.63899	-0.71385	0.28958
2.144	-16.395	-26535	2397.8	-0.63879	-0.71443	0.28938
2.146	-16.387	-26541	2397.9	-0.63918	-0.71365	0.28968
2.148	-16.377	-26542	2397.9	-0.63957	-0.71287	0.28997
2.15	-16.373	-26543	2397.9	-0.63996	-0.71209	0.29026
2.152	-16.376	-26543	2397.9	-0.64035	-0.71131	0.29056
2.154	-16.377	-26543	2397.9	-0.64074	-0.71053	0.29085
2.156	-16.373	-26545	2397.9	-0.64055	-0.71092	0.29095
2.158	-16.371	-26546	2397.9	-0.64035	-0.71131	0.29104
2.16	-16.375	-26541	2397.9	-0.64016	-0.7117	0.29114
2.162	-16.382	-26535	2397.8	-0.63996	-0.71209	0.29124
2.164	-16.389	-26534	2397.8	-0.63977	-0.71248	0.29134
2.166	-16.384	-26532	2397.8	-0.63928	-0.71228	0.29104
2.168	-16.379	-26534	2397.8	-0.63879	-0.71209	0.29075
2.17	-16.377	-26535	2397.8	-0.6383	-0.71189	0.29046
2.172	-16.388	-26539	2397.8	-0.63782	-0.7117	0.29016
2.174	-16.384	-26543	2397.8	-0.63733	-0.7115	0.28987
2.176	-16.383	-26542	2397.8	-0.63762	-0.7115	0.29016
2.178	-16.384	-26541	2397.8	-0.63791	-0.7115	0.29046
2.18	-16.39	-26544	2397.9	-0.63821	-0.7115	0.29075
2.182	-16.388	-26547	2397.9	-0.6385	-0.7115	0.29104
2.184	-16.386	-26541	2397.8	-0.63879	-0.7115	0.29134
2.186	-16.373	-26535	2397.8	-0.63879	-0.7115	0.29124
2.188	-16.374	-26535	2397.8	-0.63879	-0.7115	0.29114
2.19	-16.367	-26534	2397.8	-0.63879	-0.7115	0.29104
2.192	-16.369	-26538	2397.8	-0.63879	-0.7115	0.29095
2.194	-16.373	-26541	2397.8	-0.63879	-0.7115	0.29085
2.196	-16.379	-26542	2397.8	-0.63967	-0.71024	0.29085
2.198	-16.376	-26544	2397.8	-0.64055	-0.70897	0.29085
2.2	-16.386	-26540	2397.7	-0.64143	-0.7077	0.29085
2.202	-16.392	-26537	2397.7	-0.64231	-0.70643	0.29085
2.204	-16.382	-26537	2397.7	-0.64318	-0.70516	0.29085
2.206	-16.375	-26537	2397.6	-0.64182	-0.70643	0.29056
2.208	-16.378	-26534	2397.6	-0.64045	-0.7077	0.29026
2.21	-16.387	-26531	2397.6	-0.63908	-0.70897	0.28997
2.212	-16.395	-26531	2397.6	-0.63772	-0.71024	0.28968
2.214	-16.395	-26530	2397.6	-0.63635	-0.7115	0.28938
2.216	-16.391	-26533	2397.5	-0.63723	-0.7115	0.28987
2.218	-16.393	-26536	2397.4	-0.63811	-0.7115	0.29036
2.22	-16.4	-26541	2397.3	-0.63899	-0.7115	0.29085
2.222	-16.398	-26546	2397.2	-0.63987	-0.7115	0.29134
2.224	-16.383	-26541	2397.1	-0.64074	-0.7115	0.29182
2.226	-16.371	-26536	2397.1	-0.63996	-0.71131	0.28997
2.228	-16.373	-26534	2397	-0.63918	-0.71111	0.28812
2.23	-16.38	-26532	2396.9	-0.6384	-0.71092	0.28626
2.232	-16.384	-26536	2396.7	-0.63762	-0.71072	0.28441
2.234	-16.385	-26540	2396.5	-0.63684	-0.71053	0.28255
2.236	-16.389	-26540	2396.4	-0.63743	-0.71043	0.28363
2.238	-16.385	-26540	2396.3	-0.63801	-0.71033	0.2847
2.24	-16.381	-26538	2396.2	-0.6386	-0.71024	0.28577
2.242	-16.384	-26536	2396	-0.63918	-0.71014	0.28685
2.244	-16.389	-26536	2395.9	-0.63977	-0.71004	0.28792
2.246	-16.384	-26537	2395.7	-0.63987	-0.71004	0.28743
2.248	-16.387	-26535	2395.5	-0.63996	-0.71004	0.28694
2.25	-16.387	-26533	2395.3	-0.64006	-0.71004	0.28646
2.252	-16.386	-26537	2395.1	-0.64016	-0.71004	0.28597
2.254	-16.382	-26541	2394.9	-0.64026	-0.71004	0.28548
2.256	-16.389	-26544	2394.6	-0.64055	-0.71053	0.28655
2.258	-16.387	-26546	2394.4	-0.64084	-0.71102	0.28763
2.26	-16.388	-26542	2394.2	-0.64113	-0.7115	0.2887
2.262	-16.384	-26539	2393.9	-0.64143	-0.71199	0.28977
2.264	-16.387	-26538	2393.7	-0.64172	-0.71248	0.29085
2.266	-16.39	-26538	2393.5	-0.64123	-0.71238	0.29056
2.268	-16.392	-26538	2393.3	-0.64074	-0.71228	0.29026
2.27	-16.39	-26539	2393.1	-0.64026	-0.71219	0.28997
2.272	-16.382	-26536	2393	-0.63977	-0.71209	0.28968
2.274	-16.382	-26533	2392.8	-0.63928	-0.71199	0.28938
2.276	-16.391	-26537	2392.6	-0.63987	-0.7115	0.28977
2.278	-16.385	-26541	2392.5	-0.64045	-0.71102	0.29016
2.28	-16.389	-26542	2392.3	-0.64104	-0.71053	0.29056
2.282	-16.393	-26542	2392.2	-0.64162	-0.71004	0.29095
2.284	-16.388	-26542	2392	-0.64221	-0.70955	0.29134
2.286	-16.378	-26541	2391.9	-0.64113	-0.71004	0.29075
2.288	-16.377	-26538	2391.8	-0.64006	-0.71053	0.29016
2.29	-16.377	-26535	2391.7	-0.63899	-0.71102	0.28958
2.292	-16.379	-26545	2391.5	-0.63791	-0.7115	0.28899
2.294	-16.383	-26554	2391.4	-0.63684	-0.71199	0.28841
2.296	-16.383	-26544	2391.3	-0.63791	-0.71199	0.28909
2.298	-16.38	-26534	2391.2	-0.63899	-0.71199	0.28977
2.3	-16.38	-26541	2391.1	-0.64006	-0.71199	0.29046
2.302	-16.377	-26549	2391	-0.64113	-0.71199	0.29114
2.304	-16.363	-26547	2390.9	-0.64221	-0.71199	0.29182
2.306	-16.353	-26546	2390.9	-0.6424	-0.71082	0.29163
2.308	-16.359	-26541	2390.8	-0.6426	-0.70965	0.29143
2.31	-16.368	-26537	2390.7	-0.64279	-0.70848	0.29124
2.312	-16.371	-26538	2390.7	-0.64299	-0.70731	0.29104
2.314	-16.371	-26539	2390.6	-0.64318	-0.70614	0.29085
2.316	-16.372	-26540	2390.5	-0.64172	-0.70672	0.28987
2.318	-16.373	-26541	2390.4	-0.64026	-0.70731	0.2889
2.32	-16.372	-26541	2390.3	-0.63879	-0.70789	0.28792
2.322	-16.371	-26541	2390.2	-0.63733	-0.70848	0.28694
2.324	-16.369	-26543	2390.1	-0.63586	-0.70906	0.28597
2.326	-16.363	-26544	2390.1	-0.63684	-0.70877	0.28675
2.328	-16.35	-26543	2390	-0.63782	-0.70848	0.28753
2.33	-16.337	-26543	2389.9	-0.63879	-0.70819	0.28831
2.332	-16.329	-26542	2389.8	-0.63977	-0.70789	0.28909
2.334	-16.319	-26542	2389.8	-0.64074	-0.7076	0.28987
2.336	-16.32	-26542	2389.6	-0.64074	-0.70809	0.28987
2.338	-16.33	-26541	2389.5	-0.64074	-0.70858	0.28987
2.34	-16.322	-26546	2389.4	-0.64074	-0.70906	0.28987
2.342	-16.313	-26550	2389.4	-0.64074	-0.70955	0.28987
2.344	-16.318	-26554	2389.3	-0.64074	-0.71004	0.28987
2.346	-16.327	-26558	2389.2	-0.64035	-0.70994	0.28987
2.348	-16.336	-26552	2389	-0.63996	-0.70984	0.28987
2.35	-16.335	-26546	2388.9	-0.63957	-0.70975	0.28987
2.352	-16.332	-26547	2388.8	-0.63918	-0.70965	0.28987
2.354	-16.329	-26548	2388.6	-0.63879	-0.70955	0.28987
2.356	-16.339	-26544	2388.5	-0.64065	-0.70828	0.29095
2.358	-16.332	-26540	2388.4	-0.6425	-0.70701	0.29202
2.36	-16.33	-26546	2388.3	-0.64436	-0.70575	0.29309
2.362	-16.336	-26552	2388.2	-0.64621	-0.70448	0.29417
2.364	-16.34	-26550	2388.1	-0.64806	-0.70321	0.29524
2.366	-16.334	-26547	2388	-0.64777	-0.70292	0.29524
2.368	-16.33	-26548	2387.9	-0.64748	-0.70262	0.29524
2.37	-16.332	-26549	2387.8	-0.64719	-0.70233	0.29524
2.372	-16.342	-26552	2387.6	-0.64689	-0.70204	0.29524
2.374	-16.351	-26555	2387.5	-0.6466	-0.70174	0.29524
2.376	-16.361	-26557	2387.4	-0.6464	-0.70126	0.29514
2.378	-16.37	-26558	2387.2	-0.64621	-0.70077	0.29504
2.38	-16.379	-26554	2387.1	-0.64601	-0.70028	0.29495
2.382	-16.383	-26550	2386.9	-0.64582	-0.69979	0.29485
2.384	-16.38	-26553	2386.8	-0.64562	-0.6993	0.29475
2.386	-16.378	-26557	2386.7	-0.64582	-0.69999	0.29387
2.388	-16.38	-26555	2386.6	-0.64601	-0.70067	0.293
2.39	-16.385	-26553	2386.5	-0.64621	-0.70135	0.29212
2.392	-16.387	-26555	2386.4	-0.6464	-0.70204	0.29124
2.394	-16.387	-26558	2386.3	-0.6466	-0.70272	0.29036
2.396	-16.389	-26556	2386.2	-0.64709	-0.70272	0.29124
2.398	-16.39	-26554	2386.1	-0.64758	-0.70272	0.29212
2.4	-16.389	-26556	2386	-0.64806	-0.70272	0.293
2.402	-16.391	-26557	2385.9	-0.64855	-0.70272	0.29387
2.404	-16.392	-26558	2385.8	-0.64904	-0.70272	0.29475
2.406	-16.386	-26559	2385.7	-0.64601	-0.7036	0.29319
2.408	-16.374	-26559	2385.7	-0.64299	-0.70448	0.29163
2.41	-16.372	-26560	2385.6	-0.63996	-0.70536	0.29007
2.412	-16.374	-26562	2385.5	-0.63694	-0.70623	0.28851
2.414	-16.381	-26564	2385.5	-0.63391	-0.70711	0.28694
2.416	-16.385	-26564	2385.4	-0.6344	-0.7074	0.28704
2.418	-16.386	-26565	2385.3	-0.63489	-0.7077	0.28714
2.42	-16.384	-26564	2385.2	-0.63538	-0.70799	0.28724
2.422	-16.381	-26563	2385.2	-0.63586	-0.70828	0.28733
2.424	-16.377	-26555	2385.1	-0.63635	-0.70858	0.28743
2.426	-16.36	-26547	2385.1	-0.63635	-0.70858	0.28724
2.428	-16.347	-26553	2385.1	-0.63635	-0.70858	0.28704
2.43	-16.354	-26559	2385	-0.63635	-0.70858	0.28685
2.432	-16.371	-26556	2385	-0.63635	-0.70858	0.28665
2.434	-16.38	-26554	2385	-0.63635	-0.70858	0.28646
2.436	-16.381	-26559	2384.9	-0.63811	-0.70887	0.28733
2.438	-16.371	-26564	2384.9	-0.63987	-0.70916	0.28821
2.44	-16.368	-26564	2384.9	-0.64162	-0.70945	0.28909
2.442	-16.369	-26564	2384.9	-0.64338	-0.70975	0.28997
2.444	-16.354	-26559	2384.9	-0.64514	-0.71004	0.29085
2.446	-16.327	-26555	2384.9	-0.64396	-0.71014	0.29056
2.448	-16.304	-26554	2384.9	-0.64279	-0.71024	0.29026
2.45	-16.286	-26553	2384.8	-0.64162	-0.71033	0.28997
2.452	-16.272	-26554	2384.8	-0.64045	-0.71043	0.28968
2.454	-16.271	-26555	2384.7	-0.63928	-0.71053	0.28938
2.456	-16.281	-26551	2384.7	-0.6384	-0.71092	0.2889
2.458	-16.299	-26548	2384.6	-0.63752	-0.71131	0.28841
2.46	-16.332	-26548	2384.6	-0.63664	-0.7117	0.28792
2.462	-16.367	-26549	2384.6	-0.63577	-0.71209	0.28743
2.464	-16.402	-26551	2384.6	-0.63489	-0.71248	0.28694
2.466	-16.439	-26552	2384.6	-0.63538	-0.7117	0.28655
2.468	-16.474	-26555	2384.6	-0.63586	-0.71092	0.28616
2.47	-16.495	-26558	2384.6	-0.63635	-0.71014	0.28577
2.472	-16.505	-26560	2384.5	-0.63684	-0.70936	0.28538
2.474	-16.51	-26562	2384.5	-0.63733	-0.70858	0.28499
2.476	-16.515	-26560	2384.5	-0.63762	-0.70887	0.28558
2.478	-16.505	-26558	2384.5	-0.63791	-0.70916	0.28616
2.48	-16.481	-26563	2384.5	-0.63821	-0.70945	0.28675
2.482	-16.46	-26568	2384.5	-0.6385	-0.70975	0.28733
2.484	-16.442	-26564	2384.5	-0.63879	-0.71004	0.28792
2.486	-16.425	-26560	2384.5	-0.6383	-0.70965	0.28694
2.488	-16.406	-26561	2384.5	-0.63782	-0.70926	0.28597
2.49	-16.394	-26563	2384.5	-0.63733	-0.70887	0.28499
2.492	-16.383	-26562	2384.4	-0.63684	-0.70848	0.28402
2.494	-16.374	-26561	2384.4	-0.63635	-0.70809	0.28304
2.496	-16.365	-26559	2384.4	-0.63674	-0.70819	0.28421
2.498	-16.362	-26558	2384.4	-0.63713	-0.70828	0.28538
2.5	-16.362	-26559	2384.4	-0.63752	-0.70838	0.28655
2.502	-16.37	-26561	2384.4	-0.63791	-0.70848	0.28772
2.504	-16.377	-26565	2384.4	-0.6383	-0.70858	0.2889
2.506	-16.372	-26569	2384.4	-0.63811	-0.70848	0.28841
2.508	-16.363	-26569	2384.4	-0.63791	-0.70838	0.28792
2.51	-16.359	-26569	2384.4	-0.63772	-0.70828	0.28743
2.512	-16.358	-26565	2384.4	-0.63752	-0.70819	0.28694
2.514	-16.363	-26561	2384.4	-0.63733	-0.70809	0.28646
2.516	-16.378	-26562	2384.4	-0.63713	-0.70819	0.28675
2.518	-16.386	-26564	2384.3	-0.63694	-0.70828	0.28704
2.52	-16.385	-26564	2384.3	-0.63674	-0.70838	0.28733
2.522	-16.385	-26564	2384.3	-0.63655	-0.70848	0.28763
2.524	-16.382	-26570	2384.3	-0.63635	-0.70858	0.28792
2.526	-16.38	-26576	2384.3	-0.63625	-0.70809	0.28743
2.528	-16.383	-26572	2384.3	-0.63616	-0.7076	0.28694
2.53	-16.384	-26568	2384.3	-0.63606	-0.70711	0.28646
2.532	-16.38	-26568	2384.3	-0.63596	-0.70662	0.28597
2.534	-16.381	-26568	2384.3	-0.63586	-0.70614	0.28548
2.536	-16.382	-26568	2384.3	-0.63723	-0.70701	0.28626
2.538	-16.387	-26567	2384.3	-0.6386	-0.70789	0.28704
2.54	-16.387	-26569	2384.3	-0.63996	-0.70877	0.28782
2.542	-16.378	-26570	2384.4	-0.64133	-0.70965	0.2886
2.544	-16.366	-26575	2384.4	-0.6427	-0.71053	0.28938
2.546	-16.367	-26579	2384.3	-0.6424	-0.71072	0.28938
2.548	-16.372	-26579	2384.2	-0.64211	-0.71092	0.28938
2.55	-16.372	-26578	2384.1	-0.64182	-0.71111	0.28938
2.552	-16.371	-26576	2384	-0.64152	-0.71131	0.28938
2.554	-16.373	-26575	2384	-0.64123	-0.7115	0.28938
2.556	-16.375	-26576	2383.8	-0.64074	-0.71111	0.2889
2.558	-16.38	-26576	2383.7	-0.64026	-0.71072	0.28841
2.56	-16.386	-26577	2383.6	-0.63977	-0.71033	0.28792
2.562	-16.387	-26578	2383.4	-0.63928	-0.70994	0.28743
2.564	-16.382	-26582	2383.3	-0.63879	-0.70955	0.28694
2.566	-16.379	-26586	2383.1	-0.63889	-0.70936	0.28685
2.568	-16.38	-26582	2383	-0.63899	-0.70916	0.28675
2.57	-16.378	-26577	2382.8	-0.63908	-0.70897	0.28665
2.572	-16.368	-26577	2382.6	-0.63918	-0.70877	0.28655
2.574	-16.357	-26577	2382.3	-0.63928	-0.70858	0.28646
2.576	-16.36	-26575	2382.1	-0.63801	-0.7075	0.28704
2.578	-16.365	-26573	2381.9	-0.63674	-0.70643	0.28763
2.58	-16.371	-26573	2381.7	-0.63547	-0.70536	0.28821
2.582	-16.374	-26574	2381.5	-0.6342	-0.70428	0.2888
2.584	-16.373	-26569	2381.3	-0.63294	-0.70321	0.28938
2.586	-16.363	-26564	2381	-0.63362	-0.70331	0.28909
2.588	-16.355	-26567	2380.8	-0.6343	-0.7034	0.2888
2.59	-16.359	-26570	2380.6	-0.63499	-0.7035	0.28851
2.592	-16.37	-26570	2380.3	-0.63567	-0.7036	0.28821
2.594	-16.366	-26571	2380.1	-0.63635	-0.7037	0.28792
2.596	-16.366	-26572	2379.9	-0.63577	-0.70389	0.28821
2.598	-16.371	-26574	2379.7	-0.63518	-0.70409	0.28851
2.6	-16.366	-26577	2379.5	-0.6346	-0.70428	0.2888
2.602	-16.37	-26580	2379.4	-0.63401	-0.70448	0.28909
2.604	-16.374	-26579	2379.2	-0.63342	-0.70467	0.28938
2.606	-16.374	-26577	2379.1	-0.63245	-0.70448	0.28948
2.608	-16.364	-26582	2379	-0.63147	-0.70428	0.28958
2.61	-16.364	-26587	2378.9	-0.6305	-0.70409	0.28968
2.612	-16.375	-26584	2378.8	-0.62952	-0.70389	0.28977
2.614	-16.382	-26581	2378.7	-0.62854	-0.7037	0.28987
2.616	-16.377	-26579	2378.7	-0.63079	-0.70565	0.29036
2.618	-16.372	-26577	2378.8	-0.63303	-0.7076	0.29085
2.62	-16.362	-26580	2378.8	-0.63528	-0.70955	0.29134
2.622	-16.359	-26583	2378.9	-0.63752	-0.7115	0.29182
2.624	-16.361	-26585	2379	-0.63977	-0.71346	0.29231
2.626	-16.364	-26588	2379.1	-0.63996	-0.71365	0.29202
2.628	-16.36	-26588	2379.3	-0.64016	-0.71385	0.29173
2.63	-16.352	-26588	2379.4	-0.64035	-0.71404	0.29143
2.632	-16.351	-26587	2379.7	-0.64055	-0.71424	0.29114
2.634	-16.351	-26586	2379.9	-0.64074	-0.71443	0.29085
2.636	-16.348	-26586	2380.2	-0.64231	-0.71463	0.29114
2.638	-16.347	-26587	2380.4	-0.64387	-0.71482	0.29143
2.64	-16.345	-26587	2380.8	-0.64543	-0.71502	0.29173
2.642	-16.343	-26588	2381.2	-0.64699	-0.71521	0.29202
2.644	-16.343	-26583	2381.6	-0.64855	-0.71541	0.29231
2.646	-16.344	-26579	2382	-0.64884	-0.71541	0.29192
2.648	-16.346	-26578	2382.4	-0.64914	-0.71541	0.29153
2.65	-16.346	-26577	2382.8	-0.64943	-0.71541	0.29114
2.652	-16.345	-26578	2383.3	-0.64972	-0.71541	0.29075
2.654	-16.343	-26580	2383.8	-0.65002	-0.71541	0.29036
2.656	-16.338	-26580	2384.4	-0.65148	-0.71433	0.29016
2.658	-16.331	-26580	2384.9	-0.65294	-0.71326	0.28997
2.66	-16.324	-26580	2385.5	-0.65441	-0.71219	0.28977
2.662	-16.32	-26580	2386	-0.65587	-0.71111	0.28958
2.664	-16.322	-26580	2386.6	-0.65734	-0.71004	0.28938
2.666	-16.326	-26581	2387.1	-0.65558	-0.70906	0.28831
2.668	-16.325	-26581	2387.6	-0.65382	-0.70809	0.28724
2.67	-16.318	-26581	2388.1	-0.65207	-0.70711	0.28616
2.672	-16.316	-26580	2388.6	-0.65031	-0.70614	0.28509
2.674	-16.315	-26580	2389	-0.64855	-0.70516	0.28402
2.676	-16.31	-26578	2389.5	-0.64904	-0.70496	0.28568
2.678	-16.31	-26577	2389.9	-0.64953	-0.70477	0.28733
2.68	-16.308	-26579	2390.3	-0.65002	-0.70457	0.28899
2.682	-16.31	-26580	2390.8	-0.6505	-0.70438	0.29065
2.684	-16.311	-26579	2391.3	-0.65099	-0.70418	0.29231
2.686	-16.308	-26578	2391.7	-0.65148	-0.70438	0.29192
2.688	-16.306	-26579	2392	-0.65197	-0.70457	0.29153
2.69	-16.303	-26580	2392.4	-0.65246	-0.70477	0.29114
2.692	-16.299	-26580	2392.7	-0.65294	-0.70496	0.29075
2.694	-16.297	-26580	2393.1	-0.65343	-0.70516	0.29036
2.696	-16.3	-26581	2393.4	-0.65324	-0.70448	0.29104
2.698	-16.296	-26583	2393.7	-0.65304	-0.70379	0.29173
2.7	-16.288	-26586	2394	-0.65285	-0.70311	0.29241
2.702	-16.295	-26588	2394.2	-0.65265	-0.70243	0.29309
2.704	-16.3	-26580	2394.5	-0.65246	-0.70174	0.29378
2.706	-16.298	-26571	2394.8	-0.65207	-0.70204	0.29368
2.708	-16.297	-26568	2395.1	-0.65168	-0.70233	0.29358
2.71	-16.297	-26565	2395.4	-0.65128	-0.70262	0.29348
2.712	-16.297	-26566	2395.6	-0.65089	-0.70292	0.29339
2.714	-16.298	-26568	2395.9	-0.6505	-0.70321	0.29329
2.716	-16.294	-26568	2396.1	-0.64933	-0.70233	0.29378
2.718	-16.282	-26567	2396.3	-0.64816	-0.70145	0.29426
2.72	-16.284	-26569	2396.5	-0.64699	-0.70057	0.29475
2.722	-16.301	-26570	2396.8	-0.64582	-0.69969	0.29524
2.724	-16.303	-26573	2397	-0.64465	-0.69882	0.29573
2.726	-16.305	-26576	2397.2	-0.64436	-0.6993	0.29544
2.728	-16.304	-26575	2397.4	-0.64406	-0.69979	0.29514
2.73	-16.302	-26574	2397.5	-0.64377	-0.70028	0.29485
2.732	-16.306	-26574	2397.7	-0.64348	-0.70077	0.29456
2.734	-16.315	-26573	2397.8	-0.64318	-0.70126	0.29426
2.736	-16.325	-26572	2398	-0.64231	-0.70174	0.29417
2.738	-16.331	-26572	2398.1	-0.64143	-0.70223	0.29407
2.74	-16.334	-26572	2398.2	-0.64055	-0.70272	0.29397
2.742	-16.332	-26573	2398.4	-0.63967	-0.70321	0.29387
2.744	-16.333	-26571	2398.5	-0.63879	-0.7037	0.29378
2.746	-16.335	-26569	2398.6	-0.63879	-0.70448	0.29319
2.748	-16.332	-26568	2398.7	-0.63879	-0.70526	0.2926
2.75	-16.331	-26566	2398.8	-0.63879	-0.70604	0.29202
2.752	-16.339	-26566	2398.9	-0.63879	-0.70682	0.29143
2.754	-16.343	-26565	2399	-0.63879	-0.7076	0.29085
2.756	-16.344	-26562	2399	-0.6383	-0.70819	0.29065
2.758	-16.343	-26559	2399.1	-0.63782	-0.70877	0.29046
2.76	-16.344	-26556	2399.1	-0.63733	-0.70936	0.29026
2.762	-16.349	-26553	2399.1	-0.63684	-0.70994	0.29007
2.764	-16.354	-26560	2399.1	-0.63635	-0.71053	0.28987
2.766	-16.357	-26566	2399.1	-0.63596	-0.71033	0.28948
2.768	-16.361	-26565	2399.1	-0.63557	-0.71014	0.28909
2.77	-16.358	-26564	2399.1	-0.63518	-0.70994	0.2887
2.772	-16.362	-26560	2399.1	-0.63479	-0.70975	0.28831
2.774	-16.364	-26557	2399.2	-0.6344	-0.70955	0.28792
2.776	-16.37	-26560	2399.1	-0.63518	-0.70994	0.28802
2.778	-16.374	-26564	2399	-0.63596	-0.71033	0.28812
2.78	-16.368	-26561	2399	-0.63674	-0.71072	0.28821
2.782	-16.359	-26558	2398.9	-0.63752	-0.71111	0.28831
2.784	-16.358	-26555	2398.9	-0.6383	-0.7115	0.28841
2.786	-16.364	-26552	2398.9	-0.63879	-0.71102	0.28802
2.788	-16.371	-26555	2398.8	-0.63928	-0.71053	0.28763
2.79	-16.37	-26557	2398.8	-0.63977	-0.71004	0.28724
2.792	-16.369	-26554	2398.7	-0.64026	-0.70955	0.28685
2.794	-16.368	-26551	2398.7	-0.64074	-0.70906	0.28646
2.796	-16.366	-26550	2398.6	-0.64035	-0.70906	0.28636
2.798	-16.366	-26549	2398.5	-0.63996	-0.70906	0.28626
2.8	-16.362	-26554	2398.5	-0.63957	-0.70906	0.28616
2.802	-16.364	-26558	2398.4	-0.63918	-0.70906	0.28607
2.804	-16.365	-26555	2398.4	-0.63879	-0.70906	0.28597
2.806	-16.366	-26552	2398.3	-0.63967	-0.70799	0.28577
2.808	-16.372	-26550	2398.2	-0.64055	-0.70692	0.28558
2.81	-16.379	-26547	2398.1	-0.64143	-0.70584	0.28538
2.812	-16.38	-26547	2397.9	-0.64231	-0.70477	0.28519
2.814	-16.374	-26547	2397.8	-0.64318	-0.7037	0.28499
2.816	-16.372	-26548	2397.6	-0.64367	-0.7035	0.28607
2.818	-16.371	-26550	2397.5	-0.64416	-0.70331	0.28714
2.82	-16.366	-26551	2397.3	-0.64465	-0.70311	0.28821
2.822	-16.364	-26552	2397.1	-0.64514	-0.70292	0.28929
2.824	-16.367	-26550	2397	-0.64562	-0.70272	0.29036
2.826	-16.368	-26548	2396.8	-0.64484	-0.70282	0.28987
2.828	-16.368	-26551	2396.6	-0.64406	-0.70292	0.28938
2.83	-16.365	-26555	2396.3	-0.64328	-0.70301	0.2889
2.832	-16.368	-26552	2396.1	-0.6425	-0.70311	0.28841
2.834	-16.37	-26550	2395.9	-0.64172	-0.70321	0.28792
2.836	-16.371	-26555	2395.6	-0.64357	-0.7035	0.28899
2.838	-16.37	-26560	2395.4	-0.64543	-0.70379	0.29007
2.84	-16.375	-26558	2395.1	-0.64728	-0.70409	0.29114
2.842	-16.377	-26557	2394.9	-0.64914	-0.70438	0.29221
2.844	-16.37	-26553	2394.6	-0.65099	-0.70467	0.29329
2.846	-16.36	-26549	2394.3	-0.6505	-0.70428	0.29309
2.848	-16.361	-26554	2394	-0.65002	-0.70389	0.2929
2.85	-16.367	-26560	2393.7	-0.64953	-0.7035	0.2927
2.852	-16.37	-26560	2393.4	-0.64904	-0.70311	0.29251
2.854	-16.373	-26561	2393.1	-0.64855	-0.70272	0.29231
2.856	-16.376	-26556	2392.8	-0.64826	-0.70233	0.29182
2.858	-16.372	-26551	2392.5	-0.64797	-0.70194	0.29134
2.86	-16.367	-26552	2392.2	-0.64767	-0.70155	0.29085
2.862	-16.366	-26554	2391.9	-0.64738	-0.70116	0.29036
2.864	-16.368	-26552	2391.6	-0.64709	-0.70077	0.28987
2.866	-16.368	-26549	2391.3	-0.6467	-0.70048	0.29065
2.868	-16.367	-26554	2391	-0.64631	-0.70018	0.29143
2.87	-16.369	-26558	2390.8	-0.64592	-0.69989	0.29221
2.872	-16.368	-26556	2390.6	-0.64553	-0.6996	0.293
2.874	-16.368	-26554	2390.3	-0.64514	-0.6993	0.29378
2.876	-16.364	-26556	2390.2	-0.64533	-0.6995	0.29397
2.878	-16.357	-26558	2390	-0.64553	-0.69969	0.29417
2.88	-16.364	-26560	2389.8	-0.64572	-0.69989	0.29436
2.882	-16.37	-26563	2389.6	-0.64592	-0.70008	0.29456
2.884	-16.369	-26563	2389.5	-0.64611	-0.70028	0.29475
2.886	-16.37	-26563	2389.4	-0.64582	-0.70028	0.29417
2.888	-16.373	-26559	2389.3	-0.64553	-0.70028	0.29358
2.89	-16.371	-26555	2389.2	-0.64523	-0.70028	0.293
2.892	-16.364	-26559	2389.2	-0.64494	-0.70028	0.29241
2.894	-16.358	-26563	2389.1	-0.64465	-0.70028	0.29182
2.896	-16.361	-26570	2389.1	-0.64504	-0.70018	0.29163
2.898	-16.364	-26577	2389	-0.64543	-0.70008	0.29143
2.9	-16.359	-26572	2389	-0.64582	-0.69999	0.29124
2.902	-16.355	-26566	2389	-0.64621	-0.69989	0.29104
2.904	-16.36	-26568	2389	-0.6466	-0.69979	0.29085
2.906	-16.367	-26569	2389	-0.64543	-0.70106	0.28997
2.908	-16.368	-26564	2389	-0.64426	-0.70233	0.28909
2.91	-16.368	-26559	2389.1	-0.64309	-0.7036	0.28821
2.912	-16.371	-26562	2389	-0.64192	-0.70487	0.28733
2.914	-16.372	-26566	2389	-0.64074	-0.70614	0.28646
2.916	-16.372	-26566	2389	-0.64084	-0.70614	0.28626
2.918	-16.375	-26566	2389	-0.64094	-0.70614	0.28607
2.92	-16.384	-26570	2389	-0.64104	-0.70614	0.28587
2.922	-16.384	-26573	2389	-0.64113	-0.70614	0.28568
2.924	-16.378	-26573	2389	-0.64123	-0.70614	0.28548
2.926	-16.371	-26572	2389	-0.64123	-0.70653	0.28519
2.928	-16.369	-26571	2389	-0.64123	-0.70692	0.28489
2.93	-16.362	-26571	2389	-0.64123	-0.70731	0.2846
2.932	-16.367	-26567	2389	-0.64123	-0.7077	0.28431
2.934	-16.368	-26564	2389	-0.64123	-0.70809	0.28402
2.936	-16.365	-26567	2388.9	-0.64094	-0.70731	0.28411
2.938	-16.36	-26570	2388.9	-0.64065	-0.70653	0.28421
2.94	-16.365	-26568	2388.8	-0.64035	-0.70575	0.28431
2.942	-16.37	-26567	2388.8	-0.64006	-0.70496	0.28441
2.944	-16.365	-26570	2388.7	-0.63977	-0.70418	0.2845
2.946	-16.365	-26573	2388.7	-0.63957	-0.70496	0.28538
2.948	-16.369	-26571	2388.7	-0.63938	-0.70575	0.28626
2.95	-16.372	-26568	2388.7	-0.63918	-0.70653	0.28714
2.952	-16.376	-26568	2388.6	-0.63899	-0.70731	0.28802
2.954	-16.371	-26568	2388.6	-0.63879	-0.70809	0.2889
2.956	-16.37	-26566	2388.5	-0.63879	-0.70838	0.28802
2.958	-16.368	-26565	2388.5	-0.63879	-0.70867	0.28714
2.96	-16.368	-26566	2388.4	-0.63879	-0.70897	0.28626
2.962	-16.364	-26568	2388.4	-0.63879	-0.70926	0.28538
2.964	-16.363	-26572	2388.3	-0.63879	-0.70955	0.2845
2.966	-16.363	-26575	2388.3	-0.63899	-0.70897	0.28509
2.968	-16.368	-26573	2388.3	-0.63918	-0.70838	0.28568
2.97	-16.369	-26571	2388.2	-0.63938	-0.7078	0.28626
2.972	-16.366	-26570	2388.2	-0.63957	-0.70721	0.28685
2.974	-16.365	-26569	2388.2	-0.63977	-0.70662	0.28743
2.976	-16.37	-26564	2388.1	-0.63977	-0.70721	0.28782
2.978	-16.377	-26560	2388.1	-0.63977	-0.7078	0.28821
2.98	-16.379	-26564	2388.1	-0.63977	-0.70838	0.2886
2.982	-16.374	-26568	2388	-0.63977	-0.70897	0.28899
2.984	-16.37	-26570	2388	-0.63977	-0.70955	0.28938
2.986	-16.373	-26571	2388	-0.63948	-0.70955	0.28782
2.988	-16.373	-26565	2387.9	-0.63918	-0.70955	0.28626
2.99	-16.371	-26558	2387.9	-0.63889	-0.70955	0.2847
2.992	-16.378	-26559	2387.9	-0.6386	-0.70955	0.28314
2.994	-16.387	-26559	2387.8	-0.6383	-0.70955	0.28158
2.996	-16.389	-26565	2387.8	-0.6384	-0.70906	0.28245
2.998	-16.383	-26570	2387.7	-0.6385	-0.70858	0.28333
3	-16.377	-26567	2387.7	-0.6386	-0.70809	0.28421
3.002	-16.373	-26564	2387.7	-0.63869	-0.7076	0.28509
3.004	-16.369	-26570	2387.6	-0.63879	-0.70711	0.28597
3.006	-16.368	-26577	2387.6	-0.6386	-0.7077	0.28616
3.008	-16.369	-26571	2387.6	-0.6384	-0.70828	0.28636
3.01	-16.369	-26565	2387.5	-0.63821	-0.70887	0.28655
3.012	-16.37	-26567	2387.5	-0.63801	-0.70945	0.28675
3.014	-16.372	-26570	2387.4	-0.63782	-0.71004	0.28694
3.016	-16.374	-26570	2387.4	-0.63772	-0.71004	0.28694
3.018	-16.373	-26571	2387.3	-0.63762	-0.71004	0.28694
3.02	-16.375	-26569	2387.2	-0.63752	-0.71004	0.28694
3.022	-16.375	-26567	2387.2	-0.63743	-0.71004	0.28694
3.024	-16.368	-26565	2387.1	-0.63733	-0.71004	0.28694
3.026	-16.367	-26562	2387.1	-0.63762	-0.70984	0.28685
3.028	-16.375	-26562	2387	-0.63791	-0.70965	0.28675
3.03	-16.381	-26563	2387	-0.63821	-0.70945	0.28665
3.032	-16.385	-26568	2386.9	-0.6385	-0.70926	0.28655
3.034	-16.378	-26573	2386.8	-0.63879	-0.70906	0.28646
3.036	-16.371	-26570	2386.7	-0.63879	-0.70838	0.28675
3.038	-16.375	-26567	2386.6	-0.63879	-0.7077	0.28704
3.04	-16.374	-26573	2386.5	-0.63879	-0.70701	0.28733
3.042	-16.372	-26580	2386.5	-0.63879	-0.70633	0.28763
3.044	-16.371	-26573	2386.4	-0.63879	-0.70565	0.28792
3.046	-16.369	-26567	2386.3	-0.63869	-0.70594	0.28763
3.048	-16.369	-26571	2386.1	-0.6386	-0.70623	0.28733
3.05	-16.367	-26576	2386	-0.6385	-0.70653	0.28704
3.052	-16.372	-26574	2385.9	-0.6384	-0.70682	0.28675
3.054	-16.378	-26572	2385.8	-0.6383	-0.70711	0.28646
3.056	-16.382	-26571	2385.7	-0.6383	-0.70789	0.28675
3.058	-16.374	-26570	2385.5	-0.6383	-0.70867	0.28704
3.06	-16.362	-26572	2385.4	-0.6383	-0.70945	0.28733
3.062	-16.355	-26575	2385.3	-0.6383	-0.71024	0.28763
3.064	-16.361	-26573	2385.1	-0.6383	-0.71102	0.28792
3.066	-16.372	-26572	2385	-0.6383	-0.71063	0.28792
3.068	-16.375	-26576	2384.9	-0.6383	-0.71024	0.28792
3.07	-16.376	-26579	2384.7	-0.6383	-0.70984	0.28792
3.072	-16.38	-26576	2384.6	-0.6383	-0.70945	0.28792
3.074	-16.379	-26573	2384.5	-0.6383	-0.70906	0.28792
3.076	-16.373	-26573	2384.3	-0.63869	-0.70867	0.28694
3.078	-16.369	-26572	2384.1	-0.63908	-0.70828	0.28597
3.08	-16.372	-26567	2384	-0.63948	-0.70789	0.28499
3.082	-16.375	-26563	2383.8	-0.63987	-0.7075	0.28402
3.084	-16.369	-26572	2383.7	-0.64026	-0.70711	0.28304
3.086	-16.365	-26581	2383.5	-0.64055	-0.70633	0.28402
3.088	-16.37	-26579	2383.3	-0.64084	-0.70555	0.28499
3.09	-16.374	-26578	2383.2	-0.64113	-0.70477	0.28597
3.092	-16.379	-26579	2383	-0.64143	-0.70399	0.28694
3.094	-16.381	-26579	2382.8	-0.64172	-0.70321	0.28792
3.096	-16.375	-26577	2382.7	-0.64231	-0.70321	0.2886
3.098	-16.368	-26575	2382.5	-0.64289	-0.70321	0.28929
3.1	-16.37	-26573	2382.4	-0.64348	-0.70321	0.28997
3.102	-16.379	-26570	2382.2	-0.64406	-0.70321	0.29065
3.104	-16.378	-26573	2382.1	-0.64465	-0.70321	0.29134
3.106	-16.375	-26576	2382	-0.64543	-0.70321	0.29153
3.108	-16.372	-26574	2381.9	-0.64621	-0.70321	0.29173
3.11	-16.366	-26572	2381.8	-0.64699	-0.70321	0.29192
3.112	-16.365	-26576	2381.7	-0.64777	-0.70321	0.29212
3.114	-16.36	-26579	2381.5	-0.64855	-0.70321	0.29231
3.116	-16.349	-26583	2381.5	-0.64748	-0.70301	0.29124
3.118	-16.357	-26587	2381.4	-0.6464	-0.70282	0.29016
3.12	-16.369	-26586	2381.3	-0.64533	-0.70262	0.28909
3.122	-16.366	-26586	2381.3	-0.64426	-0.70243	0.28802
3.124	-16.367	-26584	2381.2	-0.64318	-0.70223	0.28694
3.126	-16.367	-26583	2381.1	-0.64426	-0.70194	0.28802
3.128	-16.356	-26579	2381	-0.64533	-0.70165	0.28909
3.13	-16.356	-26575	2380.9	-0.6464	-0.70135	0.29016
3.132	-16.361	-26579	2380.9	-0.64748	-0.70106	0.29124
3.134	-16.355	-26583	2380.8	-0.64855	-0.70077	0.29231
3.136	-16.347	-26582	2380.8	-0.64855	-0.70155	0.29163
3.138	-16.346	-26582	2380.7	-0.64855	-0.70233	0.29095
3.14	-16.349	-26582	2380.6	-0.64855	-0.70311	0.29026
3.142	-16.348	-26582	2380.6	-0.64855	-0.70389	0.28958
3.144	-16.34	-26579	2380.5	-0.64855	-0.70467	0.2889
3.146	-16.325	-26575	2380.4	-0.64894	-0.70594	0.28958
3.148	-16.315	-26575	2380.4	-0.64933	-0.70721	0.29026
3.15	-16.319	-26574	2380.3	-0.64972	-0.70848	0.29095
3.152	-16.325	-26575	2380.2	-0.65011	-0.70975	0.29163
3.154	-16.324	-26576	2380.1	-0.6505	-0.71102	0.29231
3.156	-16.324	-26579	2380.1	-0.65021	-0.70887	0.2926
3.158	-16.317	-26582	2380	-0.64992	-0.70672	0.2929
3.16	-16.307	-26583	2379.9	-0.64963	-0.70457	0.29319
3.162	-16.309	-26585	2379.8	-0.64933	-0.70243	0.29348
3.164	-16.317	-26582	2379.8	-0.64904	-0.70028	0.29378
3.166	-16.322	-26579	2379.7	-0.65002	-0.70077	0.29319
3.168	-16.321	-26581	2379.6	-0.65099	-0.70126	0.2926
3.17	-16.316	-26584	2379.5	-0.65197	-0.70174	0.29202
3.172	-16.313	-26589	2379.5	-0.65294	-0.70223	0.29143
3.174	-16.318	-26593	2379.4	-0.65392	-0.70272	0.29085
3.176	-16.329	-26598	2379.3	-0.65372	-0.70301	0.29095
3.178	-16.339	-26602	2379.3	-0.65353	-0.70331	0.29104
3.18	-16.343	-26597	2379.2	-0.65333	-0.7036	0.29114
3.182	-16.353	-26592	2379.1	-0.65314	-0.70389	0.29124
3.184	-16.36	-26593	2379	-0.65294	-0.70418	0.29134
3.186	-16.365	-26594	2378.9	-0.65226	-0.7036	0.29095
3.188	-16.363	-26597	2378.8	-0.65158	-0.70301	0.29056
3.19	-16.355	-26600	2378.8	-0.65089	-0.70243	0.29016
3.192	-16.362	-26600	2378.8	-0.65021	-0.70184	0.28977
3.194	-16.385	-26600	2378.8	-0.64953	-0.70126	0.28938
3.196	-16.384	-26593	2378.8	-0.64992	-0.70213	0.28997
3.198	-16.381	-26585	2378.7	-0.65031	-0.70301	0.29056
3.2	-16.383	-26588	2378.7	-0.6507	-0.70389	0.29114
3.202	-16.386	-26591	2378.6	-0.65109	-0.70477	0.29173
3.204	-16.38	-26592	2378.5	-0.65148	-0.70565	0.29231
3.206	-16.373	-26593	2378.4	-0.65148	-0.70448	0.2929
3.208	-16.367	-26601	2378.3	-0.65148	-0.70331	0.29348
3.21	-16.371	-26608	2378.3	-0.65148	-0.70213	0.29407
3.212	-16.375	-26599	2378.2	-0.65148	-0.70096	0.29465
3.214	-16.383	-26589	2378.2	-0.65148	-0.69979	0.29524
3.216	-16.387	-26594	2378.1	-0.65031	-0.70028	0.29407
3.218	-16.387	-26599	2378.1	-0.64914	-0.70077	0.2929
3.22	-16.384	-26597	2378	-0.64797	-0.70126	0.29173
3.222	-16.38	-26595	2378	-0.6468	-0.70174	0.29056
3.224	-16.374	-26598	2377.9	-0.64562	-0.70223	0.28938
3.226	-16.369	-26602	2377.9	-0.64611	-0.70252	0.28919
3.228	-16.362	-26601	2377.9	-0.6466	-0.70282	0.28899
3.23	-16.346	-26599	2377.9	-0.64709	-0.70311	0.2888
3.232	-16.335	-26595	2377.9	-0.64758	-0.7034	0.2886
3.234	-16.335	-26592	2377.9	-0.64806	-0.7037	0.28841
3.236	-16.338	-26594	2377.8	-0.64699	-0.7036	0.28802
3.238	-16.338	-26597	2377.8	-0.64592	-0.7035	0.28763
3.24	-16.334	-26597	2377.7	-0.64484	-0.7034	0.28724
3.242	-16.331	-26598	2377.7	-0.64377	-0.70331	0.28685
3.244	-16.329	-26599	2377.7	-0.6427	-0.70321	0.28646
3.246	-16.319	-26601	2377.6	-0.64387	-0.70301	0.28714
3.248	-16.305	-26604	2377.6	-0.64504	-0.70282	0.28782
3.25	-16.288	-26607	2377.6	-0.64621	-0.70262	0.28851
3.252	-16.27	-26602	2377.6	-0.64738	-0.70243	0.28919
3.254	-16.253	-26597	2377.6	-0.64855	-0.70223	0.28987
3.256	-16.239	-26602	2377.6	-0.64894	-0.70282	0.28987
3.258	-16.23	-26606	2377.5	-0.64933	-0.7034	0.28987
3.26	-16.221	-26610	2377.5	-0.64972	-0.70399	0.28987
3.262	-16.223	-26614	2377.4	-0.65011	-0.70457	0.28987
3.264	-16.24	-26614	2377.4	-0.6505	-0.70516	0.28987
3.266	-16.267	-26614	2377.3	-0.64992	-0.70457	0.28977
3.268	-16.297	-26613	2377.3	-0.64933	-0.70399	0.28968
3.27	-16.336	-26612	2377.3	-0.64875	-0.7034	0.28958
3.272	-16.365	-26607	2377.2	-0.64816	-0.70282	0.28948
3.274	-16.39	-26603	2377.1	-0.64758	-0.70223	0.28938
3.276	-16.419	-26605	2377.1	-0.64836	-0.70292	0.28977
3.278	-16.443	-26606	2377	-0.64914	-0.7036	0.29016
3.28	-16.459	-26609	2377	-0.64992	-0.70428	0.29056
3.282	-16.472	-26612	2377	-0.6507	-0.70496	0.29095
3.284	-16.444	-26610	2376.9	-0.65148	-0.70565	0.29134
3.286	-16.409	-26608	2376.9	-0.65207	-0.70545	0.29114
3.288	-16.383	-26608	2376.8	-0.65265	-0.70526	0.29095
3.29	-16.376	-26608	2376.7	-0.65324	-0.70506	0.29075
3.292	-16.374	-26607	2376.6	-0.65382	-0.70487	0.29056
3.294	-16.373	-26606	2376.5	-0.65441	-0.70467	0.29036
3.296	-16.365	-26607	2376.5	-0.65324	-0.7034	0.29065
3.298	-16.363	-26609	2376.4	-0.65207	-0.70213	0.29095
3.3	-16.361	-26614	2376.3	-0.65089	-0.70087	0.29124
3.302	-16.365	-26619	2376.3	-0.64972	-0.6996	0.29153
3.304	-16.37	-26616	2376.2	-0.64855	-0.69833	0.29182
3.306	-16.368	-26612	2376.1	-0.64806	-0.69921	0.29124
3.308	-16.355	-26611	2376	-0.64758	-0.70008	0.29065
3.31	-16.342	-26610	2375.9	-0.64709	-0.70096	0.29007
3.312	-16.343	-26612	2375.9	-0.6466	-0.70184	0.28948
3.314	-16.35	-26615	2375.8	-0.64611	-0.70272	0.2889
3.316	-16.352	-26614	2375.7	-0.6466	-0.70262	0.28938
3.318	-16.362	-26613	2375.7	-0.64709	-0.70252	0.28987
3.32	-16.373	-26607	2375.6	-0.64758	-0.70243	0.29036
3.322	-16.378	-26601	2375.6	-0.64806	-0.70233	0.29085
3.324	-16.38	-26603	2375.5	-0.64855	-0.70223	0.29134
3.326	-16.377	-26605	2375.5	-0.64963	-0.70272	0.29134
3.328	-16.371	-26607	2375.5	-0.6507	-0.70321	0.29134
3.33	-16.368	-26609	2375.5	-0.65177	-0.7037	0.29134
3.332	-16.368	-26612	2375.5	-0.65285	-0.70418	0.29134
3.334	-16.369	-26616	2375.5	-0.65392	-0.70467	0.29134
3.336	-16.368	-26617	2375.5	-0.65236	-0.70418	0.29085
3.338	-16.366	-26618	2375.6	-0.6508	-0.7037	0.29036
3.34	-16.368	-26610	2375.6	-0.64924	-0.70321	0.28987
3.342	-16.369	-26602	2375.6	-0.64767	-0.70272	0.28938
3.344	-16.369	-26608	2375.7	-0.64611	-0.70223	0.2889
3.346	-16.371	-26614	2375.7	-0.6466	-0.70252	0.28919
3.348	-16.37	-26620	2375.7	-0.64709	-0.70282	0.28948
3.35	-16.366	-26626	2375.7	-0.64758	-0.70311	0.28977
3.352	-16.364	-26623	2375.7	-0.64806	-0.7034	0.29007
3.354	-16.363	-26619	2375.8	-0.64855	-0.7037	0.29036
3.356	-16.364	-26619	2375.7	-0.64845	-0.7037	0.29036
3.358	-16.366	-26619	2375.7	-0.64836	-0.7037	0.29036
3.36	-16.374	-26619	2375.7	-0.64826	-0.7037	0.29036
3.362	-16.379	-26619	2375.6	-0.64816	-0.7037	0.29036
3.364	-16.379	-26617	2375.6	-0.64806	-0.7037	0.29036
3.366	-16.384	-26615	2375.5	-0.64816	-0.70301	0.29046
3.368	-16.378	-26615	2375.4	-0.64826	-0.70233	0.29056
3.37	-16.371	-26615	2375.3	-0.64836	-0.70165	0.29065
3.372	-16.376	-26614	2375.3	-0.64845	-0.70096	0.29075
3.374	-16.374	-26613	2375.2	-0.64855	-0.70028	0.29085
3.376	-16.37	-26618	2375.1	-0.64914	-0.70067	0.29085
3.378	-16.376	-26624	2374.9	-0.64972	-0.70106	0.29085
3.38	-16.371	-26625	2374.8	-0.65031	-0.70145	0.29085
3.382	-16.358	-26626	2374.6	-0.65089	-0.70184	0.29085
3.384	-16.362	-26624	2374.4	-0.65148	-0.70223	0.29085
3.386	-16.363	-26623	2374.2	-0.6506	-0.70223	0.29016
3.388	-16.355	-26623	2374	-0.64972	-0.70223	0.28948
3.39	-16.355	-26622	2373.8	-0.64884	-0.70223	0.2888
3.392	-16.361	-26622	2373.6	-0.64797	-0.70223	0.28812
3.394	-16.364	-26622	2373.3	-0.64709	-0.70223	0.28743
3.396	-16.366	-26622	2373.1	-0.64601	-0.70087	0.28753
3.398	-16.364	-26623	2372.9	-0.64494	-0.6995	0.28763
3.4	-16.365	-26624	2372.6	-0.64387	-0.69813	0.28772
3.402	-16.369	-26625	2372.3	-0.64279	-0.69677	0.28782
3.404	-16.372	-26622	2372.1	-0.64172	-0.6954	0.28792
3.406	-16.37	-26619	2371.8	-0.64211	-0.69579	0.28821
3.408	-16.368	-26618	2371.6	-0.6425	-0.69618	0.28851
3.41	-16.362	-26616	2371.4	-0.64289	-0.69657	0.2888
3.412	-16.354	-26621	2371.2	-0.64328	-0.69696	0.28909
3.414	-16.351	-26625	2371	-0.64367	-0.69735	0.28938
3.416	-16.35	-26628	2370.9	-0.64436	-0.69764	0.29016
3.418	-16.352	-26630	2370.7	-0.64504	-0.69794	0.29095
3.42	-16.359	-26630	2370.6	-0.64572	-0.69823	0.29173
3.422	-16.358	-26631	2370.5	-0.6464	-0.69852	0.29251
3.424	-16.349	-26630	2370.3	-0.64709	-0.69882	0.29329
3.426	-16.339	-26628	2370.3	-0.64728	-0.6995	0.29348
3.428	-16.336	-26628	2370.2	-0.64748	-0.70018	0.29368
3.43	-16.339	-26627	2370.2	-0.64767	-0.70087	0.29387
3.432	-16.342	-26624	2370.2	-0.64787	-0.70155	0.29407
3.434	-16.343	-26621	2370.3	-0.64806	-0.70223	0.29426
3.436	-16.342	-26620	2370.4	-0.64709	-0.70243	0.29348
3.438	-16.335	-26618	2370.5	-0.64611	-0.70262	0.2927
3.44	-16.339	-26620	2370.6	-0.64514	-0.70282	0.29192
3.442	-16.35	-26622	2370.9	-0.64416	-0.70301	0.29114
3.444	-16.353	-26624	2371.1	-0.64318	-0.70321	0.29036
3.446	-16.348	-26626	2371.4	-0.64338	-0.70301	0.28987
3.448	-16.338	-26625	2371.7	-0.64357	-0.70282	0.28938
3.45	-16.326	-26623	2372.1	-0.64377	-0.70262	0.2889
3.452	-16.321	-26627	2372.5	-0.64396	-0.70243	0.28841
3.454	-16.327	-26630	2373	-0.64416	-0.70223	0.28792
3.456	-16.331	-26633	2373.5	-0.64436	-0.70233	0.28753
3.458	-16.328	-26636	2374	-0.64455	-0.70243	0.28714
3.46	-16.325	-26634	2374.5	-0.64475	-0.70252	0.28675
3.462	-16.323	-26633	2375	-0.64494	-0.70262	0.28636
3.464	-16.32	-26633	2375.5	-0.64514	-0.70272	0.28597
3.466	-16.321	-26633	2376.1	-0.64514	-0.70282	0.28607
3.468	-16.316	-26630	2376.7	-0.64514	-0.70292	0.28616
3.47	-16.316	-26627	2377.2	-0.64514	-0.70301	0.28626
3.472	-16.317	-26625	2377.8	-0.64514	-0.70311	0.28636
3.474	-16.317	-26624	2378.4	-0.64514	-0.70321	0.28646
3.476	-16.32	-26627	2379	-0.64523	-0.70282	0.28655
3.478	-16.321	-26630	2379.6	-0.64533	-0.70243	0.28665
3.48	-16.319	-26630	2380.2	-0.64543	-0.70204	0.28675
3.482	-16.315	-26630	2380.7	-0.64553	-0.70165	0.28685
3.484	-16.311	-26632	2381.2	-0.64562	-0.70126	0.28694
3.486	-16.309	-26633	2381.7	-0.64582	-0.70077	0.28733
3.488	-16.311	-26633	2382.3	-0.64601	-0.70028	0.28772
3.49	-16.316	-26632	2382.8	-0.64621	-0.69979	0.28812
3.492	-16.318	-26628	2383.3	-0.6464	-0.6993	0.28851
3.494	-16.318	-26624	2383.8	-0.6466	-0.69882	0.2889
3.496	-16.314	-26622	2384.2	-0.64875	-0.6995	0.28968
3.498	-16.306	-26620	2384.7	-0.65089	-0.70018	0.29046
3.5	-16.298	-26621	2385.1	-0.65304	-0.70087	0.29124
3.502	-16.291	-26622	2385.5	-0.65519	-0.70155	0.29202
3.504	-16.286	-26623	2385.8	-0.65734	-0.70223	0.2928
3.506	-16.289	-26623	2386.2	-0.65714	-0.70204	0.29329
3.508	-16.293	-26622	2386.5	-0.65695	-0.70184	0.29378
3.51	-16.294	-26622	2386.8	-0.65675	-0.70165	0.29426
3.512	-16.299	-26620	2387.1	-0.65656	-0.70145	0.29475
3.514	-16.306	-26618	2387.4	-0.65636	-0.70126	0.29524
3.516	-16.31	-26617	2387.6	-0.65587	-0.70155	0.29524
3.518	-16.309	-26616	2387.8	-0.65538	-0.70184	0.29524
3.52	-16.309	-26614	2388	-0.6549	-0.70213	0.29524
3.522	-16.303	-26612	2388.2	-0.65441	-0.70243	0.29524
3.524	-16.3	-26614	2388.4	-0.65392	-0.70272	0.29524
3.526	-16.303	-26616	2388.5	-0.65294	-0.70262	0.29456
3.528	-16.318	-26612	2388.7	-0.65197	-0.70252	0.29387
3.53	-16.316	-26609	2388.8	-0.65099	-0.70243	0.29319
3.532	-16.31	-26607	2388.9	-0.65002	-0.70233	0.29251
3.534	-16.31	-26606	2389	-0.64904	-0.70223	0.29182
3.536	-16.319	-26614	2389.1	-0.64894	-0.70165	0.2927
3.538	-16.316	-26623	2389.2	-0.64884	-0.70106	0.29358
3.54	-16.307	-26619	2389.3	-0.64875	-0.70048	0.29446
3.542	-16.305	-26614	2389.3	-0.64865	-0.69989	0.29534
3.544	-16.308	-26607	2389.3	-0.64855	-0.6993	0.29622
3.546	-16.305	-26600	2389.3	-0.64748	-0.69921	0.29631
3.548	-16.308	-26597	2389.4	-0.6464	-0.69911	0.29641
3.55	-16.314	-26594	2389.4	-0.64533	-0.69901	0.29651
3.552	-16.32	-26601	2389.4	-0.64426	-0.69891	0.29661
3.554	-16.326	-26607	2389.4	-0.64318	-0.69882	0.2967
3.556	-16.326	-26604	2389.4	-0.64357	-0.69921	0.2969
3.558	-16.328	-26601	2389.4	-0.64396	-0.6996	0.29709
3.56	-16.336	-26598	2389.4	-0.64436	-0.69999	0.29729
3.562	-16.338	-26596	2389.4	-0.64475	-0.70038	0.29748
3.564	-16.345	-26598	2389.4	-0.64514	-0.70077	0.29768
3.566	-16.348	-26599	2389.4	-0.64475	-0.70048	0.29748
3.568	-16.346	-26602	2389.4	-0.64436	-0.70018	0.29729
3.57	-16.34	-26605	2389.4	-0.64396	-0.69989	0.29709
3.572	-16.338	-26603	2389.4	-0.64357	-0.6996	0.2969
3.574	-16.341	-26602	2389.4	-0.64318	-0.6993	0.2967
3.576	-16.349	-26596	2389.3	-0.64436	-0.70106	0.29514
3.578	-16.355	-26590	2389.3	-0.64553	-0.70282	0.29358
3.58	-16.356	-26592	2389.3	-0.6467	-0.70457	0.29202
3.582	-16.355	-26594	2389.3	-0.64787	-0.70633	0.29046
3.584	-16.352	-26596	2389.3	-0.64904	-0.70809	0.2889
3.586	-16.357	-26597	2389.2	-0.64826	-0.70643	0.28899
3.588	-16.361	-26594	2389.2	-0.64748	-0.70477	0.28909
3.59	-16.356	-26590	2389.3	-0.6467	-0.70311	0.28919
3.592	-16.352	-26590	2389.3	-0.64592	-0.70145	0.28929
3.594	-16.35	-26591	2389.3	-0.64514	-0.69979	0.28938
3.596	-16.353	-26593	2389.3	-0.64611	-0.70106	0.28938
3.598	-16.355	-26595	2389.3	-0.64709	-0.70233	0.28938
3.6	-16.355	-26590	2389.3	-0.64806	-0.7036	0.28938
3.602	-16.352	-26586	2389.3	-0.64904	-0.70487	0.28938
3.604	-16.347	-26586	2389.3	-0.65002	-0.70614	0.28938
3.606	-16.346	-26586	2389.3	-0.64972	-0.70516	0.28938
3.608	-16.35	-26584	2389.3	-0.64943	-0.70418	0.28938
3.61	-16.357	-26582	2389.2	-0.64914	-0.70321	0.28938
3.612	-16.357	-26583	2389.2	-0.64884	-0.70223	0.28938
3.614	-16.353	-26584	2389.2	-0.64855	-0.70126	0.28938
3.616	-16.356	-26581	2389.1	-0.64894	-0.70145	0.28909
3.618	-16.349	-26578	2389.1	-0.64933	-0.70165	0.2888
3.62	-16.343	-26583	2389.1	-0.64972	-0.70184	0.28851
3.622	-16.344	-26587	2389	-0.65011	-0.70204	0.28821
3.624	-16.35	-26586	2388.9	-0.6505	-0.70223	0.28792
3.626	-16.353	-26586	2388.8	-0.6508	-0.70301	0.28772
3.628	-16.36	-26585	2388.7	-0.65109	-0.70379	0.28753
3.63	-16.358	-26584	2388.6	-0.65138	-0.70457	0.28733
3.632	-16.355	-26579	2388.5	-0.65168	-0.70536	0.28714
3.634	-16.354	-26573	2388.4	-0.65197	-0.70614	0.28694
3.636	-16.357	-26582	2388.3	-0.65255	-0.70506	0.28763
3.638	-16.352	-26591	2388.1	-0.65314	-0.70399	0.28831
3.64	-16.346	-26586	2388	-0.65372	-0.70292	0.28899
3.642	-16.342	-26581	2387.8	-0.65431	-0.70184	0.28968
3.644	-16.344	-26585	2387.6	-0.6549	-0.70077	0.29036
3.646	-16.35	-26590	2387.4	-0.65333	-0.70096	0.29026
3.648	-16.356	-26590	2387.2	-0.65177	-0.70116	0.29016
3.65	-16.353	-26590	2387	-0.65021	-0.70135	0.29007
3.652	-16.342	-26586	2386.8	-0.64865	-0.70155	0.28997
3.654	-16.343	-26582	2386.6	-0.64709	-0.70174	0.28987
3.656	-16.353	-26581	2386.4	-0.64787	-0.70145	0.29007
3.658	-16.359	-26581	2386.1	-0.64865	-0.70116	0.29026
3.66	-16.355	-26587	2385.9	-0.64943	-0.70087	0.29046
3.662	-16.348	-26593	2385.7	-0.65021	-0.70057	0.29065
3.664	-16.345	-26593	2385.5	-0.65099	-0.70028	0.29085
3.666	-16.347	-26593	2385.2	-0.65109	-0.70096	0.29095
3.668	-16.348	-26589	2385	-0.65119	-0.70165	0.29104
3.67	-16.347	-26586	2384.8	-0.65128	-0.70233	0.29114
3.672	-16.345	-26589	2384.5	-0.65138	-0.70301	0.29124
3.674	-16.346	-26591	2384.3	-0.65148	-0.7037	0.29134
3.676	-16.349	-26591	2384.2	-0.6506	-0.70321	0.29143
3.678	-16.353	-26590	2384	-0.64972	-0.70272	0.29153
3.68	-16.354	-26592	2383.8	-0.64884	-0.70223	0.29163
3.682	-16.357	-26594	2383.6	-0.64797	-0.70174	0.29173
3.684	-16.357	-26592	2383.5	-0.64709	-0.70126	0.29182
3.686	-16.352	-26591	2383.4	-0.64689	-0.70135	0.29134
3.688	-16.347	-26590	2383.3	-0.6467	-0.70145	0.29085
3.69	-16.347	-26590	2383.2	-0.6465	-0.70155	0.29036
3.692	-16.351	-26589	2383.1	-0.64631	-0.70165	0.28987
3.694	-16.355	-26587	2383	-0.64611	-0.70174	0.28938
3.696	-16.36	-26590	2383	-0.64689	-0.70155	0.29046
3.698	-16.364	-26593	2383	-0.64767	-0.70135	0.29153
3.7	-16.364	-26594	2383	-0.64845	-0.70116	0.2926
3.702	-16.362	-26596	2383	-0.64924	-0.70096	0.29368
3.704	-16.357	-26599	2382.9	-0.65002	-0.70077	0.29475
3.706	-16.352	-26603	2383	-0.64953	-0.70096	0.29378
3.708	-16.36	-26600	2383	-0.64904	-0.70116	0.2928
3.71	-16.355	-26596	2383.1	-0.64855	-0.70135	0.29182
3.712	-16.345	-26596	2383.1	-0.64806	-0.70155	0.29085
3.714	-16.34	-26596	2383.2	-0.64758	-0.70174	0.28987
3.716	-16.35	-26597	2383.3	-0.64748	-0.70165	0.29026
3.718	-16.348	-26598	2383.3	-0.64738	-0.70155	0.29065
3.72	-16.351	-26599	2383.4	-0.64728	-0.70145	0.29104
3.722	-16.351	-26600	2383.5	-0.64719	-0.70135	0.29143
3.724	-16.35	-26603	2383.5	-0.64709	-0.70126	0.29182
3.726	-16.353	-26606	2383.6	-0.64758	-0.70262	0.29124
3.728	-16.358	-26607	2383.6	-0.64806	-0.70399	0.29065
3.73	-16.353	-26608	2383.7	-0.64855	-0.70536	0.29007
3.732	-16.36	-26604	2383.7	-0.64904	-0.70672	0.28948
3.734	-16.363	-26601	2383.8	-0.64953	-0.70809	0.2889
3.736	-16.362	-26598	2383.9	-0.65002	-0.70731	0.28909
3.738	-16.356	-26596	2383.9	-0.6505	-0.70653	0.28929
3.74	-16.35	-26602	2384	-0.65099	-0.70575	0.28948
3.742	-16.346	-26608	2384	-0.65148	-0.70496	0.28968
3.744	-16.347	-26602	2384.1	-0.65197	-0.70418	0.28987
3.746	-16.348	-26597	2384.1	-0.65148	-0.70399	0.29036
3.748	-16.35	-26602	2384.1	-0.65099	-0.70379	0.29085
3.75	-16.35	-26608	2384.2	-0.6505	-0.7036	0.29134
3.752	-16.349	-26608	2384.2	-0.65002	-0.7034	0.29182
3.754	-16.342	-26607	2384.2	-0.64953	-0.70321	0.29231
3.756	-16.338	-26603	2384.3	-0.64914	-0.70301	0.29192
3.758	-16.346	-26599	2384.3	-0.64875	-0.70282	0.29153
3.76	-16.355	-26601	2384.3	-0.64836	-0.70262	0.29114
3.762	-16.359	-26604	2384.4	-0.64797	-0.70243	0.29075
3.764	-16.357	-26602	2384.4	-0.64758	-0.70223	0.29036
3.766	-16.354	-26599	2384.4	-0.64777	-0.70213	0.29056
3.768	-16.352	-26599	2384.4	-0.64797	-0.70204	0.29075
3.77	-16.356	-26599	2384.5	-0.64816	-0.70194	0.29095
3.772	-16.36	-26606	2384.5	-0.64836	-0.70184	0.29114
3.774	-16.36	-26612	2384.5	-0.64855	-0.70174	0.29134
3.776	-16.363	-26612	2384.5	-0.64806	-0.70155	0.29095
3.778	-16.368	-26613	2384.5	-0.64758	-0.70135	0.29056
3.78	-16.369	-26610	2384.5	-0.64709	-0.70116	0.29016
3.782	-16.367	-26606	2384.5	-0.6466	-0.70096	0.28977
3.784	-16.359	-26612	2384.5	-0.64611	-0.70077	0.28938
3.786	-16.353	-26618	2384.5	-0.6465	-0.70048	0.28977
3.788	-16.348	-26612	2384.4	-0.64689	-0.70018	0.29016
3.79	-16.346	-26607	2384.4	-0.64728	-0.69989	0.29056
3.792	-16.339	-26607	2384.4	-0.64767	-0.6996	0.29095
3.794	-16.348	-26607	2384.4	-0.64806	-0.6993	0.29134
3.796	-16.356	-26610	2384.5	-0.64816	-0.69999	0.29075
3.798	-16.355	-26612	2384.5	-0.64826	-0.70067	0.29016
3.8	-16.354	-26608	2384.5	-0.64836	-0.70135	0.28958
3.802	-16.353	-26603	2384.4	-0.64845	-0.70204	0.28899
3.804	-16.357	-26602	2384.4	-0.64855	-0.70272	0.28841
3.806	-16.367	-26601	2384.4	-0.64787	-0.70243	0.28841
3.808	-16.365	-26601	2384.4	-0.64719	-0.70213	0.28841
3.81	-16.363	-26601	2384.3	-0.6465	-0.70184	0.28841
3.812	-16.366	-26603	2384.3	-0.64582	-0.70155	0.28841
3.814	-16.362	-26604	2384.3	-0.64514	-0.70126	0.28841
3.816	-16.359	-26602	2384.3	-0.64621	-0.70126	0.28938
3.818	-16.356	-26599	2384.3	-0.64728	-0.70126	0.29036
3.82	-16.355	-26599	2384.3	-0.64836	-0.70126	0.29134
3.822	-16.357	-26598	2384.3	-0.64943	-0.70126	0.29231
3.824	-16.356	-26602	2384.2	-0.6505	-0.70126	0.29329
3.826	-16.352	-26605	2384.2	-0.64845	-0.70135	0.29241
3.828	-16.347	-26599	2384.2	-0.6464	-0.70145	0.29153
3.83	-16.347	-26592	2384.2	-0.64436	-0.70155	0.29065
3.832	-16.35	-26601	2384.2	-0.64231	-0.70165	0.28977
3.834	-16.349	-26609	2384.1	-0.64026	-0.70174	0.2889
3.836	-16.346	-26611	2384.1	-0.64211	-0.70174	0.28948
3.838	-16.348	-26613	2384.1	-0.64396	-0.70174	0.29007
3.84	-16.354	-26608	2384.1	-0.64582	-0.70174	0.29065
3.842	-16.358	-26604	2384	-0.64767	-0.70174	0.29124
3.844	-16.359	-26600	2384	-0.64953	-0.70174	0.29182
3.846	-16.359	-26596	2383.9	-0.64855	-0.70126	0.29114
3.848	-16.359	-26601	2383.8	-0.64758	-0.70077	0.29046
3.85	-16.361	-26605	2383.8	-0.6466	-0.70028	0.28977
3.852	-16.361	-26606	2383.7	-0.64562	-0.69979	0.28909
3.854	-16.361	-26608	2383.6	-0.64465	-0.6993	0.28841
3.856	-16.361	-26606	2383.6	-0.64562	-0.70048	0.28802
3.858	-16.359	-26605	2383.5	-0.6466	-0.70165	0.28763
3.86	-16.362	-26609	2383.5	-0.64758	-0.70282	0.28724
3.862	-16.372	-26612	2383.4	-0.64855	-0.70399	0.28685
3.864	-16.375	-26613	2383.3	-0.64953	-0.70516	0.28646
3.866	-16.371	-26614	2383.2	-0.64953	-0.70516	0.28714
3.868	-16.369	-26611	2383.1	-0.64953	-0.70516	0.28782
3.87	-16.369	-26607	2383	-0.64953	-0.70516	0.28851
3.872	-16.351	-26608	2382.9	-0.64953	-0.70516	0.28919
3.874	-16.335	-26608	2382.9	-0.64953	-0.70516	0.28987
3.876	-16.335	-26608	2382.8	-0.64894	-0.70379	0.28997
3.878	-16.344	-26609	2382.7	-0.64836	-0.70243	0.29007
3.88	-16.349	-26606	2382.6	-0.64777	-0.70106	0.29016
3.882	-16.351	-26603	2382.5	-0.64719	-0.69969	0.29026
3.884	-16.348	-26603	2382.4	-0.6466	-0.69833	0.29036
3.886	-16.345	-26603	2382.3	-0.6467	-0.69979	0.28968
3.888	-16.351	-26606	2382.2	-0.6468	-0.70126	0.28899
3.89	-16.351	-26609	2382.1	-0.64689	-0.70272	0.28831
3.892	-16.345	-26604	2381.9	-0.64699	-0.70418	0.28763
3.894	-16.348	-26598	2381.8	-0.64709	-0.70565	0.28694
3.896	-16.35	-26608	2381.7	-0.64845	-0.70614	0.28753
3.898	-16.353	-26617	2381.6	-0.64982	-0.70662	0.28812
3.9	-16.356	-26613	2381.4	-0.65119	-0.70711	0.2887
3.902	-16.357	-26608	2381.3	-0.65255	-0.7076	0.28929
3.904	-16.357	-26609	2381.2	-0.65392	-0.70809	0.28987
3.906	-16.355	-26609	2381	-0.65246	-0.70711	0.28977
3.908	-16.35	-26611	2380.9	-0.65099	-0.70614	0.28968
3.91	-16.343	-26612	2380.8	-0.64953	-0.70516	0.28958
3.912	-16.336	-26612	2380.7	-0.64806	-0.70418	0.28948
3.914	-16.339	-26612	2380.6	-0.6466	-0.70321	0.28938
3.916	-16.344	-26610	2380.4	-0.64758	-0.70331	0.28977
3.918	-16.34	-26608	2380.3	-0.64855	-0.7034	0.29016
3.92	-16.337	-26610	2380.2	-0.64953	-0.7035	0.29056
3.922	-16.339	-26612	2380.1	-0.6505	-0.7036	0.29095
3.924	-16.343	-26612	2380	-0.65148	-0.7037	0.29134
3.926	-16.342	-26613	2379.8	-0.65041	-0.70262	0.29153
3.928	-16.337	-26611	2379.7	-0.64933	-0.70155	0.29173
3.93	-16.33	-26609	2379.6	-0.64826	-0.70048	0.29192
3.932	-16.326	-26611	2379.5	-0.64719	-0.6994	0.29212
3.934	-16.325	-26612	2379.4	-0.64611	-0.69833	0.29231
3.936	-16.326	-26611	2379.3	-0.64562	-0.69901	0.29143
3.938	-16.327	-26611	2379.3	-0.64514	-0.69969	0.29056
3.94	-16.325	-26611	2379.2	-0.64465	-0.70038	0.28968
3.942	-16.321	-26612	2379.1	-0.64416	-0.70106	0.2888
3.944	-16.317	-26613	2379	-0.64367	-0.70174	0.28792
3.946	-16.315	-26614	2379	-0.64455	-0.70096	0.28929
3.948	-16.305	-26614	2378.9	-0.64543	-0.70018	0.29065
3.95	-16.296	-26614	2378.8	-0.64631	-0.6994	0.29202
3.952	-16.295	-26614	2378.7	-0.64719	-0.69862	0.29339
3.954	-16.298	-26613	2378.7	-0.64806	-0.69784	0.29475
3.956	-16.298	-26620	2378.6	-0.64787	-0.69921	0.29319
3.958	-16.3	-26626	2378.5	-0.64767	-0.70057	0.29163
3.96	-16.3	-26625	2378.4	-0.64748	-0.70194	0.29007
3.962	-16.302	-26623	2378.4	-0.64728	-0.70331	0.28851
3.964	-16.294	-26621	2378.3	-0.64709	-0.70467	0.28694
3.966	-16.293	-26619	2378.3	-0.64748	-0.70389	0.28812
3.968	-16.305	-26622	2378.2	-0.64787	-0.70311	0.28929
3.97	-16.314	-26626	2378.2	-0.64826	-0.70233	0.29046
3.972	-16.317	-26621	2378.1	-0.64865	-0.70155	0.29163
3.974	-16.328	-26616	2378	-0.64904	-0.70077	0.2928
3.976	-16.333	-26616	2378	-0.64894	-0.70038	0.29231
3.978	-16.345	-26616	2377.9	-0.64884	-0.69999	0.29182
3.98	-16.344	-26620	2377.9	-0.64875	-0.6996	0.29134
3.982	-16.337	-26624	2377.8	-0.64865	-0.69921	0.29085
3.984	-16.341	-26623	2377.8	-0.64855	-0.69882	0.29036
3.986	-16.356	-26622	2377.8	-0.64914	-0.69911	0.29075
3.988	-16.356	-26620	2377.8	-0.64972	-0.6994	0.29114
3.99	-16.351	-26618	2377.7	-0.65031	-0.69969	0.29153
3.992	-16.35	-26610	2377.7	-0.65089	-0.69999	0.29192
3.994	-16.357	-26602	2377.6	-0.65148	-0.70028	0.29231
3.996	-16.358	-26604	2377.5	-0.6508	-0.70106	0.29114
3.998	-16.356	-26605	2377.5	-0.65011	-0.70184	0.28997
4	-16.359	-26613	2377.5	-0.64943	-0.70262	0.2888
4.002	-16.36	-26620	2377.4	-0.64875	-0.7034	0.28763
4.004	-16.355	-26621	2377.4	-0.64806	-0.70418	0.28646
4.006	-16.353	-26623	2377.4	-0.64767	-0.70243	0.28772
4.008	-16.357	-26623	2377.3	-0.64728	-0.70067	0.28899
4.01	-16.362	-26623	2377.3	-0.64689	-0.69891	0.29026
4.012	-16.359	-26622	2377.2	-0.6465	-0.69716	0.29153
4.014	-16.354	-26621	2377.2	-0.64611	-0.6954	0.2928
4.016	-16.354	-26618	2377.3	-0.6465	-0.69647	0.29221
4.018	-16.364	-26615	2377.3	-0.64689	-0.69755	0.29163
4.02	-16.374	-26616	2377.3	-0.64728	-0.69862	0.29104
4.022	-16.369	-26618	2377.3	-0.64767	-0.69969	0.29046
4.024	-16.354	-26624	2377.2	-0.64806	-0.70077	0.28987
4.026	-16.34	-26630	2377.2	-0.64836	-0.70145	0.28948
4.028	-16.33	-26628	2377.2	-0.64865	-0.70213	0.28909
4.03	-16.324	-26626	2377.2	-0.64894	-0.70282	0.2887
4.032	-16.319	-26624	2377.1	-0.64924	-0.7035	0.28831
4.034	-16.312	-26622	2377.1	-0.64953	-0.70418	0.28792
4.036	-16.305	-26625	2377.1	-0.65021	-0.70428	0.28841
4.038	-16.3	-26628	2377.1	-0.65089	-0.70438	0.2889
4.04	-16.296	-26629	2377.2	-0.65158	-0.70448	0.28938
4.042	-16.289	-26631	2377.2	-0.65226	-0.70457	0.28987
4.044	-16.279	-26629	2377.2	-0.65294	-0.70467	0.29036
4.046	-16.269	-26627	2377.2	-0.65138	-0.70389	0.29007
4.048	-16.251	-26625	2377.2	-0.64982	-0.70311	0.28977
4.05	-16.231	-26624	2377.2	-0.64826	-0.70233	0.28948
4.052	-16.215	-26625	2377.2	-0.6467	-0.70155	0.28919
4.054	-16.2	-26626	2377.1	-0.64514	-0.70077	0.2889
4.056	-16.188	-26626	2377.1	-0.64601	-0.70096	0.28919
4.058	-16.197	-26625	2377.2	-0.64689	-0.70116	0.28948
4.06	-16.223	-26629	2377.2	-0.64777	-0.70135	0.28977
4.062	-16.255	-26634	2377.1	-0.64865	-0.70155	0.29007
4.064	-16.294	-26634	2377.1	-0.64953	-0.70174	0.29036
4.066	-16.324	-26633	2377.1	-0.6505	-0.70233	0.29114
4.068	-16.346	-26632	2377.1	-0.65148	-0.70292	0.29192
4.07	-16.382	-26631	2377.1	-0.65246	-0.7035	0.2927
4.072	-16.41	-26634	2377	-0.65343	-0.70409	0.29348
4.074	-16.433	-26638	2377	-0.65441	-0.70467	0.29426
4.076	-16.446	-26639	2376.9	-0.65392	-0.70428	0.29378
4.078	-16.442	-26641	2376.9	-0.65343	-0.70389	0.29329
4.08	-16.423	-26640	2376.9	-0.65294	-0.7035	0.2928
4.082	-16.398	-26639	2376.8	-0.65246	-0.70311	0.29231
4.084	-16.379	-26639	2376.8	-0.65197	-0.70272	0.29182
4.086	-16.369	-26638	2376.7	-0.65168	-0.70223	0.29182
4.088	-16.36	-26638	2376.6	-0.65138	-0.70174	0.29182
4.09	-16.351	-26637	2376.6	-0.65109	-0.70126	0.29182
4.092	-16.338	-26635	2376.5	-0.6508	-0.70077	0.29182
4.094	-16.325	-26632	2376.4	-0.6505	-0.70028	0.29182
4.096	-16.319	-26632	2376.3	-0.64963	-0.69979	0.29163
4.098	-16.328	-26631	2376.3	-0.64875	-0.6993	0.29143
4.1	-16.34	-26630	2376.2	-0.64787	-0.69882	0.29124
4.102	-16.338	-26630	2376.1	-0.64699	-0.69833	0.29104
4.104	-16.328	-26630	2376	-0.64611	-0.69784	0.29085
4.106	-16.322	-26631	2375.9	-0.64601	-0.69725	0.29036
4.108	-16.323	-26628	2375.8	-0.64592	-0.69667	0.28987
4.11	-16.327	-26626	2375.7	-0.64582	-0.69608	0.28938
4.112	-16.337	-26625	2375.7	-0.64572	-0.6955	0.2889
4.114	-16.346	-26623	2375.6	-0.64562	-0.69491	0.28841
4.116	-16.349	-26624	2375.6	-0.64553	-0.69579	0.28919
4.118	-16.349	-26625	2375.6	-0.64543	-0.69667	0.28997
4.12	-16.356	-26628	2375.6	-0.64533	-0.69755	0.29075
4.122	-16.36	-26631	2375.5	-0.64523	-0.69843	0.29153
4.124	-16.359	-26630	2375.5	-0.64514	-0.6993	0.29231
4.126	-16.354	-26628	2375.5	-0.64572	-0.6995	0.29192
4.128	-16.353	-26628	2375.6	-0.64631	-0.69969	0.29153
4.13	-16.355	-26627	2375.6	-0.64689	-0.69989	0.29114
4.132	-16.364	-26629	2375.6	-0.64748	-0.70008	0.29075
4.134	-16.37	-26631	2375.7	-0.64806	-0.70028	0.29036
4.136	-16.371	-26629	2375.7	-0.64699	-0.70116	0.28968
4.138	-16.369	-26626	2375.8	-0.64592	-0.70204	0.28899
4.14	-16.366	-26625	2375.8	-0.64484	-0.70292	0.28831
4.142	-16.359	-26624	2375.9	-0.64377	-0.70379	0.28763
4.144	-16.364	-26626	2376	-0.6427	-0.70467	0.28694
4.146	-16.36	-26628	2376	-0.6424	-0.70428	0.28694
4.148	-16.353	-26629	2376	-0.64211	-0.70389	0.28694
4.15	-16.347	-26631	2376.1	-0.64182	-0.7035	0.28694
4.152	-16.343	-26635	2376.1	-0.64152	-0.70311	0.28694
4.154	-16.35	-26639	2376.1	-0.64123	-0.70272	0.28694
4.156	-16.352	-26639	2376	-0.64201	-0.70292	0.28675
4.158	-16.346	-26640	2376	-0.64279	-0.70311	0.28655
4.16	-16.348	-26640	2375.9	-0.64357	-0.70331	0.28636
4.162	-16.359	-26640	2375.9	-0.64436	-0.7035	0.28616
4.164	-16.359	-26640	2375.9	-0.64514	-0.7037	0.28597
4.166	-16.352	-26640	2375.7	-0.64631	-0.70418	0.28597
4.168	-16.344	-26643	2375.6	-0.64748	-0.70467	0.28597
4.17	-16.341	-26645	2375.5	-0.64865	-0.70516	0.28597
4.172	-16.344	-26648	2375.3	-0.64982	-0.70565	0.28597
4.174	-16.347	-26652	2375.2	-0.65099	-0.70614	0.28597
4.176	-16.351	-26652	2375	-0.65119	-0.70526	0.28724
4.178	-16.355	-26652	2374.9	-0.65138	-0.70438	0.28851
4.18	-16.358	-26648	2374.7	-0.65158	-0.7035	0.28977
4.182	-16.356	-26644	2374.5	-0.65177	-0.70262	0.29104
4.184	-16.347	-26642	2374.3	-0.65197	-0.70174	0.29231
4.186	-16.343	-26639	2374.1	-0.65119	-0.70077	0.29221
4.188	-16.343	-26639	2373.9	-0.65041	-0.69979	0.29212
4.19	-16.34	-26639	2373.7	-0.64963	-0.69882	0.29202
4.192	-16.341	-26643	2373.5	-0.64884	-0.69784	0.29192
4.194	-16.342	-26647	2373.3	-0.64806	-0.69686	0.29182
4.196	-16.341	-26642	2373.1	-0.64631	-0.69706	0.29104
4.198	-16.341	-26638	2372.9	-0.64455	-0.69725	0.29026
4.2	-16.34	-26642	2372.7	-0.64279	-0.69745	0.28948
4.202	-16.335	-26646	2372.5	-0.64104	-0.69764	0.2887
4.204	-16.33	-26647	2372.3	-0.63928	-0.69784	0.28792
4.206	-16.327	-26649	2372.2	-0.64016	-0.69716	0.28802
4.208	-16.333	-26646	2372	-0.64104	-0.69647	0.28812
4.21	-16.336	-26643	2371.9	-0.64192	-0.69579	0.28821
4.212	-16.34	-26640	2371.8	-0.64279	-0.69511	0.28831
4.214	-16.346	-26637	2371.8	-0.64367	-0.69442	0.28841
4.216	-16.347	-26643	2371.7	-0.64367	-0.69579	0.28919
4.218	-16.341	-26649	2371.6	-0.64367	-0.69716	0.28997
4.22	-16.334	-26650	2371.6	-0.64367	-0.69852	0.29075
4.222	-16.323	-26651	2371.6	-0.64367	-0.69989	0.29153
4.224	-16.316	-26649	2371.6	-0.64367	-0.70126	0.29231
4.226	-16.324	-26646	2371.7	-0.64396	-0.70135	0.29202
4.228	-16.327	-26649	2371.8	-0.64426	-0.70145	0.29173
4.23	-16.327	-26652	2371.9	-0.64455	-0.70155	0.29143
4.232	-16.326	-26646	2372	-0.64484	-0.70165	0.29114
4.234	-16.322	-26640	2372.2	-0.64514	-0.70174	0.29085
4.236	-16.319	-26643	2372.4	-0.64484	-0.70301	0.28987
4.238	-16.317	-26645	2372.6	-0.64455	-0.70428	0.2889
4.24	-16.317	-26643	2372.9	-0.64426	-0.70555	0.28792
4.242	-16.315	-26640	2373.2	-0.64396	-0.70682	0.28694
4.244	-16.32	-26640	2373.6	-0.64367	-0.70809	0.28597
4.246	-16.318	-26640	2374	-0.64406	-0.70731	0.28646
4.248	-16.308	-26645	2374.4	-0.64445	-0.70653	0.28694
4.25	-16.312	-26650	2374.9	-0.64484	-0.70575	0.28743
4.252	-16.314	-26646	2375.4	-0.64523	-0.70496	0.28792
4.254	-16.31	-26642	2375.8	-0.64562	-0.70418	0.28841
4.256	-16.301	-26640	2376.4	-0.64533	-0.70399	0.28802
4.258	-16.301	-26638	2376.9	-0.64504	-0.70379	0.28763
4.26	-16.308	-26645	2377.5	-0.64475	-0.7036	0.28724
4.262	-16.314	-26651	2378.1	-0.64445	-0.7034	0.28685
4.264	-16.313	-26651	2378.7	-0.64416	-0.70321	0.28646
4.266	-16.305	-26650	2379.2	-0.64592	-0.7035	0.28626
4.268	-16.297	-26651	2379.8	-0.64767	-0.70379	0.28607
4.27	-16.294	-26651	2380.4	-0.64943	-0.70409	0.28587
4.272	-16.294	-26648	2381	-0.65119	-0.70438	0.28568
4.274	-16.292	-26646	2381.6	-0.65294	-0.70467	0.28548
4.276	-16.287	-26645	2382.1	-0.65216	-0.70418	0.28548
4.278	-16.286	-26645	2382.7	-0.65138	-0.7037	0.28548
4.28	-16.287	-26646	2383.2	-0.6506	-0.70321	0.28548
4.282	-16.288	-26647	2383.7	-0.64982	-0.70272	0.28548
4.284	-16.286	-26639	2384.3	-0.64904	-0.70223	0.28548
4.286	-16.284	-26631	2384.7	-0.6508	-0.70116	0.28665
4.288	-16.283	-26634	2385.2	-0.65255	-0.70008	0.28782
4.29	-16.278	-26637	2385.7	-0.65431	-0.69901	0.28899
4.292	-16.28	-26638	2386.2	-0.65607	-0.69794	0.29016
4.294	-16.288	-26640	2386.6	-0.65782	-0.69686	0.29134
4.296	-16.287	-26643	2387	-0.65714	-0.69823	0.29134
4.298	-16.287	-26647	2387.3	-0.65646	-0.6996	0.29134
4.3	-16.287	-26644	2387.7	-0.65577	-0.70096	0.29134
4.302	-16.275	-26642	2388	-0.65509	-0.70233	0.29134
4.304	-16.269	-26638	2388.4	-0.65441	-0.7037	0.29134
4.306	-16.272	-26635	2388.7	-0.65343	-0.7036	0.29095
4.308	-16.278	-26635	2388.9	-0.65246	-0.7035	0.29056
4.31	-16.275	-26635	2389.2	-0.65148	-0.7034	0.29016
4.312	-16.263	-26628	2389.4	-0.6505	-0.70331	0.28977
4.314	-16.267	-26621	2389.7	-0.64953	-0.70321	0.28938
4.316	-16.267	-26624	2389.9	-0.64933	-0.70262	0.29046
4.318	-16.266	-26627	2390.1	-0.64914	-0.70204	0.29153
4.32	-16.274	-26629	2390.2	-0.64894	-0.70145	0.2926
4.322	-16.273	-26630	2390.4	-0.64875	-0.70087	0.29368
4.324	-16.275	-26629	2390.5	-0.64855	-0.70028	0.29475
4.326	-16.275	-26628	2390.6	-0.64875	-0.70038	0.29475
4.328	-16.28	-26629	2390.8	-0.64894	-0.70048	0.29475
4.33	-16.281	-26629	2390.9	-0.64914	-0.70057	0.29475
4.332	-16.284	-26628	2391	-0.64933	-0.70067	0.29475
4.334	-16.288	-26627	2391.2	-0.64953	-0.70077	0.29475
4.336	-16.293	-26624	2391.2	-0.64855	-0.69969	0.29465
4.338	-16.298	-26622	2391.3	-0.64758	-0.69862	0.29456
4.34	-16.304	-26625	2391.4	-0.6466	-0.69755	0.29446
4.342	-16.312	-26628	2391.5	-0.64562	-0.69647	0.29436
4.344	-16.314	-26627	2391.6	-0.64465	-0.6954	0.29426
4.346	-16.31	-26625	2391.6	-0.64396	-0.69589	0.29524
4.348	-16.302	-26627	2391.6	-0.64328	-0.69638	0.29622
4.35	-16.302	-26628	2391.7	-0.6426	-0.69686	0.29719
4.352	-16.307	-26628	2391.8	-0.64192	-0.69735	0.29817
4.354	-16.309	-26629	2391.9	-0.64123	-0.69784	0.29914
4.356	-16.309	-26624	2391.9	-0.64133	-0.69882	0.29719
4.358	-16.312	-26619	2392	-0.64143	-0.69979	0.29524
4.36	-16.32	-26618	2392	-0.64152	-0.70077	0.29329
4.362	-16.331	-26616	2392	-0.64162	-0.70174	0.29134
4.364	-16.333	-26615	2392.1	-0.64172	-0.70272	0.28938
4.366	-16.327	-26615	2392.1	-0.64328	-0.7034	0.28977
4.368	-16.323	-26615	2392.2	-0.64484	-0.70409	0.29016
4.37	-16.326	-26615	2392.2	-0.6464	-0.70477	0.29056
4.372	-16.329	-26613	2392.3	-0.64797	-0.70545	0.29095
4.374	-16.327	-26610	2392.3	-0.64953	-0.70614	0.29134
4.376	-16.33	-26614	2392.3	-0.64748	-0.70594	0.29007
4.378	-16.331	-26619	2392.3	-0.64543	-0.70575	0.2888
4.38	-16.327	-26613	2392.4	-0.64338	-0.70555	0.28753
4.382	-16.329	-26606	2392.4	-0.64133	-0.70536	0.28626
4.384	-16.335	-26609	2392.4	-0.63928	-0.70516	0.28499
4.386	-16.341	-26612	2392.4	-0.64006	-0.70506	0.2846
4.388	-16.341	-26605	2392.4	-0.64084	-0.70496	0.28421
4.39	-16.331	-26598	2392.4	-0.64162	-0.70487	0.28382
4.392	-16.33	-26601	2392.5	-0.6424	-0.70477	0.28343
4.394	-16.329	-26603	2392.5	-0.64318	-0.70467	0.28304
4.396	-16.336	-26603	2392.5	-0.64367	-0.7037	0.28402
4.398	-16.339	-26604	2392.5	-0.64416	-0.70272	0.28499
4.4	-16.341	-26608	2392.5	-0.64465	-0.70174	0.28597
4.402	-16.342	-26612	2392.5	-0.64514	-0.70077	0.28694
4.404	-16.345	-26608	2392.5	-0.64562	-0.69979	0.28792
4.406	-16.343	-26604	2392.4	-0.64631	-0.70106	0.28763
4.408	-16.346	-26602	2392.4	-0.64699	-0.70233	0.28733
4.41	-16.344	-26599	2392.3	-0.64767	-0.7036	0.28704
4.412	-16.338	-26598	2392.3	-0.64836	-0.70487	0.28675
4.414	-16.333	-26597	2392.2	-0.64904	-0.70614	0.28646
4.416	-16.333	-26601	2392.1	-0.65011	-0.70575	0.28704
4.418	-16.329	-26606	2392.1	-0.65119	-0.70536	0.28763
4.42	-16.328	-26608	2392	-0.65226	-0.70496	0.28821
4.422	-16.328	-26611	2391.9	-0.65333	-0.70457	0.2888
4.424	-16.333	-26606	2391.8	-0.65441	-0.70418	0.28938
4.426	-16.341	-26601	2391.6	-0.65314	-0.70272	0.28938
4.428	-16.341	-26602	2391.5	-0.65187	-0.70126	0.28938
4.43	-16.332	-26603	2391.4	-0.6506	-0.69979	0.28938
4.432	-16.325	-26604	2391.2	-0.64933	-0.69833	0.28938
4.434	-16.327	-26606	2391.1	-0.64806	-0.69686	0.28938
4.436	-16.334	-26599	2390.9	-0.64855	-0.69764	0.28938
4.438	-16.337	-26593	2390.7	-0.64904	-0.69843	0.28938
4.44	-16.332	-26602	2390.5	-0.64953	-0.69921	0.28938
4.442	-16.331	-26611	2390.2	-0.65002	-0.69999	0.28938
4.444	-16.34	-26604	2390	-0.6505	-0.70077	0.28938
4.446	-16.345	-26597	2389.8	-0.6507	-0.70155	0.28929
4.448	-16.344	-26604	2389.5	-0.65089	-0.70233	0.28919
4.45	-16.346	-26610	2389.3	-0.65109	-0.70311	0.28909
4.452	-16.349	-26606	2389.1	-0.65128	-0.70389	0.28899
4.454	-16.348	-26603	2388.8	-0.65148	-0.70467	0.2889
4.456	-16.34	-26600	2388.6	-0.6508	-0.70311	0.28938
4.458	-16.331	-26598	2388.3	-0.65011	-0.70155	0.28987
4.46	-16.323	-26600	2388	-0.64943	-0.69999	0.29036
4.462	-16.319	-26601	2387.8	-0.64875	-0.69843	0.29085
4.464	-16.323	-26604	2387.5	-0.64806	-0.69686	0.29134
4.466	-16.333	-26606	2387.3	-0.64806	-0.69755	0.29182
4.468	-16.331	-26602	2387	-0.64806	-0.69823	0.29231
4.47	-16.329	-26598	2386.8	-0.64806	-0.69891	0.2928
4.472	-16.333	-26603	2386.6	-0.64806	-0.6996	0.29329
4.474	-16.338	-26609	2386.4	-0.64806	-0.70028	0.29378
4.476	-16.336	-26605	2386.3	-0.64816	-0.70077	0.29319
4.478	-16.34	-26601	2386.2	-0.64826	-0.70126	0.2926
4.48	-16.34	-26604	2386.1	-0.64836	-0.70174	0.29202
4.482	-16.341	-26607	2385.9	-0.64845	-0.70223	0.29143
4.484	-16.339	-26603	2385.8	-0.64855	-0.70272	0.29085
4.486	-16.333	-26599	2385.8	-0.64797	-0.70184	0.29124
4.488	-16.335	-26601	2385.7	-0.64738	-0.70096	0.29163
4.49	-16.332	-26603	2385.7	-0.6468	-0.70008	0.29202
4.492	-16.323	-26609	2385.7	-0.64621	-0.69921	0.29241
4.494	-16.324	-26616	2385.7	-0.64562	-0.69833	0.2928
4.496	-16.329	-26613	2385.6	-0.64572	-0.6995	0.29221
4.498	-16.333	-26611	2385.6	-0.64582	-0.70067	0.29163
4.5	-16.336	-26611	2385.7	-0.64592	-0.70184	0.29104
4.502	-16.338	-26611	2385.7	-0.64601	-0.70301	0.29046
4.504	-16.338	-26608	2385.8	-0.64611	-0.70418	0.28987
4.506	-16.337	-26606	2385.9	-0.64699	-0.70389	0.29046
4.508	-16.337	-26609	2386	-0.64787	-0.7036	0.29104
4.51	-16.333	-26611	2386.1	-0.64875	-0.70331	0.29163
4.512	-16.335	-26609	2386.2	-0.64963	-0.70301	0.29221
