t	ekg	optical	pressure	accel_x	accel_y	accel_z
0	6.651	-29132	2170.7	-0.61927	-0.62025	0.48458
0.002	6.6928	-29129	2170.7	-0.61761	-0.62064	0.48556
0.004	6.732	-29127	2170.6	-0.61595	-0.62103	0.48654
0.006	6.7576	-29130	2170.5	-0.61429	-0.62142	0.48751
0.008	6.7558	-29134	2170.4	-0.61264	-0.62181	0.48849
0.01	6.7043	-29134	2170.3	-0.61098	-0.6222	0.48946
0.012	6.6724	-29133	2170.3	-0.61117	-0.62249	0.48946
0.014	6.6584	-29135	2170.3	-0.61137	-0.62279	0.48946
0.016	6.6827	-29136	2170.2	-0.61156	-0.62308	0.48946
0.018	6.7352	-29135	2170.1	-0.61176	-0.62337	0.48946
0.02	6.7983	-29134	2170	-0.61195	-0.62366	0.48946
0.022	6.8075	-29133	2169.9	-0.61185	-0.62269	0.48946
0.024	6.7834	-29133	2169.8	-0.61176	-0.62171	0.48946
0.026	6.7358	-29136	2169.7	-0.61166	-0.62074	0.48946
0.028	6.6988	-29139	2169.6	-0.61156	-0.61976	0.48946
0.03	6.6891	-29140	2169.5	-0.61146	-0.61878	0.48946
0.032	6.733	-29141	2169.5	-0.61254	-0.61937	0.49064
0.034	6.7889	-29138	2169.6	-0.61361	-0.61996	0.49181
0.036	6.8216	-29134	2169.7	-0.61468	-0.62054	0.49298
0.038	6.8426	-29138	2169.8	-0.61576	-0.62113	0.49415
0.04	6.828	-29143	2169.9	-0.61683	-0.62171	0.49532
0.042	6.767	-29145	2169.9	-0.61732	-0.62337	0.49356
0.044	6.6874	-29147	2169.9	-0.61781	-0.62503	0.49181
0.046	6.6693	-29147	2169.9	-0.6183	-0.62669	0.49005
0.048	6.7091	-29147	2169.8	-0.61878	-0.62835	0.48829
0.05	6.7449	-29143	2169.7	-0.61927	-0.63001	0.48654
0.052	6.7813	-29138	2169.5	-0.61908	-0.62932	0.48615
0.054	6.7996	-29143	2169.4	-0.61888	-0.62864	0.48576
0.056	6.7838	-29147	2169.2	-0.61869	-0.62796	0.48536
0.058	6.752	-29151	2169	-0.61849	-0.62728	0.48497
0.06	6.7204	-29155	2168.8	-0.6183	-0.62659	0.48458
0.062	6.7026	-29150	2168.7	-0.6183	-0.62571	0.48595
0.064	6.7136	-29145	2168.7	-0.6183	-0.62484	0.48732
0.066	6.7475	-29152	2168.7	-0.6183	-0.62396	0.48868
0.068	6.8113	-29159	2168.8	-0.6183	-0.62308	0.49005
0.07	6.8807	-29163	2168.9	-0.6183	-0.6222	0.49142
0.072	6.8779	-29167	2168.9	-0.61908	-0.62347	0.49151
0.074	6.8191	-29161	2168.9	-0.61986	-0.62474	0.49161
0.076	6.7683	-29156	2169.1	-0.62064	-0.62601	0.49171
0.078	6.7334	-29159	2169.3	-0.62142	-0.62728	0.49181
0.08	6.7279	-29162	2169.5	-0.6222	-0.62854	0.4919
0.082	6.7594	-29167	2169.8	-0.62405	-0.62737	0.49278
0.084	6.7932	-29172	2170.1	-0.62591	-0.6262	0.49366
0.086	6.8213	-29170	2170.3	-0.62776	-0.62503	0.49454
0.088	6.8246	-29168	2170.4	-0.62962	-0.62386	0.49542
0.09	6.7918	-29170	2170.4	-0.63147	-0.62269	0.4963
0.092	6.7612	-29172	2170.2	-0.63147	-0.62259	0.49561
0.094	6.7534	-29173	2170	-0.63147	-0.62249	0.49493
0.096	6.6879	-29175	2169.9	-0.63147	-0.6224	0.49425
0.098	6.6965	-29174	2169.9	-0.63147	-0.6223	0.49356
0.1	6.7751	-29174	2169.8	-0.63147	-0.6222	0.49288
0.102	6.8406	-29179	2170.1	-0.62972	-0.62318	0.492
0.104	6.907	-29184	2170.4	-0.62796	-0.62415	0.49112
0.106	6.9017	-29181	2170.7	-0.6262	-0.62513	0.49024
0.108	6.8414	-29178	2171	-0.62444	-0.6261	0.48937
0.11	6.7734	-29189	2171.2	-0.62269	-0.62708	0.48849
0.112	6.7524	-29199	2171.4	-0.62347	-0.6263	0.48741
0.114	6.7675	-29195	2171.5	-0.62425	-0.62552	0.48634
0.116	6.7999	-29190	2171.6	-0.62503	-0.62474	0.48527
0.118	6.8339	-29191	2171.7	-0.62581	-0.62396	0.48419
0.12	6.8451	-29192	2171.9	-0.62659	-0.62318	0.48312
0.122	6.8324	-29193	2172.2	-0.62542	-0.62405	0.48322
0.124	6.8107	-29195	2172.6	-0.62425	-0.62493	0.48332
0.126	6.7896	-29202	2173	-0.62308	-0.62581	0.48341
0.128	6.7645	-29209	2173.4	-0.62191	-0.62669	0.48351
0.13	6.7597	-29207	2173.8	-0.62074	-0.62757	0.48361
0.132	6.7868	-29205	2174	-0.618	-0.62806	0.48136
0.134	6.8479	-29206	2174.3	-0.61527	-0.62854	0.47912
0.136	6.9104	-29206	2174.7	-0.61254	-0.62903	0.47687
0.138	6.9096	-29202	2175.1	-0.6098	-0.62952	0.47463
0.14	6.8714	-29197	2175.5	-0.60707	-0.63001	0.47238
0.142	6.8337	-29201	2176.1	-0.60805	-0.62932	0.4717
0.144	6.7952	-29206	2176.7	-0.60902	-0.62864	0.47102
0.146	6.7771	-29207	2177.2	-0.61	-0.62796	0.47033
0.148	6.8006	-29208	2177.8	-0.61098	-0.62728	0.46965
0.15	6.8413	-29208	2178.3	-0.61195	-0.62659	0.46897
0.152	6.8857	-29208	2178.7	-0.61205	-0.62669	0.46907
0.154	6.9143	-29208	2179.2	-0.61215	-0.62679	0.46916
0.156	6.8837	-29208	2179.6	-0.61224	-0.62688	0.46926
0.158	6.8277	-29212	2180	-0.61234	-0.62698	0.46936
0.16	6.8051	-29215	2180.5	-0.61244	-0.62708	0.46946
0.162	6.801	-29212	2180.9	-0.61351	-0.62776	0.46907
0.164	6.8046	-29210	2181.2	-0.61459	-0.62845	0.46868
0.166	6.8407	-29200	2181.5	-0.61566	-0.62913	0.46828
0.168	6.8824	-29190	2181.7	-0.61673	-0.62981	0.46789
0.17	6.9097	-29195	2181.9	-0.61781	-0.6305	0.4675
0.172	6.9082	-29200	2181.8	-0.61605	-0.62952	0.46926
0.174	6.8733	-29195	2181.8	-0.61429	-0.62854	0.47102
0.176	6.8202	-29190	2181.7	-0.61254	-0.62757	0.47277
0.178	6.7815	-29188	2181.6	-0.61078	-0.62659	0.47453
0.18	6.7712	-29186	2181.5	-0.60902	-0.62562	0.47629
0.182	6.8069	-29185	2181.5	-0.61107	-0.62562	0.47717
0.184	6.8516	-29184	2181.5	-0.61312	-0.62562	0.47804
0.186	6.9051	-29182	2181.4	-0.61517	-0.62562	0.47892
0.188	6.9178	-29179	2181.3	-0.61722	-0.62562	0.4798
0.19	6.8767	-29184	2181.2	-0.61927	-0.62562	0.48068
0.192	6.8828	-29189	2180.9	-0.61966	-0.6261	0.4799
0.194	6.8351	-29187	2180.6	-0.62005	-0.62659	0.47912
0.196	6.757	-29184	2180.2	-0.62044	-0.62708	0.47834
0.198	6.7718	-29184	2179.9	-0.62083	-0.62757	0.47756
0.2	6.8216	-29184	2179.5	-0.62122	-0.62806	0.47678
0.202	6.8428	-29178	2179.2	-0.62249	-0.62708	0.47775
0.204	6.8802	-29173	2178.9	-0.62376	-0.6261	0.47873
0.206	6.879	-29177	2178.5	-0.62503	-0.62513	0.4797
0.208	6.8341	-29181	2178.3	-0.6263	-0.62415	0.48068
0.21	6.7928	-29180	2178	-0.62757	-0.62318	0.48166
0.212	6.7555	-29178	2177.7	-0.62737	-0.62269	0.48185
0.214	6.7656	-29172	2177.5	-0.62718	-0.6222	0.48205
0.216	6.8046	-29165	2177.3	-0.62698	-0.62171	0.48224
0.218	6.8396	-29163	2177	-0.62679	-0.62122	0.48244
0.22	6.8643	-29162	2176.7	-0.62659	-0.62074	0.48263
0.222	6.8629	-29164	2176.3	-0.62659	-0.62093	0.48312
0.224	6.8233	-29167	2175.9	-0.62659	-0.62113	0.48361
0.226	6.7727	-29170	2175.5	-0.62659	-0.62132	0.4841
0.228	6.7295	-29174	2175.1	-0.62659	-0.62152	0.48458
0.23	6.7148	-29173	2174.7	-0.62659	-0.62171	0.48507
0.232	6.7416	-29172	2174.2	-0.62601	-0.62269	0.48332
0.234	6.7976	-29171	2173.8	-0.62542	-0.62366	0.48156
0.236	6.8597	-29170	2173.4	-0.62484	-0.62464	0.4798
0.238	6.8788	-29167	2173	-0.62425	-0.62562	0.47804
0.24	6.8406	-29165	2172.6	-0.62366	-0.62659	0.47629
0.242	6.7956	-29167	2172.2	-0.62386	-0.6263	0.47687
0.244	6.7612	-29168	2171.8	-0.62405	-0.62601	0.47746
0.246	6.7343	-29169	2171.5	-0.62425	-0.62571	0.47804
0.248	6.7398	-29170	2171.1	-0.62444	-0.62542	0.47863
0.25	6.7836	-29168	2170.7	-0.62464	-0.62513	0.47922
0.252	6.8375	-29166	2170.4	-0.62454	-0.62542	0.4799
0.254	6.867	-29166	2170.1	-0.62444	-0.62571	0.48058
0.256	6.8536	-29166	2169.8	-0.62435	-0.62601	0.48127
0.258	6.8305	-29165	2169.5	-0.62425	-0.6263	0.48195
0.26	6.7906	-29164	2169.2	-0.62415	-0.62659	0.48263
0.262	6.7282	-29165	2168.9	-0.62435	-0.62552	0.48302
0.264	6.707	-29166	2168.6	-0.62454	-0.62444	0.48341
0.266	6.7589	-29167	2168.4	-0.62474	-0.62337	0.4838
0.268	6.8353	-29168	2168.1	-0.62493	-0.6223	0.48419
0.27	6.9017	-29166	2167.9	-0.62513	-0.62122	0.48458
0.272	6.9117	-29164	2167.8	-0.62425	-0.62279	0.48351
0.274	6.8834	-29162	2167.6	-0.62337	-0.62435	0.48244
0.276	6.8242	-29159	2167.5	-0.62249	-0.62591	0.48136
0.278	6.7826	-29161	2167.3	-0.62161	-0.62747	0.48029
0.28	6.7431	-29162	2167.1	-0.62074	-0.62903	0.47922
0.282	6.7527	-29165	2167	-0.62083	-0.62903	0.4797
0.284	6.8157	-29168	2166.9	-0.62093	-0.62903	0.48019
0.286	6.8624	-29170	2166.8	-0.62103	-0.62903	0.48068
0.288	6.878	-29172	2166.7	-0.62113	-0.62903	0.48117
0.29	6.8549	-29171	2166.5	-0.62122	-0.62903	0.48166
0.292	6.8104	-29170	2166.5	-0.62181	-0.62874	0.48195
0.294	6.7683	-29168	2166.4	-0.6224	-0.62845	0.48224
0.296	6.7434	-29167	2166.4	-0.62298	-0.62815	0.48253
0.298	6.7655	-29173	2166.3	-0.62357	-0.62786	0.48283
0.3	6.8155	-29179	2166.2	-0.62415	-0.62757	0.48312
0.302	6.8568	-29182	2166.2	-0.62318	-0.62649	0.48478
0.304	6.8896	-29184	2166.2	-0.6222	-0.62542	0.48644
0.306	6.8804	-29181	2166.1	-0.62122	-0.62435	0.4881
0.308	6.8348	-29178	2166	-0.62025	-0.62327	0.48976
0.31	6.7909	-29177	2165.9	-0.61927	-0.6222	0.49142
0.312	6.7655	-29177	2165.9	-0.61976	-0.6222	0.49171
0.314	6.7738	-29176	2165.8	-0.62025	-0.6222	0.492
0.316	6.8138	-29176	2165.7	-0.62074	-0.6222	0.49229
0.318	6.8474	-29176	2165.5	-0.62122	-0.6222	0.49259
0.32	6.8619	-29176	2165.3	-0.62171	-0.6222	0.49288
0.322	6.87	-29179	2165.2	-0.62161	-0.62249	0.49259
0.324	6.862	-29182	2165.1	-0.62152	-0.62279	0.49229
0.326	6.8345	-29186	2164.9	-0.62142	-0.62308	0.492
0.328	6.8054	-29189	2164.8	-0.62132	-0.62337	0.49171
0.33	6.7945	-29192	2164.7	-0.62122	-0.62366	0.49142
0.332	6.8276	-29195	2164.6	-0.62054	-0.62249	0.48927
0.334	6.8875	-29190	2164.6	-0.61986	-0.62132	0.48712
0.336	6.9169	-29185	2164.5	-0.61917	-0.62015	0.48497
0.338	6.9119	-29186	2164.4	-0.61849	-0.61898	0.48283
0.34	6.8791	-29187	2164.4	-0.61781	-0.61781	0.48068
0.342	6.8317	-29189	2164.3	-0.61839	-0.61927	0.48068
0.344	6.7807	-29191	2164.3	-0.61898	-0.62074	0.48068
0.346	6.7582	-29197	2164.2	-0.61956	-0.6222	0.48068
0.348	6.7836	-29203	2164.2	-0.62015	-0.62366	0.48068
0.35	6.8306	-29200	2164.1	-0.62074	-0.62513	0.48068
0.352	6.8646	-29198	2164.1	-0.62015	-0.62513	0.4798
0.354	6.8975	-29196	2164	-0.61956	-0.62513	0.47892
0.356	6.8908	-29193	2164	-0.61898	-0.62513	0.47804
0.358	6.8318	-29195	2164	-0.61839	-0.62513	0.47717
0.36	6.7708	-29196	2164	-0.61781	-0.62513	0.47629
0.362	6.7596	-29199	2164	-0.61781	-0.62493	0.47765
0.364	6.7656	-29201	2164	-0.61781	-0.62474	0.47902
0.366	6.8176	-29205	2164	-0.61781	-0.62454	0.48039
0.368	6.8495	-29208	2164.1	-0.61781	-0.62435	0.48175
0.37	6.8703	-29210	2164.1	-0.61781	-0.62415	0.48312
0.372	6.875	-29211	2164.1	-0.61781	-0.62474	0.48253
0.374	6.8457	-29209	2164.1	-0.61781	-0.62532	0.48195
0.376	6.7947	-29208	2164	-0.61781	-0.62591	0.48136
0.378	6.7614	-29206	2164	-0.61781	-0.62649	0.48078
0.38	6.7567	-29204	2164	-0.61781	-0.62708	0.48019
0.382	6.7784	-29209	2164.1	-0.61673	-0.62542	0.48166
0.384	6.8247	-29215	2164.2	-0.61566	-0.62376	0.48312
0.386	6.8664	-29215	2164.3	-0.61459	-0.6221	0.48458
0.388	6.8789	-29215	2164.3	-0.61351	-0.62044	0.48605
0.39	6.8557	-29214	2164.4	-0.61244	-0.61878	0.48751
0.392	6.8102	-29213	2164.4	-0.61185	-0.61937	0.48761
0.394	6.7721	-29213	2164.5	-0.61127	-0.61996	0.48771
0.396	6.7494	-29212	2164.5	-0.61068	-0.62054	0.4878
0.398	6.7546	-29215	2164.6	-0.6101	-0.62113	0.4879
0.4	6.7926	-29218	2164.6	-0.60951	-0.62171	0.488
0.402	6.8471	-29220	2164.6	-0.61234	-0.62171	0.48702
0.404	6.8863	-29223	2164.5	-0.61517	-0.62171	0.48605
0.406	6.8779	-29217	2164.4	-0.618	-0.62171	0.48507
0.408	6.8289	-29212	2164.4	-0.62083	-0.62171	0.4841
0.41	6.7746	-29210	2164.3	-0.62366	-0.62171	0.48312
0.412	6.7502	-29208	2164.3	-0.62386	-0.6221	0.48341
0.414	6.7776	-29214	2164.3	-0.62405	-0.62249	0.48371
0.416	6.8351	-29221	2164.4	-0.62425	-0.62288	0.484
0.418	6.8846	-29220	2164.4	-0.62444	-0.62327	0.48429
0.42	6.8997	-29218	2164.5	-0.62464	-0.62366	0.48458
0.422	6.8874	-29214	2164.4	-0.62474	-0.62366	0.48419
0.424	6.879	-29210	2164.4	-0.62484	-0.62366	0.4838
0.426	6.844	-29212	2164.4	-0.62493	-0.62366	0.48341
0.428	6.792	-29214	2164.4	-0.62503	-0.62366	0.48302
0.43	6.7645	-29215	2164.4	-0.62513	-0.62366	0.48263
0.432	6.7932	-29217	2164.4	-0.62435	-0.62386	0.48361
0.434	6.8424	-29219	2164.3	-0.62357	-0.62405	0.48458
0.436	6.8757	-29221	2164.3	-0.62279	-0.62425	0.48556
0.438	6.8892	-29223	2164.2	-0.622	-0.62444	0.48654
0.44	6.8618	-29226	2164.2	-0.62122	-0.62464	0.48751
0.442	6.8176	-29223	2164.1	-0.62288	-0.62425	0.48693
0.444	6.7817	-29219	2164.1	-0.62454	-0.62386	0.48634
0.446	6.7653	-29225	2164.1	-0.6262	-0.62347	0.48576
0.448	6.7896	-29230	2164	-0.62786	-0.62308	0.48517
0.45	6.8528	-29233	2164	-0.62952	-0.62269	0.48458
0.452	6.9171	-29236	2164.1	-0.6305	-0.62269	0.48449
0.454	6.9535	-29237	2164.2	-0.63147	-0.62269	0.48439
0.456	6.9424	-29237	2164.2	-0.63245	-0.62269	0.48429
0.458	6.8964	-29239	2164.2	-0.63342	-0.62269	0.48419
0.46	6.8298	-29240	2164.3	-0.6344	-0.62269	0.4841
0.462	6.7839	-29237	2164.2	-0.63342	-0.62132	0.4841
0.464	6.7693	-29234	2164.2	-0.63245	-0.61996	0.4841
0.466	6.7854	-29234	2164.2	-0.63147	-0.61859	0.4841
0.468	6.7961	-29234	2164.2	-0.6305	-0.61722	0.4841
0.47	6.8105	-29232	2164.2	-0.62952	-0.61586	0.4841
0.472	6.812	-29231	2164.2	-0.62942	-0.61527	0.48449
0.474	6.7783	-29236	2164.3	-0.62932	-0.61468	0.48488
0.476	6.7283	-29240	2164.3	-0.62923	-0.6141	0.48527
0.478	6.6887	-29239	2164.2	-0.62913	-0.61351	0.48566
0.48	6.6906	-29239	2164.2	-0.62903	-0.61293	0.48605
0.482	6.7369	-29244	2164.1	-0.62806	-0.61342	0.48663
0.484	6.7927	-29249	2164	-0.62708	-0.6139	0.48722
0.486	6.8307	-29243	2163.9	-0.6261	-0.61439	0.4878
0.488	6.8586	-29237	2163.7	-0.62513	-0.61488	0.48839
0.49	6.8558	-29242	2163.5	-0.62415	-0.61537	0.48898
0.492	6.8112	-29248	2163.4	-0.62386	-0.61595	0.48995
0.494	6.7666	-29254	2163.2	-0.62357	-0.61654	0.49093
0.496	6.7635	-29260	2163	-0.62327	-0.61712	0.4919
0.498	6.7955	-29254	2162.7	-0.62298	-0.61771	0.49288
0.5	6.8228	-29248	2162.5	-0.62269	-0.6183	0.49386
0.502	6.8507	-29247	2162.4	-0.62171	-0.6181	0.49278
0.504	6.8834	-29247	2162.3	-0.62074	-0.61791	0.49171
0.506	6.8848	-29249	2162.2	-0.61976	-0.61771	0.49064
0.508	6.8543	-29252	2162.1	-0.61878	-0.61752	0.48956
0.51	6.8253	-29252	2162	-0.61781	-0.61732	0.48849
0.512	6.8072	-29252	2162.1	-0.61986	-0.61703	0.48722
0.514	6.7824	-29254	2162.1	-0.62191	-0.61673	0.48595
0.516	6.8046	-29256	2162.1	-0.62396	-0.61644	0.48468
0.518	6.8522	-29257	2162.2	-0.62601	-0.61615	0.48341
0.52	6.8716	-29258	2162.2	-0.62806	-0.61586	0.48214
0.522	6.889	-29254	2162.2	-0.62864	-0.61517	0.48166
0.524	6.8622	-29250	2162.2	-0.62923	-0.61449	0.48117
0.526	6.7997	-29254	2162.2	-0.62981	-0.61381	0.48068
0.528	6.7671	-29257	2162.2	-0.6304	-0.61312	0.48019
0.53	6.7525	-29260	2162.2	-0.63098	-0.61244	0.4797
0.532	6.7849	-29263	2162.1	-0.63059	-0.61283	0.48058
0.534	6.8232	-29264	2162.1	-0.6302	-0.61322	0.48146
0.536	6.8624	-29265	2162	-0.62981	-0.61361	0.48234
0.538	6.8936	-29262	2161.9	-0.62942	-0.614	0.48322
0.54	6.868	-29259	2161.8	-0.62903	-0.61439	0.4841
0.542	6.8215	-29261	2161.6	-0.62718	-0.61537	0.48595
0.544	6.7869	-29262	2161.5	-0.62532	-0.61634	0.4878
0.546	6.7699	-29264	2161.3	-0.62347	-0.61732	0.48966
0.548	6.7866	-29267	2161.1	-0.62161	-0.6183	0.49151
0.55	6.8287	-29265	2160.9	-0.61976	-0.61927	0.49337
0.552	6.8788	-29263	2160.7	-0.62113	-0.61742	0.49425
0.554	6.9048	-29263	2160.5	-0.62249	-0.61556	0.49512
0.556	6.8923	-29263	2160.4	-0.62386	-0.61371	0.496
0.558	6.857	-29265	2160.3	-0.62523	-0.61185	0.49688
0.56	6.8096	-29268	2160.2	-0.62659	-0.61	0.49776
0.562	6.7747	-29266	2160.2	-0.62562	-0.61117	0.49708
0.564	6.7819	-29263	2160.2	-0.62464	-0.61234	0.49639
0.566	6.8242	-29267	2160.1	-0.62366	-0.61351	0.49571
0.568	6.8705	-29270	2160.1	-0.62269	-0.61468	0.49503
0.57	6.902	-29269	2160.1	-0.62171	-0.61586	0.49434
0.572	6.9027	-29268	2160.2	-0.62132	-0.61547	0.492
0.574	6.8696	-29269	2160.4	-0.62093	-0.61508	0.48966
0.576	6.819	-29269	2160.6	-0.62054	-0.61468	0.48732
0.578	6.7782	-29274	2160.8	-0.62015	-0.61429	0.48497
0.58	6.7641	-29278	2161.1	-0.61976	-0.6139	0.48263
0.582	6.7858	-29276	2161.6	-0.62054	-0.61459	0.48136
0.584	6.8415	-29274	2162	-0.62132	-0.61527	0.48009
0.586	6.9005	-29277	2162.6	-0.6221	-0.61595	0.47883
0.588	6.9301	-29280	2163.1	-0.62288	-0.61664	0.47756
0.59	6.9026	-29283	2163.7	-0.62366	-0.61732	0.47629
0.592	6.8454	-29286	2164.3	-0.62552	-0.61712	0.47668
0.594	6.8031	-29283	2165	-0.62737	-0.61693	0.47707
0.596	6.7798	-29280	2165.7	-0.62923	-0.61673	0.47746
0.598	6.7983	-29280	2166.4	-0.63108	-0.61654	0.47785
0.6	6.8512	-29281	2167.2	-0.63294	-0.61634	0.47824
0.602	6.8946	-29287	2167.9	-0.6305	-0.6181	0.48019
0.604	6.9076	-29293	2168.7	-0.62806	-0.61986	0.48214
0.606	6.9002	-29286	2169.4	-0.62562	-0.62161	0.4841
0.608	6.887	-29279	2170	-0.62318	-0.62337	0.48605
0.61	6.8485	-29278	2170.6	-0.62074	-0.62513	0.488
0.612	6.8253	-29277	2171.1	-0.62015	-0.62464	0.488
0.614	6.8358	-29277	2171.6	-0.61956	-0.62415	0.488
0.616	6.8731	-29277	2172.2	-0.61898	-0.62366	0.488
0.618	6.9029	-29282	2172.6	-0.61839	-0.62318	0.488
0.62	6.9427	-29288	2173.1	-0.61781	-0.62269	0.488
0.622	6.9249	-29286	2173.5	-0.62005	-0.6222	0.48956
0.624	6.8785	-29284	2174	-0.6223	-0.62171	0.49112
0.626	6.8512	-29278	2174.4	-0.62454	-0.62122	0.49268
0.628	6.8397	-29271	2174.7	-0.62679	-0.62074	0.49425
0.63	6.8564	-29268	2175.1	-0.62903	-0.62025	0.49581
0.632	6.886	-29266	2175.3	-0.62757	-0.62074	0.49444
0.634	6.9223	-29270	2175.5	-0.6261	-0.62122	0.49308
0.636	6.9597	-29274	2175.7	-0.62464	-0.62171	0.49171
0.638	6.9693	-29275	2175.8	-0.62318	-0.6222	0.49034
0.64	6.9479	-29276	2176	-0.62171	-0.62269	0.48898
0.642	6.9003	-29272	2176	-0.6222	-0.62171	0.48722
0.644	6.8583	-29267	2176.1	-0.62269	-0.62074	0.48546
0.646	6.8453	-29261	2176.1	-0.62318	-0.61976	0.48371
0.648	6.8624	-29255	2176	-0.62366	-0.61878	0.48195
0.65	6.8973	-29256	2176	-0.62415	-0.61781	0.48019
0.652	6.9303	-29258	2175.9	-0.62396	-0.61732	0.4798
0.654	6.9469	-29254	2175.9	-0.62376	-0.61683	0.47941
0.656	6.9307	-29250	2175.8	-0.62357	-0.61634	0.47902
0.658	6.8884	-29252	2175.8	-0.62337	-0.61586	0.47863
0.66	6.8457	-29255	2175.7	-0.62318	-0.61537	0.47824
0.662	6.8261	-29254	2175.5	-0.62376	-0.61508	0.47785
0.664	6.8408	-29253	2175.3	-0.62435	-0.61478	0.47746
0.666	6.8728	-29249	2175.1	-0.62493	-0.61449	0.47707
0.668	6.9018	-29245	2174.8	-0.62552	-0.6142	0.47668
0.67	6.9286	-29248	2174.6	-0.6261	-0.6139	0.47629
0.672	6.9365	-29251	2174.4	-0.62601	-0.61264	0.47824
0.674	6.8997	-29244	2174.2	-0.62591	-0.61137	0.48019
0.676	6.8479	-29238	2174	-0.62581	-0.6101	0.48214
0.678	6.8093	-29243	2173.8	-0.62571	-0.60883	0.4841
0.68	6.7951	-29247	2173.5	-0.62562	-0.60756	0.48605
0.682	6.8169	-29243	2173.3	-0.62464	-0.60824	0.48644
0.684	6.853	-29239	2173	-0.62366	-0.60893	0.48683
0.686	6.8875	-29239	2172.8	-0.62269	-0.60961	0.48722
0.688	6.8993	-29239	2172.5	-0.62171	-0.61029	0.48761
0.69	6.869	-29234	2172.3	-0.62074	-0.61098	0.488
0.692	6.8406	-29229	2172.1	-0.622	-0.61039	0.48761
0.694	6.7985	-29230	2171.9	-0.62327	-0.6098	0.48722
0.696	6.7516	-29232	2171.6	-0.62454	-0.60922	0.48683
0.698	6.7589	-29230	2171.4	-0.62581	-0.60863	0.48644
0.7	6.8195	-29228	2171.1	-0.62708	-0.60805	0.48605
0.702	6.8795	-29227	2170.8	-0.62776	-0.60834	0.48517
0.704	6.9026	-29226	2170.5	-0.62845	-0.60863	0.48429
0.706	6.8744	-29226	2170.3	-0.62913	-0.60893	0.48341
0.708	6.8174	-29225	2170.1	-0.62981	-0.60922	0.48253
0.71	6.7524	-29223	2169.9	-0.6305	-0.60951	0.48166
0.712	6.7185	-29220	2169.7	-0.62942	-0.6102	0.48244
0.714	6.7335	-29220	2169.5	-0.62835	-0.61088	0.48322
0.716	6.7827	-29221	2169.3	-0.62728	-0.61156	0.484
0.718	6.8344	-29221	2168.9	-0.6262	-0.61224	0.48478
0.72	6.8717	-29221	2168.6	-0.62513	-0.61293	0.48556
0.722	6.8657	-29219	2168.1	-0.62484	-0.61283	0.48546
0.724	6.8268	-29217	2167.7	-0.62454	-0.61273	0.48536
0.726	6.7866	-29217	2167.2	-0.62425	-0.61264	0.48527
0.728	6.7515	-29217	2166.8	-0.62396	-0.61254	0.48517
0.73	6.7474	-29215	2166.3	-0.62366	-0.61244	0.48507
0.732	6.7796	-29213	2165.9	-0.62386	-0.61185	0.48488
0.734	6.828	-29211	2165.5	-0.62405	-0.61127	0.48468
0.736	6.8746	-29208	2165.2	-0.62425	-0.61068	0.48449
0.738	6.8944	-29211	2164.9	-0.62444	-0.6101	0.48429
0.74	6.8739	-29213	2164.6	-0.62464	-0.60951	0.4841
0.742	6.8239	-29212	2164.4	-0.62649	-0.60961	0.48322
0.744	6.7725	-29211	2164.1	-0.62835	-0.60971	0.48234
0.746	6.7493	-29213	2163.8	-0.6302	-0.6098	0.48146
0.748	6.7717	-29216	2163.5	-0.63206	-0.6099	0.48058
0.75	6.8168	-29215	2163.1	-0.63391	-0.61	0.4797
0.752	6.8491	-29214	2162.8	-0.63381	-0.61078	0.48
0.754	6.8681	-29212	2162.6	-0.63372	-0.61156	0.48029
0.756	6.8593	-29210	2162.3	-0.63362	-0.61234	0.48058
0.758	6.8076	-29208	2162.1	-0.63352	-0.61312	0.48088
0.76	6.7616	-29206	2161.9	-0.63342	-0.6139	0.48117
0.762	6.7505	-29210	2161.7	-0.63284	-0.61361	0.48166
0.764	6.7585	-29214	2161.5	-0.63225	-0.61332	0.48214
0.766	6.8008	-29210	2161.2	-0.63167	-0.61303	0.48263
0.768	6.854	-29205	2161	-0.63108	-0.61273	0.48312
0.77	6.8842	-29210	2160.8	-0.6305	-0.61244	0.48361
0.772	6.8768	-29214	2160.7	-0.63089	-0.61224	0.48371
0.774	6.841	-29216	2160.5	-0.63128	-0.61205	0.4838
0.776	6.8033	-29218	2160.5	-0.63167	-0.61185	0.4839
0.778	6.7699	-29218	2160.5	-0.63206	-0.61166	0.484
0.78	6.7661	-29218	2160.4	-0.63245	-0.61146	0.4841
0.782	6.7904	-29216	2160.5	-0.63128	-0.61127	0.4841
0.784	6.8178	-29214	2160.5	-0.63011	-0.61107	0.4841
0.786	6.8573	-29215	2160.6	-0.62893	-0.61088	0.4841
0.788	6.8764	-29217	2160.6	-0.62776	-0.61068	0.4841
0.79	6.8437	-29220	2160.7	-0.62659	-0.61049	0.4841
0.792	6.7963	-29224	2160.7	-0.62718	-0.6102	0.48546
0.794	6.7448	-29219	2160.7	-0.62776	-0.6099	0.48683
0.796	6.7145	-29214	2160.8	-0.62835	-0.60961	0.4882
0.798	6.7375	-29214	2160.8	-0.62893	-0.60932	0.48956
0.8	6.7806	-29215	2160.8	-0.62952	-0.60902	0.49093
0.802	6.8316	-29218	2160.9	-0.62942	-0.60824	0.49112
0.804	6.8635	-29221	2160.9	-0.62932	-0.60746	0.49132
0.806	6.8535	-29220	2160.9	-0.62923	-0.60668	0.49151
0.808	6.8152	-29219	2160.8	-0.62913	-0.6059	0.49171
0.81	6.7632	-29222	2160.7	-0.62903	-0.60512	0.4919
0.812	6.7287	-29224	2160.5	-0.62874	-0.60619	0.49161
0.814	6.7224	-29222	2160.3	-0.62845	-0.60727	0.49132
0.816	6.7493	-29220	2160.1	-0.62815	-0.60834	0.49103
0.818	6.8039	-29221	2159.9	-0.62786	-0.60941	0.49073
0.82	6.846	-29221	2159.7	-0.62757	-0.61049	0.49044
0.822	6.8469	-29220	2159.5	-0.63069	-0.6101	0.49161
0.824	6.8068	-29219	2159.3	-0.63381	-0.60971	0.49278
0.826	6.7596	-29219	2159.1	-0.63694	-0.60932	0.49395
0.828	6.728	-29219	2158.9	-0.64006	-0.60893	0.49512
0.83	6.7186	-29222	2158.7	-0.64318	-0.60854	0.4963
0.832	6.7487	-29224	2158.5	-0.64143	-0.60873	0.4962
0.834	6.8039	-29227	2158.3	-0.63967	-0.60893	0.4961
0.836	6.8431	-29231	2158.1	-0.63791	-0.60912	0.496
0.838	6.8492	-29229	2157.8	-0.63616	-0.60932	0.49591
0.84	6.8257	-29227	2157.6	-0.6344	-0.60951	0.49581
0.842	6.7801	-29232	2157.4	-0.6345	-0.60902	0.49532
0.844	6.7271	-29237	2157.2	-0.6346	-0.60854	0.49483
0.846	6.7031	-29235	2157	-0.63469	-0.60805	0.49434
0.848	6.7265	-29233	2156.8	-0.63479	-0.60756	0.49386
0.85	6.7729	-29230	2156.6	-0.63489	-0.60707	0.49337
0.852	6.8073	-29226	2156.5	-0.6344	-0.60688	0.49308
0.854	6.8235	-29229	2156.4	-0.63391	-0.60668	0.49278
0.856	6.8083	-29233	2156.2	-0.63342	-0.60649	0.49249
0.858	6.7626	-29232	2156.1	-0.63294	-0.60629	0.4922
0.86	6.7161	-29232	2156	-0.63245	-0.6061	0.4919
0.862	6.69	-29227	2155.9	-0.63176	-0.6058	0.49171
0.864	6.6909	-29222	2155.8	-0.63108	-0.60551	0.49151
0.866	6.7258	-29225	2155.7	-0.6304	-0.60522	0.49132
0.868	6.7877	-29229	2155.5	-0.62972	-0.60492	0.49112
0.87	6.8442	-29229	2155.4	-0.62903	-0.60463	0.49093
0.872	6.8417	-29228	2155.2	-0.62737	-0.60522	0.49064
0.874	6.8005	-29228	2155	-0.62571	-0.6058	0.49034
0.876	6.7395	-29228	2154.7	-0.62405	-0.60639	0.49005
0.878	6.6968	-29228	2154.5	-0.6224	-0.60697	0.48976
0.88	6.6894	-29228	2154.2	-0.62074	-0.60756	0.48946
0.882	6.7307	-29230	2154.1	-0.62005	-0.60776	0.48946
0.884	6.7812	-29232	2154.1	-0.61937	-0.60795	0.48946
0.886	6.8126	-29233	2154	-0.61869	-0.60815	0.48946
0.888	6.8383	-29234	2154	-0.618	-0.60834	0.48946
0.89	6.808	-29236	2154	-0.61732	-0.60854	0.48946
0.892	6.7573	-29238	2154	-0.61937	-0.60776	0.48927
0.894	6.6921	-29242	2153.9	-0.62142	-0.60697	0.48907
0.896	6.6722	-29246	2153.9	-0.62347	-0.60619	0.48888
0.898	6.703	-29244	2153.9	-0.62552	-0.60541	0.48868
0.9	6.7514	-29242	2153.9	-0.62757	-0.60463	0.48849
0.902	6.7868	-29241	2153.8	-0.62728	-0.60473	0.48898
0.904	6.8072	-29241	2153.7	-0.62698	-0.60483	0.48946
0.906	6.7942	-29240	2153.7	-0.62669	-0.60492	0.48995
0.908	6.7632	-29240	2153.6	-0.6264	-0.60502	0.49044
0.91	6.7271	-29243	2153.5	-0.6261	-0.60512	0.49093
0.912	6.7017	-29246	2153.5	-0.62698	-0.60453	0.49083
0.914	6.7102	-29247	2153.4	-0.62786	-0.60395	0.49073
0.916	6.7461	-29247	2153.4	-0.62874	-0.60336	0.49064
0.918	6.7855	-29247	2153.3	-0.62962	-0.60278	0.49054
0.92	6.8129	-29247	2153.3	-0.6305	-0.60219	0.49044
0.922	6.8147	-29245	2153.1	-0.6302	-0.6017	0.48995
0.924	6.7857	-29242	2152.9	-0.62991	-0.60122	0.48946
0.926	6.7397	-29242	2152.7	-0.62962	-0.60073	0.48898
0.928	6.7008	-29242	2152.5	-0.62932	-0.60024	0.48849
0.93	6.697	-29246	2152.3	-0.62903	-0.59975	0.488
0.932	6.7285	-29250	2152	-0.62972	-0.59946	0.48722
0.934	6.7758	-29251	2151.8	-0.6304	-0.59917	0.48644
0.936	6.8238	-29251	2151.6	-0.63108	-0.59887	0.48566
0.938	6.8502	-29248	2151.4	-0.63176	-0.59858	0.48488
0.94	6.8368	-29246	2151.2	-0.63245	-0.59829	0.4841
0.942	6.8044	-29245	2151.1	-0.63411	-0.59848	0.48371
0.944	6.7519	-29244	2150.9	-0.63577	-0.59868	0.48332
0.946	6.7136	-29249	2150.7	-0.63743	-0.59887	0.48292
0.948	6.7172	-29253	2150.5	-0.63908	-0.59907	0.48253
0.95	6.7556	-29253	2150.2	-0.64074	-0.59926	0.48214
0.952	6.7783	-29252	2149.9	-0.64084	-0.59839	0.48253
0.954	6.7777	-29252	2149.6	-0.64094	-0.59751	0.48292
0.956	6.7408	-29252	2149.3	-0.64104	-0.59663	0.48332
0.958	6.6747	-29257	2149	-0.64113	-0.59575	0.48371
0.96	6.618	-29262	2148.7	-0.64123	-0.59487	0.4841
0.962	6.5621	-29261	2148.4	-0.63879	-0.59507	0.48419
0.964	6.5319	-29260	2148.1	-0.63635	-0.59526	0.48429
0.966	6.618	-29258	2147.9	-0.63391	-0.59546	0.48439
0.968	6.7099	-29257	2147.7	-0.63147	-0.59565	0.48449
0.97	6.7527	-29259	2147.5	-0.62903	-0.59585	0.48458
0.972	6.76	-29260	2147.3	-0.62952	-0.59692	0.48488
0.974	6.7356	-29260	2147.2	-0.63001	-0.598	0.48517
0.976	6.6998	-29259	2147.1	-0.6305	-0.59907	0.48546
0.978	6.657	-29258	2147	-0.63098	-0.60014	0.48576
0.98	6.6524	-29258	2146.9	-0.63147	-0.60122	0.48605
0.982	6.6925	-29259	2146.8	-0.63137	-0.6019	0.48624
0.984	6.7399	-29261	2146.8	-0.63128	-0.60258	0.48644
0.986	6.7756	-29259	2146.7	-0.63118	-0.60327	0.48663
0.988	6.7856	-29258	2146.6	-0.63108	-0.60395	0.48683
0.99	6.7591	-29256	2146.5	-0.63098	-0.60463	0.48702
0.992	6.7121	-29254	2146.3	-0.62923	-0.60551	0.4878
0.994	6.6759	-29258	2146.1	-0.62747	-0.60639	0.48859
0.996	6.6682	-29262	2146	-0.62571	-0.60727	0.48937
0.998	6.6907	-29267	2146	-0.62396	-0.60815	0.49015
1	6.731	-29272	2146	-0.6222	-0.60902	0.49093
1.002	6.7757	-29273	2146	-0.62454	-0.60883	0.49073
1.004	6.7998	-29274	2146.1	-0.62688	-0.60863	0.49054
1.006	6.7816	-29270	2146.1	-0.62923	-0.60844	0.49034
1.008	6.7404	-29267	2146.2	-0.63157	-0.60824	0.49015
1.01	6.7027	-29270	2146.3	-0.63391	-0.60805	0.48995
1.012	6.6724	-29272	2146.4	-0.6342	-0.60932	0.49024
1.014	6.6634	-29273	2146.4	-0.6345	-0.61059	0.49054
1.016	6.6961	-29274	2146.4	-0.63479	-0.61185	0.49083
1.018	6.7516	-29272	2146.3	-0.63508	-0.61312	0.49112
1.02	6.7901	-29270	2146.1	-0.63538	-0.61439	0.49142
1.022	6.7909	-29273	2145.9	-0.63547	-0.61293	0.49327
1.024	6.7499	-29276	2145.7	-0.63557	-0.61146	0.49512
1.026	6.7088	-29278	2145.5	-0.63567	-0.61	0.49698
1.028	6.6803	-29280	2145.2	-0.63577	-0.60854	0.49883
1.03	6.6762	-29280	2145	-0.63586	-0.60707	0.50069
1.032	6.6997	-29280	2144.8	-0.63586	-0.60571	0.50079
1.034	6.7407	-29274	2144.5	-0.63586	-0.60434	0.50088
1.036	6.7821	-29269	2144.3	-0.63586	-0.60297	0.50098
1.038	6.8067	-29266	2144.1	-0.63586	-0.60161	0.50108
1.04	6.7894	-29263	2143.9	-0.63586	-0.60024	0.50118
1.042	6.7574	-29268	2143.7	-0.63606	-0.60131	0.50127
1.044	6.6922	-29272	2143.6	-0.63625	-0.60239	0.50137
1.046	6.6549	-29273	2143.4	-0.63645	-0.60346	0.50147
1.048	6.6745	-29274	2143.3	-0.63664	-0.60453	0.50157
1.05	6.7093	-29279	2143.2	-0.63684	-0.60561	0.50166
1.052	6.7598	-29285	2143.1	-0.63723	-0.60424	0.5003
1.054	6.8078	-29281	2143	-0.63762	-0.60288	0.49893
1.056	6.7927	-29276	2142.9	-0.63801	-0.60151	0.49756
1.058	6.7615	-29274	2142.7	-0.6384	-0.60014	0.4962
1.06	6.7016	-29272	2142.6	-0.63879	-0.59878	0.49483
1.062	6.6562	-29280	2142.7	-0.63713	-0.59819	0.49395
1.064	6.6581	-29288	2142.7	-0.63547	-0.5976	0.49308
1.066	6.7188	-29286	2142.8	-0.63381	-0.59702	0.4922
1.068	6.7912	-29285	2143.1	-0.63216	-0.59643	0.49132
1.07	6.8245	-29288	2143.3	-0.6305	-0.59585	0.49044
1.072	6.8187	-29292	2144	-0.63225	-0.5979	0.48868
1.074	6.7856	-29288	2144.6	-0.63401	-0.59995	0.48693
1.076	6.7324	-29283	2145.1	-0.63577	-0.602	0.48517
1.078	6.6885	-29285	2145.5	-0.63752	-0.60405	0.48341
1.08	6.6835	-29288	2146	-0.63928	-0.6061	0.48166
1.082	6.7146	-29290	2146.5	-0.63791	-0.6058	0.48341
1.084	6.7573	-29292	2147.1	-0.63655	-0.60551	0.48517
1.086	6.8017	-29288	2147.7	-0.63518	-0.60522	0.48693
1.088	6.8241	-29285	2148.4	-0.63381	-0.60492	0.48868
1.09	6.7995	-29290	2149	-0.63245	-0.60463	0.49044
1.092	6.7592	-29296	2149.6	-0.6345	-0.60483	0.4921
1.094	6.7233	-29297	2150.2	-0.63655	-0.60502	0.49376
1.096	6.7006	-29298	2150.7	-0.6386	-0.60522	0.49542
1.098	6.7292	-29295	2151.3	-0.64065	-0.60541	0.49708
1.1	6.7791	-29292	2151.8	-0.6427	-0.60561	0.49874
1.102	6.8174	-29291	2152.3	-0.64211	-0.60512	0.49825
1.104	6.8412	-29290	2152.8	-0.64152	-0.60463	0.49776
1.106	6.8362	-29285	2153.2	-0.64094	-0.60414	0.49727
1.108	6.8168	-29280	2153.7	-0.64035	-0.60366	0.49678
1.11	6.7796	-29280	2154.1	-0.63977	-0.60317	0.4963
1.112	6.7406	-29280	2154.5	-0.63889	-0.60248	0.49503
1.114	6.7399	-29281	2154.8	-0.63801	-0.6018	0.49376
1.116	6.7769	-29283	2155.1	-0.63713	-0.60112	0.49249
1.118	6.8231	-29278	2155.4	-0.63625	-0.60044	0.49122
1.12	6.8571	-29274	2155.7	-0.63538	-0.59975	0.48995
1.122	6.8714	-29274	2155.9	-0.6346	-0.59848	0.48985
1.124	6.829	-29273	2156	-0.63381	-0.59721	0.48976
1.126	6.7804	-29272	2156.2	-0.63303	-0.59595	0.48966
1.128	6.75	-29270	2156.3	-0.63225	-0.59468	0.48956
1.13	6.7408	-29275	2156.3	-0.63147	-0.59341	0.48946
1.132	6.7775	-29281	2156.2	-0.63128	-0.59331	0.48966
1.134	6.823	-29274	2156.1	-0.63108	-0.59321	0.48985
1.136	6.8613	-29267	2156	-0.63089	-0.59312	0.49005
1.138	6.88	-29264	2155.8	-0.63069	-0.59302	0.49024
1.14	6.8707	-29261	2155.6	-0.6305	-0.59292	0.49044
1.142	6.8297	-29262	2155.3	-0.63098	-0.59263	0.49093
1.144	6.778	-29262	2155	-0.63147	-0.59233	0.49142
1.146	6.7439	-29258	2154.7	-0.63196	-0.59204	0.4919
1.148	6.7617	-29254	2154.4	-0.63245	-0.59175	0.49239
1.15	6.8102	-29251	2154.1	-0.63294	-0.59146	0.49288
1.152	6.8509	-29248	2153.8	-0.63362	-0.59292	0.49093
1.154	6.881	-29246	2153.5	-0.6343	-0.59438	0.48898
1.156	6.8673	-29244	2153.1	-0.63499	-0.59585	0.48702
1.158	6.8205	-29245	2152.8	-0.63567	-0.59731	0.48507
1.16	6.7677	-29246	2152.4	-0.63635	-0.59878	0.48312
1.162	6.7312	-29243	2151.9	-0.63567	-0.59956	0.484
1.164	6.7268	-29240	2151.4	-0.63499	-0.60034	0.48488
1.166	6.7586	-29242	2150.9	-0.6343	-0.60112	0.48576
1.168	6.8046	-29245	2150.4	-0.63362	-0.6019	0.48663
1.17	6.8312	-29242	2150	-0.63294	-0.60268	0.48751
1.172	6.8277	-29239	2149.6	-0.63274	-0.60112	0.4878
1.174	6.7977	-29237	2149.2	-0.63255	-0.59956	0.4881
1.176	6.7443	-29235	2148.9	-0.63235	-0.598	0.48839
1.178	6.697	-29233	2148.6	-0.63216	-0.59643	0.48868
1.18	6.6869	-29232	2148.2	-0.63196	-0.59487	0.48898
1.182	6.7107	-29232	2148	-0.63176	-0.59565	0.4881
1.184	6.7546	-29233	2147.7	-0.63157	-0.59643	0.48722
1.186	6.7939	-29231	2147.5	-0.63137	-0.59721	0.48634
1.188	6.8089	-29230	2147.4	-0.63118	-0.598	0.48546
1.19	6.7928	-29226	2147.2	-0.63098	-0.59878	0.48458
1.192	6.7459	-29223	2147	-0.63098	-0.59917	0.48507
1.194	6.6964	-29222	2146.9	-0.63098	-0.59956	0.48556
1.196	6.6712	-29222	2146.7	-0.63098	-0.59995	0.48605
1.198	6.6883	-29225	2146.4	-0.63098	-0.60034	0.48654
1.2	6.7323	-29229	2146.2	-0.63098	-0.60073	0.48702
1.202	6.7722	-29225	2146	-0.63225	-0.60053	0.48624
1.204	6.7836	-29220	2145.8	-0.63352	-0.60034	0.48546
1.206	6.7639	-29215	2145.6	-0.63479	-0.60014	0.48468
1.208	6.7184	-29211	2145.5	-0.63606	-0.59995	0.4839
1.21	6.6811	-29215	2145.4	-0.63733	-0.59975	0.48312
1.212	6.6502	-29219	2145.4	-0.6384	-0.59858	0.48371
1.214	6.6542	-29217	2145.3	-0.63948	-0.59741	0.48429
1.216	6.7062	-29215	2145.3	-0.64055	-0.59624	0.48488
1.218	6.7758	-29221	2145.2	-0.64162	-0.59507	0.48546
1.22	6.8002	-29227	2145.1	-0.6427	-0.5939	0.48605
1.222	6.7875	-29221	2145.1	-0.64211	-0.59419	0.48634
1.224	6.7405	-29214	2145.1	-0.64152	-0.59448	0.48663
1.226	6.7019	-29218	2145	-0.64094	-0.59477	0.48693
1.228	6.6622	-29221	2144.8	-0.64035	-0.59507	0.48722
1.23	6.642	-29218	2144.7	-0.63977	-0.59536	0.48751
1.232	6.6713	-29215	2144.5	-0.63987	-0.59487	0.48751
1.234	6.7256	-29221	2144.3	-0.63996	-0.59438	0.48751
1.236	6.7675	-29227	2144.1	-0.64006	-0.5939	0.48751
1.238	6.7726	-29215	2143.9	-0.64016	-0.59341	0.48751
1.24	6.7494	-29203	2143.7	-0.64026	-0.59292	0.48751
1.242	6.7126	-29210	2143.7	-0.64152	-0.59282	0.48976
1.244	6.6851	-29217	2143.6	-0.64279	-0.59272	0.492
1.246	6.6612	-29214	2143.5	-0.64406	-0.59263	0.49425
1.248	6.6681	-29211	2143.3	-0.64533	-0.59253	0.49649
1.25	6.703	-29212	2143.2	-0.6466	-0.59243	0.49874
1.252	6.743	-29213	2143	-0.64631	-0.59331	0.49708
1.254	6.7739	-29213	2142.8	-0.64601	-0.59419	0.49542
1.256	6.7652	-29213	2142.6	-0.64572	-0.59507	0.49376
1.258	6.7226	-29208	2142.5	-0.64543	-0.59595	0.4921
1.26	6.6822	-29203	2142.4	-0.64514	-0.59682	0.49044
1.262	6.6513	-29207	2142.3	-0.64309	-0.59741	0.49034
1.264	6.6454	-29211	2142.2	-0.64104	-0.598	0.49024
1.266	6.6776	-29208	2142.2	-0.63899	-0.59858	0.49015
1.268	6.7211	-29205	2142.3	-0.63694	-0.59917	0.49005
1.27	6.7595	-29204	2142.3	-0.63489	-0.59975	0.48995
1.272	6.7691	-29203	2142.3	-0.63616	-0.59926	0.49064
1.274	6.7278	-29209	2142.3	-0.63743	-0.59878	0.49132
1.276	6.6726	-29215	2142.2	-0.63869	-0.59829	0.492
1.278	6.6388	-29212	2142.2	-0.63996	-0.5978	0.49268
1.28	6.6441	-29209	2142.2	-0.64123	-0.59731	0.49337
1.282	6.6755	-29212	2142.1	-0.64152	-0.5976	0.49356
1.284	6.7219	-29215	2142.1	-0.64182	-0.5979	0.49376
1.286	6.7626	-29212	2142	-0.64211	-0.59819	0.49395
1.288	6.7732	-29210	2142	-0.6424	-0.59848	0.49415
1.29	6.7509	-29210	2142	-0.6427	-0.59878	0.49434
1.292	6.7028	-29211	2142.1	-0.64201	-0.5977	0.49512
1.294	6.6561	-29207	2142.1	-0.64133	-0.59663	0.49591
1.296	6.6496	-29204	2142.2	-0.64065	-0.59556	0.49669
1.298	6.6735	-29203	2142.2	-0.63996	-0.59448	0.49747
1.3	6.7167	-29201	2142.2	-0.63928	-0.59341	0.49825
1.302	6.7611	-29206	2142.2	-0.64074	-0.59399	0.49766
1.304	6.7951	-29211	2142.1	-0.64221	-0.59458	0.49708
1.306	6.7785	-29214	2142.1	-0.64367	-0.59516	0.49649
1.308	6.7329	-29218	2142	-0.64514	-0.59575	0.49591
1.31	6.6705	-29217	2142	-0.6466	-0.59634	0.49532
1.312	6.6409	-29216	2141.9	-0.64699	-0.59575	0.49571
1.314	6.6331	-29218	2141.8	-0.64738	-0.59516	0.4961
1.316	6.681	-29220	2141.6	-0.64777	-0.59458	0.49649
1.318	6.7377	-29219	2141.5	-0.64816	-0.59399	0.49688
1.32	6.7844	-29218	2141.3	-0.64855	-0.59341	0.49727
1.322	6.8035	-29216	2141.2	-0.64797	-0.59321	0.49776
1.324	6.7729	-29215	2141	-0.64738	-0.59302	0.49825
1.326	6.7184	-29220	2140.9	-0.6468	-0.59282	0.49874
1.328	6.6836	-29226	2140.9	-0.64621	-0.59263	0.49922
1.33	6.6632	-29224	2140.8	-0.64562	-0.59243	0.49971
1.332	6.6793	-29222	2140.7	-0.64416	-0.5938	0.49786
1.334	6.7102	-29220	2140.6	-0.6427	-0.59516	0.496
1.336	6.7551	-29219	2140.5	-0.64123	-0.59653	0.49415
1.338	6.7877	-29220	2140.4	-0.63977	-0.5979	0.49229
1.34	6.769	-29221	2140.3	-0.6383	-0.59926	0.49044
1.342	6.7262	-29217	2140.2	-0.63713	-0.59897	0.49034
1.344	6.68	-29212	2140	-0.63596	-0.59868	0.49024
1.346	6.6484	-29217	2139.9	-0.63479	-0.59839	0.49015
1.348	6.661	-29222	2139.7	-0.63362	-0.59809	0.49005
1.35	6.6973	-29223	2139.6	-0.63245	-0.5978	0.48995
1.352	6.7305	-29223	2139.5	-0.63167	-0.59692	0.48995
1.354	6.7545	-29230	2139.4	-0.63089	-0.59604	0.48995
1.356	6.7439	-29237	2139.3	-0.63011	-0.59516	0.48995
1.358	6.6904	-29235	2139.3	-0.62932	-0.59429	0.48995
1.36	6.6406	-29233	2139.2	-0.62854	-0.59341	0.48995
1.362	6.618	-29228	2139.2	-0.62913	-0.59409	0.48907
1.364	6.6235	-29222	2139.1	-0.62972	-0.59477	0.4882
1.366	6.6571	-29222	2139	-0.6303	-0.59546	0.48732
1.368	6.705	-29221	2138.9	-0.63089	-0.59614	0.48644
1.37	6.744	-29220	2138.8	-0.63147	-0.59682	0.48556
1.372	6.7518	-29219	2138.6	-0.63186	-0.59624	0.48546
1.374	6.722	-29220	2138.5	-0.63225	-0.59565	0.48536
1.376	6.6691	-29221	2138.4	-0.63264	-0.59507	0.48527
1.378	6.6245	-29224	2138.3	-0.63303	-0.59448	0.48517
1.38	6.6055	-29228	2138.2	-0.63342	-0.5939	0.48507
1.382	6.6279	-29230	2138.1	-0.63352	-0.5939	0.48595
1.384	6.6926	-29233	2138	-0.63362	-0.5939	0.48683
1.386	6.7342	-29233	2137.9	-0.63372	-0.5939	0.48771
1.388	6.7348	-29233	2137.8	-0.63381	-0.5939	0.48859
1.39	6.7208	-29232	2137.7	-0.63391	-0.5939	0.48946
1.392	6.6783	-29230	2137.7	-0.6345	-0.59477	0.48888
1.394	6.6241	-29233	2137.6	-0.63508	-0.59565	0.48829
1.396	6.6103	-29236	2137.5	-0.63567	-0.59653	0.48771
1.398	6.6221	-29236	2137.3	-0.63625	-0.59741	0.48712
1.4	6.6622	-29237	2137.1	-0.63684	-0.59829	0.48654
1.402	6.712	-29232	2136.8	-0.63655	-0.59721	0.48722
1.404	6.7417	-29227	2136.6	-0.63625	-0.59614	0.4879
1.406	6.7454	-29230	2136.4	-0.63596	-0.59507	0.48859
1.408	6.7175	-29233	2136.2	-0.63567	-0.59399	0.48927
1.41	6.6699	-29237	2136	-0.63538	-0.59292	0.48995
1.412	6.6306	-29241	2135.9	-0.63586	-0.59321	0.49015
1.414	6.6209	-29240	2135.8	-0.63635	-0.59351	0.49034
1.416	6.6512	-29238	2135.6	-0.63684	-0.5938	0.49054
1.418	6.7029	-29231	2135.5	-0.63733	-0.59409	0.49073
1.42	6.752	-29224	2135.4	-0.63782	-0.59438	0.49093
1.422	6.7652	-29226	2135.2	-0.63625	-0.59331	0.49083
1.424	6.7344	-29229	2135	-0.63469	-0.59224	0.49073
1.426	6.6921	-29234	2134.8	-0.63313	-0.59116	0.49064
1.428	6.667	-29239	2134.6	-0.63157	-0.59009	0.49054
1.43	6.6719	-29236	2134.3	-0.63001	-0.58902	0.49044
1.432	6.7126	-29232	2134.2	-0.63176	-0.5895	0.49005
1.434	6.7712	-29240	2134	-0.63352	-0.58999	0.48966
1.436	6.817	-29248	2133.9	-0.63528	-0.59048	0.48927
1.438	6.827	-29249	2133.7	-0.63704	-0.59097	0.48888
1.44	6.788	-29250	2133.5	-0.63879	-0.59146	0.48849
1.442	6.713	-29240	2133.3	-0.64055	-0.59068	0.48927
1.444	6.6302	-29230	2133.2	-0.64231	-0.58989	0.49005
1.446	6.5708	-29235	2133	-0.64406	-0.58911	0.49083
1.448	6.5587	-29240	2132.9	-0.64582	-0.58833	0.49161
1.45	6.5796	-29242	2132.8	-0.64758	-0.58755	0.49239
1.452	6.5863	-29245	2132.7	-0.64689	-0.58745	0.49376
1.454	6.5939	-29242	2132.7	-0.64621	-0.58736	0.49512
1.456	6.5941	-29239	2132.6	-0.64553	-0.58726	0.49649
1.458	6.5593	-29240	2132.5	-0.64484	-0.58716	0.49786
1.46	6.5329	-29240	2132.5	-0.64416	-0.58706	0.49922
1.462	6.5208	-29248	2132.4	-0.64426	-0.58765	0.49952
1.464	6.5409	-29255	2132.2	-0.64436	-0.58824	0.49981
1.466	6.5988	-29249	2132.1	-0.64445	-0.58882	0.5001
1.468	6.6578	-29243	2132	-0.64455	-0.58941	0.5004
1.47	6.6949	-29244	2131.8	-0.64465	-0.58999	0.50069
1.472	6.712	-29245	2131.7	-0.6425	-0.59048	0.50127
1.474	6.682	-29248	2131.7	-0.64035	-0.59097	0.50186
1.476	6.6381	-29252	2131.5	-0.63821	-0.59146	0.50244
1.478	6.5957	-29250	2131.4	-0.63606	-0.59194	0.50303
1.48	6.5744	-29249	2131.3	-0.63391	-0.59243	0.50362
1.482	6.6098	-29252	2131.2	-0.63557	-0.59312	0.50215
1.484	6.6558	-29255	2131.2	-0.63723	-0.5938	0.50069
1.486	6.6993	-29259	2131.1	-0.63889	-0.59448	0.49922
1.488	6.7248	-29262	2131.1	-0.64055	-0.59516	0.49776
1.49	6.7126	-29257	2131.1	-0.64221	-0.59585	0.4963
1.492	6.6698	-29251	2131.1	-0.64211	-0.59448	0.49717
1.494	6.625	-29252	2131.1	-0.64201	-0.59312	0.49805
1.496	6.5969	-29253	2131.1	-0.64192	-0.59175	0.49893
1.498	6.6128	-29255	2131.1	-0.64182	-0.59038	0.49981
1.5	6.651	-29257	2131.1	-0.64172	-0.58902	0.50069
1.502	6.6891	-29255	2131.1	-0.64143	-0.5897	0.50069
1.504	6.7149	-29253	2131.2	-0.64113	-0.59038	0.50069
1.506	6.706	-29252	2131.2	-0.64084	-0.59107	0.50069
1.508	6.665	-29252	2131.2	-0.64055	-0.59175	0.50069
1.51	6.6271	-29257	2131.2	-0.64026	-0.59243	0.50069
1.512	6.6082	-29261	2131.1	-0.64026	-0.59204	0.50137
1.514	6.6114	-29259	2131	-0.64026	-0.59165	0.50205
1.516	6.6519	-29256	2130.8	-0.64026	-0.59126	0.50274
1.518	6.7099	-29256	2130.6	-0.64026	-0.59087	0.50342
1.52	6.7468	-29255	2130.5	-0.64026	-0.59048	0.5041
1.522	6.7461	-29260	2130.3	-0.63957	-0.59116	0.5042
1.524	6.705	-29265	2130.1	-0.63889	-0.59185	0.5043
1.526	6.6517	-29264	2129.9	-0.63821	-0.59253	0.5044
1.528	6.6127	-29264	2129.7	-0.63752	-0.59321	0.50449
1.53	6.602	-29261	2129.6	-0.63684	-0.5939	0.50459
1.532	6.6182	-29259	2129.6	-0.63674	-0.59331	0.50508
1.534	6.6648	-29261	2129.5	-0.63664	-0.59272	0.50557
1.536	6.7289	-29262	2129.5	-0.63655	-0.59214	0.50606
1.538	6.7583	-29266	2129.5	-0.63645	-0.59155	0.50654
1.54	6.7437	-29270	2129.5	-0.63635	-0.59097	0.50703
1.542	6.6889	-29273	2129.6	-0.63782	-0.59116	0.50635
1.544	6.6411	-29276	2129.6	-0.63928	-0.59136	0.50567
1.546	6.6213	-29275	2129.6	-0.64074	-0.59155	0.50498
1.548	6.6394	-29274	2129.8	-0.64221	-0.59175	0.5043
1.55	6.6777	-29275	2129.9	-0.64367	-0.59194	0.50362
1.552	6.7191	-29277	2130	-0.64416	-0.59185	0.50284
1.554	6.754	-29277	2130.2	-0.64465	-0.59175	0.50205
1.556	6.7514	-29277	2130.4	-0.64514	-0.59165	0.50127
1.558	6.711	-29277	2130.7	-0.64562	-0.59155	0.50049
1.56	6.6668	-29276	2130.9	-0.64611	-0.59146	0.49971
1.562	6.64	-29280	2131.3	-0.64523	-0.59204	0.49952
1.564	6.6477	-29285	2131.7	-0.64436	-0.59263	0.49932
1.566	6.6798	-29287	2132.2	-0.64348	-0.59321	0.49913
1.568	6.7161	-29289	2132.7	-0.6426	-0.5938	0.49893
1.57	6.7494	-29285	2133.2	-0.64172	-0.59438	0.49874
1.572	6.7553	-29282	2133.8	-0.64309	-0.59497	0.49737
1.574	6.7322	-29283	2134.4	-0.64445	-0.59556	0.496
1.576	6.6969	-29283	2135	-0.64582	-0.59614	0.49464
1.578	6.6731	-29284	2135.6	-0.64719	-0.59673	0.49327
1.58	6.6631	-29284	2136.2	-0.64855	-0.59731	0.4919
1.582	6.6783	-29285	2136.8	-0.6468	-0.59702	0.49122
1.584	6.7183	-29286	2137.5	-0.64504	-0.59673	0.49054
1.586	6.7586	-29283	2138.1	-0.64328	-0.59643	0.48985
1.588	6.7813	-29281	2138.7	-0.64152	-0.59614	0.48917
1.59	6.7772	-29278	2139.3	-0.63977	-0.59585	0.48849
1.592	6.7497	-29275	2139.9	-0.64065	-0.59526	0.48966
1.594	6.7062	-29273	2140.6	-0.64152	-0.59468	0.49083
1.596	6.6741	-29271	2141.2	-0.6424	-0.59409	0.492
1.598	6.6923	-29274	2141.8	-0.64328	-0.59351	0.49317
1.6	6.744	-29277	2142.4	-0.64416	-0.59292	0.49434
1.602	6.7889	-29280	2142.8	-0.64592	-0.59351	0.49454
1.604	6.8156	-29282	2143.3	-0.64767	-0.59409	0.49473
1.606	6.8129	-29275	2143.7	-0.64943	-0.59468	0.49493
1.608	6.7816	-29268	2144.1	-0.65119	-0.59526	0.49512
1.61	6.7458	-29268	2144.5	-0.65294	-0.59585	0.49532
1.612	6.7203	-29268	2144.8	-0.65333	-0.59487	0.49552
1.614	6.7189	-29270	2145.1	-0.65372	-0.5939	0.49571
1.616	6.7545	-29271	2145.3	-0.65412	-0.59292	0.49591
1.618	6.7968	-29269	2145.5	-0.65451	-0.59194	0.4961
1.62	6.8287	-29266	2145.7	-0.6549	-0.59097	0.4963
1.622	6.8407	-29261	2145.7	-0.65255	-0.59048	0.49708
1.624	6.8161	-29256	2145.7	-0.65021	-0.58999	0.49786
1.626	6.7717	-29254	2145.7	-0.64787	-0.5895	0.49864
1.628	6.7285	-29253	2145.6	-0.64553	-0.58902	0.49942
1.63	6.7248	-29248	2145.4	-0.64318	-0.58853	0.5002
1.632	6.7612	-29244	2145.3	-0.64436	-0.58824	0.49942
1.634	6.8064	-29241	2145.1	-0.64553	-0.58794	0.49864
1.636	6.8467	-29239	2144.9	-0.6467	-0.58765	0.49786
1.638	6.8578	-29241	2144.7	-0.64787	-0.58736	0.49708
1.64	6.8339	-29242	2144.4	-0.64904	-0.58706	0.4963
1.642	6.8017	-29244	2144.2	-0.64797	-0.58658	0.49678
1.644	6.7532	-29245	2143.9	-0.64689	-0.58609	0.49727
1.646	6.7319	-29239	2143.6	-0.64582	-0.5856	0.49776
1.648	6.7501	-29233	2143.2	-0.64475	-0.58511	0.49825
1.65	6.7879	-29230	2142.9	-0.64367	-0.58462	0.49874
1.652	6.8251	-29228	2142.6	-0.64387	-0.58453	0.49835
1.654	6.8608	-29231	2142.3	-0.64406	-0.58443	0.49796
1.656	6.8461	-29234	2141.9	-0.64426	-0.58433	0.49756
1.658	6.7909	-29233	2141.5	-0.64445	-0.58423	0.49717
1.66	6.7344	-29233	2141.1	-0.64465	-0.58414	0.49678
1.662	6.6917	-29232	2140.7	-0.64406	-0.58433	0.49717
1.664	6.6908	-29231	2140.3	-0.64348	-0.58453	0.49756
1.666	6.7309	-29230	2139.9	-0.64289	-0.58472	0.49796
1.668	6.7736	-29229	2139.6	-0.64231	-0.58492	0.49835
1.67	6.8029	-29225	2139.2	-0.64172	-0.58511	0.49874
1.672	6.7987	-29222	2138.9	-0.64045	-0.58609	0.49903
1.674	6.7596	-29223	2138.5	-0.63918	-0.58706	0.49932
1.676	6.7027	-29223	2138.3	-0.63791	-0.58804	0.49961
1.678	6.6601	-29223	2138.1	-0.63664	-0.58902	0.49991
1.68	6.6557	-29223	2137.9	-0.63538	-0.58999	0.5002
1.682	6.6855	-29220	2137.7	-0.63557	-0.58989	0.49981
1.684	6.7277	-29217	2137.6	-0.63577	-0.5898	0.49942
1.686	6.7656	-29214	2137.4	-0.63596	-0.5897	0.49903
1.688	6.7825	-29211	2137.4	-0.63616	-0.5896	0.49864
1.69	6.7653	-29211	2137.3	-0.63635	-0.5895	0.49825
1.692	6.7263	-29211	2137.2	-0.63791	-0.5895	0.49825
1.694	6.6847	-29210	2137.2	-0.63948	-0.5895	0.49825
1.696	6.6552	-29208	2137.1	-0.64104	-0.5895	0.49825
1.698	6.6614	-29205	2137.1	-0.6426	-0.5895	0.49825
1.7	6.6986	-29202	2137.1	-0.64416	-0.5895	0.49825
1.702	6.7365	-29201	2137.1	-0.64465	-0.59038	0.49805
1.704	6.7638	-29199	2137.1	-0.64514	-0.59126	0.49786
1.706	6.7619	-29203	2137	-0.64562	-0.59214	0.49766
1.708	6.7325	-29206	2136.9	-0.64611	-0.59302	0.49747
1.71	6.6879	-29205	2136.8	-0.6466	-0.5939	0.49727
1.712	6.6525	-29203	2136.6	-0.64494	-0.59438	0.49454
1.714	6.6531	-29205	2136.5	-0.64328	-0.59487	0.49181
1.716	6.6872	-29207	2136.3	-0.64162	-0.59536	0.48907
1.718	6.7266	-29207	2136.2	-0.63996	-0.59585	0.48634
1.72	6.7519	-29207	2136.1	-0.6383	-0.59634	0.48361
1.722	6.7642	-29200	2136	-0.63801	-0.59614	0.48527
1.724	6.7383	-29194	2135.9	-0.63772	-0.59595	0.48693
1.726	6.7013	-29194	2135.9	-0.63743	-0.59575	0.48859
1.728	6.657	-29195	2135.8	-0.63713	-0.59556	0.49024
1.73	6.6434	-29200	2135.8	-0.63684	-0.59536	0.4919
1.732	6.6622	-29206	2135.7	-0.63713	-0.59585	0.49083
1.734	6.7173	-29203	2135.6	-0.63743	-0.59634	0.48976
1.736	6.7598	-29200	2135.4	-0.63772	-0.59682	0.48868
1.738	6.7631	-29201	2135.3	-0.63801	-0.59731	0.48761
1.74	6.7376	-29201	2135.1	-0.6383	-0.5978	0.48654
1.742	6.6871	-29203	2134.9	-0.63772	-0.59634	0.48702
1.744	6.6491	-29205	2134.7	-0.63713	-0.59487	0.48751
1.746	6.6365	-29204	2134.6	-0.63655	-0.59341	0.488
1.748	6.654	-29203	2134.5	-0.63596	-0.59194	0.48849
1.75	6.6919	-29202	2134.3	-0.63538	-0.59048	0.48898
1.752	6.7367	-29201	2134.3	-0.63606	-0.59048	0.48966
1.754	6.7604	-29204	2134.3	-0.63674	-0.59048	0.49034
1.756	6.7514	-29208	2134.3	-0.63743	-0.59048	0.49103
1.758	6.713	-29202	2134.5	-0.63811	-0.59048	0.49171
1.76	6.6644	-29196	2134.7	-0.63879	-0.59048	0.49239
1.762	6.6343	-29198	2134.9	-0.63899	-0.59136	0.49103
1.764	6.6356	-29200	2135.1	-0.63918	-0.59224	0.48966
1.766	6.6693	-29201	2135.4	-0.63938	-0.59312	0.48829
1.768	6.7141	-29203	2135.7	-0.63957	-0.59399	0.48693
1.77	6.7458	-29204	2135.9	-0.63977	-0.59487	0.48556
1.772	6.7531	-29205	2136.2	-0.64074	-0.59419	0.48693
1.774	6.7305	-29202	2136.4	-0.64172	-0.59351	0.48829
1.776	6.6827	-29199	2136.7	-0.6427	-0.59282	0.48966
1.778	6.6426	-29199	2136.8	-0.64367	-0.59214	0.49103
1.78	6.6461	-29199	2137	-0.64465	-0.59146	0.49239
1.782	6.6696	-29203	2137.2	-0.64562	-0.59263	0.4922
1.784	6.6973	-29206	2137.4	-0.6466	-0.5938	0.492
1.786	6.7428	-29207	2137.5	-0.64758	-0.59497	0.49181
1.788	6.7684	-29208	2137.6	-0.64855	-0.59614	0.49161
1.79	6.762	-29215	2137.7	-0.64953	-0.59731	0.49142
1.792	6.7239	-29221	2137.8	-0.64914	-0.5977	0.49171
1.794	6.6712	-29215	2137.9	-0.64875	-0.59809	0.492
1.796	6.6471	-29209	2137.9	-0.64836	-0.59848	0.49229
1.798	6.6549	-29212	2137.9	-0.64797	-0.59887	0.49259
1.8	6.694	-29215	2137.9	-0.64758	-0.59926	0.49288
1.802	6.731	-29216	2137.9	-0.64806	-0.59965	0.49298
1.804	6.7481	-29217	2137.9	-0.64855	-0.60004	0.49308
1.806	6.7415	-29218	2137.8	-0.64904	-0.60044	0.49317
1.808	6.7024	-29218	2137.7	-0.64953	-0.60083	0.49327
1.81	6.6512	-29219	2137.7	-0.65002	-0.60122	0.49337
1.812	6.6456	-29220	2137.6	-0.64894	-0.59926	0.49386
1.814	6.65	-29214	2137.6	-0.64787	-0.59731	0.49434
1.816	6.6835	-29209	2137.5	-0.6468	-0.59536	0.49483
1.818	6.7247	-29217	2137.5	-0.64572	-0.59341	0.49532
1.82	6.7559	-29224	2137.5	-0.64465	-0.59146	0.49581
1.822	6.7695	-29227	2137.5	-0.64318	-0.59214	0.49649
1.824	6.7535	-29231	2137.5	-0.64172	-0.59282	0.49717
1.826	6.7051	-29230	2137.6	-0.64026	-0.59351	0.49786
1.828	6.6507	-29230	2137.6	-0.63879	-0.59419	0.49854
1.83	6.6362	-29230	2137.7	-0.63733	-0.59487	0.49922
1.832	6.6616	-29231	2137.7	-0.63762	-0.59516	0.49913
1.834	6.6939	-29231	2137.7	-0.63791	-0.59546	0.49903
1.836	6.7325	-29230	2137.8	-0.63821	-0.59575	0.49893
1.838	6.7439	-29236	2137.8	-0.6385	-0.59604	0.49883
1.84	6.72	-29242	2137.9	-0.63879	-0.59634	0.49874
1.842	6.684	-29235	2137.9	-0.63889	-0.59614	0.49893
1.844	6.6343	-29228	2137.9	-0.63899	-0.59595	0.49913
1.846	6.5957	-29226	2137.9	-0.63908	-0.59575	0.49932
1.848	6.6028	-29224	2137.8	-0.63918	-0.59556	0.49952
1.85	6.6466	-29228	2137.8	-0.63928	-0.59536	0.49971
1.852	6.6912	-29232	2137.8	-0.63938	-0.59565	0.49864
1.854	6.7189	-29227	2137.7	-0.63948	-0.59595	0.49756
1.856	6.7177	-29221	2137.7	-0.63957	-0.59624	0.49649
1.858	6.6916	-29223	2137.7	-0.63967	-0.59653	0.49542
1.86	6.6544	-29226	2137.7	-0.63977	-0.59682	0.49434
1.862	6.612	-29229	2137.8	-0.63869	-0.59643	0.49356
1.864	6.5988	-29232	2137.8	-0.63762	-0.59604	0.49278
1.866	6.6351	-29235	2137.9	-0.63655	-0.59565	0.492
1.868	6.6881	-29238	2137.9	-0.63547	-0.59526	0.49122
1.87	6.7222	-29237	2137.9	-0.6344	-0.59487	0.49044
1.872	6.7237	-29236	2137.9	-0.63586	-0.59399	0.492
1.874	6.7051	-29237	2137.9	-0.63733	-0.59312	0.49356
1.876	6.6651	-29238	2137.9	-0.63879	-0.59224	0.49512
1.878	6.6194	-29236	2137.9	-0.64026	-0.59136	0.49669
1.88	6.5969	-29234	2137.9	-0.64172	-0.59048	0.49825
1.882	6.6245	-29234	2138	-0.64211	-0.59087	0.49756
1.884	6.6736	-29234	2138.1	-0.6425	-0.59126	0.49688
1.886	6.7143	-29236	2138.2	-0.64289	-0.59165	0.4962
1.888	6.7299	-29238	2138.2	-0.64328	-0.59204	0.49552
1.89	6.7004	-29245	2138.3	-0.64367	-0.59243	0.49483
1.892	6.6583	-29251	2138.5	-0.64426	-0.59224	0.49571
1.894	6.6252	-29252	2138.6	-0.64484	-0.59204	0.49659
1.896	6.6004	-29252	2138.7	-0.64543	-0.59185	0.49747
1.898	6.6111	-29242	2138.8	-0.64601	-0.59165	0.49835
1.9	6.6589	-29232	2139	-0.6466	-0.59146	0.49922
1.902	6.7168	-29236	2139	-0.64758	-0.59185	0.49825
1.904	6.7535	-29241	2139	-0.64855	-0.59224	0.49727
1.906	6.7261	-29241	2139	-0.64953	-0.59263	0.4963
1.908	6.6673	-29241	2138.9	-0.6505	-0.59302	0.49532
1.91	6.6131	-29244	2138.9	-0.65148	-0.59341	0.49434
1.912	6.5805	-29248	2138.8	-0.65148	-0.59302	0.49512
1.914	6.5964	-29247	2138.8	-0.65148	-0.59263	0.49591
1.916	6.6408	-29245	2138.7	-0.65148	-0.59224	0.49669
1.918	6.6901	-29244	2138.7	-0.65148	-0.59185	0.49747
1.92	6.7381	-29242	2138.6	-0.65148	-0.59146	0.49825
1.922	6.7626	-29244	2138.6	-0.6506	-0.59146	0.49747
1.924	6.7492	-29245	2138.6	-0.64972	-0.59146	0.49669
1.926	6.7116	-29242	2138.6	-0.64884	-0.59146	0.49591
1.928	6.6543	-29239	2138.5	-0.64797	-0.59146	0.49512
1.93	6.6275	-29241	2138.5	-0.64709	-0.59146	0.49434
1.932	6.6593	-29243	2138.5	-0.64748	-0.59155	0.49444
1.934	6.6961	-29239	2138.4	-0.64787	-0.59165	0.49454
1.936	6.7024	-29235	2138.4	-0.64826	-0.59175	0.49464
1.938	6.6819	-29239	2138.4	-0.64865	-0.59185	0.49473
1.94	6.6292	-29242	2138.4	-0.64904	-0.59194	0.49483
1.942	6.5472	-29247	2138.4	-0.64806	-0.59116	0.49473
1.944	6.4739	-29251	2138.4	-0.64709	-0.59038	0.49464
1.946	6.4414	-29249	2138.4	-0.64611	-0.5896	0.49454
1.948	6.4505	-29247	2138.4	-0.64514	-0.58882	0.49444
1.95	6.4996	-29247	2138.4	-0.64416	-0.58804	0.49434
1.952	6.5618	-29247	2138.4	-0.64465	-0.58824	0.49503
1.954	6.604	-29242	2138.4	-0.64514	-0.58843	0.49571
1.956	6.63	-29236	2138.4	-0.64562	-0.58863	0.49639
1.958	6.6182	-29239	2138.4	-0.64611	-0.58882	0.49708
1.96	6.5829	-29242	2138.4	-0.6466	-0.58902	0.49776
1.962	6.5518	-29241	2138.3	-0.64572	-0.58892	0.49815
1.964	6.5659	-29240	2138.3	-0.64484	-0.58882	0.49854
1.966	6.6096	-29241	2138.2	-0.64396	-0.58872	0.49893
1.968	6.6576	-29243	2138.1	-0.64309	-0.58863	0.49932
1.97	6.6953	-29249	2138	-0.64221	-0.58853	0.49971
1.972	6.7009	-29256	2137.9	-0.6425	-0.58814	0.49883
1.974	6.6671	-29255	2137.8	-0.64279	-0.58775	0.49796
1.976	6.6193	-29253	2137.8	-0.64309	-0.58736	0.49708
1.978	6.5831	-29254	2137.8	-0.64338	-0.58697	0.4962
1.98	6.5883	-29256	2137.8	-0.64367	-0.58658	0.49532
1.982	6.6182	-29255	2137.8	-0.64328	-0.58745	0.49649
1.984	6.663	-29254	2137.8	-0.64289	-0.58833	0.49766
1.986	6.7012	-29255	2137.9	-0.6425	-0.58921	0.49883
1.988	6.7297	-29256	2137.9	-0.64211	-0.59009	0.5
1.99	6.6987	-29257	2138	-0.64172	-0.59097	0.50118
1.992	6.6535	-29259	2138.1	-0.64065	-0.59331	0.49981
1.994	6.6085	-29259	2138.2	-0.63957	-0.59565	0.49844
1.996	6.5859	-29259	2138.2	-0.6385	-0.598	0.49708
1.998	6.5843	-29256	2138.1	-0.63743	-0.60034	0.49571
2	6.6168	-29254	2138.1	-0.63635	-0.60268	0.49434
2.002	6.6513	-29253	2138	-0.63567	-0.60209	0.49347
2.004	6.688	-29252	2137.9	-0.63499	-0.60151	0.49259
2.006	6.6916	-29251	2137.8	-0.6343	-0.60092	0.49171
2.008	6.6554	-29249	2137.7	-0.63362	-0.60034	0.49083
2.01	6.6052	-29251	2137.6	-0.63294	-0.59975	0.48995
2.012	6.5741	-29253	2137.5	-0.6346	-0.59946	0.49073
2.014	6.5906	-29257	2137.4	-0.63625	-0.59917	0.49151
2.016	6.6287	-29262	2137.4	-0.63791	-0.59887	0.49229
2.018	6.6865	-29262	2137.4	-0.63957	-0.59858	0.49308
2.02	6.734	-29262	2137.4	-0.64123	-0.59829	0.49386
2.022	6.7434	-29266	2137.4	-0.64104	-0.5978	0.49454
2.024	6.7084	-29269	2137.4	-0.64084	-0.59731	0.49522
2.026	6.6531	-29266	2137.4	-0.64065	-0.59682	0.49591
2.028	6.6171	-29262	2137.4	-0.64045	-0.59634	0.49659
2.03	6.6077	-29265	2137.5	-0.64026	-0.59585	0.49727
2.032	6.6217	-29269	2137.5	-0.64074	-0.59536	0.49786
2.034	6.6644	-29269	2137.5	-0.64123	-0.59487	0.49844
2.036	6.714	-29269	2137.5	-0.64172	-0.59438	0.49903
2.038	6.7321	-29269	2137.6	-0.64221	-0.5939	0.49961
2.04	6.7231	-29268	2137.7	-0.6427	-0.59341	0.5002
2.042	6.6901	-29270	2137.7	-0.64104	-0.59419	0.50059
2.044	6.639	-29272	2137.8	-0.63938	-0.59497	0.50098
2.046	6.61	-29275	2138	-0.63772	-0.59575	0.50137
2.048	6.6134	-29278	2138.2	-0.63606	-0.59653	0.50176
2.05	6.6543	-29275	2138.4	-0.6344	-0.59731	0.50215
2.052	6.6925	-29272	2138.6	-0.63606	-0.59692	0.50069
2.054	6.721	-29269	2138.9	-0.63772	-0.59653	0.49922
2.056	6.7242	-29265	2139.2	-0.63938	-0.59614	0.49776
2.058	6.6938	-29269	2139.7	-0.64104	-0.59575	0.4963
2.06	6.6638	-29273	2140.2	-0.6427	-0.59536	0.49483
2.062	6.6306	-29275	2140.8	-0.64143	-0.59653	0.49395
2.064	6.6087	-29277	2141.4	-0.64016	-0.5977	0.49308
2.066	6.6524	-29274	2142	-0.63889	-0.59887	0.4922
2.068	6.7033	-29271	2142.8	-0.63762	-0.60004	0.49132
2.07	6.7465	-29269	2143.5	-0.63635	-0.60122	0.49044
2.072	6.7426	-29268	2144.3	-0.6383	-0.60102	0.49054
2.074	6.7196	-29271	2145.1	-0.64026	-0.60083	0.49064
2.076	6.6976	-29274	2145.8	-0.64221	-0.60063	0.49073
2.078	6.6612	-29273	2146.6	-0.64416	-0.60044	0.49083
2.08	6.6352	-29272	2147.3	-0.64611	-0.60024	0.49093
2.082	6.6483	-29276	2147.9	-0.64553	-0.59878	0.4922
2.084	6.6962	-29281	2148.5	-0.64494	-0.59731	0.49347
2.086	6.7471	-29282	2149	-0.64436	-0.59585	0.49473
2.088	6.7745	-29283	2149.4	-0.64377	-0.59438	0.496
2.09	6.7498	-29284	2149.9	-0.64318	-0.59292	0.49727
2.092	6.7113	-29285	2150.3	-0.64133	-0.59321	0.49825
2.094	6.674	-29282	2150.7	-0.63948	-0.59351	0.49922
2.096	6.6477	-29280	2151.1	-0.63762	-0.5938	0.5002
2.098	6.6559	-29281	2151.4	-0.63577	-0.59409	0.50118
2.1	6.698	-29282	2151.8	-0.63391	-0.59438	0.50215
2.102	6.7365	-29278	2152.2	-0.6343	-0.5937	0.50215
2.104	6.7585	-29274	2152.7	-0.63469	-0.59302	0.50215
2.106	6.749	-29274	2153	-0.63508	-0.59233	0.50215
2.108	6.707	-29273	2153.3	-0.63547	-0.59165	0.50215
2.11	6.6688	-29271	2153.7	-0.63586	-0.59097	0.50215
2.112	6.6505	-29268	2153.9	-0.63723	-0.59087	0.50176
2.114	6.6422	-29271	2154.1	-0.6386	-0.59077	0.50137
2.116	6.6644	-29273	2154.3	-0.63996	-0.59068	0.50098
2.118	6.7222	-29273	2154.3	-0.64133	-0.59058	0.50059
2.12	6.7737	-29273	2154.4	-0.6427	-0.59048	0.5002
2.122	6.7914	-29270	2154.2	-0.6426	-0.58989	0.49874
2.124	6.7665	-29267	2154.1	-0.6425	-0.58931	0.49727
2.126	6.7216	-29263	2154	-0.6424	-0.58872	0.49581
2.128	6.6752	-29260	2153.9	-0.64231	-0.58814	0.49434
2.13	6.6519	-29259	2153.8	-0.64221	-0.58755	0.49288
2.132	6.6664	-29258	2153.7	-0.63967	-0.58833	0.49239
2.134	6.7063	-29256	2153.6	-0.63713	-0.58911	0.4919
2.136	6.7544	-29254	2153.4	-0.6346	-0.58989	0.49142
2.138	6.7883	-29253	2153.3	-0.63206	-0.59068	0.49093
2.14	6.7626	-29252	2153.1	-0.62952	-0.59146	0.49044
2.142	6.7109	-29250	2152.9	-0.6304	-0.59214	0.49083
2.144	6.6714	-29248	2152.7	-0.63128	-0.59282	0.49122
2.146	6.6318	-29241	2152.5	-0.63216	-0.59351	0.49161
2.148	6.6347	-29235	2152.4	-0.63303	-0.59419	0.492
2.15	6.6893	-29234	2152.3	-0.63391	-0.59487	0.49239
2.152	6.7144	-29233	2152.2	-0.6346	-0.59497	0.49259
2.154	6.7357	-29234	2152.1	-0.63528	-0.59507	0.49278
2.156	6.7428	-29234	2152.1	-0.63596	-0.59516	0.49298
2.158	6.7085	-29234	2152.1	-0.63664	-0.59526	0.49317
2.16	6.6548	-29233	2152.2	-0.63733	-0.59536	0.49337
2.162	6.6125	-29230	2152.2	-0.63625	-0.59477	0.49454
2.164	6.5956	-29228	2152.2	-0.63518	-0.59419	0.49571
2.166	6.6349	-29228	2152.3	-0.63411	-0.5936	0.49688
2.168	6.6965	-29228	2152.3	-0.63303	-0.59302	0.49805
2.17	6.7326	-29229	2152.3	-0.63196	-0.59243	0.49922
2.172	6.7226	-29230	2152.4	-0.63362	-0.5938	0.49825
2.174	6.6863	-29230	2152.4	-0.63528	-0.59516	0.49727
2.176	6.6404	-29230	2152.4	-0.63694	-0.59653	0.4963
2.178	6.6117	-29230	2152.3	-0.6386	-0.5979	0.49532
2.18	6.5934	-29230	2152.3	-0.64026	-0.59926	0.49434
2.182	6.601	-29222	2152.2	-0.63918	-0.59956	0.49366
2.184	6.6368	-29215	2152.1	-0.63811	-0.59985	0.49298
2.186	6.6805	-29222	2152	-0.63704	-0.60014	0.49229
2.188	6.7052	-29229	2152	-0.63596	-0.60044	0.49161
2.19	6.6885	-29236	2152	-0.63489	-0.60073	0.49093
2.192	6.6456	-29243	2152	-0.63508	-0.60073	0.49112
2.194	6.6002	-29242	2152	-0.63528	-0.60073	0.49132
2.196	6.5708	-29241	2151.9	-0.63547	-0.60073	0.49151
2.198	6.5805	-29242	2151.9	-0.63567	-0.60073	0.49171
2.2	6.6254	-29242	2151.8	-0.63586	-0.60073	0.4919
2.202	6.6698	-29241	2151.7	-0.63567	-0.60024	0.49132
2.204	6.6922	-29239	2151.7	-0.63547	-0.59975	0.49073
2.206	6.692	-29235	2151.5	-0.63528	-0.59926	0.49015
2.208	6.6715	-29231	2151.3	-0.63508	-0.59878	0.48956
2.21	6.6331	-29233	2151.2	-0.63489	-0.59829	0.48898
2.212	6.5839	-29234	2150.9	-0.63518	-0.5976	0.48907
2.214	6.5801	-29236	2150.7	-0.63547	-0.59692	0.48917
2.216	6.6237	-29238	2150.5	-0.63577	-0.59624	0.48927
2.218	6.6702	-29234	2150.4	-0.63606	-0.59556	0.48937
2.22	6.6976	-29231	2150.3	-0.63635	-0.59487	0.48946
2.222	6.7082	-29227	2150.3	-0.63645	-0.59497	0.48976
2.224	6.6862	-29224	2150.2	-0.63655	-0.59507	0.49005
2.226	6.6324	-29224	2150.1	-0.63664	-0.59516	0.49034
2.228	6.6133	-29225	2150.1	-0.63674	-0.59526	0.49064
2.23	6.6027	-29232	2150	-0.63684	-0.59536	0.49093
2.232	6.6078	-29239	2149.9	-0.63635	-0.59546	0.49044
2.234	6.6089	-29235	2149.8	-0.63586	-0.59556	0.48995
2.236	6.6516	-29232	2149.7	-0.63538	-0.59565	0.48946
2.238	6.6896	-29228	2149.7	-0.63489	-0.59575	0.48898
2.24	6.6711	-29225	2149.7	-0.6344	-0.59585	0.48849
2.242	6.6553	-29229	2149.8	-0.63469	-0.59526	0.49005
2.244	6.6359	-29234	2149.8	-0.63499	-0.59468	0.49161
2.246	6.5971	-29233	2149.9	-0.63528	-0.59409	0.49317
2.248	6.5962	-29232	2150	-0.63557	-0.59351	0.49473
2.25	6.6229	-29230	2150.1	-0.63586	-0.59292	0.4963
2.252	6.6614	-29229	2150.2	-0.63518	-0.5938	0.49503
2.254	6.7115	-29226	2150.2	-0.6345	-0.59468	0.49376
2.256	6.7055	-29224	2150.3	-0.63381	-0.59556	0.49249
2.258	6.6626	-29224	2150.4	-0.63313	-0.59643	0.49122
2.26	6.619	-29225	2150.6	-0.63245	-0.59731	0.48995
2.262	6.5877	-29226	2150.7	-0.63274	-0.59809	0.49005
2.264	6.5834	-29228	2150.9	-0.63303	-0.59887	0.49015
2.266	6.6294	-29225	2151	-0.63333	-0.59965	0.49024
2.268	6.6731	-29223	2151.1	-0.63362	-0.60044	0.49034
2.27	6.7025	-29224	2151.2	-0.63391	-0.60122	0.49044
2.272	6.7007	-29224	2151.4	-0.63381	-0.60053	0.49044
2.274	6.6749	-29229	2151.5	-0.63372	-0.59985	0.49044
2.276	6.639	-29233	2151.7	-0.63362	-0.59917	0.49044
2.278	6.5948	-29236	2151.9	-0.63352	-0.59848	0.49044
2.28	6.5838	-29239	2152.2	-0.63342	-0.5978	0.49044
2.282	6.6145	-29241	2152.3	-0.63528	-0.59848	0.49151
2.284	6.6585	-29243	2152.5	-0.63713	-0.59917	0.49259
2.286	6.6988	-29244	2152.6	-0.63899	-0.59985	0.49366
2.288	6.7225	-29246	2152.6	-0.64084	-0.60053	0.49473
2.29	6.7213	-29243	2152.7	-0.6427	-0.60122	0.49581
2.292	6.6869	-29240	2152.8	-0.63987	-0.60112	0.49454
2.294	6.6415	-29238	2153	-0.63704	-0.60102	0.49327
2.296	6.6122	-29237	2153.1	-0.6342	-0.60092	0.492
2.298	6.6074	-29241	2153.2	-0.63137	-0.60083	0.49073
2.3	6.6287	-29245	2153.3	-0.62854	-0.60073	0.48946
2.302	6.6768	-29247	2153.4	-0.62923	-0.59975	0.48898
2.304	6.7183	-29249	2153.5	-0.62991	-0.59878	0.48849
2.306	6.7183	-29239	2153.6	-0.63059	-0.5978	0.488
2.308	6.6798	-29229	2153.8	-0.63128	-0.59682	0.48751
2.31	6.6307	-29234	2153.9	-0.63196	-0.59585	0.48702
2.312	6.5965	-29239	2154	-0.63235	-0.59702	0.48702
2.314	6.5896	-29236	2154.2	-0.63274	-0.59819	0.48702
2.316	6.6306	-29233	2154.3	-0.63313	-0.59936	0.48702
2.318	6.6792	-29235	2154.5	-0.63352	-0.60053	0.48702
2.32	6.7091	-29236	2154.6	-0.63391	-0.6017	0.48702
2.322	6.7165	-29233	2154.7	-0.63284	-0.60063	0.48732
2.324	6.6849	-29229	2154.7	-0.63176	-0.59956	0.48761
2.326	6.6461	-29230	2154.8	-0.63069	-0.59848	0.4879
2.328	6.589	-29231	2154.9	-0.62962	-0.59741	0.4882
2.33	6.5808	-29239	2154.9	-0.62854	-0.59634	0.48849
2.332	6.6305	-29247	2155	-0.62845	-0.59712	0.48907
2.334	6.679	-29248	2155.1	-0.62835	-0.5979	0.48966
2.336	6.7025	-29249	2155.3	-0.62825	-0.59868	0.49024
2.338	6.7092	-29244	2155.4	-0.62815	-0.59946	0.49083
2.34	6.6957	-29238	2155.5	-0.62806	-0.60024	0.49142
2.342	6.6359	-29246	2155.7	-0.62864	-0.59956	0.49073
2.344	6.592	-29254	2155.9	-0.62923	-0.59887	0.49005
2.346	6.5707	-29249	2156	-0.62981	-0.59819	0.48937
2.348	6.5755	-29243	2156.2	-0.6304	-0.59751	0.48868
2.35	6.6222	-29243	2156.3	-0.63098	-0.59682	0.488
2.352	6.6736	-29243	2156.5	-0.63147	-0.59692	0.48839
2.354	6.6998	-29241	2156.6	-0.63196	-0.59702	0.48878
2.356	6.6948	-29240	2156.8	-0.63245	-0.59712	0.48917
2.358	6.6671	-29248	2156.9	-0.63294	-0.59721	0.48956
2.36	6.6404	-29256	2157.1	-0.63342	-0.59731	0.48995
2.362	6.6017	-29254	2157.2	-0.6342	-0.59839	0.49103
2.364	6.5796	-29252	2157.3	-0.63499	-0.59946	0.4921
2.366	6.6055	-29251	2157.4	-0.63577	-0.60053	0.49317
2.368	6.659	-29251	2157.5	-0.63655	-0.60161	0.49425
2.37	6.701	-29247	2157.7	-0.63733	-0.60268	0.49532
2.372	6.7147	-29243	2157.7	-0.63557	-0.60141	0.49434
2.374	6.6931	-29250	2157.8	-0.63381	-0.60014	0.49337
2.376	6.6418	-29257	2157.8	-0.63206	-0.59887	0.49239
2.378	6.6051	-29258	2157.9	-0.6303	-0.5976	0.49142
2.38	6.5906	-29258	2157.9	-0.62854	-0.59634	0.49044
2.382	6.6007	-29254	2157.9	-0.62942	-0.59692	0.49024
2.384	6.6363	-29250	2158	-0.6303	-0.59751	0.49005
2.386	6.6897	-29252	2158	-0.63118	-0.59809	0.48985
2.388	6.7191	-29253	2158	-0.63206	-0.59868	0.48966
2.39	6.6996	-29253	2158	-0.63294	-0.59926	0.48946
2.392	6.645	-29254	2158	-0.63176	-0.59848	0.48946
2.394	6.6104	-29254	2158	-0.63059	-0.5977	0.48946
2.396	6.5993	-29254	2157.9	-0.62942	-0.59692	0.48946
2.398	6.5934	-29256	2157.9	-0.62825	-0.59614	0.48946
2.4	6.6338	-29258	2157.9	-0.62708	-0.59536	0.48946
2.402	6.6584	-29259	2157.9	-0.62688	-0.59634	0.48946
2.404	6.6824	-29259	2157.9	-0.62669	-0.59731	0.48946
2.406	6.683	-29259	2157.9	-0.62649	-0.59829	0.48946
2.408	6.649	-29258	2158	-0.6263	-0.59926	0.48946
2.41	6.5874	-29257	2158.1	-0.6261	-0.60024	0.48946
2.412	6.5593	-29257	2158.1	-0.6261	-0.59965	0.48907
2.414	6.5666	-29255	2158.2	-0.6261	-0.59907	0.48868
2.416	6.6289	-29254	2158.4	-0.6261	-0.59848	0.48829
2.418	6.697	-29263	2158.5	-0.6261	-0.5979	0.4879
2.42	6.7368	-29272	2158.6	-0.6261	-0.59731	0.48751
2.422	6.7338	-29271	2158.7	-0.62728	-0.59839	0.488
2.424	6.6848	-29269	2158.8	-0.62845	-0.59946	0.48849
2.426	6.6326	-29264	2158.9	-0.62962	-0.60053	0.48898
2.428	6.5978	-29258	2159.1	-0.63079	-0.60161	0.48946
2.43	6.5722	-29263	2159.2	-0.63196	-0.60268	0.48995
2.432	6.5503	-29267	2159.3	-0.63147	-0.60239	0.49015
2.434	6.5596	-29272	2159.4	-0.63098	-0.60209	0.49034
2.436	6.5947	-29276	2159.5	-0.6305	-0.6018	0.49054
2.438	6.5864	-29277	2159.6	-0.63001	-0.60151	0.49073
2.44	6.5635	-29277	2159.7	-0.62952	-0.60122	0.49093
2.442	6.5359	-29280	2159.7	-0.6303	-0.60122	0.49103
2.444	6.499	-29283	2159.8	-0.63108	-0.60122	0.49112
2.446	6.4822	-29280	2159.9	-0.63186	-0.60122	0.49122
2.448	6.5149	-29278	2159.9	-0.63264	-0.60122	0.49132
2.45	6.5808	-29271	2160	-0.63342	-0.60122	0.49142
2.452	6.6514	-29264	2160	-0.63401	-0.60268	0.4921
2.454	6.7042	-29275	2160.1	-0.6346	-0.60414	0.49278
2.456	6.7171	-29286	2160	-0.63518	-0.60561	0.49347
2.458	6.6949	-29284	2160	-0.63577	-0.60707	0.49415
2.46	6.6582	-29281	2159.9	-0.63635	-0.60854	0.49483
2.462	6.6191	-29285	2159.9	-0.63655	-0.60824	0.49483
2.464	6.6161	-29289	2159.9	-0.63674	-0.60795	0.49483
2.466	6.6635	-29287	2159.9	-0.63694	-0.60766	0.49483
2.468	6.7069	-29285	2160	-0.63713	-0.60736	0.49483
2.47	6.7453	-29288	2160	-0.63733	-0.60707	0.49483
2.472	6.7445	-29291	2160.2	-0.63821	-0.60629	0.49464
2.474	6.7251	-29291	2160.4	-0.63908	-0.60551	0.49444
2.476	6.6907	-29291	2160.6	-0.63996	-0.60473	0.49425
2.478	6.6512	-29284	2160.7	-0.64084	-0.60395	0.49405
2.48	6.6281	-29277	2160.8	-0.64172	-0.60317	0.49386
2.482	6.6506	-29285	2160.9	-0.63879	-0.60307	0.49337
2.484	6.6987	-29294	2160.9	-0.63586	-0.60297	0.49288
2.486	6.728	-29294	2161.1	-0.63294	-0.60288	0.49239
2.488	6.7446	-29294	2161.2	-0.63001	-0.60278	0.4919
2.49	6.7452	-29294	2161.3	-0.62708	-0.60268	0.49142
2.492	6.7154	-29295	2161.5	-0.62854	-0.60346	0.49161
2.494	6.6753	-29295	2161.6	-0.63001	-0.60424	0.49181
2.496	6.6381	-29295	2161.7	-0.63147	-0.60502	0.492
2.498	6.6328	-29294	2161.7	-0.63294	-0.6058	0.4922
2.5	6.6611	-29293	2161.7	-0.6344	-0.60658	0.49239
2.502	6.6984	-29295	2161.6	-0.63469	-0.60649	0.49249
2.504	6.7354	-29297	2161.6	-0.63499	-0.60639	0.49259
2.506	6.7581	-29293	2161.5	-0.63528	-0.60629	0.49268
2.508	6.7358	-29288	2161.4	-0.63557	-0.60619	0.49278
2.51	6.694	-29294	2161.3	-0.63586	-0.6061	0.49288
2.512	6.639	-29300	2161.3	-0.63596	-0.6059	0.49337
2.514	6.6524	-29297	2161.4	-0.63606	-0.60571	0.49386
2.516	6.6816	-29294	2161.5	-0.63616	-0.60551	0.49434
2.518	6.7223	-29298	2161.6	-0.63625	-0.60532	0.49483
2.52	6.7697	-29302	2161.6	-0.63635	-0.60512	0.49532
2.522	6.7877	-29303	2161.8	-0.63577	-0.60502	0.49571
2.524	6.7561	-29303	2161.9	-0.63518	-0.60492	0.4961
2.526	6.7123	-29302	2162	-0.6346	-0.60483	0.49649
2.528	6.6895	-29301	2162.2	-0.63401	-0.60473	0.49688
2.53	6.6727	-29304	2162.3	-0.63342	-0.60463	0.49727
2.532	6.6671	-29307	2162.4	-0.63372	-0.60541	0.49796
2.534	6.7029	-29306	2162.6	-0.63401	-0.60619	0.49864
2.536	6.7605	-29305	2162.7	-0.6343	-0.60697	0.49932
2.538	6.7913	-29307	2162.8	-0.6346	-0.60776	0.5
2.54	6.7742	-29308	2162.9	-0.63489	-0.60854	0.50069
2.542	6.7265	-29308	2162.9	-0.63518	-0.60854	0.49932
2.544	6.6834	-29309	2162.9	-0.63547	-0.60854	0.49796
2.546	6.653	-29314	2163.1	-0.63577	-0.60854	0.49659
2.548	6.6549	-29319	2163.6	-0.63606	-0.60854	0.49522
2.55	6.7106	-29313	2164	-0.63635	-0.60854	0.49386
2.552	6.762	-29307	2164.5	-0.63411	-0.60873	0.49259
2.554	6.796	-29312	2165	-0.63186	-0.60893	0.49132
2.556	6.8033	-29318	2165.4	-0.62962	-0.60912	0.49005
2.558	6.7664	-29316	2165.9	-0.62737	-0.60932	0.48878
2.56	6.707	-29313	2166.4	-0.62513	-0.60951	0.48751
2.562	6.656	-29317	2167.1	-0.6263	-0.60941	0.48761
2.564	6.6549	-29320	2167.7	-0.62747	-0.60932	0.48771
2.566	6.687	-29322	2168.4	-0.62864	-0.60922	0.4878
2.568	6.7673	-29324	2169	-0.62981	-0.60912	0.4879
2.57	6.8019	-29326	2169.6	-0.63098	-0.60902	0.488
2.572	6.8163	-29329	2170.1	-0.62981	-0.60971	0.48771
2.574	6.806	-29321	2170.6	-0.62864	-0.61039	0.48741
2.576	6.7433	-29314	2171.1	-0.62747	-0.61107	0.48712
2.578	6.7152	-29322	2171.5	-0.6263	-0.61176	0.48683
2.58	6.6976	-29331	2172	-0.62513	-0.61244	0.48654
2.582	6.7243	-29328	2172.4	-0.62415	-0.61254	0.48673
2.584	6.7769	-29324	2172.9	-0.62318	-0.61264	0.48693
2.586	6.828	-29329	2173.4	-0.6222	-0.61273	0.48712
2.588	6.843	-29335	2173.9	-0.62122	-0.61283	0.48732
2.59	6.8126	-29332	2174.4	-0.62025	-0.61293	0.48751
2.592	6.7956	-29329	2174.8	-0.62074	-0.61361	0.48761
2.594	6.742	-29323	2175.3	-0.62122	-0.61429	0.48771
2.596	6.7213	-29316	2175.7	-0.62171	-0.61498	0.4878
2.598	6.7322	-29323	2176.1	-0.6222	-0.61566	0.4879
2.6	6.7737	-29330	2176.5	-0.62269	-0.61634	0.488
2.602	6.8005	-29327	2176.9	-0.62376	-0.61478	0.48693
2.604	6.8276	-29325	2177.3	-0.62484	-0.61322	0.48585
2.606	6.835	-29323	2177.7	-0.62591	-0.61166	0.48478
2.608	6.8008	-29321	2178	-0.62698	-0.6101	0.48371
2.61	6.7575	-29321	2178.3	-0.62806	-0.60854	0.48263
2.612	6.7116	-29321	2178.4	-0.62776	-0.60883	0.48175
2.614	6.6905	-29315	2178.6	-0.62747	-0.60912	0.48088
2.616	6.7204	-29308	2178.7	-0.62718	-0.60941	0.48
2.618	6.766	-29308	2178.7	-0.62688	-0.60971	0.47912
2.62	6.8041	-29307	2178.8	-0.62659	-0.61	0.47824
2.622	6.8234	-29306	2178.9	-0.62669	-0.60922	0.4798
2.624	6.7984	-29304	2179	-0.62679	-0.60844	0.48136
2.626	6.7426	-29304	2179	-0.62688	-0.60766	0.48292
2.628	6.7014	-29304	2178.9	-0.62698	-0.60688	0.48449
2.63	6.687	-29305	2178.9	-0.62708	-0.6061	0.48605
2.632	6.6849	-29307	2178.8	-0.6262	-0.60776	0.48566
2.634	6.7132	-29300	2178.8	-0.62532	-0.60941	0.48527
2.636	6.7822	-29294	2178.7	-0.62444	-0.61107	0.48488
2.638	6.8269	-29297	2178.7	-0.62357	-0.61273	0.48449
2.64	6.8041	-29301	2178.7	-0.62269	-0.61439	0.4841
2.642	6.7401	-29297	2178.6	-0.62308	-0.61459	0.4841
2.644	6.6747	-29293	2178.5	-0.62347	-0.61478	0.4841
2.646	6.6306	-29292	2178.4	-0.62386	-0.61498	0.4841
2.648	6.6351	-29290	2178.3	-0.62425	-0.61517	0.4841
2.65	6.6744	-29288	2178.1	-0.62464	-0.61537	0.4841
2.652	6.7111	-29286	2178	-0.62435	-0.61449	0.48507
2.654	6.7279	-29285	2177.9	-0.62405	-0.61361	0.48605
2.656	6.7308	-29283	2177.8	-0.62376	-0.61273	0.48702
2.658	6.7	-29283	2177.7	-0.62347	-0.61185	0.488
2.66	6.6533	-29283	2177.6	-0.62318	-0.61098	0.48898
2.662	6.6348	-29280	2177.4	-0.62435	-0.6102	0.48985
2.664	6.6152	-29276	2177.2	-0.62552	-0.60941	0.49073
2.666	6.6317	-29278	2177	-0.62669	-0.60863	0.49161
2.668	6.6802	-29280	2176.8	-0.62786	-0.60785	0.49249
2.67	6.7237	-29279	2176.6	-0.62903	-0.60707	0.49337
2.672	6.7379	-29278	2176.4	-0.62903	-0.60649	0.49317
2.674	6.6934	-29276	2176.2	-0.62903	-0.6059	0.49298
2.676	6.6607	-29274	2176	-0.62903	-0.60532	0.49278
2.678	6.6249	-29277	2175.7	-0.62903	-0.60473	0.49259
2.68	6.5942	-29280	2175.5	-0.62903	-0.60414	0.49239
2.682	6.6191	-29279	2175.2	-0.62874	-0.60366	0.49132
2.684	6.6794	-29279	2174.9	-0.62845	-0.60317	0.49024
2.686	6.7351	-29278	2174.6	-0.62815	-0.60268	0.48917
2.688	6.7551	-29278	2174.3	-0.62786	-0.60219	0.4881
2.69	6.7418	-29283	2174	-0.62757	-0.6017	0.48702
2.692	6.6941	-29289	2173.7	-0.62864	-0.60141	0.48536
2.694	6.6385	-29288	2173.5	-0.62972	-0.60112	0.48371
2.696	6.6024	-29286	2173.2	-0.63079	-0.60083	0.48205
2.698	6.6326	-29280	2173	-0.63186	-0.60053	0.48039
2.7	6.687	-29273	2172.7	-0.63294	-0.60024	0.47873
2.702	6.7164	-29271	2172.5	-0.63186	-0.60122	0.48009
2.704	6.7408	-29270	2172.3	-0.63079	-0.60219	0.48146
2.706	6.753	-29273	2172.2	-0.62972	-0.60317	0.48283
2.708	6.7247	-29276	2172.1	-0.62864	-0.60414	0.48419
2.71	6.6718	-29274	2172	-0.62757	-0.60512	0.48556
2.712	6.6354	-29273	2171.8	-0.62659	-0.60678	0.48644
2.714	6.6305	-29275	2171.7	-0.62562	-0.60844	0.48732
2.716	6.6604	-29278	2171.6	-0.62464	-0.6101	0.4882
2.718	6.7226	-29275	2171.4	-0.62366	-0.61176	0.48907
2.72	6.7741	-29271	2171.3	-0.62269	-0.61342	0.48995
2.722	6.775	-29272	2171.2	-0.62288	-0.61264	0.48995
2.724	6.7357	-29273	2171.1	-0.62308	-0.61185	0.48995
2.726	6.7137	-29273	2171	-0.62327	-0.61107	0.48995
2.728	6.6745	-29272	2171	-0.62347	-0.61029	0.48995
2.73	6.647	-29272	2170.9	-0.62366	-0.60951	0.48995
2.732	6.6693	-29272	2170.9	-0.62484	-0.61029	0.48849
2.734	6.7104	-29274	2170.9	-0.62601	-0.61107	0.48702
2.736	6.7611	-29276	2170.9	-0.62718	-0.61185	0.48556
2.738	6.7878	-29279	2170.9	-0.62835	-0.61264	0.4841
2.74	6.7791	-29282	2170.9	-0.62952	-0.61342	0.48263
2.742	6.7404	-29281	2170.9	-0.62796	-0.61342	0.48351
2.744	6.6762	-29280	2171	-0.6264	-0.61342	0.48439
2.746	6.6429	-29280	2171	-0.62484	-0.61342	0.48527
2.748	6.666	-29280	2171.1	-0.62327	-0.61342	0.48615
2.75	6.7218	-29284	2171.2	-0.62171	-0.61342	0.48702
2.752	6.7562	-29288	2171.2	-0.62327	-0.61332	0.48634
2.754	6.7854	-29288	2171.3	-0.62484	-0.61322	0.48566
2.756	6.7885	-29287	2171.4	-0.6264	-0.61312	0.48497
2.758	6.7526	-29289	2171.4	-0.62796	-0.61303	0.48429
2.76	6.7196	-29290	2171.5	-0.62952	-0.61293	0.48361
2.762	6.6835	-29287	2171.5	-0.62806	-0.61351	0.484
2.764	6.7012	-29285	2171.5	-0.62659	-0.6141	0.48439
2.766	6.7406	-29282	2171.4	-0.62513	-0.61468	0.48478
2.768	6.7749	-29279	2171.4	-0.62366	-0.61527	0.48517
2.77	6.8112	-29279	2171.4	-0.6222	-0.61586	0.48556
2.772	6.8057	-29280	2171.3	-0.62181	-0.61615	0.48615
2.774	6.7758	-29284	2171.2	-0.62142	-0.61644	0.48673
2.776	6.7277	-29289	2171.1	-0.62103	-0.61673	0.48732
2.778	6.6857	-29291	2171	-0.62064	-0.61703	0.4879
2.78	6.6861	-29293	2170.9	-0.62025	-0.61732	0.48849
2.782	6.7401	-29293	2170.9	-0.62171	-0.61664	0.48722
2.784	6.785	-29293	2170.9	-0.62318	-0.61595	0.48595
2.786	6.8148	-29291	2170.8	-0.62464	-0.61527	0.48468
2.788	6.8306	-29290	2170.8	-0.6261	-0.61459	0.48341
2.79	6.807	-29288	2170.7	-0.62757	-0.6139	0.48214
2.792	6.7292	-29286	2170.7	-0.6263	-0.61371	0.48351
2.794	6.6637	-29288	2170.7	-0.62503	-0.61351	0.48488
2.796	6.6562	-29290	2170.8	-0.62376	-0.61332	0.48624
2.798	6.6874	-29291	2170.9	-0.62249	-0.61312	0.48761
2.8	6.7466	-29292	2170.9	-0.62122	-0.61293	0.48898
2.802	6.7951	-29291	2171	-0.62337	-0.61293	0.48751
2.804	6.812	-29290	2171.1	-0.62552	-0.61293	0.48605
2.806	6.8087	-29289	2171.2	-0.62767	-0.61293	0.48458
2.808	6.7776	-29289	2171.3	-0.62981	-0.61293	0.48312
2.81	6.733	-29292	2171.4	-0.63196	-0.61293	0.48166
2.812	6.7004	-29295	2171.5	-0.63206	-0.61264	0.48205
2.814	6.6829	-29296	2171.6	-0.63216	-0.61234	0.48244
2.816	6.7075	-29296	2171.7	-0.63225	-0.61205	0.48283
2.818	6.7475	-29293	2171.9	-0.63235	-0.61176	0.48322
2.82	6.7919	-29291	2172	-0.63245	-0.61146	0.48361
2.822	6.8155	-29290	2172.1	-0.63128	-0.61166	0.484
2.824	6.7821	-29290	2172.2	-0.63011	-0.61185	0.48439
2.826	6.7215	-29290	2172.3	-0.62893	-0.61205	0.48478
2.828	6.6745	-29290	2172.4	-0.62776	-0.61224	0.48517
2.83	6.6492	-29297	2172.5	-0.62659	-0.61244	0.48556
2.832	6.6735	-29304	2172.5	-0.62669	-0.61185	0.48605
2.834	6.7357	-29301	2172.5	-0.62679	-0.61127	0.48654
2.836	6.7813	-29299	2172.5	-0.62688	-0.61068	0.48702
2.838	6.803	-29296	2172.6	-0.62698	-0.6101	0.48751
2.84	6.7939	-29293	2172.6	-0.62708	-0.60951	0.488
2.842	6.749	-29297	2172.5	-0.62649	-0.61068	0.4881
2.844	6.697	-29302	2172.4	-0.62591	-0.61185	0.4882
2.846	6.6738	-29303	2172.3	-0.62532	-0.61303	0.48829
2.848	6.6767	-29304	2172.2	-0.62474	-0.6142	0.48839
2.85	6.7012	-29302	2172.1	-0.62415	-0.61537	0.48849
2.852	6.7498	-29300	2171.9	-0.62386	-0.61547	0.4882
2.854	6.7915	-29300	2171.8	-0.62357	-0.61556	0.4879
2.856	6.7846	-29299	2171.7	-0.62327	-0.61566	0.48761
2.858	6.7678	-29304	2171.6	-0.62298	-0.61576	0.48732
2.86	6.7332	-29310	2171.5	-0.62269	-0.61586	0.48702
2.862	6.6997	-29312	2171.3	-0.62366	-0.61478	0.48585
2.864	6.6836	-29314	2171.2	-0.62464	-0.61371	0.48468
2.866	6.7079	-29312	2171.1	-0.62562	-0.61264	0.48351
2.868	6.7541	-29310	2171.1	-0.62659	-0.61156	0.48234
2.87	6.7859	-29312	2171	-0.62757	-0.61049	0.48117
2.872	6.7905	-29314	2171	-0.62698	-0.61029	0.48175
2.874	6.7771	-29316	2171	-0.6264	-0.6101	0.48234
2.876	6.7448	-29318	2171	-0.62581	-0.6099	0.48292
2.878	6.7063	-29318	2171.1	-0.62523	-0.60971	0.48351
2.88	6.6857	-29318	2171.1	-0.62464	-0.60951	0.4841
2.882	6.711	-29317	2171	-0.62649	-0.6098	0.484
2.884	6.7666	-29317	2171	-0.62835	-0.6101	0.4839
2.886	6.8038	-29317	2171	-0.6302	-0.61039	0.4838
2.888	6.8174	-29318	2171	-0.63206	-0.61068	0.48371
2.89	6.8025	-29320	2171	-0.63391	-0.61098	0.48361
2.892	6.7564	-29322	2171	-0.63518	-0.61185	0.48312
2.894	6.7039	-29321	2171	-0.63645	-0.61273	0.48263
2.896	6.6682	-29320	2171	-0.63772	-0.61361	0.48214
2.898	6.6672	-29321	2171	-0.63899	-0.61449	0.48166
2.9	6.7101	-29322	2171	-0.64026	-0.61537	0.48117
2.902	6.7629	-29322	2171.1	-0.63918	-0.61527	0.48117
2.904	6.8036	-29323	2171.1	-0.63811	-0.61517	0.48117
2.906	6.8196	-29324	2171.1	-0.63704	-0.61508	0.48117
2.908	6.791	-29325	2171.2	-0.63596	-0.61498	0.48117
2.91	6.7604	-29329	2171.3	-0.63489	-0.61488	0.48117
2.912	6.725	-29333	2171.4	-0.63342	-0.61342	0.4841
2.914	6.705	-29330	2171.5	-0.63196	-0.61195	0.48702
2.916	6.7317	-29327	2171.6	-0.6305	-0.61049	0.48995
2.918	6.7504	-29330	2171.7	-0.62903	-0.60902	0.49288
2.92	6.7856	-29332	2171.7	-0.62757	-0.60756	0.49581
2.922	6.7781	-29335	2171.8	-0.62864	-0.60717	0.49639
2.924	6.7166	-29338	2171.8	-0.62972	-0.60678	0.49698
2.926	6.6398	-29337	2171.8	-0.63079	-0.60639	0.49756
2.928	6.5642	-29335	2171.7	-0.63186	-0.606	0.49815
2.93	6.5263	-29334	2171.7	-0.63294	-0.60561	0.49874
2.932	6.5602	-29333	2171.6	-0.63342	-0.60551	0.49815
2.934	6.6176	-29331	2171.5	-0.63391	-0.60541	0.49756
2.936	6.6615	-29330	2171.3	-0.6344	-0.60532	0.49698
2.938	6.71	-29326	2171.2	-0.63489	-0.60522	0.49639
2.94	6.7123	-29323	2171	-0.63538	-0.60512	0.49581
2.942	6.6821	-29326	2170.8	-0.63586	-0.60619	0.49571
2.944	6.6581	-29330	2170.6	-0.63635	-0.60727	0.49561
2.946	6.6417	-29335	2170.4	-0.63684	-0.60834	0.49552
2.948	6.6546	-29339	2170.2	-0.63733	-0.60941	0.49542
2.95	6.6926	-29336	2170	-0.63782	-0.61049	0.49532
2.952	6.7334	-29333	2169.8	-0.63538	-0.60883	0.49376
2.954	6.7786	-29331	2169.6	-0.63294	-0.60717	0.4922
2.956	6.7912	-29329	2169.3	-0.6305	-0.60551	0.49064
2.958	6.7533	-29333	2169.1	-0.62806	-0.60385	0.48907
2.96	6.7135	-29338	2168.9	-0.62562	-0.60219	0.48751
2.962	6.6954	-29337	2168.7	-0.62415	-0.60327	0.4881
2.964	6.6862	-29336	2168.5	-0.62269	-0.60434	0.48868
2.966	6.7063	-29337	2168.4	-0.62122	-0.60541	0.48927
2.968	6.7579	-29338	2168.3	-0.61976	-0.60649	0.48985
2.97	6.7976	-29338	2168.2	-0.6183	-0.60756	0.49044
2.972	6.8017	-29339	2168.2	-0.61996	-0.60805	0.48917
2.974	6.7789	-29343	2168.1	-0.62161	-0.60854	0.4879
2.976	6.7474	-29347	2168.1	-0.62327	-0.60902	0.48663
2.978	6.7133	-29347	2168.1	-0.62493	-0.60951	0.48536
2.98	6.6914	-29347	2168	-0.62659	-0.61	0.4841
2.982	6.6889	-29343	2168.1	-0.62737	-0.6102	0.4838
2.984	6.7097	-29339	2168.1	-0.62815	-0.61039	0.48351
2.986	6.7446	-29342	2168	-0.62893	-0.61059	0.48322
2.988	6.7758	-29346	2167.9	-0.62972	-0.61078	0.48292
2.99	6.7758	-29353	2167.8	-0.6305	-0.61098	0.48263
2.992	6.7324	-29360	2167.8	-0.63098	-0.61146	0.48214
2.994	6.7004	-29355	2167.7	-0.63147	-0.61195	0.48166
2.996	6.678	-29349	2167.6	-0.63196	-0.61244	0.48117
2.998	6.6955	-29349	2167.5	-0.63245	-0.61293	0.48068
3	6.7576	-29350	2167.5	-0.63294	-0.61342	0.48019
3.002	6.8146	-29354	2167.5	-0.63303	-0.61303	0.48127
3.004	6.8344	-29358	2167.6	-0.63313	-0.61264	0.48234
3.006	6.8331	-29354	2167.6	-0.63323	-0.61224	0.48341
3.008	6.7866	-29349	2167.7	-0.63333	-0.61185	0.48449
3.01	6.7321	-29353	2167.8	-0.63342	-0.61146	0.48556
3.012	6.6978	-29356	2167.9	-0.63284	-0.61127	0.48595
3.014	6.6981	-29359	2168	-0.63225	-0.61107	0.48634
3.016	6.7219	-29363	2168.1	-0.63167	-0.61088	0.48673
3.018	6.7625	-29356	2168.2	-0.63108	-0.61068	0.48712
3.02	6.8036	-29349	2168.3	-0.6305	-0.61049	0.48751
3.022	6.8179	-29349	2168.4	-0.63206	-0.61146	0.48839
3.024	6.7982	-29348	2168.5	-0.63362	-0.61244	0.48927
3.026	6.746	-29351	2168.6	-0.63518	-0.61342	0.49015
3.028	6.709	-29354	2168.7	-0.63674	-0.61439	0.49103
3.03	6.6929	-29359	2168.7	-0.6383	-0.61537	0.4919
3.032	6.7048	-29365	2168.8	-0.63908	-0.61342	0.4922
3.034	6.7472	-29367	2169	-0.63987	-0.61146	0.49249
3.036	6.7963	-29368	2169.2	-0.64065	-0.60951	0.49278
3.038	6.8208	-29370	2169.5	-0.64143	-0.60756	0.49308
3.04	6.8142	-29372	2169.8	-0.64221	-0.60561	0.49337
3.042	6.7867	-29372	2170.2	-0.64113	-0.60707	0.49181
3.044	6.7423	-29371	2170.6	-0.64006	-0.60854	0.49024
3.046	6.7063	-29371	2171	-0.63899	-0.61	0.48868
3.048	6.7182	-29370	2171.4	-0.63791	-0.61146	0.48712
3.05	6.7593	-29369	2171.8	-0.63684	-0.61293	0.48556
3.052	6.7939	-29368	2172.3	-0.63752	-0.61264	0.48576
3.054	6.8187	-29371	2172.8	-0.63821	-0.61234	0.48595
3.056	6.8263	-29373	2173.2	-0.63889	-0.61205	0.48615
3.058	6.8042	-29371	2173.6	-0.63957	-0.61176	0.48634
3.06	6.7604	-29370	2173.9	-0.64026	-0.61146	0.48654
3.062	6.7178	-29369	2174.2	-0.63918	-0.61068	0.4879
3.064	6.7046	-29369	2174.5	-0.63811	-0.6099	0.48927
3.066	6.7444	-29368	2174.8	-0.63704	-0.60912	0.49064
3.068	6.7831	-29368	2175.1	-0.63596	-0.60834	0.492
3.07	6.8208	-29368	2175.4	-0.63489	-0.60756	0.49337
3.072	6.8366	-29369	2175.7	-0.63596	-0.60766	0.49386
3.074	6.8294	-29368	2176	-0.63704	-0.60776	0.49434
3.076	6.7975	-29368	2176.3	-0.63811	-0.60785	0.49483
3.078	6.7581	-29368	2176.6	-0.63918	-0.60795	0.49532
3.08	6.7428	-29368	2177	-0.64026	-0.60805	0.49581
3.082	6.7446	-29363	2177.3	-0.6383	-0.60736	0.49552
3.084	6.7933	-29358	2177.6	-0.63635	-0.60668	0.49522
3.086	6.8376	-29363	2177.9	-0.6344	-0.606	0.49493
3.088	6.8698	-29367	2178.3	-0.63245	-0.60532	0.49464
3.09	6.8629	-29367	2178.6	-0.6305	-0.60463	0.49434
3.092	6.8308	-29367	2178.9	-0.62981	-0.60512	0.49415
3.094	6.775	-29364	2179.2	-0.62913	-0.60561	0.49395
3.096	6.7433	-29360	2179.5	-0.62845	-0.6061	0.49376
3.098	6.7514	-29364	2179.7	-0.62776	-0.60658	0.49356
3.1	6.7937	-29367	2179.9	-0.62708	-0.60707	0.49337
3.102	6.8422	-29358	2180	-0.62474	-0.60688	0.49278
3.104	6.8787	-29349	2180.1	-0.6224	-0.60668	0.4922
3.106	6.8749	-29348	2180.1	-0.62005	-0.60649	0.49161
3.108	6.8428	-29346	2180.2	-0.61771	-0.60629	0.49103
3.11	6.8031	-29351	2180.2	-0.61537	-0.6061	0.49044
3.112	6.7759	-29356	2180.1	-0.61615	-0.6061	0.49064
3.114	6.7705	-29352	2180	-0.61693	-0.6061	0.49083
3.116	6.7896	-29348	2179.9	-0.61771	-0.6061	0.49103
3.118	6.8105	-29349	2179.7	-0.61849	-0.6061	0.49122
3.12	6.8332	-29350	2179.6	-0.61927	-0.6061	0.49142
3.122	6.8516	-29346	2179.4	-0.61996	-0.60736	0.49122
3.124	6.8428	-29343	2179.2	-0.62064	-0.60863	0.49103
3.126	6.8219	-29342	2179	-0.62132	-0.6099	0.49083
3.128	6.7892	-29340	2178.9	-0.622	-0.61117	0.49064
3.13	6.7579	-29340	2178.7	-0.62269	-0.61244	0.49044
3.132	6.7678	-29339	2178.4	-0.62464	-0.61107	0.49112
3.134	6.8111	-29336	2178.1	-0.62659	-0.60971	0.49181
3.136	6.8523	-29334	2177.8	-0.62854	-0.60834	0.49249
3.138	6.8748	-29331	2177.6	-0.6305	-0.60697	0.49317
3.14	6.8648	-29329	2177.3	-0.63245	-0.60561	0.49386
3.142	6.821	-29334	2177.1	-0.63167	-0.60395	0.492
3.144	6.7678	-29340	2176.8	-0.63089	-0.60229	0.49015
3.146	6.7306	-29338	2176.5	-0.63011	-0.60063	0.48829
3.148	6.7309	-29335	2176.3	-0.62932	-0.59897	0.48644
3.15	6.7686	-29330	2176	-0.62854	-0.59731	0.48458
3.152	6.8108	-29325	2175.8	-0.63001	-0.59878	0.48468
3.154	6.8427	-29321	2175.6	-0.63147	-0.60024	0.48478
3.156	6.8496	-29317	2175.4	-0.63294	-0.6017	0.48488
3.158	6.834	-29319	2175.2	-0.6344	-0.60317	0.48497
3.16	6.7928	-29320	2175	-0.63586	-0.60463	0.48507
3.162	6.7573	-29319	2174.9	-0.63518	-0.60424	0.48556
3.164	6.7379	-29317	2174.7	-0.6345	-0.60385	0.48605
3.166	6.7674	-29318	2174.4	-0.63381	-0.60346	0.48654
3.168	6.8217	-29320	2174.2	-0.63313	-0.60307	0.48702
3.17	6.8433	-29314	2173.9	-0.63245	-0.60268	0.48751
3.172	6.8295	-29308	2173.7	-0.63206	-0.602	0.48693
3.174	6.7845	-29309	2173.4	-0.63167	-0.60131	0.48634
3.176	6.7352	-29311	2173.1	-0.63128	-0.60063	0.48576
3.178	6.691	-29309	2172.8	-0.63089	-0.59995	0.48517
3.18	6.6863	-29307	2172.5	-0.6305	-0.59926	0.48458
3.182	6.7094	-29306	2172.2	-0.63176	-0.60102	0.48488
3.184	6.7496	-29305	2172	-0.63303	-0.60278	0.48517
3.186	6.7874	-29311	2171.7	-0.6343	-0.60453	0.48546
3.188	6.8081	-29317	2171.5	-0.63557	-0.60629	0.48576
3.19	6.7895	-29315	2171.2	-0.63684	-0.60805	0.48605
3.192	6.7411	-29312	2170.9	-0.63528	-0.60727	0.48673
3.194	6.6937	-29315	2170.7	-0.63372	-0.60649	0.48741
3.196	6.6708	-29318	2170.5	-0.63216	-0.60571	0.4881
3.198	6.6786	-29317	2170.2	-0.63059	-0.60492	0.48878
3.2	6.7195	-29316	2170	-0.62903	-0.60414	0.48946
3.202	6.7606	-29315	2169.8	-0.62972	-0.60532	0.48907
3.204	6.7895	-29315	2169.7	-0.6304	-0.60649	0.48868
3.206	6.7881	-29316	2169.5	-0.63108	-0.60766	0.48829
3.208	6.7471	-29317	2169.5	-0.63176	-0.60883	0.4879
3.21	6.7037	-29311	2169.4	-0.63245	-0.61	0.48751
3.212	6.6735	-29305	2169.3	-0.63284	-0.6098	0.48859
3.214	6.6584	-29304	2169.2	-0.63323	-0.60961	0.48966
3.216	6.6822	-29303	2169	-0.63362	-0.60941	0.49073
3.218	6.7348	-29304	2168.9	-0.63401	-0.60922	0.49181
3.22	6.7771	-29305	2168.7	-0.6344	-0.60902	0.49288
3.222	6.7959	-29309	2168.6	-0.63362	-0.60805	0.49356
3.224	6.7821	-29314	2168.4	-0.63284	-0.60707	0.49425
3.226	6.7367	-29312	2168.2	-0.63206	-0.6061	0.49493
3.228	6.6916	-29309	2168.1	-0.63128	-0.60512	0.49561
3.23	6.6665	-29311	2168	-0.6305	-0.60414	0.4963
3.232	6.6705	-29313	2167.8	-0.63147	-0.60385	0.49659
3.234	6.7079	-29308	2167.7	-0.63245	-0.60356	0.49688
3.236	6.7574	-29303	2167.6	-0.63342	-0.60327	0.49717
3.238	6.7927	-29307	2167.5	-0.6344	-0.60297	0.49747
3.24	6.784	-29311	2167.4	-0.63538	-0.60268	0.49776
3.242	6.7402	-29310	2167.2	-0.63489	-0.60258	0.49708
3.244	6.6964	-29309	2167.1	-0.6344	-0.60248	0.49639
3.246	6.6703	-29313	2167	-0.63391	-0.60239	0.49571
3.248	6.6729	-29318	2166.9	-0.63342	-0.60229	0.49503
3.25	6.7099	-29319	2166.8	-0.63294	-0.60219	0.49434
3.252	6.7554	-29320	2166.7	-0.63157	-0.60239	0.49366
3.254	6.804	-29316	2166.6	-0.6302	-0.60258	0.49298
3.256	6.802	-29313	2166.5	-0.62884	-0.60278	0.49229
3.258	6.7575	-29316	2166.3	-0.62747	-0.60297	0.49161
3.26	6.7181	-29320	2166.1	-0.6261	-0.60317	0.49093
3.262	6.6673	-29318	2166	-0.62679	-0.60288	0.49151
3.264	6.6551	-29315	2166	-0.62747	-0.60258	0.4921
3.266	6.7048	-29320	2165.8	-0.62815	-0.60229	0.49268
3.268	6.7653	-29324	2165.7	-0.62884	-0.602	0.49327
3.27	6.8026	-29323	2165.6	-0.62952	-0.6017	0.49386
3.272	6.8155	-29323	2165.5	-0.62874	-0.60219	0.49308
3.274	6.7831	-29321	2165.4	-0.62796	-0.60268	0.49229
3.276	6.7402	-29320	2165.3	-0.62718	-0.60317	0.49151
3.278	6.6924	-29322	2165.2	-0.6264	-0.60366	0.49073
3.28	6.667	-29324	2165.1	-0.62562	-0.60414	0.48995
3.282	6.6771	-29325	2165	-0.62523	-0.60502	0.48966
3.284	6.7093	-29325	2165	-0.62484	-0.6059	0.48937
3.286	6.7552	-29327	2164.9	-0.62444	-0.60678	0.48907
3.288	6.7851	-29329	2164.9	-0.62405	-0.60766	0.48878
3.29	6.7866	-29333	2164.9	-0.62366	-0.60854	0.48849
3.292	6.7556	-29336	2164.8	-0.62425	-0.60834	0.48868
3.294	6.7136	-29336	2164.7	-0.62484	-0.60815	0.48888
3.296	6.6862	-29336	2164.7	-0.62542	-0.60795	0.48907
3.298	6.6856	-29332	2164.6	-0.62601	-0.60776	0.48927
3.3	6.7181	-29329	2164.6	-0.62659	-0.60756	0.48946
3.302	6.7604	-29328	2164.6	-0.6264	-0.60746	0.48966
3.304	6.7935	-29327	2164.6	-0.6262	-0.60736	0.48985
3.306	6.8042	-29331	2164.6	-0.62601	-0.60727	0.49005
3.308	6.7757	-29334	2164.7	-0.62581	-0.60717	0.49024
3.31	6.7198	-29334	2164.8	-0.62562	-0.60707	0.49044
3.312	6.6694	-29333	2165	-0.62708	-0.60746	0.48927
3.314	6.6597	-29334	2165.1	-0.62854	-0.60785	0.4881
3.316	6.6986	-29335	2165.3	-0.63001	-0.60824	0.48693
3.318	6.7472	-29335	2165.5	-0.63147	-0.60863	0.48576
3.32	6.771	-29335	2165.7	-0.63294	-0.60902	0.48458
3.322	6.7666	-29337	2165.9	-0.63245	-0.60805	0.48546
3.324	6.7449	-29339	2166	-0.63196	-0.60707	0.48634
3.326	6.7068	-29338	2166.2	-0.63147	-0.6061	0.48722
3.328	6.6584	-29337	2166.4	-0.63098	-0.60512	0.4881
3.33	6.6251	-29338	2166.5	-0.6305	-0.60414	0.48898
3.332	6.6409	-29340	2166.7	-0.63167	-0.60483	0.48995
3.334	6.6893	-29344	2166.8	-0.63284	-0.60551	0.49093
3.336	6.7374	-29347	2166.9	-0.63401	-0.60619	0.4919
3.338	6.7703	-29348	2167	-0.63518	-0.60688	0.49288
3.34	6.7628	-29348	2167.1	-0.63635	-0.60756	0.49386
3.342	6.7161	-29346	2167.1	-0.63743	-0.606	0.49356
3.344	6.6732	-29344	2167.2	-0.6385	-0.60444	0.49327
3.346	6.6535	-29344	2167.3	-0.63957	-0.60288	0.49298
3.348	6.6493	-29343	2167.3	-0.64065	-0.60131	0.49268
3.35	6.6845	-29344	2167.3	-0.64172	-0.59975	0.49239
3.352	6.7221	-29344	2167.2	-0.64182	-0.59956	0.49298
3.354	6.7585	-29343	2167.2	-0.64192	-0.59936	0.49356
3.356	6.7643	-29343	2167.1	-0.64201	-0.59917	0.49415
3.358	6.7354	-29343	2166.9	-0.64211	-0.59897	0.49473
3.36	6.6925	-29343	2166.8	-0.64221	-0.59878	0.49532
3.362	6.6508	-29349	2166.7	-0.64143	-0.59917	0.49473
3.364	6.6457	-29355	2166.5	-0.64065	-0.59956	0.49415
3.366	6.6834	-29352	2166.4	-0.63987	-0.59995	0.49356
3.368	6.7286	-29349	2166.2	-0.63908	-0.60034	0.49298
3.37	6.7738	-29349	2166	-0.6383	-0.60073	0.49239
3.372	6.7991	-29349	2165.9	-0.63713	-0.59965	0.4922
3.374	6.7595	-29348	2165.7	-0.63596	-0.59858	0.492
3.376	6.6847	-29347	2165.5	-0.63479	-0.59751	0.49181
3.378	6.6421	-29350	2165.3	-0.63362	-0.59643	0.49161
3.38	6.6352	-29353	2165.1	-0.63245	-0.59536	0.49142
3.382	6.6574	-29355	2164.9	-0.63294	-0.59526	0.49171
3.384	6.7045	-29357	2164.7	-0.63342	-0.59516	0.492
3.386	6.7461	-29361	2164.5	-0.63391	-0.59507	0.49229
3.388	6.7689	-29365	2164.4	-0.6344	-0.59497	0.49259
3.39	6.7572	-29360	2164.3	-0.63489	-0.59487	0.49288
3.392	6.7223	-29355	2164.2	-0.63323	-0.59546	0.4919
3.394	6.6932	-29356	2164	-0.63157	-0.59604	0.49093
3.396	6.6742	-29356	2163.9	-0.62991	-0.59663	0.48995
3.398	6.683	-29354	2163.8	-0.62825	-0.59721	0.48898
3.4	6.73	-29352	2163.7	-0.62659	-0.5978	0.488
3.402	6.7841	-29350	2163.6	-0.62679	-0.59878	0.48761
3.404	6.8088	-29349	2163.6	-0.62698	-0.59975	0.48722
3.406	6.7977	-29349	2163.5	-0.62718	-0.60073	0.48683
3.408	6.7603	-29348	2163.5	-0.62737	-0.6017	0.48644
3.41	6.7067	-29354	2163.4	-0.62757	-0.60268	0.48605
3.412	6.6515	-29360	2163.4	-0.62767	-0.60229	0.48693
3.414	6.6138	-29360	2163.3	-0.62776	-0.6019	0.4878
3.416	6.6075	-29360	2163.3	-0.62786	-0.60151	0.48868
3.418	6.6369	-29358	2163.2	-0.62796	-0.60112	0.48956
3.42	6.6617	-29356	2163.2	-0.62806	-0.60073	0.49044
3.422	6.6705	-29363	2163.2	-0.62786	-0.60122	0.49073
3.424	6.642	-29371	2163.1	-0.62767	-0.6017	0.49103
3.426	6.5867	-29371	2163	-0.62747	-0.60219	0.49132
3.428	6.539	-29370	2162.9	-0.62728	-0.60268	0.49161
3.43	6.5408	-29368	2162.8	-0.62708	-0.60317	0.4919
3.432	6.5929	-29366	2162.7	-0.62747	-0.60268	0.49376
3.434	6.6516	-29363	2162.6	-0.62786	-0.60219	0.49561
3.436	6.7048	-29360	2162.5	-0.62825	-0.6017	0.49747
3.438	6.7362	-29359	2162.3	-0.62864	-0.60122	0.49932
3.44	6.7212	-29358	2162.1	-0.62903	-0.60073	0.50118
3.442	6.685	-29362	2161.9	-0.62923	-0.60102	0.49952
3.444	6.6511	-29366	2161.6	-0.62942	-0.60131	0.49786
3.446	6.6197	-29367	2161.5	-0.62962	-0.60161	0.4962
3.448	6.6171	-29369	2161.4	-0.62981	-0.6019	0.49454
3.45	6.6551	-29370	2161.3	-0.63001	-0.60219	0.49288
3.452	6.6976	-29371	2161.4	-0.62932	-0.60229	0.49288
3.454	6.7404	-29369	2161.4	-0.62864	-0.60239	0.49288
3.456	6.7746	-29367	2161.4	-0.62796	-0.60248	0.49288
3.458	6.7423	-29367	2161.4	-0.62728	-0.60258	0.49288
3.46	6.6821	-29367	2161.4	-0.62659	-0.60268	0.49288
3.462	6.6305	-29370	2161.4	-0.62806	-0.60278	0.49093
3.464	6.6185	-29373	2161.5	-0.62952	-0.60288	0.48898
3.466	6.6604	-29378	2161.5	-0.63098	-0.60297	0.48702
3.468	6.7268	-29383	2161.6	-0.63245	-0.60307	0.48507
3.47	6.7684	-29378	2161.7	-0.63391	-0.60317	0.48312
3.472	6.7671	-29374	2161.7	-0.63352	-0.60336	0.4841
3.474	6.7324	-29369	2161.8	-0.63313	-0.60356	0.48507
3.476	6.6842	-29365	2161.8	-0.63274	-0.60375	0.48605
3.478	6.6439	-29374	2161.9	-0.63235	-0.60395	0.48702
3.48	6.6246	-29382	2161.9	-0.63196	-0.60414	0.488
3.482	6.6456	-29380	2161.9	-0.63216	-0.60288	0.48693
3.484	6.6998	-29378	2161.9	-0.63235	-0.60161	0.48585
3.486	6.7447	-29375	2161.9	-0.63255	-0.60034	0.48478
3.488	6.7675	-29373	2161.8	-0.63274	-0.59907	0.48371
3.49	6.7657	-29379	2161.7	-0.63294	-0.5978	0.48263
3.492	6.7362	-29384	2161.6	-0.63196	-0.59721	0.4841
3.494	6.6898	-29383	2161.5	-0.63098	-0.59663	0.48556
3.496	6.6587	-29382	2161.3	-0.63001	-0.59604	0.48702
3.498	6.6729	-29381	2161	-0.62903	-0.59546	0.48849
3.5	6.7191	-29380	2160.8	-0.62806	-0.59487	0.48995
3.502	6.7473	-29385	2160.6	-0.62854	-0.59516	0.49034
3.504	6.7646	-29390	2160.5	-0.62903	-0.59546	0.49073
3.506	6.7679	-29392	2160.3	-0.62952	-0.59575	0.49112
3.508	6.7382	-29394	2160.2	-0.63001	-0.59604	0.49151
3.51	6.6953	-29394	2160	-0.6305	-0.59634	0.4919
3.512	6.6597	-29394	2159.9	-0.63098	-0.59595	0.4919
3.514	6.647	-29388	2159.8	-0.63147	-0.59556	0.4919
3.516	6.6772	-29382	2159.8	-0.63196	-0.59516	0.4919
3.518	6.7363	-29386	2159.7	-0.63245	-0.59477	0.4919
3.52	6.7681	-29389	2159.6	-0.63294	-0.59438	0.4919
3.522	6.7729	-29393	2159.7	-0.63225	-0.59341	0.49161
3.524	6.7553	-29396	2159.7	-0.63157	-0.59243	0.49132
3.526	6.7014	-29395	2159.8	-0.63089	-0.59146	0.49103
3.528	6.6613	-29394	2160	-0.6302	-0.59048	0.49073
3.53	6.6548	-29394	2160.2	-0.62952	-0.5895	0.49044
3.532	6.6649	-29394	2160.6	-0.63108	-0.59214	0.48878
3.534	6.706	-29393	2161	-0.63264	-0.59477	0.48712
3.536	6.7579	-29393	2161.4	-0.6342	-0.59741	0.48546
3.538	6.7931	-29396	2162	-0.63577	-0.60004	0.4838
3.54	6.7846	-29399	2162.5	-0.63733	-0.60268	0.48214
3.542	6.7388	-29398	2163.1	-0.63625	-0.60366	0.48332
3.544	6.687	-29396	2163.7	-0.63518	-0.60463	0.48449
3.546	6.6443	-29396	2164.3	-0.63411	-0.60561	0.48566
3.548	6.6524	-29397	2164.9	-0.63303	-0.60658	0.48683
3.55	6.712	-29400	2165.6	-0.63196	-0.60756	0.488
3.552	6.7589	-29403	2166.2	-0.63333	-0.60805	0.48888
3.554	6.7852	-29401	2166.8	-0.63469	-0.60854	0.48976
3.556	6.7969	-29400	2167.3	-0.63606	-0.60902	0.49064
3.558	6.7688	-29399	2167.9	-0.63743	-0.60951	0.49151
3.56	6.7132	-29397	2168.4	-0.63879	-0.61	0.49239
3.562	6.6694	-29397	2169	-0.63977	-0.60854	0.49356
3.564	6.6652	-29397	2169.5	-0.64074	-0.60707	0.49473
3.566	6.7015	-29395	2170	-0.64172	-0.60561	0.49591
3.568	6.7525	-29394	2170.4	-0.6427	-0.60414	0.49708
3.57	6.7964	-29392	2170.9	-0.64367	-0.60268	0.49825
3.572	6.816	-29391	2171.3	-0.64406	-0.60112	0.49766
3.574	6.7958	-29389	2171.7	-0.64445	-0.59956	0.49708
3.576	6.7459	-29387	2172	-0.64484	-0.598	0.49649
3.578	6.6983	-29386	2172.4	-0.64523	-0.59643	0.49591
3.58	6.6749	-29386	2172.7	-0.64562	-0.59487	0.49532
3.582	6.6867	-29390	2172.9	-0.64582	-0.59399	0.49581
3.584	6.7493	-29394	2173.1	-0.64601	-0.59312	0.4963
3.586	6.8084	-29393	2173.3	-0.64621	-0.59224	0.49678
3.588	6.8371	-29393	2173.3	-0.6464	-0.59136	0.49727
3.59	6.8236	-29386	2173.4	-0.6466	-0.59048	0.49776
3.592	6.7832	-29379	2173.3	-0.64572	-0.59058	0.49805
3.594	6.7408	-29380	2173.2	-0.64484	-0.59068	0.49835
3.596	6.6946	-29380	2173.1	-0.64396	-0.59077	0.49864
3.598	6.7066	-29377	2173	-0.64309	-0.59087	0.49893
3.6	6.7535	-29375	2172.8	-0.64221	-0.59097	0.49922
3.602	6.807	-29373	2172.5	-0.64201	-0.59116	0.49854
3.604	6.8492	-29371	2172.2	-0.64182	-0.59136	0.49786
3.606	6.8356	-29369	2171.9	-0.64162	-0.59155	0.49717
3.608	6.7954	-29367	2171.6	-0.64143	-0.59175	0.49649
3.61	6.7507	-29363	2171.2	-0.64123	-0.59194	0.49581
3.612	6.7108	-29358	2170.7	-0.63948	-0.59312	0.49552
3.614	6.6934	-29358	2170.2	-0.63772	-0.59429	0.49522
3.616	6.7246	-29358	2169.7	-0.63596	-0.59546	0.49493
3.618	6.7646	-29358	2169.2	-0.6342	-0.59663	0.49464
3.62	6.8032	-29358	2168.8	-0.63245	-0.5978	0.49434
3.622	6.821	-29356	2168.3	-0.63333	-0.59614	0.49522
3.624	6.79	-29354	2167.8	-0.6342	-0.59448	0.4961
3.626	6.7267	-29355	2167.3	-0.63508	-0.59282	0.49698
3.628	6.6737	-29356	2166.8	-0.63596	-0.59116	0.49786
3.63	6.655	-29355	2166.3	-0.63684	-0.5895	0.49874
3.632	6.6647	-29355	2165.8	-0.63645	-0.59214	0.49796
3.634	6.6859	-29351	2165.4	-0.63606	-0.59477	0.49717
3.636	6.7265	-29348	2165	-0.63567	-0.59741	0.49639
3.638	6.7687	-29349	2164.6	-0.63528	-0.60004	0.49561
3.64	6.7616	-29349	2164.2	-0.63489	-0.60268	0.49483
3.642	6.7135	-29345	2164	-0.63362	-0.60151	0.49454
3.644	6.6558	-29342	2163.7	-0.63235	-0.60034	0.49425
3.646	6.6127	-29336	2163.5	-0.63108	-0.59917	0.49395
3.648	6.6172	-29331	2163.2	-0.62981	-0.598	0.49366
3.65	6.6604	-29334	2162.9	-0.62854	-0.59682	0.49337
3.652	6.7031	-29337	2162.7	-0.63011	-0.59731	0.49366
3.654	6.7343	-29337	2162.5	-0.63167	-0.5978	0.49395
3.656	6.7443	-29336	2162.3	-0.63323	-0.59829	0.49425
3.658	6.7208	-29336	2162.1	-0.63479	-0.59878	0.49454
3.66	6.6759	-29336	2161.9	-0.63635	-0.59926	0.49483
3.662	6.6294	-29331	2161.7	-0.63684	-0.60014	0.49512
3.664	6.6176	-29327	2161.5	-0.63733	-0.60102	0.49542
3.666	6.6474	-29329	2161.3	-0.63782	-0.6019	0.49571
3.668	6.6719	-29330	2161.1	-0.6383	-0.60278	0.496
3.67	6.6913	-29329	2160.9	-0.63879	-0.60366	0.4963
3.672	6.7304	-29327	2160.7	-0.63967	-0.60317	0.4963
3.674	6.7195	-29327	2160.5	-0.64055	-0.60268	0.4963
3.676	6.672	-29327	2160.3	-0.64143	-0.60219	0.4963
3.678	6.6244	-29327	2160.1	-0.64231	-0.6017	0.4963
3.68	6.6047	-29328	2159.8	-0.64318	-0.60122	0.4963
3.682	6.6228	-29328	2159.5	-0.64152	-0.60053	0.49464
3.684	6.6615	-29329	2159.2	-0.63987	-0.59985	0.49298
3.686	6.7036	-29329	2158.9	-0.63821	-0.59917	0.49132
3.688	6.7376	-29329	2158.5	-0.63655	-0.59848	0.48966
3.69	6.7504	-29323	2158.2	-0.63489	-0.5978	0.488
3.692	6.7173	-29317	2157.8	-0.63557	-0.59819	0.48859
3.694	6.6475	-29321	2157.5	-0.63625	-0.59858	0.48917
3.696	6.6072	-29324	2157.2	-0.63694	-0.59897	0.48976
3.698	6.6128	-29324	2156.9	-0.63762	-0.59936	0.49034
3.7	6.6531	-29324	2156.5	-0.6383	-0.59975	0.49093
3.702	6.6956	-29324	2156.2	-0.63801	-0.59907	0.49161
3.704	6.7314	-29324	2155.9	-0.63772	-0.59839	0.49229
3.706	6.7372	-29321	2155.6	-0.63743	-0.5977	0.49298
3.708	6.7087	-29318	2155.2	-0.63713	-0.59702	0.49366
3.71	6.6553	-29317	2154.8	-0.63684	-0.59634	0.49434
3.712	6.6023	-29315	2154.6	-0.63645	-0.59653	0.49356
3.714	6.6029	-29319	2154.3	-0.63606	-0.59673	0.49278
3.716	6.649	-29322	2154	-0.63567	-0.59692	0.492
3.718	6.6874	-29323	2153.7	-0.63528	-0.59712	0.49122
3.72	6.7269	-29324	2153.4	-0.63489	-0.59731	0.49044
3.722	6.7427	-29323	2153.2	-0.6344	-0.59643	0.49132
3.724	6.7118	-29323	2153	-0.63391	-0.59556	0.4922
3.726	6.6545	-29325	2152.9	-0.63342	-0.59468	0.49308
3.728	6.6067	-29328	2152.7	-0.63294	-0.5938	0.49395
3.73	6.5844	-29329	2152.5	-0.63245	-0.59292	0.49483
3.732	6.6045	-29329	2152.4	-0.63147	-0.59321	0.49337
3.734	6.6592	-29323	2152.2	-0.6305	-0.59351	0.4919
3.736	6.7048	-29316	2152.1	-0.62952	-0.5938	0.49044
3.738	6.7294	-29326	2152	-0.62854	-0.59409	0.48898
3.74	6.7332	-29337	2152	-0.62757	-0.59438	0.48751
3.742	6.6996	-29331	2151.9	-0.6303	-0.59507	0.48732
3.744	6.6403	-29325	2151.9	-0.63303	-0.59575	0.48712
3.746	6.5909	-29326	2151.8	-0.63577	-0.59643	0.48693
3.748	6.5914	-29326	2151.7	-0.6385	-0.59712	0.48673
3.75	6.643	-29328	2151.6	-0.64123	-0.5978	0.48654
3.752	6.6927	-29330	2151.6	-0.64026	-0.59887	0.4878
3.754	6.718	-29331	2151.6	-0.63928	-0.59995	0.48907
3.756	6.7162	-29331	2151.6	-0.6383	-0.60102	0.49034
3.758	6.7006	-29340	2151.6	-0.63733	-0.60209	0.49161
3.76	6.6787	-29348	2151.6	-0.63635	-0.60317	0.49288
3.762	6.6282	-29343	2151.5	-0.63733	-0.602	0.49268
3.764	6.614	-29337	2151.5	-0.6383	-0.60083	0.49249
3.766	6.6533	-29337	2151.5	-0.63928	-0.59965	0.49229
3.768	6.6956	-29337	2151.4	-0.64026	-0.59848	0.4921
3.77	6.7259	-29339	2151.4	-0.64123	-0.59731	0.4919
3.772	6.7482	-29341	2151.3	-0.64221	-0.59624	0.49308
3.774	6.7238	-29343	2151.2	-0.64318	-0.59516	0.49425
3.776	6.6773	-29345	2151.2	-0.64416	-0.59409	0.49542
3.778	6.6156	-29346	2151.1	-0.64514	-0.59302	0.49659
3.78	6.5969	-29346	2151	-0.64611	-0.59194	0.49776
3.782	6.6179	-29341	2151	-0.64553	-0.59175	0.49844
3.784	6.649	-29337	2151	-0.64494	-0.59155	0.49913
3.786	6.7055	-29341	2150.9	-0.64436	-0.59136	0.49981
3.788	6.7486	-29345	2150.9	-0.64377	-0.59116	0.50049
3.79	6.7288	-29346	2150.8	-0.64318	-0.59097	0.50118
3.792	6.6869	-29348	2150.8	-0.64279	-0.59146	0.49971
3.794	6.6687	-29345	2150.7	-0.6424	-0.59194	0.49825
3.796	6.6543	-29342	2150.7	-0.64201	-0.59243	0.49678
3.798	6.6429	-29345	2150.6	-0.64162	-0.59292	0.49532
3.8	6.662	-29347	2150.6	-0.64123	-0.59341	0.49386
3.802	6.7088	-29356	2150.6	-0.64016	-0.5937	0.49259
3.804	6.7429	-29364	2150.6	-0.63908	-0.59399	0.49132
3.806	6.7471	-29356	2150.6	-0.63801	-0.59429	0.49005
3.808	6.7102	-29349	2150.5	-0.63694	-0.59458	0.48878
3.81	6.6604	-29351	2150.4	-0.63586	-0.59487	0.48751
3.812	6.6157	-29354	2150.3	-0.63557	-0.59409	0.48829
3.814	6.5985	-29354	2150.3	-0.63528	-0.59331	0.48907
3.816	6.6199	-29353	2150.2	-0.63499	-0.59253	0.48985
3.818	6.6584	-29353	2150.2	-0.63469	-0.59175	0.49064
3.82	6.6882	-29352	2150.2	-0.6344	-0.59097	0.49142
3.822	6.7054	-29355	2150.2	-0.63538	-0.59185	0.49132
3.824	6.7033	-29359	2150.1	-0.63635	-0.59272	0.49122
3.826	6.6569	-29357	2150	-0.63733	-0.5936	0.49112
3.828	6.5948	-29355	2150	-0.6383	-0.59448	0.49103
3.83	6.5682	-29359	2149.9	-0.63928	-0.59536	0.49093
3.832	6.5789	-29363	2149.7	-0.63801	-0.59526	0.49103
3.834	6.6315	-29367	2149.5	-0.63674	-0.59516	0.49112
3.836	6.685	-29370	2149.4	-0.63547	-0.59507	0.49122
3.838	6.7079	-29365	2149.3	-0.6342	-0.59497	0.49132
3.84	6.7034	-29360	2149.2	-0.63294	-0.59487	0.49142
3.842	6.6591	-29364	2149.1	-0.63557	-0.59419	0.49288
3.844	6.6123	-29368	2149	-0.63821	-0.59351	0.49434
3.846	6.5749	-29359	2148.8	-0.64084	-0.59282	0.49581
3.848	6.575	-29349	2148.6	-0.64348	-0.59214	0.49727
3.85	6.603	-29361	2148.5	-0.64611	-0.59146	0.49874
3.852	6.6604	-29373	2148.3	-0.64543	-0.59136	0.49903
3.854	6.7118	-29364	2148.1	-0.64475	-0.59126	0.49932
3.856	6.737	-29355	2148	-0.64406	-0.59116	0.49961
3.858	6.6896	-29359	2147.9	-0.64338	-0.59107	0.49991
3.86	6.6318	-29363	2147.7	-0.6427	-0.59097	0.5002
3.862	6.595	-29366	2147.6	-0.64338	-0.59146	0.49874
3.864	6.5782	-29368	2147.4	-0.64406	-0.59194	0.49727
3.866	6.5995	-29365	2147.3	-0.64475	-0.59243	0.49581
3.868	6.6504	-29363	2147.2	-0.64543	-0.59292	0.49434
3.87	6.7048	-29363	2147	-0.64611	-0.59341	0.49288
3.872	6.7212	-29362	2146.9	-0.6464	-0.59331	0.49337
3.874	6.695	-29362	2146.8	-0.6467	-0.59321	0.49386
3.876	6.6628	-29362	2146.7	-0.64699	-0.59312	0.49434
3.878	6.6116	-29362	2146.5	-0.64728	-0.59302	0.49483
3.88	6.5683	-29361	2146.3	-0.64758	-0.59292	0.49532
3.882	6.5878	-29360	2146.2	-0.64728	-0.59282	0.49561
3.884	6.6434	-29359	2146.1	-0.64699	-0.59272	0.49591
3.886	6.6871	-29365	2146	-0.6467	-0.59263	0.4962
3.888	6.7211	-29371	2145.8	-0.6464	-0.59253	0.49649
3.89	6.7241	-29373	2145.7	-0.64611	-0.59243	0.49678
3.892	6.6992	-29375	2145.7	-0.64689	-0.59263	0.49678
3.894	6.6665	-29372	2145.6	-0.64767	-0.59282	0.49678
3.896	6.6453	-29370	2145.5	-0.64845	-0.59302	0.49678
3.898	6.6599	-29369	2145.4	-0.64924	-0.59321	0.49678
3.9	6.7061	-29369	2145.2	-0.65002	-0.59341	0.49678
3.902	6.7544	-29376	2145	-0.64963	-0.59233	0.49688
3.904	6.7839	-29383	2144.8	-0.64924	-0.59126	0.49698
3.906	6.7671	-29385	2144.5	-0.64884	-0.59019	0.49708
3.908	6.7069	-29387	2144.4	-0.64845	-0.58911	0.49717
3.91	6.6373	-29380	2144.2	-0.64806	-0.58804	0.49727
3.912	6.5633	-29373	2144.1	-0.64689	-0.58872	0.49796
3.914	6.5106	-29376	2144	-0.64572	-0.58941	0.49864
3.916	6.5089	-29380	2143.9	-0.64455	-0.59009	0.49932
3.918	6.5389	-29376	2143.8	-0.64338	-0.59077	0.5
3.92	6.58	-29373	2143.6	-0.64221	-0.59146	0.50069
3.922	6.5987	-29375	2143.4	-0.64211	-0.59204	0.49903
3.924	6.5687	-29377	2143.2	-0.64201	-0.59263	0.49737
3.926	6.5299	-29375	2143.1	-0.64192	-0.59321	0.49571
3.928	6.5031	-29372	2143.1	-0.64182	-0.5938	0.49405
3.93	6.4966	-29373	2143	-0.64172	-0.59438	0.49239
3.932	6.5147	-29373	2143	-0.64162	-0.5937	0.49503
3.934	6.581	-29378	2143	-0.64152	-0.59302	0.49766
3.936	6.6377	-29383	2143	-0.64143	-0.59233	0.5003
3.938	6.6709	-29383	2143	-0.64133	-0.59165	0.50293
3.94	6.6683	-29384	2142.9	-0.64123	-0.59097	0.50557
3.942	6.6208	-29380	2142.9	-0.63977	-0.59194	0.50518
3.944	6.5685	-29376	2142.8	-0.6383	-0.59292	0.50479
3.946	6.5464	-29380	2142.7	-0.63684	-0.5939	0.5044
3.948	6.5403	-29384	2142.6	-0.63538	-0.59487	0.50401
3.95	6.5853	-29380	2142.5	-0.63391	-0.59585	0.50362
3.952	6.6516	-29376	2142.3	-0.63538	-0.59507	0.50313
3.954	6.6896	-29380	2142.2	-0.63684	-0.59429	0.50264
3.956	6.6868	-29385	2142	-0.6383	-0.59351	0.50215
3.958	6.6453	-29389	2141.8	-0.63977	-0.59272	0.50166
3.96	6.5937	-29394	2141.7	-0.64123	-0.59194	0.50118
3.962	6.5542	-29394	2141.6	-0.63879	-0.59107	0.50166
3.964	6.5522	-29393	2141.5	-0.63635	-0.59019	0.50215
3.966	6.5798	-29393	2141.4	-0.63391	-0.58931	0.50264
3.968	6.6207	-29393	2141.4	-0.63147	-0.58843	0.50313
3.97	6.6604	-29394	2141.4	-0.62903	-0.58755	0.50362
3.972	6.6729	-29395	2141.4	-0.62991	-0.58824	0.5042
3.974	6.652	-29395	2141.3	-0.63079	-0.58892	0.50479
3.976	6.605	-29395	2141.2	-0.63167	-0.5896	0.50537
3.978	6.5682	-29395	2141	-0.63255	-0.59028	0.50596
3.98	6.5542	-29395	2140.8	-0.63342	-0.59097	0.50654
3.982	6.5715	-29396	2140.6	-0.6345	-0.59068	0.50606
3.984	6.6104	-29397	2140.4	-0.63557	-0.59038	0.50557
3.986	6.6522	-29402	2140.3	-0.63664	-0.59009	0.50508
3.988	6.677	-29406	2140.1	-0.63772	-0.5898	0.50459
3.99	6.6649	-29402	2140	-0.63879	-0.5895	0.5041
3.992	6.6257	-29398	2139.8	-0.63782	-0.58892	0.50391
3.994	6.5825	-29395	2139.7	-0.63684	-0.58833	0.50371
3.996	6.5509	-29393	2139.6	-0.63586	-0.58775	0.50352
3.998	6.5528	-29399	2139.5	-0.63489	-0.58716	0.50332
4	6.5893	-29404	2139.5	-0.63391	-0.58658	0.50313
4.002	6.634	-29404	2139.4	-0.63499	-0.58755	0.50371
4.004	6.6667	-29404	2139.4	-0.63606	-0.58853	0.5043
4.006	6.6746	-29403	2139.4	-0.63713	-0.5895	0.50488
4.008	6.6552	-29403	2139.4	-0.63821	-0.59048	0.50547
4.01	6.6162	-29405	2139.4	-0.63928	-0.59146	0.50606
4.012	6.5858	-29407	2139.5	-0.64065	-0.59077	0.50391
4.014	6.5678	-29403	2139.6	-0.64201	-0.59009	0.50176
4.016	6.5829	-29399	2139.7	-0.64338	-0.58941	0.49961
4.018	6.6246	-29399	2139.8	-0.64475	-0.58872	0.49747
4.02	6.6628	-29399	2139.9	-0.64611	-0.58804	0.49532
4.022	6.7029	-29405	2140	-0.64426	-0.58863	0.49464
4.024	6.6735	-29412	2140	-0.6424	-0.58921	0.49395
4.026	6.6334	-29413	2140.3	-0.64055	-0.5898	0.49327
4.028	6.5942	-29414	2140.6	-0.63869	-0.59038	0.49259
4.03	6.5565	-29418	2140.9	-0.63684	-0.59097	0.4919
4.032	6.5785	-29422	2141.4	-0.63811	-0.59155	0.49278
4.034	6.6249	-29419	2141.9	-0.63938	-0.59214	0.49366
4.036	6.6778	-29416	2142.4	-0.64065	-0.59272	0.49454
4.038	6.711	-29414	2143	-0.64192	-0.59331	0.49542
4.04	6.6942	-29413	2143.6	-0.64318	-0.5939	0.4963
4.042	6.6507	-29414	2144.2	-0.64426	-0.59448	0.4963
4.044	6.6147	-29416	2144.9	-0.64533	-0.59507	0.4963
4.046	6.5933	-29417	2145.6	-0.6464	-0.59565	0.4963
4.048	6.5924	-29418	2146.3	-0.64748	-0.59624	0.4963
4.05	6.6276	-29419	2147	-0.64855	-0.59682	0.4963
4.052	6.675	-29420	2147.6	-0.64884	-0.59643	0.4963
4.054	6.7166	-29415	2148.2	-0.64914	-0.59604	0.4963
4.056	6.7205	-29410	2148.7	-0.64943	-0.59565	0.4963
4.058	6.6932	-29408	2149.2	-0.64972	-0.59526	0.4963
4.06	6.6635	-29406	2149.7	-0.65002	-0.59487	0.4963
4.062	6.6315	-29407	2150.2	-0.64806	-0.59438	0.49747
4.064	6.6204	-29407	2150.7	-0.64611	-0.5939	0.49864
4.066	6.6439	-29413	2151.1	-0.64416	-0.59341	0.49981
4.068	6.6782	-29418	2151.6	-0.64221	-0.59292	0.50098
4.07	6.7176	-29414	2152	-0.64026	-0.59243	0.50215
4.072	6.747	-29410	2152.4	-0.64172	-0.59058	0.50079
4.074	6.7292	-29406	2152.7	-0.64318	-0.58872	0.49942
4.076	6.6846	-29402	2152.9	-0.64465	-0.58687	0.49805
4.078	6.6534	-29406	2153	-0.64611	-0.58501	0.49669
4.08	6.634	-29410	2153.2	-0.64758	-0.58316	0.49532
4.082	6.638	-29406	2153.3	-0.6465	-0.58287	0.49473
4.084	6.6789	-29402	2153.4	-0.64543	-0.58257	0.49415
4.086	6.7328	-29397	2153.4	-0.64436	-0.58228	0.49356
4.088	6.7761	-29393	2153.4	-0.64328	-0.58199	0.49298
4.09	6.7762	-29388	2153.3	-0.64221	-0.5817	0.49239
4.092	6.727	-29384	2153.2	-0.6427	-0.58101	0.49259
4.094	6.6722	-29386	2153	-0.64318	-0.58033	0.49278
4.096	6.6492	-29387	2152.8	-0.64367	-0.57965	0.49298
4.098	6.6562	-29388	2152.5	-0.64416	-0.57896	0.49317
4.1	6.6889	-29389	2152.2	-0.64465	-0.57828	0.49337
4.102	6.7385	-29386	2152	-0.64426	-0.57896	0.49327
4.104	6.7645	-29384	2151.7	-0.64387	-0.57965	0.49317
4.106	6.7829	-29383	2151.4	-0.64348	-0.58033	0.49308
4.108	6.7543	-29383	2151.1	-0.64309	-0.58101	0.49298
4.11	6.6982	-29381	2150.8	-0.6427	-0.5817	0.49288
4.112	6.6568	-29378	2150.5	-0.6424	-0.58218	0.49268
4.114	6.6292	-29374	2150.2	-0.64211	-0.58267	0.49249
4.116	6.6592	-29370	2149.9	-0.64182	-0.58316	0.49229
4.118	6.7101	-29370	2149.5	-0.64152	-0.58365	0.4921
4.12	6.75	-29370	2149.2	-0.64123	-0.58414	0.4919
4.122	6.775	-29372	2148.9	-0.64143	-0.58501	0.49298
4.124	6.7655	-29373	2148.5	-0.64162	-0.58589	0.49405
4.126	6.7106	-29371	2148.2	-0.64182	-0.58677	0.49512
4.128	6.6588	-29368	2147.8	-0.64201	-0.58765	0.4962
4.13	6.6216	-29365	2147.5	-0.64221	-0.58853	0.49727
4.132	6.6257	-29361	2147.2	-0.64162	-0.58853	0.49786
4.134	6.6661	-29359	2146.9	-0.64104	-0.58853	0.49844
4.136	6.7211	-29356	2146.6	-0.64045	-0.58853	0.49903
4.138	6.7514	-29362	2146.4	-0.63987	-0.58853	0.49961
4.14	6.7393	-29369	2146.1	-0.63928	-0.58853	0.5002
4.142	6.6928	-29364	2145.9	-0.63772	-0.58882	0.50088
4.144	6.6374	-29360	2145.8	-0.63616	-0.58911	0.50157
4.146	6.6024	-29353	2145.7	-0.6346	-0.58941	0.50225
4.148	6.5963	-29347	2145.6	-0.63303	-0.5897	0.50293
4.15	6.6278	-29345	2145.5	-0.63147	-0.58999	0.50362
4.152	6.6776	-29343	2145.3	-0.63206	-0.59019	0.50362
4.154	6.7123	-29345	2145.2	-0.63264	-0.59038	0.50362
4.156	6.7148	-29347	2145.1	-0.63323	-0.59058	0.50362
4.158	6.6798	-29351	2145.1	-0.63381	-0.59077	0.50362
4.16	6.6289	-29354	2145	-0.6344	-0.59097	0.50362
4.162	6.5885	-29349	2144.9	-0.63616	-0.59009	0.50284
4.164	6.5799	-29344	2144.8	-0.63791	-0.58921	0.50205
4.166	6.6145	-29343	2144.7	-0.63967	-0.58833	0.50127
4.168	6.6626	-29341	2144.6	-0.64143	-0.58745	0.50049
4.17	6.6964	-29342	2144.5	-0.64318	-0.58658	0.49971
4.172	6.709	-29342	2144.3	-0.64309	-0.58658	0.49961
4.174	6.6924	-29343	2144.1	-0.64299	-0.58658	0.49952
4.176	6.6547	-29344	2143.9	-0.64289	-0.58658	0.49942
4.178	6.6062	-29345	2143.7	-0.64279	-0.58658	0.49932
4.18	6.579	-29346	2143.4	-0.6427	-0.58658	0.49922
4.182	6.5801	-29347	2143.1	-0.64426	-0.58628	0.49786
4.184	6.6157	-29347	2142.9	-0.64582	-0.58599	0.49649
4.186	6.6635	-29346	2142.6	-0.64738	-0.5857	0.49512
4.188	6.7031	-29345	2142.4	-0.64894	-0.5854	0.49376
4.19	6.7028	-29344	2142.2	-0.6505	-0.58511	0.49239
4.192	6.6623	-29343	2142	-0.64953	-0.58462	0.4922
4.194	6.6153	-29341	2141.8	-0.64855	-0.58414	0.492
4.196	6.5957	-29340	2141.6	-0.64758	-0.58365	0.49181
4.198	6.5915	-29342	2141.4	-0.6466	-0.58316	0.49161
4.2	6.6105	-29345	2141.3	-0.64562	-0.58267	0.49142
4.202	6.6539	-29342	2141.1	-0.64582	-0.58257	0.49161
4.204	6.6997	-29339	2140.9	-0.64601	-0.58248	0.49181
4.206	6.7083	-29336	2140.7	-0.64621	-0.58238	0.492
4.208	6.6763	-29333	2140.5	-0.6464	-0.58228	0.4922
4.21	6.6093	-29334	2140.3	-0.6466	-0.58218	0.49239
4.212	6.5517	-29336	2140.1	-0.6467	-0.58257	0.49278
4.214	6.5512	-29338	2139.9	-0.6468	-0.58296	0.49317
4.216	6.5919	-29341	2139.7	-0.64689	-0.58336	0.49356
4.218	6.6393	-29340	2139.6	-0.64699	-0.58375	0.49395
4.22	6.6777	-29339	2139.5	-0.64709	-0.58414	0.49434
4.222	6.6962	-29331	2139.5	-0.64709	-0.58394	0.49395
4.224	6.6824	-29323	2139.5	-0.64709	-0.58375	0.49356
4.226	6.6405	-29327	2139.5	-0.64709	-0.58355	0.49317
4.228	6.5901	-29330	2139.5	-0.64709	-0.58336	0.49278
4.23	6.5647	-29338	2139.5	-0.64709	-0.58316	0.49239
4.232	6.5776	-29346	2139.5	-0.64845	-0.58521	0.49386
4.234	6.6123	-29346	2139.5	-0.64982	-0.58726	0.49532
4.236	6.6529	-29346	2139.5	-0.65119	-0.58931	0.49678
4.238	6.6795	-29343	2139.5	-0.65255	-0.59136	0.49825
4.24	6.6768	-29339	2139.4	-0.65392	-0.59341	0.49971
4.242	6.6503	-29340	2139.5	-0.65412	-0.59272	0.49961
4.244	6.6092	-29341	2139.5	-0.65431	-0.59204	0.49952
4.246	6.5723	-29346	2139.6	-0.65451	-0.59136	0.49942
4.248	6.5724	-29351	2139.6	-0.6547	-0.59068	0.49932
4.25	6.6063	-29343	2139.6	-0.6549	-0.58999	0.49922
4.252	6.6444	-29335	2139.7	-0.65324	-0.58931	0.49971
4.254	6.6783	-29337	2139.7	-0.65158	-0.58863	0.5002
4.256	6.6913	-29339	2139.7	-0.64992	-0.58794	0.50069
4.258	6.6677	-29346	2139.7	-0.64826	-0.58726	0.50118
4.26	6.6253	-29354	2139.6	-0.6466	-0.58658	0.50166
4.262	6.5859	-29356	2139.6	-0.64582	-0.58687	0.50196
4.264	6.5727	-29359	2139.6	-0.64504	-0.58716	0.50225
4.266	6.6012	-29353	2139.6	-0.64426	-0.58745	0.50254
4.268	6.6487	-29347	2139.6	-0.64348	-0.58775	0.50284
4.27	6.6919	-29351	2139.6	-0.6427	-0.58804	0.50313
4.272	6.713	-29355	2139.5	-0.64348	-0.58765	0.50147
4.274	6.6972	-29358	2139.4	-0.64426	-0.58726	0.49981
4.276	6.6493	-29361	2139.4	-0.64504	-0.58687	0.49815
4.278	6.5973	-29355	2139.4	-0.64582	-0.58648	0.49649
4.28	6.5824	-29349	2139.3	-0.6466	-0.58609	0.49483
4.282	6.5988	-29355	2139.3	-0.6466	-0.5857	0.49512
4.284	6.6411	-29361	2139.3	-0.6466	-0.58531	0.49542
4.286	6.6903	-29361	2139.3	-0.6466	-0.58492	0.49571
4.288	6.7283	-29361	2139.3	-0.6466	-0.58453	0.496
4.29	6.7322	-29356	2139.3	-0.6466	-0.58414	0.4963
4.292	6.7042	-29350	2139.3	-0.6466	-0.58443	0.49639
4.294	6.6625	-29350	2139.4	-0.6466	-0.58472	0.49649
4.296	6.6225	-29350	2139.4	-0.6466	-0.58501	0.49659
4.298	6.6148	-29356	2139.5	-0.6466	-0.58531	0.49669
4.3	6.6449	-29361	2139.6	-0.6466	-0.5856	0.49678
4.302	6.6931	-29364	2139.6	-0.64699	-0.58609	0.49688
4.304	6.7339	-29368	2139.7	-0.64738	-0.58658	0.49698
4.306	6.7315	-29363	2139.8	-0.64777	-0.58706	0.49708
4.308	6.6973	-29358	2139.9	-0.64816	-0.58755	0.49717
4.31	6.6569	-29357	2140	-0.64855	-0.58804	0.49727
4.312	6.6242	-29356	2140.1	-0.64826	-0.58794	0.49747
4.314	6.6095	-29363	2140.2	-0.64797	-0.58784	0.49766
4.316	6.6277	-29370	2140.3	-0.64767	-0.58775	0.49786
4.318	6.6623	-29367	2140.5	-0.64738	-0.58765	0.49805
4.32	6.6935	-29364	2140.6	-0.64709	-0.58755	0.49825
4.322	6.7059	-29366	2140.7	-0.6467	-0.58736	0.49874
4.324	6.6791	-29369	2140.8	-0.64631	-0.58716	0.49922
4.326	6.6309	-29370	2141	-0.64592	-0.58697	0.49971
4.328	6.5889	-29372	2141.2	-0.64553	-0.58677	0.5002
4.33	6.5649	-29370	2141.3	-0.64514	-0.58658	0.50069
4.332	6.5725	-29368	2141.5	-0.64572	-0.58658	0.50059
4.334	6.6141	-29370	2141.6	-0.64631	-0.58658	0.50049
4.336	6.6677	-29372	2141.7	-0.64689	-0.58658	0.5004
4.338	6.7023	-29368	2141.7	-0.64748	-0.58658	0.5003
4.34	6.6953	-29364	2141.8	-0.64806	-0.58658	0.5002
4.342	6.652	-29369	2141.9	-0.64826	-0.58609	0.49991
4.344	6.6048	-29374	2142	-0.64845	-0.5856	0.49961
4.346	6.5711	-29376	2142.1	-0.64865	-0.58511	0.49932
4.348	6.5766	-29378	2142.2	-0.64884	-0.58462	0.49903
4.35	6.6121	-29374	2142.3	-0.64904	-0.58414	0.49874
4.352	6.6547	-29369	2142.3	-0.64972	-0.58414	0.49815
4.354	6.6904	-29374	2142.2	-0.65041	-0.58414	0.49756
4.356	6.6991	-29378	2142.2	-0.65109	-0.58414	0.49698
4.358	6.671	-29376	2142.2	-0.65177	-0.58414	0.49639
4.36	6.6223	-29374	2142.3	-0.65246	-0.58414	0.49581
4.362	6.5816	-29374	2142.2	-0.65148	-0.58345	0.49678
4.364	6.5679	-29375	2142.1	-0.6505	-0.58277	0.49776
4.366	6.5921	-29376	2142.1	-0.64953	-0.58209	0.49874
4.368	6.6447	-29378	2142.1	-0.64855	-0.5814	0.49971
4.37	6.6861	-29379	2142.1	-0.64758	-0.58072	0.50069
4.372	6.7193	-29380	2142	-0.64797	-0.58033	0.49991
4.374	6.7096	-29382	2142	-0.64836	-0.57994	0.49913
4.376	6.6618	-29384	2141.9	-0.64875	-0.57955	0.49835
4.378	6.6147	-29380	2141.8	-0.64914	-0.57916	0.49756
4.38	6.588	-29377	2141.8	-0.64953	-0.57877	0.49678
4.382	6.5837	-29378	2141.7	-0.64777	-0.57916	0.49737
4.384	6.6198	-29379	2141.6	-0.64601	-0.57955	0.49796
4.386	6.6587	-29380	2141.5	-0.64426	-0.57994	0.49854
4.388	6.6821	-29381	2141.5	-0.6425	-0.58033	0.49913
4.39	6.6826	-29381	2141.4	-0.64074	-0.58072	0.49971
4.392	6.6589	-29381	2141.3	-0.64143	-0.58052	0.49893
4.394	6.6187	-29384	2141.2	-0.64211	-0.58033	0.49815
4.396	6.5984	-29387	2141.1	-0.64279	-0.58013	0.49737
4.398	6.6186	-29386	2141.1	-0.64348	-0.57994	0.49659
4.4	6.6702	-29384	2141	-0.64416	-0.57974	0.49581
4.402	6.7315	-29385	2141	-0.64406	-0.57984	0.49561
4.404	6.7821	-29386	2141	-0.64396	-0.57994	0.49542
4.406	6.7937	-29387	2141	-0.64387	-0.58004	0.49522
4.408	6.7582	-29388	2141.1	-0.64377	-0.58013	0.49503
4.41	6.7126	-29390	2141.2	-0.64367	-0.58023	0.49483
4.412	6.6604	-29391	2141.2	-0.6424	-0.58189	0.49473
4.414	6.6017	-29389	2141.3	-0.64113	-0.58355	0.49464
4.416	6.5703	-29386	2141.4	-0.63987	-0.58521	0.49454
4.418	6.5712	-29388	2141.6	-0.6386	-0.58687	0.49444
4.42	6.5831	-29390	2141.7	-0.63733	-0.58853	0.49434
4.422	6.5789	-29390	2141.8	-0.63801	-0.58765	0.49386
4.424	6.5366	-29390	2142	-0.63869	-0.58677	0.49337
4.426	6.4781	-29390	2142.1	-0.63938	-0.58589	0.49288
4.428	6.4369	-29391	2142.2	-0.64006	-0.58501	0.49239
4.43	6.429	-29387	2142.4	-0.64074	-0.58414	0.4919
4.432	6.4643	-29383	2142.5	-0.64192	-0.58443	0.49249
4.434	6.5329	-29381	2142.6	-0.64309	-0.58472	0.49308
4.436	6.5973	-29379	2142.8	-0.64426	-0.58501	0.49366
4.438	6.6411	-29391	2143	-0.64543	-0.58531	0.49425
4.44	6.656	-29403	2143.1	-0.6466	-0.5856	0.49483
4.442	6.6278	-29396	2143.2	-0.64582	-0.5858	0.49454
4.444	6.5863	-29390	2143.3	-0.64504	-0.58599	0.49425
4.446	6.5656	-29387	2143.5	-0.64426	-0.58619	0.49395
4.448	6.567	-29384	2143.6	-0.64348	-0.58638	0.49366
4.45	6.5968	-29388	2143.8	-0.6427	-0.58658	0.49337
4.452	6.6469	-29392	2144	-0.64289	-0.58716	0.49366
4.454	6.6895	-29396	2144.2	-0.64309	-0.58775	0.49395
4.456	6.6958	-29401	2144.5	-0.64328	-0.58833	0.49425
4.458	6.6636	-29407	2144.7	-0.64348	-0.58892	0.49454
4.46	6.6194	-29413	2144.9	-0.64367	-0.5895	0.49483
4.462	6.5801	-29405	2145.2	-0.64494	-0.5895	0.49532
4.464	6.5614	-29397	2145.5	-0.64621	-0.5895	0.49581
4.466	6.5749	-29402	2145.8	-0.64748	-0.5895	0.4963
4.468	6.6316	-29406	2146	-0.64875	-0.5895	0.49678
4.47	6.676	-29406	2146.3	-0.65002	-0.5895	0.49727
4.472	6.6926	-29406	2146.5	-0.65128	-0.59028	0.49766
4.474	6.6614	-29400	2146.8	-0.65255	-0.59107	0.49805
4.476	6.6178	-29395	2147	-0.65382	-0.59185	0.49844
4.478	6.5869	-29398	2147.1	-0.65509	-0.59263	0.49883
4.48	6.5652	-29402	2147.2	-0.65636	-0.59341	0.49922
4.482	6.5732	-29405	2147.1	-0.65616	-0.59312	0.49922
4.484	6.6098	-29409	2147.1	-0.65597	-0.59282	0.49922
4.486	6.651	-29403	2147.1	-0.65577	-0.59253	0.49922
4.488	6.6861	-29396	2147.1	-0.65558	-0.59224	0.49922
4.49	6.6879	-29402	2147.1	-0.65538	-0.59194	0.49922
4.492	6.6528	-29408	2147.1	-0.65412	-0.59214	0.49961
4.494	6.6047	-29401	2147.1	-0.65285	-0.59233	0.5
4.496	6.5769	-29395	2147	-0.65158	-0.59253	0.5004
4.498	6.58	-29399	2146.9	-0.65031	-0.59272	0.50079
4.5	6.6093	-29403	2146.8	-0.64904	-0.59292	0.50118
4.502	6.6532	-29404	2146.7	-0.64904	-0.59185	0.50098
4.504	6.6929	-29406	2146.7	-0.64904	-0.59077	0.50079
4.506	6.7002	-29408	2146.6	-0.64904	-0.5897	0.50059
4.508	6.6692	-29410	2146.6	-0.64904	-0.58863	0.5004
4.51	6.6265	-29408	2146.6	-0.64904	-0.58755	0.5002
4.512	6.5871	-29405	2146.6	-0.64767	-0.58872	0.50186
4.514	6.5726	-29413	2146.7	-0.64631	-0.58989	0.50352
4.516	6.5946	-29420	2146.7	-0.64494	-0.59107	0.50518
4.518	6.6436	-29416	2146.8	-0.64357	-0.59224	0.50684
4.52	6.6887	-29413	2146.8	-0.64221	-0.59341	0.5085
4.522	6.7101	-29408	2146.9	-0.64065	-0.59341	0.50762
4.524	6.6893	-29403	2147	-0.63908	-0.59341	0.50674
4.526	6.6402	-29409	2147.2	-0.63752	-0.59341	0.50586
4.528	6.5936	-29416	2147.4	-0.63596	-0.59341	0.50498
4.53	6.5797	-29415	2147.6	-0.6344	-0.59341	0.5041
4.532	6.6057	-29413	2147.9	-0.63538	-0.59419	0.50196
4.534	6.6423	-29411	2148.2	-0.63635	-0.59497	0.49981
4.536	6.6903	-29408	2148.6	-0.63733	-0.59575	0.49766
4.538	6.7234	-29413	2149.1	-0.6383	-0.59653	0.49552
4.54	6.7139	-29418	2149.5	-0.63928	-0.59731	0.49337
4.542	6.6594	-29415	2150	-0.63899	-0.5976	0.49317
4.544	6.6196	-29412	2150.4	-0.63869	-0.5979	0.49298
4.546	6.5909	-29412	2151	-0.6384	-0.59819	0.49278
4.548	6.5758	-29411	2151.6	-0.63811	-0.59848	0.49259
4.55	6.6319	-29418	2152.2	-0.63782	-0.59878	0.49239
4.552	6.689	-29425	2152.8	-0.63918	-0.59829	0.49327
4.554	6.7217	-29426	2153.5	-0.64055	-0.5978	0.49415
4.556	6.7387	-29427	2154.1	-0.64192	-0.59731	0.49503
4.558	6.7151	-29427	2154.8	-0.64328	-0.59682	0.49591
4.56	6.6636	-29426	2155.5	-0.64465	-0.59634	0.49678
4.562	6.6261	-29429	2156.3	-0.64211	-0.59556	0.49776
4.564	6.6056	-29431	2157	-0.63957	-0.59477	0.49874
4.566	6.6306	-29428	2157.7	-0.63704	-0.59399	0.49971
4.568	6.685	-29425	2158.3	-0.6345	-0.59321	0.50069
4.57	6.7316	-29416	2158.9	-0.63196	-0.59243	0.50166
4.572	6.7511	-29406	2159.5	-0.63274	-0.59263	0.50137
4.574	6.737	-29408	2160.1	-0.63352	-0.59282	0.50108
4.576	6.6984	-29410	2160.6	-0.6343	-0.59302	0.50079
4.578	6.6577	-29408	2161.1	-0.63508	-0.59321	0.50049
4.58	6.6352	-29406	2161.6	-0.63586	-0.59341	0.5002
4.582	6.6525	-29405	2162	-0.63557	-0.59331	0.50079
4.584	6.7004	-29405	2162.4	-0.63528	-0.59321	0.50137
4.586	6.7424	-29404	2162.7	-0.63499	-0.59312	0.50196
4.588	6.762	-29404	2163	-0.63469	-0.59302	0.50254
4.59	6.7562	-29402	2163.3	-0.6344	-0.59292	0.50313
4.592	6.7307	-29399	2163.4	-0.6344	-0.59175	0.50342
4.594	6.7001	-29399	2163.5	-0.6344	-0.59058	0.50371
4.596	6.6698	-29399	2163.6	-0.6344	-0.58941	0.50401
4.598	6.6594	-29399	2163.6	-0.6344	-0.58824	0.5043
4.6	6.686	-29398	2163.5	-0.6344	-0.58706	0.50459
4.602	6.7327	-29397	2163.3	-0.63577	-0.58716	0.50371
4.604	6.7669	-29396	2163.1	-0.63713	-0.58726	0.50284
