t	ekg	optical	pressure	accel_x	accel_y	accel_z
0	25.472	-36528	4256	-0.62366	-0.58316	-0.4963
0.002	25.468	-36525	4253.3	-0.62288	-0.58336	-0.49688
0.004	25.47	-36522	4250.6	-0.6221	-0.58355	-0.49747
0.006	25.482	-36527	4247.8	-0.62132	-0.58375	-0.49805
0.008	25.483	-36532	4245	-0.62054	-0.58394	-0.49864
0.01	25.474	-36524	4242.2	-0.61976	-0.58414	-0.49922
0.012	25.47	-36515	4239.3	-0.62074	-0.58384	-0.49922
0.014	25.466	-36516	4236.4	-0.62171	-0.58355	-0.49922
0.016	25.473	-36518	4233.4	-0.62269	-0.58326	-0.49922
0.018	25.482	-36507	4230.5	-0.62366	-0.58296	-0.49922
0.02	25.479	-36496	4227.6	-0.62464	-0.58267	-0.49922
0.022	25.478	-36503	4224.9	-0.62249	-0.58336	-0.49971
0.024	25.455	-36509	4222.2	-0.62035	-0.58404	-0.5002
0.026	25.438	-36509	4219.5	-0.6182	-0.58472	-0.50069
0.028	25.471	-36509	4216.9	-0.61605	-0.5854	-0.50118
0.03	25.497	-36513	4214.3	-0.6139	-0.58609	-0.50166
0.032	25.48	-36518	4211.8	-0.61459	-0.5856	-0.50166
0.034	25.436	-36513	4209.4	-0.61527	-0.58511	-0.50166
0.036	25.457	-36508	4207	-0.61595	-0.58462	-0.50166
0.038	25.492	-36501	4204.7	-0.61664	-0.58414	-0.50166
0.04	25.486	-36495	4202.4	-0.61732	-0.58365	-0.50166
0.042	25.505	-36495	4200.4	-0.61761	-0.58287	-0.50127
0.044	25.505	-36494	4198.5	-0.61791	-0.58209	-0.50088
0.046	25.443	-36499	4196.6	-0.6182	-0.58131	-0.50049
0.048	25.402	-36504	4194.9	-0.61849	-0.58052	-0.5001
0.05	25.44	-36503	4193.1	-0.61878	-0.57974	-0.49971
0.052	25.456	-36501	4191.2	-0.6183	-0.57974	-0.5002
0.054	25.464	-36496	4189.4	-0.61781	-0.57974	-0.50069
0.056	25.472	-36491	4187.5	-0.61732	-0.57974	-0.50118
0.058	25.479	-36488	4185.7	-0.61683	-0.57974	-0.50166
0.06	25.472	-36485	4183.9	-0.61634	-0.57974	-0.50215
0.062	25.456	-36487	4182.2	-0.61673	-0.57877	-0.50186
0.064	25.46	-36489	4180.4	-0.61712	-0.57779	-0.50157
0.066	25.46	-36491	4178.7	-0.61752	-0.57682	-0.50127
0.068	25.479	-36494	4177.1	-0.61791	-0.57584	-0.50098
0.07	25.47	-36492	4175.4	-0.6183	-0.57486	-0.50069
0.072	25.461	-36490	4173.7	-0.61849	-0.57545	-0.50079
0.074	25.471	-36492	4172	-0.61869	-0.57604	-0.50088
0.076	25.478	-36493	4170.3	-0.61888	-0.57662	-0.50098
0.078	25.452	-36490	4168.6	-0.61908	-0.57721	-0.50108
0.08	25.438	-36487	4167	-0.61927	-0.57779	-0.50118
0.082	25.441	-36491	4165.4	-0.61898	-0.57838	-0.50059
0.084	25.449	-36495	4163.8	-0.61869	-0.57896	-0.5
0.086	25.474	-36493	4162.3	-0.61839	-0.57955	-0.49942
0.088	25.482	-36490	4160.8	-0.6181	-0.58013	-0.49883
0.09	25.462	-36490	4159.4	-0.61781	-0.58072	-0.49825
0.092	25.456	-36491	4158.1	-0.61761	-0.58013	-0.49942
0.094	25.463	-36491	4156.9	-0.61742	-0.57955	-0.50059
0.096	25.461	-36491	4155.8	-0.61722	-0.57896	-0.50176
0.098	25.454	-36490	4154.8	-0.61703	-0.57838	-0.50293
0.1	25.456	-36490	4153.8	-0.61683	-0.57779	-0.5041
0.102	25.472	-36488	4153	-0.61722	-0.57906	-0.50235
0.104	25.48	-36487	4152.2	-0.61761	-0.58033	-0.50059
0.106	25.466	-36488	4151.5	-0.618	-0.5816	-0.49883
0.108	25.457	-36488	4150.9	-0.61839	-0.58287	-0.49708
0.11	25.465	-36491	4150.4	-0.61878	-0.58414	-0.49532
0.112	25.47	-36494	4150.2	-0.61849	-0.58443	-0.49659
0.114	25.471	-36490	4149.9	-0.6182	-0.58472	-0.49786
0.116	25.451	-36486	4149.9	-0.61791	-0.58501	-0.49913
0.118	25.436	-36491	4150.2	-0.61761	-0.58531	-0.5004
0.12	25.418	-36496	4150.5	-0.61732	-0.5856	-0.50166
0.122	25.452	-36493	4151	-0.61732	-0.58609	-0.50284
0.124	25.488	-36490	4151.6	-0.61732	-0.58658	-0.50401
0.126	25.509	-36488	4152.2	-0.61732	-0.58706	-0.50518
0.128	25.501	-36486	4152.8	-0.61732	-0.58755	-0.50635
0.13	25.478	-36493	4153.5	-0.61732	-0.58804	-0.50752
0.132	25.467	-36500	4154.4	-0.61703	-0.58765	-0.50664
0.134	25.468	-36497	4155.3	-0.61673	-0.58726	-0.50576
0.136	25.489	-36493	4156.2	-0.61644	-0.58687	-0.50488
0.138	25.473	-36494	4157.3	-0.61615	-0.58648	-0.50401
0.14	25.464	-36494	4158.3	-0.61586	-0.58609	-0.50313
0.142	25.48	-36494	4159.4	-0.61605	-0.58609	-0.50284
0.144	25.491	-36495	4160.5	-0.61625	-0.58609	-0.50254
0.146	25.474	-36498	4161.6	-0.61644	-0.58609	-0.50225
0.148	25.478	-36502	4162.9	-0.61664	-0.58609	-0.50196
0.15	25.466	-36498	4164.2	-0.61683	-0.58609	-0.50166
0.152	25.457	-36495	4165.5	-0.61712	-0.5856	-0.50108
0.154	25.456	-36492	4166.8	-0.61742	-0.58511	-0.50049
0.156	25.459	-36489	4168.1	-0.61771	-0.58462	-0.49991
0.158	25.459	-36491	4169.4	-0.618	-0.58414	-0.49932
0.16	25.455	-36492	4170.7	-0.6183	-0.58365	-0.49874
0.162	25.448	-36494	4171.8	-0.61956	-0.58296	-0.49883
0.164	25.442	-36496	4173	-0.62083	-0.58228	-0.49893
0.166	25.441	-36499	4174.1	-0.6221	-0.5816	-0.49903
0.168	25.463	-36502	4175.2	-0.62337	-0.58092	-0.49913
0.17	25.496	-36499	4176.2	-0.62464	-0.58023	-0.49922
0.172	25.495	-36495	4177.2	-0.62532	-0.58131	-0.49883
0.174	25.46	-36495	4178.1	-0.62601	-0.58238	-0.49844
0.176	25.444	-36494	4179	-0.62669	-0.58345	-0.49805
0.178	25.454	-36494	4179.8	-0.62737	-0.58453	-0.49766
0.18	25.463	-36494	4180.6	-0.62806	-0.5856	-0.49727
0.182	25.466	-36493	4181.2	-0.62591	-0.58423	-0.49835
0.184	25.465	-36491	4181.8	-0.62376	-0.58287	-0.49942
0.186	25.465	-36491	4182.3	-0.62161	-0.5815	-0.50049
0.188	25.46	-36492	4182.6	-0.61947	-0.58013	-0.50157
0.19	25.457	-36492	4182.9	-0.61732	-0.57877	-0.50264
0.192	25.458	-36492	4183.1	-0.61712	-0.57945	-0.50196
0.194	25.463	-36491	4183.2	-0.61693	-0.58013	-0.50127
0.196	25.473	-36490	4183.3	-0.61673	-0.58082	-0.50059
0.198	25.463	-36490	4183.3	-0.61654	-0.5815	-0.49991
0.2	25.448	-36490	4183.4	-0.61634	-0.58218	-0.49922
0.202	25.477	-36492	4183.7	-0.6181	-0.58199	-0.49874
0.204	25.466	-36493	4184	-0.61986	-0.58179	-0.49825
0.206	25.409	-36491	4184.2	-0.62161	-0.5816	-0.49776
0.208	25.45	-36489	4184.4	-0.62337	-0.5814	-0.49727
0.21	25.448	-36486	4184.6	-0.62513	-0.58121	-0.49678
0.212	25.431	-36483	4184.7	-0.62503	-0.58072	-0.49669
0.214	25.42	-36483	4184.7	-0.62493	-0.58023	-0.49659
0.216	25.422	-36483	4184.7	-0.62484	-0.57974	-0.49649
0.218	25.45	-36487	4184.6	-0.62474	-0.57926	-0.49639
0.22	25.476	-36492	4184.5	-0.62464	-0.57877	-0.4963
0.222	25.472	-36490	4184.4	-0.62425	-0.57896	-0.49659
0.224	25.466	-36488	4184.3	-0.62386	-0.57916	-0.49688
0.226	25.442	-36488	4184.1	-0.62347	-0.57935	-0.49717
0.228	25.443	-36488	4183.9	-0.62308	-0.57955	-0.49747
0.23	25.449	-36490	4183.7	-0.62269	-0.57974	-0.49776
0.232	25.459	-36492	4183.4	-0.62249	-0.57935	-0.49796
0.234	25.469	-36491	4183	-0.6223	-0.57896	-0.49815
0.236	25.473	-36489	4182.6	-0.6221	-0.57857	-0.49835
0.238	25.45	-36487	4182.2	-0.62191	-0.57818	-0.49854
0.24	25.43	-36486	4181.8	-0.62171	-0.57779	-0.49874
0.242	25.429	-36488	4181.2	-0.6224	-0.57906	-0.49854
0.244	25.437	-36490	4180.7	-0.62308	-0.58033	-0.49835
0.246	25.445	-36488	4180.1	-0.62376	-0.5816	-0.49815
0.248	25.452	-36485	4179.4	-0.62444	-0.58287	-0.49796
0.25	25.459	-36483	4178.8	-0.62513	-0.58414	-0.49776
0.252	25.457	-36480	4178	-0.62503	-0.58296	-0.49766
0.254	25.449	-36484	4177.3	-0.62493	-0.58179	-0.49756
0.256	25.443	-36489	4176.5	-0.62484	-0.58062	-0.49747
0.258	25.436	-36487	4175.5	-0.62474	-0.57945	-0.49737
0.26	25.43	-36486	4174.6	-0.62464	-0.57828	-0.49727
0.262	25.445	-36482	4173.5	-0.62376	-0.57916	-0.49717
0.264	25.468	-36477	4172.4	-0.62288	-0.58004	-0.49708
0.266	25.471	-36478	4171.1	-0.622	-0.58092	-0.49698
0.268	25.463	-36479	4169.8	-0.62113	-0.58179	-0.49688
0.27	25.457	-36484	4168.4	-0.62025	-0.58267	-0.49678
0.272	25.448	-36489	4166.9	-0.62171	-0.58326	-0.49717
0.274	25.442	-36490	4165.3	-0.62318	-0.58384	-0.49756
0.276	25.442	-36491	4163.6	-0.62464	-0.58443	-0.49796
0.278	25.448	-36478	4161.9	-0.6261	-0.58501	-0.49835
0.28	25.453	-36466	4160.2	-0.62757	-0.5856	-0.49874
0.282	25.453	-36468	4158.3	-0.62552	-0.58511	-0.49942
0.284	25.458	-36469	4156.5	-0.62347	-0.58462	-0.5001
0.286	25.468	-36477	4155	-0.62142	-0.58414	-0.50079
0.288	25.511	-36484	4153.8	-0.61937	-0.58365	-0.50147
0.29	25.469	-36484	4152.6	-0.61732	-0.58316	-0.50215
0.292	25.399	-36484	4151.4	-0.61712	-0.58316	-0.50215
0.294	25.375	-36485	4150.3	-0.61693	-0.58316	-0.50215
0.296	25.416	-36487	4149.1	-0.61673	-0.58316	-0.50215
0.298	25.452	-36488	4147.9	-0.61654	-0.58316	-0.50215
0.3	25.435	-36489	4146.7	-0.61634	-0.58316	-0.50215
0.302	25.428	-36487	4145.5	-0.61605	-0.58414	-0.50293
0.304	25.427	-36486	4144.3	-0.61576	-0.58511	-0.50371
0.306	25.432	-36489	4143.1	-0.61547	-0.58609	-0.50449
0.308	25.437	-36493	4142	-0.61517	-0.58706	-0.50528
0.31	25.462	-36496	4140.8	-0.61488	-0.58804	-0.50606
0.312	25.455	-36498	4139.6	-0.61527	-0.58726	-0.50401
0.314	25.443	-36497	4138.5	-0.61566	-0.58648	-0.50196
0.316	25.45	-36495	4137.3	-0.61605	-0.5857	-0.49991
0.318	25.45	-36494	4136.1	-0.61644	-0.58492	-0.49786
0.32	25.452	-36493	4134.9	-0.61683	-0.58414	-0.49581
0.322	25.448	-36491	4133.6	-0.61771	-0.58316	-0.4961
0.324	25.445	-36489	4132.3	-0.61859	-0.58218	-0.49639
0.326	25.44	-36489	4130.9	-0.61947	-0.58121	-0.49669
0.328	25.435	-36489	4129.6	-0.62035	-0.58023	-0.49698
0.33	25.445	-36487	4128.2	-0.62122	-0.57926	-0.49727
0.332	25.454	-36485	4126.8	-0.6223	-0.57984	-0.49678
0.334	25.445	-36489	4125.4	-0.62337	-0.58043	-0.4963
0.336	25.436	-36493	4124	-0.62444	-0.58101	-0.49581
0.338	25.434	-36491	4122.7	-0.62552	-0.5816	-0.49532
0.34	25.451	-36488	4121.4	-0.62659	-0.58218	-0.49483
0.342	25.453	-36488	4120.5	-0.62493	-0.58199	-0.49591
0.344	25.425	-36488	4119.6	-0.62327	-0.58179	-0.49698
0.346	25.434	-36489	4118.9	-0.62161	-0.5816	-0.49805
0.348	25.459	-36490	4118.5	-0.61996	-0.5814	-0.49913
0.35	25.442	-36495	4118	-0.6183	-0.58121	-0.5002
0.352	25.423	-36501	4117.7	-0.61908	-0.58013	-0.5003
0.354	25.423	-36499	4117.4	-0.61986	-0.57906	-0.5004
0.356	25.424	-36497	4117.1	-0.62064	-0.57799	-0.50049
0.358	25.434	-36498	4116.8	-0.62142	-0.57691	-0.50059
0.36	25.438	-36499	4116.5	-0.6222	-0.57584	-0.50069
0.362	25.427	-36499	4116.3	-0.62093	-0.57633	-0.50098
0.364	25.432	-36499	4116	-0.61966	-0.57682	-0.50127
0.366	25.439	-36505	4115.8	-0.61839	-0.5773	-0.50157
0.368	25.437	-36512	4115.6	-0.61712	-0.57779	-0.50186
0.37	25.438	-36511	4115.4	-0.61586	-0.57828	-0.50215
0.372	25.436	-36511	4115.2	-0.61673	-0.57799	-0.50215
0.374	25.434	-36503	4114.9	-0.61761	-0.57769	-0.50215
0.376	25.431	-36495	4114.7	-0.61849	-0.5774	-0.50215
0.378	25.425	-36499	4114.5	-0.61937	-0.57711	-0.50215
0.38	25.428	-36503	4114.2	-0.62025	-0.57682	-0.50215
0.382	25.445	-36504	4114	-0.61986	-0.57711	-0.50215
0.384	25.423	-36505	4113.7	-0.61947	-0.5774	-0.50215
0.386	25.415	-36508	4113.5	-0.61908	-0.57769	-0.50215
0.388	25.445	-36512	4113.2	-0.61869	-0.57799	-0.50215
0.39	25.434	-36516	4112.8	-0.6183	-0.57828	-0.50215
0.392	25.442	-36520	4112.7	-0.6181	-0.57857	-0.50205
0.394	25.446	-36519	4112.5	-0.61791	-0.57887	-0.50196
0.396	25.421	-36518	4112.4	-0.61771	-0.57916	-0.50186
0.398	25.429	-36514	4112.4	-0.61752	-0.57945	-0.50176
0.4	25.435	-36510	4112.3	-0.61732	-0.57974	-0.50166
0.402	25.428	-36506	4112.2	-0.61693	-0.57994	-0.50225
0.404	25.427	-36502	4112	-0.61654	-0.58013	-0.50284
0.406	25.436	-36511	4111.8	-0.61615	-0.58033	-0.50342
0.408	25.439	-36521	4111.5	-0.61576	-0.58052	-0.50401
0.41	25.445	-36520	4111.2	-0.61537	-0.58072	-0.50459
0.412	25.443	-36519	4110.7	-0.61566	-0.58062	-0.50371
0.414	25.431	-36512	4110.3	-0.61595	-0.58052	-0.50284
0.416	25.417	-36506	4109.9	-0.61625	-0.58043	-0.50196
0.418	25.429	-36518	4109.5	-0.61654	-0.58033	-0.50108
0.42	25.462	-36529	4109.1	-0.61683	-0.58023	-0.5002
0.422	25.456	-36528	4109.4	-0.61791	-0.58121	-0.50137
0.424	25.426	-36527	4109.8	-0.61898	-0.58218	-0.50254
0.426	25.419	-36524	4110.1	-0.62005	-0.58316	-0.50371
0.428	25.43	-36521	4110.4	-0.62113	-0.58414	-0.50488
0.43	25.451	-36526	4110.7	-0.6222	-0.58511	-0.50606
0.432	25.45	-36530	4110.9	-0.62161	-0.58462	-0.50459
0.434	25.414	-36531	4111.1	-0.62103	-0.58414	-0.50313
0.436	25.398	-36531	4111.3	-0.62044	-0.58365	-0.50166
0.438	25.42	-36530	4111.5	-0.61986	-0.58316	-0.5002
0.44	25.439	-36529	4111.8	-0.61927	-0.58267	-0.49874
0.442	25.441	-36529	4112	-0.61927	-0.58209	-0.49971
0.444	25.439	-36529	4112.3	-0.61927	-0.5815	-0.50069
0.446	25.432	-36531	4112.5	-0.61927	-0.58092	-0.50166
0.448	25.422	-36533	4112.7	-0.61927	-0.58033	-0.50264
0.45	25.421	-36531	4112.9	-0.61927	-0.57974	-0.50362
0.452	25.425	-36529	4112.9	-0.62015	-0.57926	-0.50352
0.454	25.429	-36532	4112.9	-0.62103	-0.57877	-0.50342
0.456	25.43	-36534	4112.9	-0.62191	-0.57828	-0.50332
0.458	25.434	-36535	4112.7	-0.62279	-0.57779	-0.50323
0.46	25.436	-36535	4112.6	-0.62366	-0.5773	-0.50313
0.462	25.438	-36539	4112.4	-0.62347	-0.57769	-0.50371
0.464	25.439	-36542	4112.2	-0.62327	-0.57808	-0.5043
0.466	25.431	-36545	4111.9	-0.62308	-0.57848	-0.50488
0.468	25.428	-36547	4111.5	-0.62288	-0.57887	-0.50547
0.47	25.448	-36544	4111.1	-0.62269	-0.57926	-0.50606
0.472	25.468	-36540	4110.8	-0.62142	-0.57965	-0.50479
0.474	25.456	-36543	4110.5	-0.62015	-0.58004	-0.50352
0.476	25.46	-36546	4110.3	-0.61888	-0.58043	-0.50225
0.478	25.446	-36547	4110.4	-0.61761	-0.58082	-0.50098
0.48	25.456	-36549	4110.4	-0.61634	-0.58121	-0.49971
0.482	25.461	-36551	4110.5	-0.61712	-0.58101	-0.49981
0.484	25.478	-36553	4110.7	-0.61791	-0.58082	-0.49991
0.486	25.476	-36548	4110.8	-0.61869	-0.58062	-0.5
0.488	25.455	-36544	4111.1	-0.61947	-0.58043	-0.5001
0.49	25.457	-36547	4111.3	-0.62025	-0.58023	-0.5002
0.492	25.465	-36550	4111.5	-0.61908	-0.58072	-0.5003
0.494	25.474	-36550	4111.7	-0.61791	-0.58121	-0.5004
0.496	25.476	-36551	4112	-0.61673	-0.5817	-0.50049
0.498	25.474	-36551	4112.1	-0.61556	-0.58218	-0.50059
0.5	25.465	-36552	4112.3	-0.61439	-0.58267	-0.50069
0.502	25.471	-36553	4112.5	-0.61449	-0.58326	-0.50059
0.504	25.48	-36555	4112.6	-0.61459	-0.58384	-0.50049
0.506	25.478	-36555	4112.7	-0.61468	-0.58443	-0.5004
0.508	25.473	-36554	4112.7	-0.61478	-0.58501	-0.5003
0.51	25.477	-36549	4112.8	-0.61488	-0.5856	-0.5002
0.512	25.482	-36544	4112.7	-0.61508	-0.58589	-0.5004
0.514	25.473	-36552	4112.7	-0.61527	-0.58619	-0.50059
0.516	25.465	-36560	4112.6	-0.61547	-0.58648	-0.50079
0.518	25.476	-36561	4112.4	-0.61566	-0.58677	-0.50098
0.52	25.474	-36561	4112.2	-0.61586	-0.58706	-0.50118
0.522	25.46	-36560	4111.9	-0.61673	-0.58599	-0.50088
0.524	25.458	-36559	4111.7	-0.61761	-0.58492	-0.50059
0.526	25.452	-36563	4111.4	-0.61849	-0.58384	-0.5003
0.528	25.441	-36568	4111.3	-0.61937	-0.58277	-0.5
0.53	25.432	-36567	4111.1	-0.62025	-0.5817	-0.49971
0.532	25.421	-36566	4110.8	-0.62005	-0.58101	-0.5
0.534	25.421	-36564	4110.6	-0.61986	-0.58033	-0.5003
0.536	25.423	-36563	4110.3	-0.61966	-0.57965	-0.50059
0.538	25.418	-36563	4109.9	-0.61947	-0.57896	-0.50088
0.54	25.418	-36563	4109.6	-0.61927	-0.57828	-0.50118
0.542	25.415	-36563	4109.1	-0.61986	-0.57799	-0.50069
0.544	25.417	-36564	4108.7	-0.62044	-0.57769	-0.5002
0.546	25.409	-36566	4108.2	-0.62103	-0.5774	-0.49971
0.548	25.418	-36568	4107.8	-0.62161	-0.57711	-0.49922
0.55	25.43	-36568	4107.4	-0.6222	-0.57682	-0.49874
0.552	25.426	-36568	4107.1	-0.6223	-0.5774	-0.49874
0.554	25.429	-36572	4106.9	-0.6224	-0.57799	-0.49874
0.556	25.41	-36576	4106.7	-0.62249	-0.57857	-0.49874
0.558	25.395	-36568	4106.3	-0.62259	-0.57916	-0.49874
0.56	25.387	-36560	4106	-0.62269	-0.57974	-0.49874
0.562	25.423	-36566	4105.7	-0.62132	-0.58111	-0.49883
0.564	25.436	-36571	4105.4	-0.61996	-0.58248	-0.49893
0.566	25.439	-36573	4105.1	-0.61859	-0.58384	-0.49903
0.568	25.433	-36575	4104.7	-0.61722	-0.58521	-0.49913
0.57	25.428	-36577	4104.3	-0.61586	-0.58658	-0.49922
0.572	25.432	-36579	4103.9	-0.61547	-0.58648	-0.5001
0.574	25.441	-36579	4103.5	-0.61508	-0.58638	-0.50098
0.576	25.419	-36579	4103.1	-0.61468	-0.58628	-0.50186
0.578	25.44	-36578	4102.8	-0.61429	-0.58619	-0.50274
0.58	25.443	-36577	4102.4	-0.6139	-0.58609	-0.50362
0.582	25.438	-36577	4102	-0.61439	-0.58609	-0.50371
0.584	25.44	-36576	4101.7	-0.61488	-0.58609	-0.50381
0.586	25.449	-36580	4101.2	-0.61537	-0.58609	-0.50391
0.588	25.452	-36584	4100.7	-0.61586	-0.58609	-0.50401
0.59	25.45	-36584	4100.2	-0.61634	-0.58609	-0.5041
0.592	25.45	-36584	4099.5	-0.61625	-0.5856	-0.50391
0.594	25.457	-36586	4098.9	-0.61615	-0.58511	-0.50371
0.596	25.468	-36587	4098.2	-0.61605	-0.58462	-0.50352
0.598	25.49	-36586	4097.5	-0.61595	-0.58414	-0.50332
0.6	25.511	-36586	4096.8	-0.61586	-0.58365	-0.50313
0.602	25.539	-36586	4096.2	-0.61683	-0.58316	-0.50342
0.604	25.562	-36586	4095.6	-0.61781	-0.58267	-0.50371
0.606	25.571	-36589	4095.1	-0.61878	-0.58218	-0.50401
0.608	25.554	-36592	4094.6	-0.61976	-0.5817	-0.5043
0.61	25.516	-36595	4094.1	-0.62074	-0.58121	-0.50459
0.612	25.488	-36599	4093.5	-0.62025	-0.58189	-0.50342
0.614	25.461	-36598	4092.9	-0.61976	-0.58257	-0.50225
0.616	25.431	-36597	4092.2	-0.61927	-0.58326	-0.50108
0.618	25.408	-36600	4091.5	-0.61878	-0.58394	-0.49991
0.62	25.385	-36603	4090.8	-0.6183	-0.58462	-0.49874
0.622	25.336	-36604	4090.1	-0.61752	-0.58423	-0.49971
0.624	25.292	-36605	4089.5	-0.61673	-0.58384	-0.50069
0.626	25.273	-36607	4088.9	-0.61595	-0.58345	-0.50166
0.628	25.261	-36610	4088.4	-0.61517	-0.58306	-0.50264
0.63	25.273	-36608	4087.9	-0.61439	-0.58267	-0.50362
0.632	25.331	-36607	4087.6	-0.61508	-0.58179	-0.5042
0.634	25.349	-36607	4087.3	-0.61576	-0.58092	-0.50479
0.636	25.356	-36608	4087	-0.61644	-0.58004	-0.50537
0.638	25.377	-36608	4086.6	-0.61712	-0.57916	-0.50596
0.64	25.391	-36609	4086.3	-0.61781	-0.57828	-0.50654
0.642	25.396	-36611	4086	-0.61752	-0.57896	-0.50547
0.644	25.408	-36613	4085.8	-0.61722	-0.57965	-0.5044
0.646	25.425	-36613	4085.4	-0.61693	-0.58033	-0.50332
0.648	25.427	-36612	4085	-0.61664	-0.58101	-0.50225
0.65	25.425	-36615	4084.5	-0.61634	-0.5817	-0.50118
0.652	25.39	-36618	4084.2	-0.61615	-0.58179	-0.50069
0.654	25.388	-36613	4083.9	-0.61595	-0.58189	-0.5002
0.656	25.405	-36609	4083.6	-0.61576	-0.58199	-0.49971
0.658	25.428	-36618	4083.3	-0.61556	-0.58209	-0.49922
0.66	25.424	-36626	4083	-0.61537	-0.58218	-0.49874
0.662	25.406	-36627	4082.8	-0.61527	-0.5814	-0.49952
0.664	25.414	-36629	4082.6	-0.61517	-0.58062	-0.5003
0.666	25.419	-36627	4082.4	-0.61508	-0.57984	-0.50108
0.668	25.424	-36626	4082.2	-0.61498	-0.57906	-0.50186
0.67	25.424	-36626	4082	-0.61488	-0.57828	-0.50264
0.672	25.407	-36626	4081.7	-0.61576	-0.57828	-0.50293
0.674	25.401	-36628	4081.4	-0.61664	-0.57828	-0.50323
0.676	25.393	-36629	4081.2	-0.61752	-0.57828	-0.50352
0.678	25.386	-36628	4080.9	-0.61839	-0.57828	-0.50381
0.68	25.408	-36627	4080.7	-0.61927	-0.57828	-0.5041
0.682	25.419	-36632	4080.5	-0.61839	-0.57867	-0.50381
0.684	25.414	-36637	4080.3	-0.61752	-0.57906	-0.50352
0.686	25.414	-36637	4080.2	-0.61664	-0.57945	-0.50323
0.688	25.417	-36638	4080.1	-0.61576	-0.57984	-0.50293
0.69	25.415	-36636	4080.1	-0.61488	-0.58023	-0.50264
0.692	25.401	-36633	4080.1	-0.61498	-0.58101	-0.50323
0.694	25.393	-36638	4080.1	-0.61508	-0.58179	-0.50381
0.696	25.405	-36643	4080.1	-0.61517	-0.58257	-0.5044
0.698	25.423	-36642	4080	-0.61527	-0.58336	-0.50498
0.7	25.435	-36641	4080	-0.61537	-0.58414	-0.50557
0.702	25.422	-36644	4079.8	-0.61468	-0.5854	-0.50586
0.704	25.413	-36648	4079.7	-0.614	-0.58667	-0.50615
0.706	25.411	-36647	4079.6	-0.61332	-0.58794	-0.50645
0.708	25.402	-36647	4079.4	-0.61264	-0.58921	-0.50674
0.71	25.399	-36649	4079.2	-0.61195	-0.59048	-0.50703
0.712	25.396	-36652	4078.9	-0.61342	-0.58833	-0.50654
0.714	25.396	-36648	4078.6	-0.61488	-0.58619	-0.50606
0.716	25.399	-36645	4078.3	-0.61634	-0.58404	-0.50557
0.718	25.409	-36641	4077.9	-0.61781	-0.58189	-0.50508
0.72	25.41	-36637	4077.6	-0.61927	-0.57974	-0.50459
0.722	25.413	-36638	4077	-0.61888	-0.58052	-0.50401
0.724	25.417	-36639	4076.4	-0.61849	-0.58131	-0.50342
0.726	25.423	-36647	4075.7	-0.6181	-0.58209	-0.50284
0.728	25.417	-36655	4074.9	-0.61771	-0.58287	-0.50225
0.73	25.414	-36655	4074.1	-0.61732	-0.58365	-0.50166
0.732	25.421	-36654	4073.3	-0.61752	-0.58375	-0.50147
0.734	25.424	-36656	4072.5	-0.61771	-0.58384	-0.50127
0.736	25.437	-36658	4071.7	-0.61791	-0.58394	-0.50108
0.738	25.427	-36660	4071	-0.6181	-0.58404	-0.50088
0.74	25.41	-36662	4070.3	-0.6183	-0.58414	-0.50069
0.742	25.387	-36662	4069.5	-0.61771	-0.58336	-0.50059
0.744	25.381	-36663	4068.7	-0.61712	-0.58257	-0.50049
0.746	25.379	-36664	4067.8	-0.61654	-0.58179	-0.5004
0.748	25.38	-36665	4067	-0.61595	-0.58101	-0.5003
0.75	25.395	-36669	4066.2	-0.61537	-0.58023	-0.5002
0.752	25.403	-36673	4065.4	-0.61547	-0.58092	-0.49971
0.754	25.399	-36669	4064.5	-0.61556	-0.5816	-0.49922
0.756	25.388	-36665	4063.7	-0.61566	-0.58228	-0.49874
0.758	25.382	-36669	4062.9	-0.61576	-0.58296	-0.49825
0.76	25.375	-36673	4062.1	-0.61586	-0.58365	-0.49776
0.762	25.383	-36669	4061.5	-0.61566	-0.58365	-0.49786
0.764	25.39	-36664	4060.9	-0.61547	-0.58365	-0.49796
0.766	25.387	-36668	4060.4	-0.61527	-0.58365	-0.49805
0.768	25.4	-36672	4060	-0.61508	-0.58365	-0.49815
0.77	25.412	-36676	4059.6	-0.61488	-0.58365	-0.49825
0.772	25.408	-36680	4059.4	-0.61429	-0.58472	-0.49971
0.774	25.398	-36685	4059.1	-0.61371	-0.5858	-0.50118
0.776	25.39	-36689	4058.9	-0.61312	-0.58687	-0.50264
0.778	25.395	-36683	4058.9	-0.61254	-0.58794	-0.5041
0.78	25.403	-36677	4058.8	-0.61195	-0.58902	-0.50557
0.782	25.397	-36679	4059.3	-0.61273	-0.58853	-0.50537
0.784	25.403	-36681	4059.8	-0.61351	-0.58804	-0.50518
0.786	25.42	-36689	4060.7	-0.61429	-0.58755	-0.50498
0.788	25.413	-36697	4062.1	-0.61508	-0.58706	-0.50479
0.79	25.384	-36697	4063.4	-0.61586	-0.58658	-0.50459
0.792	25.377	-36698	4065.9	-0.61664	-0.58628	-0.50479
0.794	25.398	-36694	4068.3	-0.61742	-0.58599	-0.50498
0.796	25.426	-36690	4071.2	-0.6182	-0.5857	-0.50518
0.798	25.422	-36693	4074.5	-0.61898	-0.5854	-0.50537
0.8	25.433	-36697	4077.8	-0.61976	-0.58511	-0.50557
0.802	25.411	-36698	4082	-0.61908	-0.58599	-0.50615
0.804	25.403	-36699	4086.2	-0.61839	-0.58687	-0.50674
0.806	25.387	-36695	4090.8	-0.61771	-0.58775	-0.50732
0.808	25.396	-36691	4095.9	-0.61703	-0.58863	-0.50791
0.81	25.424	-36696	4101	-0.61634	-0.5895	-0.5085
0.812	25.421	-36700	4106.9	-0.61859	-0.58911	-0.50859
0.814	25.422	-36705	4112.8	-0.62083	-0.58872	-0.50869
0.816	25.431	-36710	4119	-0.62308	-0.58833	-0.50879
0.818	25.435	-36706	4125.6	-0.62532	-0.58794	-0.50889
0.82	25.426	-36702	4132.2	-0.62757	-0.58755	-0.50898
0.822	25.437	-36706	4139.2	-0.62825	-0.58687	-0.5083
0.824	25.42	-36710	4146.1	-0.62893	-0.58619	-0.50762
0.826	25.438	-36714	4153.2	-0.62962	-0.5855	-0.50693
0.828	25.449	-36718	4160.3	-0.6303	-0.58482	-0.50625
0.83	25.429	-36716	4167.4	-0.63098	-0.58414	-0.50557
0.832	25.438	-36713	4174.8	-0.62972	-0.58306	-0.50606
0.834	25.457	-36711	4182.1	-0.62845	-0.58199	-0.50654
0.836	25.448	-36709	4189.4	-0.62718	-0.58092	-0.50703
0.838	25.421	-36708	4196.5	-0.62591	-0.57984	-0.50752
0.84	25.412	-36707	4203.7	-0.62464	-0.57877	-0.50801
0.842	25.428	-36710	4210.8	-0.62405	-0.57857	-0.50732
0.844	25.456	-36713	4218	-0.62347	-0.57838	-0.50664
0.846	25.469	-36711	4224.9	-0.62288	-0.57818	-0.50596
0.848	25.443	-36708	4231.5	-0.6223	-0.57799	-0.50528
0.85	25.432	-36706	4238.2	-0.62171	-0.57779	-0.50459
0.852	25.44	-36705	4244.6	-0.62366	-0.57701	-0.50557
0.854	25.455	-36709	4251.1	-0.62562	-0.57623	-0.50654
0.856	25.45	-36714	4257.2	-0.62757	-0.57545	-0.50752
0.858	25.439	-36709	4262.9	-0.62952	-0.57467	-0.5085
0.86	25.443	-36704	4268.7	-0.63147	-0.57389	-0.50947
0.862	25.447	-36699	4273.7	-0.63079	-0.57477	-0.50898
0.864	25.444	-36694	4278.7	-0.63011	-0.57564	-0.5085
0.866	25.442	-36694	4283.2	-0.62942	-0.57652	-0.50801
0.868	25.446	-36693	4287.2	-0.62874	-0.5774	-0.50752
0.87	25.451	-36691	4291.3	-0.62806	-0.57828	-0.50703
0.872	25.454	-36688	4294.5	-0.62737	-0.5776	-0.50723
0.874	25.449	-36685	4297.8	-0.62669	-0.57691	-0.50742
0.876	25.443	-36683	4300.7	-0.62601	-0.57623	-0.50762
0.878	25.447	-36682	4303.1	-0.62532	-0.57555	-0.50781
0.88	25.443	-36681	4305.5	-0.62464	-0.57486	-0.50801
0.882	25.455	-36677	4306.8	-0.62279	-0.57555	-0.50752
0.884	25.463	-36673	4308.2	-0.62093	-0.57623	-0.50703
0.886	25.452	-36669	4309.1	-0.61908	-0.57691	-0.50654
0.888	25.447	-36666	4309.6	-0.61722	-0.5776	-0.50606
0.89	25.451	-36662	4310.1	-0.61537	-0.57828	-0.50557
0.892	25.455	-36659	4309.9	-0.61527	-0.57887	-0.50459
0.894	25.451	-36658	4309.7	-0.61517	-0.57945	-0.50362
0.896	25.451	-36658	4309.3	-0.61508	-0.58004	-0.50264
0.898	25.439	-36657	4308.5	-0.61498	-0.58062	-0.50166
0.9	25.452	-36655	4307.8	-0.61488	-0.58121	-0.50069
0.902	25.449	-36650	4306.6	-0.61498	-0.58072	-0.50137
0.904	25.437	-36645	4305.3	-0.61508	-0.58023	-0.50205
0.906	25.463	-36642	4303.8	-0.61517	-0.57974	-0.50274
0.908	25.445	-36640	4302.1	-0.61527	-0.57926	-0.50342
0.91	25.435	-36638	4300.4	-0.61537	-0.57877	-0.5041
0.912	25.463	-36636	4298.2	-0.61605	-0.57877	-0.50323
0.914	25.468	-36636	4296.1	-0.61673	-0.57877	-0.50235
0.916	25.448	-36635	4293.7	-0.61742	-0.57877	-0.50147
0.918	25.422	-36630	4291.2	-0.6181	-0.57877	-0.50059
0.92	25.451	-36624	4288.7	-0.61878	-0.57877	-0.49971
0.922	25.446	-36622	4286.3	-0.6181	-0.57935	-0.49942
0.924	25.419	-36620	4283.8	-0.61742	-0.57994	-0.49913
0.926	25.412	-36619	4281.3	-0.61673	-0.58052	-0.49883
0.928	25.415	-36619	4278.8	-0.61605	-0.58111	-0.49854
0.93	25.416	-36616	4276.3	-0.61537	-0.5817	-0.49825
0.932	25.423	-36612	4273.5	-0.61752	-0.5814	-0.49844
0.934	25.438	-36608	4270.7	-0.61966	-0.58111	-0.49864
0.936	25.435	-36603	4267.8	-0.62181	-0.58082	-0.49883
0.938	25.411	-36600	4265	-0.62396	-0.58052	-0.49903
0.94	25.398	-36597	4262.1	-0.6261	-0.58023	-0.49922
0.942	25.404	-36597	4259.1	-0.62425	-0.58101	-0.49942
0.944	25.407	-36597	4256.2	-0.6224	-0.58179	-0.49961
0.946	25.401	-36595	4253.2	-0.62054	-0.58257	-0.49981
0.948	25.398	-36592	4250.3	-0.61869	-0.58336	-0.5
0.95	25.395	-36591	4247.3	-0.61683	-0.58414	-0.5002
0.952	25.394	-36589	4244.5	-0.61722	-0.58336	-0.50088
0.954	25.405	-36584	4241.6	-0.61761	-0.58257	-0.50157
0.956	25.405	-36578	4238.9	-0.618	-0.58179	-0.50225
0.958	25.392	-36581	4236.2	-0.61839	-0.58101	-0.50293
0.96	25.389	-36584	4233.6	-0.61878	-0.58023	-0.50362
0.962	25.386	-36584	4231.1	-0.62005	-0.57965	-0.5044
0.964	25.404	-36584	4228.7	-0.62132	-0.57906	-0.50518
0.966	25.414	-36589	4226.4	-0.62259	-0.57848	-0.50596
0.968	25.38	-36593	4224.2	-0.62386	-0.57789	-0.50674
0.97	25.372	-36586	4222	-0.62513	-0.5773	-0.50752
0.972	25.382	-36580	4220	-0.62484	-0.57789	-0.50752
0.974	25.394	-36580	4218	-0.62454	-0.57848	-0.50752
0.976	25.403	-36581	4216.1	-0.62425	-0.57906	-0.50752
0.978	25.379	-36576	4214.3	-0.62396	-0.57965	-0.50752
0.98	25.361	-36571	4212.5	-0.62366	-0.58023	-0.50752
0.982	25.385	-36569	4210.9	-0.62357	-0.57955	-0.50811
0.984	25.386	-36567	4209.2	-0.62347	-0.57887	-0.50869
0.986	25.381	-36565	4207.7	-0.62337	-0.57818	-0.50928
0.988	25.364	-36562	4206.3	-0.62327	-0.5775	-0.50986
0.99	25.371	-36556	4204.9	-0.62318	-0.57682	-0.51045
0.992	25.388	-36549	4203.7	-0.622	-0.57769	-0.50937
0.994	25.368	-36551	4202.4	-0.62083	-0.57857	-0.5083
0.996	25.357	-36554	4201.2	-0.61966	-0.57945	-0.50723
0.998	25.374	-36552	4200.1	-0.61849	-0.58033	-0.50615
1	25.371	-36551	4198.9	-0.61732	-0.58121	-0.50508
1.002	25.366	-36550	4197.7	-0.61615	-0.58248	-0.50518
1.004	25.374	-36549	4196.5	-0.61498	-0.58375	-0.50528
1.006	25.381	-36550	4195.3	-0.61381	-0.58501	-0.50537
1.008	25.377	-36551	4194.1	-0.61264	-0.58628	-0.50547
1.01	25.366	-36552	4192.8	-0.61146	-0.58755	-0.50557
1.012	25.371	-36554	4191.5	-0.61195	-0.58784	-0.50615
1.014	25.376	-36552	4190.2	-0.61244	-0.58814	-0.50674
1.016	25.375	-36551	4188.7	-0.61293	-0.58843	-0.50732
1.018	25.361	-36548	4187.2	-0.61342	-0.58872	-0.50791
1.02	25.357	-36545	4185.6	-0.6139	-0.58902	-0.5085
1.022	25.368	-36545	4183.9	-0.61449	-0.58902	-0.5084
1.024	25.372	-36546	4182.2	-0.61508	-0.58902	-0.5083
1.026	25.369	-36544	4180.4	-0.61566	-0.58902	-0.5082
1.028	25.373	-36542	4178.5	-0.61625	-0.58902	-0.50811
1.03	25.384	-36547	4176.6	-0.61683	-0.58902	-0.50801
1.032	25.388	-36551	4175	-0.61683	-0.58911	-0.5085
1.034	25.373	-36543	4173.3	-0.61683	-0.58921	-0.50898
1.036	25.359	-36535	4171.8	-0.61683	-0.58931	-0.50947
1.038	25.374	-36536	4170.5	-0.61683	-0.58941	-0.50996
1.04	25.379	-36536	4169.2	-0.61683	-0.5895	-0.51045
1.042	25.348	-36540	4168.2	-0.61615	-0.5895	-0.50947
1.044	25.333	-36544	4167.3	-0.61547	-0.5895	-0.5085
1.046	25.353	-36543	4166.5	-0.61478	-0.5895	-0.50752
1.048	25.364	-36543	4165.7	-0.6141	-0.5895	-0.50654
1.05	25.381	-36542	4164.9	-0.61342	-0.5895	-0.50557
1.052	25.394	-36540	4164.4	-0.61244	-0.58911	-0.50547
1.054	25.388	-36536	4163.9	-0.61146	-0.58872	-0.50537
1.056	25.364	-36532	4163.5	-0.61049	-0.58833	-0.50528
1.058	25.343	-36531	4163.3	-0.60951	-0.58794	-0.50518
1.06	25.358	-36531	4163	-0.60854	-0.58755	-0.50508
1.062	25.379	-36534	4163	-0.60932	-0.58745	-0.50401
1.064	25.386	-36538	4162.9	-0.6101	-0.58736	-0.50293
1.066	25.363	-36537	4162.9	-0.61088	-0.58726	-0.50186
1.068	25.378	-36537	4163.1	-0.61166	-0.58716	-0.50079
1.07	25.392	-36538	4163.3	-0.61244	-0.58706	-0.49971
1.072	25.347	-36539	4163.6	-0.61371	-0.58736	-0.50147
1.074	25.337	-36538	4164	-0.61498	-0.58765	-0.50323
1.076	25.351	-36538	4164.5	-0.61625	-0.58794	-0.50498
1.078	25.361	-36534	4164.9	-0.61752	-0.58824	-0.50674
1.08	25.368	-36530	4165.4	-0.61878	-0.58853	-0.5085
1.082	25.371	-36528	4166.1	-0.6182	-0.58911	-0.50781
1.084	25.367	-36526	4166.7	-0.61761	-0.5897	-0.50713
1.086	25.372	-36528	4167.5	-0.61703	-0.59028	-0.50645
1.088	25.389	-36531	4168.4	-0.61644	-0.59087	-0.50576
1.09	25.379	-36530	4169.3	-0.61586	-0.59146	-0.50508
1.092	25.369	-36528	4170.3	-0.61547	-0.59204	-0.5044
1.094	25.365	-36533	4171.3	-0.61508	-0.59263	-0.50371
1.096	25.361	-36539	4172.2	-0.61468	-0.59321	-0.50303
1.098	25.363	-36540	4173.1	-0.61429	-0.5938	-0.50235
1.1	25.368	-36541	4174	-0.6139	-0.59438	-0.50166
1.102	25.369	-36530	4174.9	-0.61459	-0.59321	-0.50274
1.104	25.371	-36519	4175.8	-0.61527	-0.59204	-0.50381
1.106	25.369	-36519	4176.7	-0.61595	-0.59087	-0.50488
1.108	25.372	-36518	4177.7	-0.61664	-0.5897	-0.50596
1.11	25.375	-36526	4178.7	-0.61732	-0.58853	-0.50703
1.112	25.367	-36533	4179.7	-0.61703	-0.58804	-0.50606
1.114	25.357	-36528	4180.7	-0.61673	-0.58755	-0.50508
1.116	25.363	-36524	4181.7	-0.61644	-0.58706	-0.5041
1.118	25.364	-36527	4182.7	-0.61615	-0.58658	-0.50313
1.12	25.359	-36529	4183.7	-0.61586	-0.58609	-0.50215
1.122	25.37	-36528	4184.6	-0.61673	-0.58453	-0.50254
1.124	25.38	-36526	4185.5	-0.61761	-0.58296	-0.50293
1.126	25.374	-36527	4186.3	-0.61849	-0.5814	-0.50332
1.128	25.373	-36527	4187.1	-0.61937	-0.57984	-0.50371
1.13	25.379	-36528	4187.8	-0.62025	-0.57828	-0.5041
1.132	25.377	-36528	4188.4	-0.61947	-0.57945	-0.50332
1.134	25.367	-36523	4189	-0.61869	-0.58062	-0.50254
1.136	25.362	-36519	4189.7	-0.61791	-0.58179	-0.50176
1.138	25.368	-36518	4190.3	-0.61712	-0.58296	-0.50098
1.14	25.376	-36517	4190.9	-0.61634	-0.58414	-0.5002
1.142	25.351	-36525	4191.5	-0.61654	-0.58394	-0.50098
1.144	25.342	-36532	4192	-0.61673	-0.58375	-0.50176
1.146	25.346	-36522	4192.5	-0.61693	-0.58355	-0.50254
1.148	25.367	-36513	4192.8	-0.61712	-0.58336	-0.50332
1.15	25.368	-36513	4193.1	-0.61732	-0.58316	-0.5041
1.152	25.364	-36513	4193.4	-0.61634	-0.58355	-0.50332
1.154	25.351	-36511	4193.6	-0.61537	-0.58394	-0.50254
1.156	25.361	-36508	4193.7	-0.61439	-0.58433	-0.50176
1.158	25.381	-36508	4193.7	-0.61342	-0.58472	-0.50098
1.16	25.38	-36508	4193.7	-0.61244	-0.58511	-0.5002
1.162	25.374	-36512	4193.5	-0.61351	-0.58404	-0.5004
1.164	25.382	-36515	4193.3	-0.61459	-0.58296	-0.50059
1.166	25.355	-36515	4193	-0.61566	-0.58189	-0.50079
1.168	25.349	-36516	4192.6	-0.61673	-0.58082	-0.50098
1.17	25.356	-36520	4192.3	-0.61781	-0.57974	-0.50118
1.172	25.388	-36525	4191.9	-0.61732	-0.57984	-0.50215
1.174	25.386	-36518	4191.6	-0.61683	-0.57994	-0.50313
1.176	25.368	-36510	4191.2	-0.61634	-0.58004	-0.5041
1.178	25.362	-36510	4190.8	-0.61586	-0.58013	-0.50508
1.18	25.368	-36510	4190.4	-0.61537	-0.58023	-0.50606
1.182	25.37	-36505	4189.7	-0.61654	-0.57896	-0.50645
1.184	25.367	-36501	4189.1	-0.61771	-0.57769	-0.50684
1.186	25.363	-36506	4188.4	-0.61888	-0.57643	-0.50723
1.188	25.353	-36511	4187.7	-0.62005	-0.57516	-0.50762
1.19	25.37	-36514	4186.9	-0.62122	-0.57389	-0.50801
1.192	25.376	-36517	4186	-0.6224	-0.57477	-0.5085
1.194	25.359	-36508	4185.1	-0.62357	-0.57564	-0.50898
1.196	25.361	-36500	4184.2	-0.62474	-0.57652	-0.50947
1.198	25.366	-36499	4183.1	-0.62591	-0.5774	-0.50996
1.2	25.364	-36498	4182.1	-0.62708	-0.57828	-0.51045
1.202	25.371	-36496	4180.9	-0.62718	-0.57877	-0.51055
1.204	25.371	-36493	4179.6	-0.62728	-0.57926	-0.51064
1.206	25.366	-36501	4178.3	-0.62737	-0.57974	-0.51074
1.208	25.374	-36508	4177	-0.62747	-0.58023	-0.51084
1.21	25.381	-36504	4175.7	-0.62757	-0.58072	-0.51094
1.212	25.374	-36499	4174.4	-0.62737	-0.58082	-0.51025
1.214	25.367	-36499	4173.1	-0.62718	-0.58092	-0.50957
1.216	25.361	-36500	4171.8	-0.62698	-0.58101	-0.50889
1.218	25.361	-36500	4170.4	-0.62679	-0.58111	-0.5082
1.22	25.37	-36501	4169.1	-0.62659	-0.58121	-0.50752
1.222	25.377	-36499	4167.6	-0.62737	-0.5816	-0.50772
1.224	25.375	-36497	4166.2	-0.62815	-0.58199	-0.50791
1.226	25.367	-36496	4164.7	-0.62893	-0.58238	-0.50811
1.228	25.362	-36494	4163.3	-0.62972	-0.58277	-0.5083
1.23	25.389	-36495	4161.9	-0.6305	-0.58316	-0.5085
1.232	25.385	-36495	4160.6	-0.62991	-0.58336	-0.5083
1.234	25.352	-36493	4159.3	-0.62932	-0.58355	-0.50811
1.236	25.361	-36491	4158	-0.62874	-0.58375	-0.50791
1.238	25.348	-36485	4156.6	-0.62815	-0.58394	-0.50772
1.24	25.362	-36478	4155.3	-0.62757	-0.58414	-0.50752
1.242	25.374	-36486	4154.1	-0.62747	-0.58296	-0.5084
1.244	25.391	-36494	4152.9	-0.62737	-0.58179	-0.50928
1.246	25.359	-36491	4151.7	-0.62728	-0.58062	-0.51016
1.248	25.364	-36489	4150.6	-0.62718	-0.57945	-0.51103
1.25	25.359	-36494	4149.5	-0.62708	-0.57828	-0.51191
1.252	25.361	-36499	4148.4	-0.62698	-0.57848	-0.51113
1.254	25.356	-36489	4147.3	-0.62688	-0.57867	-0.51035
1.256	25.367	-36479	4146.3	-0.62679	-0.57887	-0.50957
1.258	25.375	-36484	4145.2	-0.62669	-0.57906	-0.50879
1.26	25.348	-36489	4144.2	-0.62659	-0.57926	-0.50801
1.262	25.344	-36496	4143.1	-0.62591	-0.57828	-0.50918
1.264	25.366	-36503	4142.1	-0.62523	-0.5773	-0.51035
1.266	25.366	-36498	4141.1	-0.62454	-0.57633	-0.51152
1.268	25.377	-36493	4140.1	-0.62386	-0.57535	-0.51269
1.27	25.372	-36492	4139.2	-0.62318	-0.57438	-0.51386
1.272	25.369	-36490	4138.2	-0.62366	-0.57535	-0.51308
1.274	25.375	-36492	4137.2	-0.62415	-0.57633	-0.5123
1.276	25.372	-36493	4136.3	-0.62464	-0.5773	-0.51152
1.278	25.371	-36498	4135.3	-0.62513	-0.57828	-0.51074
1.28	25.376	-36503	4134.3	-0.62562	-0.57926	-0.50996
1.282	25.377	-36506	4133.4	-0.62503	-0.57887	-0.50976
1.284	25.353	-36508	4132.6	-0.62444	-0.57848	-0.50957
1.286	25.348	-36504	4131.7	-0.62386	-0.57808	-0.50937
1.288	25.361	-36500	4131	-0.62327	-0.57769	-0.50918
1.29	25.361	-36500	4130.2	-0.62269	-0.5773	-0.50898
1.292	25.363	-36500	4129.5	-0.62181	-0.57711	-0.50879
1.294	25.367	-36503	4128.8	-0.62093	-0.57691	-0.50859
1.296	25.374	-36506	4128	-0.62005	-0.57672	-0.5084
1.298	25.385	-36502	4127.3	-0.61917	-0.57652	-0.5082
1.3	25.37	-36497	4126.6	-0.6183	-0.57633	-0.50801
1.302	25.343	-36498	4126	-0.61956	-0.57535	-0.5082
1.304	25.345	-36499	4125.4	-0.62083	-0.57438	-0.5084
1.306	25.366	-36499	4124.8	-0.6221	-0.5734	-0.50859
1.308	25.374	-36500	4124.2	-0.62337	-0.57242	-0.50879
1.31	25.374	-36502	4123.6	-0.62464	-0.57145	-0.50898
1.312	25.376	-36504	4123.1	-0.62454	-0.57223	-0.50986
1.314	25.384	-36505	4122.5	-0.62444	-0.57301	-0.51074
1.316	25.373	-36506	4122.1	-0.62435	-0.57379	-0.51162
1.318	25.333	-36504	4121.7	-0.62425	-0.57457	-0.5125
1.32	25.337	-36502	4121.4	-0.62415	-0.57535	-0.51338
1.322	25.379	-36501	4121	-0.62376	-0.57594	-0.5122
1.324	25.37	-36500	4120.7	-0.62337	-0.57652	-0.51103
1.326	25.369	-36497	4120.4	-0.62298	-0.57711	-0.50986
1.328	25.35	-36495	4120.1	-0.62259	-0.57769	-0.50869
1.33	25.362	-36500	4119.8	-0.6222	-0.57828	-0.50752
1.332	25.376	-36505	4119.6	-0.62357	-0.57838	-0.5085
1.334	25.381	-36504	4119.4	-0.62493	-0.57848	-0.50947
1.336	25.356	-36503	4119.1	-0.6263	-0.57857	-0.51045
1.338	25.363	-36504	4118.9	-0.62767	-0.57867	-0.51142
1.34	25.362	-36505	4118.6	-0.62903	-0.57877	-0.5124
1.342	25.354	-36506	4118.4	-0.62854	-0.57896	-0.51152
1.344	25.361	-36506	4118.2	-0.62806	-0.57916	-0.51064
1.346	25.365	-36509	4118.1	-0.62757	-0.57935	-0.50976
1.348	25.371	-36511	4117.9	-0.62708	-0.57955	-0.50889
1.35	25.369	-36514	4117.8	-0.62659	-0.57974	-0.50801
1.352	25.365	-36517	4117.7	-0.6261	-0.57828	-0.50869
1.354	25.36	-36516	4117.5	-0.62562	-0.57682	-0.50937
1.356	25.37	-36516	4117.4	-0.62513	-0.57535	-0.51006
1.358	25.37	-36515	4117.2	-0.62464	-0.57389	-0.51074
1.36	25.364	-36513	4117.1	-0.62415	-0.57242	-0.51142
1.362	25.368	-36515	4117	-0.62454	-0.57311	-0.51152
1.364	25.365	-36517	4116.9	-0.62493	-0.57379	-0.51162
1.366	25.36	-36517	4116.9	-0.62532	-0.57447	-0.51172
1.368	25.362	-36517	4117	-0.62571	-0.57516	-0.51181
1.37	25.357	-36519	4117.1	-0.6261	-0.57584	-0.51191
1.372	25.351	-36521	4117.1	-0.62659	-0.57643	-0.51152
1.374	25.354	-36518	4117.1	-0.62708	-0.57701	-0.51113
1.376	25.368	-36514	4117.2	-0.62757	-0.5776	-0.51074
1.378	25.379	-36516	4117.2	-0.62806	-0.57818	-0.51035
1.38	25.371	-36518	4117.3	-0.62854	-0.57877	-0.50996
1.382	25.366	-36519	4117.3	-0.62815	-0.57867	-0.51016
1.384	25.371	-36521	4117.2	-0.62776	-0.57857	-0.51035
1.386	25.373	-36517	4117.1	-0.62737	-0.57848	-0.51055
1.388	25.369	-36514	4117	-0.62698	-0.57838	-0.51074
1.39	25.367	-36518	4116.8	-0.62659	-0.57828	-0.51094
1.392	25.368	-36523	4116.6	-0.62649	-0.57877	-0.51074
1.394	25.371	-36522	4116.3	-0.6264	-0.57926	-0.51055
1.396	25.371	-36521	4116	-0.6263	-0.57974	-0.51035
1.398	25.375	-36526	4115.6	-0.6262	-0.58023	-0.51016
1.4	25.384	-36532	4115.3	-0.6261	-0.58072	-0.50996
1.402	25.395	-36530	4115	-0.6261	-0.57965	-0.51045
1.404	25.388	-36528	4114.6	-0.6261	-0.57857	-0.51094
1.406	25.381	-36532	4114.4	-0.6261	-0.5775	-0.51142
1.408	25.412	-36536	4114.3	-0.6261	-0.57643	-0.51191
1.41	25.414	-36538	4114.1	-0.6261	-0.57535	-0.5124
1.412	25.378	-36540	4114.1	-0.62601	-0.57525	-0.5124
1.414	25.427	-36539	4114.1	-0.62591	-0.57516	-0.5124
1.416	25.412	-36538	4114.1	-0.62581	-0.57506	-0.5124
1.418	25.392	-36536	4114.1	-0.62571	-0.57496	-0.5124
1.42	25.411	-36535	4114.1	-0.62562	-0.57486	-0.5124
1.422	25.405	-36535	4114.2	-0.62484	-0.57418	-0.51269
1.424	25.38	-36535	4114.2	-0.62405	-0.5735	-0.51299
1.426	25.39	-36536	4114.2	-0.62327	-0.57281	-0.51328
1.428	25.423	-36537	4114.1	-0.62249	-0.57213	-0.51357
1.43	25.432	-36536	4114.1	-0.62171	-0.57145	-0.51386
1.432	25.422	-36536	4114	-0.6222	-0.57233	-0.51289
1.434	25.408	-36533	4113.8	-0.62269	-0.5732	-0.51191
1.436	25.402	-36529	4113.7	-0.62318	-0.57408	-0.51094
1.438	25.405	-36530	4113.4	-0.62366	-0.57496	-0.50996
1.44	25.404	-36530	4113.1	-0.62415	-0.57584	-0.50898
1.442	25.405	-36534	4112.8	-0.62415	-0.57564	-0.50976
1.444	25.4	-36538	4112.4	-0.62415	-0.57545	-0.51055
1.446	25.395	-36536	4112	-0.62415	-0.57525	-0.51133
1.448	25.401	-36533	4111.6	-0.62415	-0.57506	-0.51211
1.45	25.4	-36533	4111.1	-0.62415	-0.57486	-0.51289
1.452	25.397	-36534	4110.9	-0.62366	-0.57516	-0.51308
1.454	25.382	-36540	4110.7	-0.62318	-0.57545	-0.51328
1.456	25.358	-36547	4110.5	-0.62269	-0.57574	-0.51347
1.458	25.357	-36547	4110.5	-0.6222	-0.57604	-0.51367
1.46	25.358	-36546	4110.5	-0.62171	-0.57633	-0.51386
1.462	25.345	-36548	4110.4	-0.62249	-0.57652	-0.51308
1.464	25.345	-36551	4110.4	-0.62327	-0.57672	-0.5123
1.466	25.351	-36553	4110.3	-0.62405	-0.57691	-0.51152
1.468	25.37	-36554	4110.3	-0.62484	-0.57711	-0.51074
1.47	25.377	-36552	4110.2	-0.62562	-0.5773	-0.50996
1.472	25.347	-36550	4110.2	-0.62415	-0.57721	-0.50976
1.474	25.349	-36549	4110.3	-0.62269	-0.57711	-0.50957
1.476	25.347	-36549	4110.3	-0.62122	-0.57701	-0.50937
1.478	25.342	-36552	4110.3	-0.61976	-0.57691	-0.50918
1.48	25.356	-36555	4110.4	-0.6183	-0.57682	-0.50898
1.482	25.349	-36559	4110.3	-0.61937	-0.57623	-0.50967
1.484	25.335	-36563	4110.3	-0.62044	-0.57564	-0.51035
1.486	25.337	-36563	4110.2	-0.62152	-0.57506	-0.51103
1.488	25.345	-36563	4110	-0.62259	-0.57447	-0.51172
1.49	25.356	-36558	4109.9	-0.62366	-0.57389	-0.5124
1.492	25.355	-36554	4109.6	-0.62415	-0.57477	-0.5122
1.494	25.358	-36552	4109.4	-0.62464	-0.57564	-0.51201
1.496	25.371	-36550	4109.2	-0.62513	-0.57652	-0.51181
1.498	25.354	-36551	4109	-0.62562	-0.5774	-0.51162
1.5	25.34	-36553	4108.8	-0.6261	-0.57828	-0.51142
1.502	25.362	-36556	4108.5	-0.6261	-0.57779	-0.51133
1.504	25.385	-36559	4108.2	-0.6261	-0.5773	-0.51123
1.506	25.384	-36559	4107.8	-0.6261	-0.57682	-0.51113
1.508	25.393	-36560	4107.4	-0.6261	-0.57633	-0.51103
1.51	25.405	-36563	4106.9	-0.6261	-0.57584	-0.51094
1.512	25.405	-36566	4106.3	-0.6261	-0.57633	-0.51103
1.514	25.4	-36569	4105.8	-0.6261	-0.57682	-0.51113
1.516	25.398	-36572	4105.2	-0.6261	-0.5773	-0.51123
1.518	25.404	-36571	4104.5	-0.6261	-0.57779	-0.51133
1.52	25.407	-36570	4103.8	-0.6261	-0.57828	-0.51142
1.522	25.422	-36569	4103	-0.62591	-0.57828	-0.51142
1.524	25.458	-36568	4102.2	-0.62571	-0.57828	-0.51142
1.526	25.49	-36568	4101.5	-0.62552	-0.57828	-0.51142
1.528	25.511	-36567	4100.8	-0.62532	-0.57828	-0.51142
1.53	25.541	-36570	4100.2	-0.62513	-0.57828	-0.51142
1.532	25.529	-36572	4099.8	-0.62444	-0.57848	-0.51172
1.534	25.481	-36575	4099.4	-0.62376	-0.57867	-0.51201
1.536	25.463	-36577	4098.9	-0.62308	-0.57887	-0.5123
1.538	25.451	-36575	4098.5	-0.6224	-0.57906	-0.5126
1.54	25.417	-36573	4098	-0.62171	-0.57926	-0.51289
1.542	25.391	-36575	4097.6	-0.6223	-0.57867	-0.51308
1.544	25.361	-36576	4097.1	-0.62288	-0.57808	-0.51328
1.546	25.311	-36579	4096.7	-0.62347	-0.5775	-0.51347
1.548	25.281	-36582	4096.2	-0.62405	-0.57691	-0.51367
1.55	25.265	-36587	4095.6	-0.62464	-0.57633	-0.51386
1.552	25.236	-36593	4095.2	-0.62425	-0.57623	-0.51347
1.554	25.232	-36593	4094.8	-0.62386	-0.57613	-0.51308
1.556	25.267	-36593	4094.3	-0.62347	-0.57604	-0.51269
1.558	25.297	-36582	4093.8	-0.62308	-0.57594	-0.5123
1.56	25.307	-36571	4093.3	-0.62269	-0.57584	-0.51191
1.562	25.324	-36581	4092.7	-0.62357	-0.57652	-0.51162
1.564	25.337	-36591	4092.2	-0.62444	-0.57721	-0.51133
1.566	25.341	-36588	4091.7	-0.62532	-0.57789	-0.51103
1.568	25.36	-36585	4091.2	-0.6262	-0.57857	-0.51074
1.57	25.358	-36593	4090.7	-0.62708	-0.57926	-0.51045
1.572	25.336	-36600	4090.3	-0.62669	-0.57867	-0.51142
1.574	25.345	-36602	4089.8	-0.6263	-0.57808	-0.5124
1.576	25.362	-36604	4089.4	-0.62591	-0.5775	-0.51338
1.578	25.348	-36606	4089	-0.62552	-0.57691	-0.51435
1.58	25.36	-36608	4088.6	-0.62513	-0.57633	-0.51533
1.582	25.38	-36603	4088.2	-0.62415	-0.57555	-0.51513
1.584	25.386	-36598	4087.9	-0.62318	-0.57477	-0.51494
1.586	25.392	-36601	4087.6	-0.6222	-0.57399	-0.51474
1.588	25.363	-36603	4087.3	-0.62122	-0.5732	-0.51455
1.59	25.353	-36602	4087.1	-0.62025	-0.57242	-0.51435
1.592	25.35	-36601	4086.7	-0.62093	-0.5734	-0.51279
1.594	25.345	-36602	4086.3	-0.62161	-0.57438	-0.51123
1.596	25.352	-36602	4085.9	-0.6223	-0.57535	-0.50967
1.598	25.359	-36599	4085.5	-0.62298	-0.57633	-0.50811
1.6	25.353	-36597	4085.1	-0.62366	-0.5773	-0.50654
1.602	25.344	-36601	4084.6	-0.62396	-0.57701	-0.50762
1.604	25.345	-36605	4084	-0.62425	-0.57672	-0.50869
1.606	25.354	-36602	4083.5	-0.62454	-0.57643	-0.50976
1.608	25.349	-36598	4082.9	-0.62484	-0.57613	-0.51084
1.61	25.357	-36607	4082.4	-0.62513	-0.57584	-0.51191
1.612	25.368	-36616	4082.1	-0.62454	-0.57604	-0.51094
1.614	25.363	-36620	4081.9	-0.62396	-0.57623	-0.50996
1.616	25.335	-36624	4081.6	-0.62337	-0.57643	-0.50898
1.618	25.315	-36625	4081.4	-0.62279	-0.57662	-0.50801
1.62	25.341	-36626	4081.2	-0.6222	-0.57682	-0.50703
1.622	25.366	-36622	4081	-0.62132	-0.5773	-0.5085
1.624	25.368	-36619	4080.7	-0.62044	-0.57779	-0.50996
1.626	25.368	-36622	4080.4	-0.61956	-0.57828	-0.51142
1.628	25.368	-36626	4080.1	-0.61869	-0.57877	-0.51289
1.63	25.364	-36622	4079.7	-0.61781	-0.57926	-0.51435
1.632	25.366	-36617	4079.4	-0.61956	-0.57994	-0.51347
1.634	25.364	-36620	4079.1	-0.62132	-0.58062	-0.5126
1.636	25.355	-36622	4078.8	-0.62308	-0.58131	-0.51172
1.638	25.359	-36623	4078.4	-0.62484	-0.58199	-0.51084
1.64	25.366	-36623	4078.1	-0.62659	-0.58267	-0.50996
1.642	25.353	-36618	4077.6	-0.62669	-0.58238	-0.50937
1.644	25.344	-36613	4077.1	-0.62679	-0.58209	-0.50879
1.646	25.362	-36619	4076.6	-0.62688	-0.58179	-0.5082
1.648	25.366	-36626	4076	-0.62698	-0.5815	-0.50762
1.65	25.356	-36629	4075.4	-0.62708	-0.58121	-0.50703
1.652	25.351	-36632	4074.7	-0.62737	-0.58092	-0.50732
1.654	25.37	-36639	4074.1	-0.62767	-0.58062	-0.50762
1.656	25.375	-36647	4073.4	-0.62796	-0.58033	-0.50791
1.658	25.374	-36645	4072.8	-0.62825	-0.58004	-0.5082
1.66	25.363	-36643	4072.2	-0.62854	-0.57974	-0.5085
1.662	25.334	-36643	4071.5	-0.62776	-0.57926	-0.5085
1.664	25.341	-36643	4070.8	-0.62698	-0.57877	-0.5085
1.666	25.347	-36645	4070	-0.6262	-0.57828	-0.5085
1.668	25.357	-36646	4069.2	-0.62542	-0.57779	-0.5085
1.67	25.337	-36644	4068.4	-0.62464	-0.5773	-0.5085
1.672	25.345	-36641	4067.7	-0.62454	-0.5773	-0.5084
1.674	25.395	-36638	4067.1	-0.62444	-0.5773	-0.5083
1.676	25.34	-36636	4066.5	-0.62435	-0.5773	-0.5082
1.678	25.331	-36645	4066	-0.62425	-0.5773	-0.50811
1.68	25.349	-36654	4065.5	-0.62415	-0.5773	-0.50801
1.682	25.345	-36652	4065.1	-0.62454	-0.57691	-0.5084
1.684	25.347	-36649	4064.7	-0.62493	-0.57652	-0.50879
1.686	25.329	-36650	4064.4	-0.62532	-0.57613	-0.50918
1.688	25.318	-36651	4064.1	-0.62571	-0.57574	-0.50957
1.69	25.36	-36653	4063.9	-0.6261	-0.57535	-0.50996
1.692	25.362	-36655	4063.8	-0.62513	-0.57486	-0.50967
1.694	25.353	-36656	4063.8	-0.62415	-0.57438	-0.50937
1.696	25.357	-36656	4063.8	-0.62318	-0.57389	-0.50908
1.698	25.369	-36657	4063.8	-0.6222	-0.5734	-0.50879
1.7	25.377	-36657	4063.9	-0.62122	-0.57291	-0.5085
1.702	25.364	-36654	4064.2	-0.62161	-0.5734	-0.50898
1.704	25.347	-36652	4064.6	-0.622	-0.57389	-0.50947
1.706	25.36	-36657	4065.1	-0.6224	-0.57438	-0.50996
1.708	25.369	-36661	4065.8	-0.62279	-0.57486	-0.51045
1.71	25.356	-36661	4066.5	-0.62318	-0.57535	-0.51094
1.712	25.353	-36661	4067.6	-0.62298	-0.57545	-0.51162
1.714	25.36	-36667	4068.8	-0.62279	-0.57555	-0.5123
1.716	25.363	-36674	4070.2	-0.62259	-0.57564	-0.51299
1.718	25.362	-36671	4072.1	-0.6224	-0.57574	-0.51367
1.72	25.363	-36668	4073.9	-0.6222	-0.57584	-0.51435
1.722	25.371	-36671	4076.6	-0.62181	-0.57564	-0.51494
1.724	25.381	-36673	4079.3	-0.62142	-0.57545	-0.51552
1.726	25.388	-36667	4082.4	-0.62103	-0.57525	-0.51611
1.728	25.404	-36662	4086.1	-0.62064	-0.57506	-0.51669
1.73	25.41	-36667	4089.9	-0.62025	-0.57486	-0.51728
1.732	25.39	-36672	4094.7	-0.62025	-0.57564	-0.51669
1.734	25.361	-36672	4099.5	-0.62025	-0.57643	-0.51611
1.736	25.363	-36672	4104.6	-0.62025	-0.57721	-0.51552
1.738	25.378	-36680	4110.1	-0.62025	-0.57799	-0.51494
1.74	25.376	-36688	4115.5	-0.62025	-0.57877	-0.51435
1.742	25.384	-36687	4121.6	-0.61966	-0.57828	-0.51474
1.744	25.384	-36686	4127.6	-0.61908	-0.57779	-0.51513
1.746	25.39	-36687	4133.8	-0.61849	-0.5773	-0.51552
1.748	25.381	-36688	4140.3	-0.61791	-0.57682	-0.51591
1.75	25.382	-36682	4146.8	-0.61732	-0.57633	-0.5163
1.752	25.387	-36676	4153.5	-0.6181	-0.57584	-0.51718
1.754	25.395	-36676	4160.3	-0.61888	-0.57535	-0.51806
1.756	25.393	-36675	4167.1	-0.61966	-0.57486	-0.51894
1.758	25.404	-36678	4174.1	-0.62044	-0.57438	-0.51982
1.76	25.392	-36680	4181	-0.62122	-0.57389	-0.5207
1.762	25.402	-36685	4187.8	-0.62074	-0.5734	-0.5204
1.764	25.408	-36690	4194.6	-0.62025	-0.57291	-0.52011
1.766	25.411	-36686	4201.3	-0.61976	-0.57242	-0.51982
1.768	25.429	-36681	4208	-0.61927	-0.57194	-0.51952
1.77	25.415	-36683	4214.8	-0.61878	-0.57145	-0.51923
1.772	25.412	-36685	4221.2	-0.61898	-0.57184	-0.51933
1.774	25.422	-36682	4227.6	-0.61917	-0.57223	-0.51943
1.776	25.418	-36679	4233.8	-0.61937	-0.57262	-0.51952
1.778	25.403	-36683	4239.8	-0.61956	-0.57301	-0.51962
1.78	25.404	-36687	4245.7	-0.61976	-0.5734	-0.51972
1.782	25.415	-36694	4251.1	-0.61888	-0.57369	-0.51952
1.784	25.427	-36701	4256.5	-0.618	-0.57399	-0.51933
1.786	25.42	-36685	4261.6	-0.61712	-0.57428	-0.51913
1.788	25.429	-36669	4266.2	-0.61625	-0.57457	-0.51894
1.79	25.431	-36662	4270.9	-0.61537	-0.57486	-0.51874
1.792	25.416	-36656	4274.8	-0.61722	-0.57467	-0.51816
1.794	25.413	-36669	4278.7	-0.61908	-0.57447	-0.51757
1.796	25.419	-36682	4282.3	-0.62093	-0.57428	-0.51699
1.798	25.413	-36687	4285.4	-0.62279	-0.57408	-0.5164
1.8	25.392	-36692	4288.5	-0.62464	-0.57389	-0.51582
1.802	25.39	-36683	4290.7	-0.62444	-0.57389	-0.51464
1.804	25.415	-36675	4292.9	-0.62425	-0.57389	-0.51347
1.806	25.422	-36676	4294.8	-0.62405	-0.57389	-0.5123
1.808	25.423	-36678	4296.3	-0.62386	-0.57389	-0.51113
1.81	25.434	-36668	4297.8	-0.62366	-0.57389	-0.50996
1.812	25.418	-36657	4298.7	-0.62191	-0.57496	-0.50889
1.814	25.412	-36659	4299.6	-0.62015	-0.57604	-0.50781
1.816	25.415	-36660	4300.2	-0.61839	-0.57711	-0.50674
1.818	25.424	-36657	4300.5	-0.61664	-0.57818	-0.50567
1.82	25.428	-36654	4300.7	-0.61488	-0.57926	-0.50459
1.822	25.42	-36645	4300.3	-0.61517	-0.57916	-0.50362
1.824	25.416	-36636	4299.9	-0.61547	-0.57906	-0.50264
1.826	25.416	-36639	4299.2	-0.61576	-0.57896	-0.50166
1.828	25.411	-36641	4298.2	-0.61605	-0.57887	-0.50069
1.83	25.399	-36636	4297.2	-0.61634	-0.57877	-0.49971
1.832	25.402	-36631	4295.8	-0.61537	-0.58023	-0.5002
1.834	25.404	-36632	4294.3	-0.61439	-0.5817	-0.50069
1.836	25.403	-36633	4292.5	-0.61342	-0.58316	-0.50118
1.838	25.402	-36629	4290.3	-0.61244	-0.58462	-0.50166
1.84	25.392	-36624	4288.1	-0.61146	-0.58609	-0.50215
1.842	25.392	-36620	4285.9	-0.61176	-0.58511	-0.50147
1.844	25.39	-36616	4283.7	-0.61205	-0.58414	-0.50079
1.846	25.39	-36619	4281.2	-0.61234	-0.58316	-0.5001
1.848	25.395	-36622	4278.4	-0.61264	-0.58218	-0.49942
1.85	25.402	-36619	4275.5	-0.61293	-0.58121	-0.49874
1.852	25.429	-36616	4272.8	-0.61361	-0.5816	-0.49952
1.854	25.441	-36606	4270	-0.61429	-0.58199	-0.5003
1.856	25.384	-36596	4267.3	-0.61498	-0.58238	-0.50108
1.858	25.338	-36599	4264.6	-0.61566	-0.58277	-0.50186
1.86	25.355	-36601	4261.9	-0.61634	-0.58316	-0.50264
1.862	25.345	-36603	4259.1	-0.61595	-0.58336	-0.50332
1.864	25.34	-36606	4256.3	-0.61556	-0.58355	-0.50401
1.866	25.354	-36591	4253.6	-0.61517	-0.58375	-0.50469
1.868	25.366	-36576	4250.9	-0.61478	-0.58394	-0.50537
1.87	25.352	-36576	4248.3	-0.61439	-0.58414	-0.50606
1.872	25.349	-36576	4245.8	-0.61429	-0.58423	-0.50606
1.874	25.354	-36570	4243.3	-0.6142	-0.58433	-0.50606
1.876	25.354	-36564	4240.8	-0.6141	-0.58443	-0.50606
1.878	25.358	-36560	4238.4	-0.614	-0.58453	-0.50606
1.88	25.359	-36556	4235.9	-0.6139	-0.58462	-0.50606
1.882	25.347	-36557	4233.7	-0.61527	-0.58326	-0.50664
1.884	25.337	-36557	4231.4	-0.61664	-0.58189	-0.50723
1.886	25.346	-36556	4229.2	-0.618	-0.58052	-0.50781
1.888	25.356	-36555	4227.1	-0.61937	-0.57916	-0.5084
1.89	25.352	-36551	4224.9	-0.62074	-0.57779	-0.50898
1.892	25.347	-36547	4223	-0.62132	-0.57838	-0.50859
1.894	25.358	-36546	4221	-0.62191	-0.57896	-0.5082
1.896	25.376	-36546	4219.3	-0.62249	-0.57955	-0.50781
1.898	25.377	-36542	4217.8	-0.62308	-0.58013	-0.50742
1.9	25.347	-36539	4216.3	-0.62366	-0.58072	-0.50703
1.902	25.304	-36538	4215.1	-0.62493	-0.5815	-0.50742
1.904	25.319	-36537	4213.8	-0.6262	-0.58228	-0.50781
1.906	25.353	-36536	4212.6	-0.62747	-0.58306	-0.5082
1.908	25.343	-36536	4211.4	-0.62874	-0.58384	-0.50859
1.91	25.327	-36535	4210.2	-0.63001	-0.58462	-0.50898
1.912	25.332	-36534	4209.3	-0.62972	-0.58326	-0.50918
1.914	25.343	-36539	4208.3	-0.62942	-0.58189	-0.50937
1.916	25.342	-36544	4207.4	-0.62913	-0.58052	-0.50957
1.918	25.349	-36537	4206.6	-0.62884	-0.57916	-0.50976
1.92	25.337	-36531	4205.7	-0.62854	-0.57779	-0.50996
1.922	25.328	-36531	4204.8	-0.62786	-0.57789	-0.50937
1.924	25.327	-36532	4203.9	-0.62718	-0.57799	-0.50879
1.926	25.338	-36528	4202.9	-0.62649	-0.57808	-0.5082
1.928	25.349	-36524	4202	-0.62581	-0.57818	-0.50762
1.93	25.349	-36524	4201.1	-0.62513	-0.57828	-0.50703
1.932	25.35	-36523	4200.1	-0.62523	-0.57838	-0.50723
1.934	25.343	-36525	4199	-0.62532	-0.57848	-0.50742
1.936	25.345	-36527	4197.9	-0.62542	-0.57857	-0.50762
1.938	25.353	-36522	4196.7	-0.62552	-0.57867	-0.50781
1.94	25.361	-36518	4195.6	-0.62562	-0.57877	-0.50801
1.942	25.351	-36521	4194.2	-0.6264	-0.57867	-0.5083
1.944	25.331	-36523	4192.9	-0.62718	-0.57857	-0.50859
1.946	25.333	-36519	4191.5	-0.62796	-0.57848	-0.50889
1.948	25.353	-36515	4190	-0.62874	-0.57838	-0.50918
1.95	25.353	-36514	4188.5	-0.62952	-0.57828	-0.50947
1.952	25.345	-36512	4187.1	-0.62874	-0.57808	-0.50986
1.954	25.354	-36516	4185.7	-0.62796	-0.57789	-0.51025
1.956	25.345	-36519	4184.3	-0.62718	-0.57769	-0.51064
1.958	25.314	-36517	4182.9	-0.6264	-0.5775	-0.51103
1.96	25.319	-36515	4181.6	-0.62562	-0.5773	-0.51142
1.962	25.339	-36515	4180.2	-0.62532	-0.57711	-0.51094
1.964	25.339	-36515	4178.8	-0.62503	-0.57691	-0.51045
1.966	25.336	-36515	4177.5	-0.62474	-0.57672	-0.50996
1.968	25.339	-36515	4176.2	-0.62444	-0.57652	-0.50947
1.97	25.339	-36516	4174.9	-0.62415	-0.57633	-0.50898
1.972	25.342	-36517	4173.9	-0.62425	-0.57604	-0.50898
1.974	25.357	-36510	4172.9	-0.62435	-0.57574	-0.50898
1.976	25.359	-36502	4172	-0.62444	-0.57545	-0.50898
1.978	25.326	-36504	4171.4	-0.62454	-0.57516	-0.50898
1.98	25.297	-36506	4170.7	-0.62464	-0.57486	-0.50898
1.982	25.311	-36510	4170.2	-0.62298	-0.57525	-0.50772
1.984	25.338	-36515	4169.6	-0.62132	-0.57564	-0.50645
1.986	25.348	-36510	4169.2	-0.61966	-0.57604	-0.50518
1.988	25.349	-36504	4168.8	-0.618	-0.57643	-0.50391
1.99	25.348	-36504	4168.4	-0.61634	-0.57682	-0.50264
1.992	25.333	-36505	4168.2	-0.61586	-0.57867	-0.50274
1.994	25.326	-36502	4168	-0.61537	-0.58052	-0.50284
1.996	25.345	-36499	4168	-0.61488	-0.58238	-0.50293
1.998	25.355	-36498	4168.1	-0.61439	-0.58423	-0.50303
2	25.359	-36496	4168.1	-0.6139	-0.58609	-0.50313
2.002	25.345	-36502	4168.3	-0.61478	-0.58501	-0.50352
2.004	25.344	-36507	4168.5	-0.61566	-0.58394	-0.50391
2.006	25.344	-36508	4168.8	-0.61654	-0.58287	-0.5043
2.008	25.341	-36509	4169	-0.61742	-0.58179	-0.50469
2.01	25.345	-36506	4169.3	-0.6183	-0.58072	-0.50508
2.012	25.331	-36503	4169.8	-0.61888	-0.58033	-0.50567
2.014	25.327	-36501	4170.4	-0.61947	-0.57994	-0.50625
2.016	25.337	-36498	4171	-0.62005	-0.57955	-0.50684
2.018	25.335	-36496	4171.8	-0.62064	-0.57916	-0.50742
2.02	25.325	-36495	4172.5	-0.62122	-0.57877	-0.50801
2.022	25.332	-36497	4173.3	-0.62171	-0.57867	-0.50811
2.024	25.333	-36499	4174.1	-0.6222	-0.57857	-0.5082
2.026	25.333	-36501	4174.8	-0.62269	-0.57848	-0.5083
2.028	25.337	-36503	4175.6	-0.62318	-0.57838	-0.5084
2.03	25.33	-36502	4176.4	-0.62366	-0.57828	-0.5085
2.032	25.334	-36500	4177.3	-0.62318	-0.57808	-0.50801
2.034	25.341	-36500	4178.2	-0.62269	-0.57789	-0.50752
2.036	25.351	-36500	4179.1	-0.6222	-0.57769	-0.50703
2.038	25.363	-36497	4180	-0.62171	-0.5775	-0.50654
2.04	25.352	-36495	4180.9	-0.62122	-0.5773	-0.50606
2.042	25.337	-36497	4181.7	-0.6222	-0.57838	-0.50567
2.044	25.341	-36498	4182.6	-0.62318	-0.57945	-0.50528
2.046	25.34	-36500	4183.4	-0.62415	-0.58052	-0.50488
2.048	25.348	-36502	4184.3	-0.62513	-0.5816	-0.50449
2.05	25.345	-36501	4185.1	-0.6261	-0.58267	-0.5041
2.052	25.324	-36500	4185.8	-0.6263	-0.5817	-0.50518
2.054	25.314	-36496	4186.5	-0.62649	-0.58072	-0.50625
2.056	25.318	-36492	4187.1	-0.62669	-0.57974	-0.50732
2.058	25.324	-36492	4187.6	-0.62688	-0.57877	-0.5084
2.06	25.327	-36492	4188.2	-0.62708	-0.57779	-0.50947
2.062	25.321	-36494	4188.6	-0.62659	-0.57838	-0.50859
2.064	25.315	-36495	4189.1	-0.6261	-0.57896	-0.50772
2.066	25.328	-36497	4189.5	-0.62562	-0.57955	-0.50684
2.068	25.334	-36498	4189.8	-0.62513	-0.58013	-0.50596
2.07	25.31	-36497	4190.1	-0.62464	-0.58072	-0.50508
2.072	25.315	-36497	4190.2	-0.62454	-0.57974	-0.50615
2.074	25.352	-36494	4190.3	-0.62444	-0.57877	-0.50723
2.076	25.359	-36492	4190.3	-0.62435	-0.57779	-0.5083
2.078	25.357	-36493	4190.3	-0.62425	-0.57682	-0.50937
2.08	25.326	-36493	4190.2	-0.62415	-0.57584	-0.51045
2.082	25.324	-36491	4190	-0.62444	-0.57633	-0.51045
2.084	25.318	-36488	4189.8	-0.62474	-0.57682	-0.51045
2.086	25.313	-36484	4189.5	-0.62503	-0.5773	-0.51045
2.088	25.351	-36480	4189.1	-0.62532	-0.57779	-0.51045
2.09	25.358	-36480	4188.8	-0.62562	-0.57828	-0.51045
2.092	25.354	-36481	4188.4	-0.62562	-0.57779	-0.51025
2.094	25.344	-36483	4188.1	-0.62562	-0.5773	-0.51006
2.096	25.329	-36486	4187.6	-0.62562	-0.57682	-0.50986
2.098	25.32	-36485	4187	-0.62562	-0.57633	-0.50967
2.1	25.315	-36483	4186.3	-0.62562	-0.57584	-0.50947
2.102	25.311	-36476	4185.6	-0.62454	-0.57555	-0.50928
2.104	25.341	-36468	4184.8	-0.62347	-0.57525	-0.50908
2.106	25.344	-36474	4184.1	-0.6224	-0.57496	-0.50889
2.108	25.324	-36479	4183.3	-0.62132	-0.57467	-0.50869
2.11	25.32	-36481	4182.5	-0.62025	-0.57438	-0.5085
2.112	25.32	-36482	4181.7	-0.62054	-0.57496	-0.5083
2.114	25.312	-36477	4180.9	-0.62083	-0.57555	-0.50811
2.116	25.316	-36472	4180.1	-0.62113	-0.57613	-0.50791
2.118	25.331	-36470	4179.2	-0.62142	-0.57672	-0.50772
2.12	25.329	-36468	4178.2	-0.62171	-0.5773	-0.50752
2.122	25.321	-36469	4177.2	-0.62093	-0.57789	-0.50606
2.124	25.316	-36470	4176.2	-0.62015	-0.57848	-0.50459
2.126	25.311	-36471	4175.1	-0.61937	-0.57906	-0.50313
2.128	25.312	-36471	4174	-0.61859	-0.57965	-0.50166
2.13	25.318	-36472	4172.9	-0.61781	-0.58023	-0.5002
2.132	25.321	-36472	4171.6	-0.61742	-0.5814	-0.50098
2.134	25.316	-36474	4170.3	-0.61703	-0.58257	-0.50176
2.136	25.315	-36475	4169	-0.61664	-0.58375	-0.50254
2.138	25.322	-36470	4167.7	-0.61625	-0.58492	-0.50332
2.14	25.333	-36464	4166.4	-0.61586	-0.58609	-0.5041
2.142	25.336	-36464	4165.1	-0.61615	-0.58599	-0.50459
2.144	25.315	-36464	4163.8	-0.61644	-0.58589	-0.50508
2.146	25.287	-36468	4162.5	-0.61673	-0.5858	-0.50557
2.148	25.291	-36473	4161.2	-0.61703	-0.5857	-0.50606
2.15	25.304	-36469	4159.9	-0.61732	-0.5856	-0.50654
2.152	25.307	-36466	4158.5	-0.61752	-0.58433	-0.50547
2.154	25.323	-36466	4157	-0.61771	-0.58306	-0.5044
2.156	25.328	-36466	4155.6	-0.61791	-0.58179	-0.50332
2.158	25.317	-36468	4154.2	-0.6181	-0.58052	-0.50225
2.16	25.307	-36470	4152.7	-0.6183	-0.57926	-0.50118
2.162	25.302	-36473	4151.3	-0.6182	-0.58013	-0.50088
2.164	25.328	-36475	4149.8	-0.6181	-0.58101	-0.50059
2.166	25.363	-36473	4148.3	-0.618	-0.58189	-0.5003
2.168	25.334	-36471	4146.8	-0.61791	-0.58277	-0.5
2.17	25.318	-36470	4145.2	-0.61781	-0.58365	-0.49971
2.172	25.334	-36470	4143.7	-0.61839	-0.58326	-0.50088
2.174	25.34	-36475	4142.3	-0.61898	-0.58287	-0.50205
2.176	25.322	-36480	4140.8	-0.61956	-0.58248	-0.50323
2.178	25.308	-36475	4139.5	-0.62015	-0.58209	-0.5044
2.18	25.326	-36471	4138.1	-0.62074	-0.5817	-0.50557
2.182	25.332	-36468	4136.9	-0.61927	-0.58248	-0.50518
2.184	25.33	-36465	4135.7	-0.61781	-0.58326	-0.50479
2.186	25.304	-36466	4134.5	-0.61634	-0.58404	-0.5044
2.188	25.314	-36466	4133.5	-0.61488	-0.58482	-0.50401
2.19	25.311	-36471	4132.4	-0.61342	-0.5856	-0.50362
2.192	25.321	-36475	4131.4	-0.6141	-0.58492	-0.50274
2.194	25.321	-36471	4130.3	-0.61478	-0.58423	-0.50186
2.196	25.308	-36467	4129.3	-0.61547	-0.58355	-0.50098
2.198	25.318	-36467	4128.3	-0.61615	-0.58287	-0.5001
2.2	25.319	-36466	4127.3	-0.61683	-0.58218	-0.49922
2.202	25.312	-36471	4126.3	-0.61693	-0.5816	-0.49952
2.204	25.31	-36475	4125.3	-0.61703	-0.58101	-0.49981
2.206	25.32	-36475	4124.3	-0.61712	-0.58043	-0.5001
2.208	25.335	-36475	4123.3	-0.61722	-0.57984	-0.5004
2.21	25.32	-36470	4122.3	-0.61732	-0.57926	-0.50069
2.212	25.311	-36465	4121.4	-0.61722	-0.57926	-0.50127
2.214	25.313	-36464	4120.4	-0.61712	-0.57926	-0.50186
2.216	25.315	-36463	4119.5	-0.61703	-0.57926	-0.50244
2.218	25.326	-36466	4118.6	-0.61693	-0.57926	-0.50303
2.22	25.33	-36469	4117.8	-0.61683	-0.57926	-0.50362
2.222	25.324	-36468	4117.1	-0.61703	-0.57926	-0.50352
2.224	25.315	-36467	4116.4	-0.61722	-0.57926	-0.50342
2.226	25.308	-36472	4115.7	-0.61742	-0.57926	-0.50332
2.228	25.31	-36476	4115.2	-0.61761	-0.57926	-0.50323
2.23	25.309	-36477	4114.6	-0.61781	-0.57926	-0.50313
2.232	25.299	-36479	4114	-0.61722	-0.57945	-0.50303
2.234	25.294	-36479	4113.4	-0.61664	-0.57965	-0.50293
2.236	25.293	-36480	4112.9	-0.61605	-0.57984	-0.50284
2.238	25.294	-36480	4112.3	-0.61547	-0.58004	-0.50274
2.24	25.294	-36481	4111.8	-0.61488	-0.58023	-0.50264
2.242	25.299	-36477	4111.4	-0.61547	-0.58013	-0.50205
2.244	25.294	-36473	4111	-0.61605	-0.58004	-0.50147
2.246	25.316	-36474	4110.5	-0.61664	-0.57994	-0.50088
2.248	25.337	-36475	4110.1	-0.61722	-0.57984	-0.5003
2.25	25.321	-36475	4109.8	-0.61781	-0.57974	-0.49971
2.252	25.318	-36474	4109.5	-0.61869	-0.57848	-0.50147
2.254	25.326	-36476	4109.2	-0.61956	-0.57721	-0.50323
2.256	25.338	-36478	4109	-0.62044	-0.57594	-0.50498
2.258	25.332	-36481	4108.9	-0.62132	-0.57467	-0.50674
2.26	25.307	-36484	4108.7	-0.6222	-0.5734	-0.5085
2.262	25.311	-36484	4108.6	-0.62161	-0.57379	-0.5082
2.264	25.324	-36485	4108.4	-0.62103	-0.57418	-0.50791
2.266	25.313	-36486	4108.2	-0.62044	-0.57457	-0.50762
2.268	25.301	-36487	4108	-0.61986	-0.57496	-0.50732
2.27	25.309	-36488	4107.9	-0.61927	-0.57535	-0.50703
2.272	25.307	-36488	4107.8	-0.61966	-0.57477	-0.50703
2.274	25.313	-36486	4107.7	-0.62005	-0.57418	-0.50703
2.276	25.306	-36483	4107.6	-0.62044	-0.5736	-0.50703
2.278	25.307	-36488	4107.6	-0.62083	-0.57301	-0.50703
2.28	25.312	-36494	4107.5	-0.62122	-0.57242	-0.50703
2.282	25.307	-36490	4107.5	-0.6222	-0.5734	-0.50723
2.284	25.304	-36486	4107.5	-0.62318	-0.57438	-0.50742
2.286	25.3	-36493	4107.5	-0.62415	-0.57535	-0.50762
2.288	25.306	-36499	4107.5	-0.62513	-0.57633	-0.50781
2.29	25.313	-36495	4107.5	-0.6261	-0.5773	-0.50801
2.292	25.313	-36492	4107.4	-0.62552	-0.57701	-0.50752
2.294	25.326	-36494	4107.4	-0.62493	-0.57672	-0.50703
2.296	25.327	-36497	4107.4	-0.62435	-0.57643	-0.50654
2.298	25.316	-36499	4107.4	-0.62376	-0.57613	-0.50606
2.3	25.314	-36501	4107.4	-0.62318	-0.57584	-0.50557
2.302	25.323	-36500	4107.3	-0.62308	-0.57545	-0.50625
2.304	25.334	-36499	4107.2	-0.62298	-0.57506	-0.50693
2.306	25.332	-36498	4107.1	-0.62288	-0.57467	-0.50762
2.308	25.311	-36497	4107	-0.62279	-0.57428	-0.5083
2.31	25.313	-36499	4106.9	-0.62269	-0.57389	-0.50898
2.312	25.349	-36501	4106.8	-0.62405	-0.57516	-0.50879
2.314	25.356	-36502	4106.8	-0.62542	-0.57643	-0.50859
2.316	25.333	-36503	4106.8	-0.62679	-0.57769	-0.5084
2.318	25.319	-36502	4106.9	-0.62815	-0.57896	-0.5082
2.32	25.317	-36501	4106.9	-0.62952	-0.58023	-0.50801
2.322	25.316	-36508	4106.8	-0.62806	-0.57916	-0.50791
2.324	25.319	-36515	4106.7	-0.62659	-0.57808	-0.50781
2.326	25.331	-36513	4106.5	-0.62513	-0.57701	-0.50772
2.328	25.349	-36511	4106.2	-0.62366	-0.57594	-0.50762
2.33	25.349	-36511	4106	-0.6222	-0.57486	-0.50752
2.332	25.351	-36512	4105.7	-0.62142	-0.57594	-0.50664
2.334	25.358	-36514	4105.5	-0.62064	-0.57701	-0.50576
2.336	25.356	-36516	4105.3	-0.61986	-0.57808	-0.50488
2.338	25.357	-36514	4105.1	-0.61908	-0.57916	-0.50401
2.34	25.364	-36513	4104.9	-0.6183	-0.58023	-0.50313
2.342	25.369	-36509	4104.8	-0.61888	-0.57984	-0.50362
2.344	25.378	-36504	4104.7	-0.61947	-0.57945	-0.5041
2.346	25.384	-36503	4104.6	-0.62005	-0.57906	-0.50459
2.348	25.338	-36501	4104.5	-0.62064	-0.57867	-0.50508
2.35	25.334	-36508	4104.5	-0.62122	-0.57828	-0.50557
2.352	25.355	-36515	4104.3	-0.62035	-0.57838	-0.50518
2.354	25.385	-36515	4104.1	-0.61947	-0.57848	-0.50479
2.356	25.369	-36515	4103.8	-0.61859	-0.57857	-0.5044
2.358	25.344	-36518	4103.5	-0.61771	-0.57867	-0.50401
2.36	25.355	-36521	4103.3	-0.61683	-0.57877	-0.50362
2.362	25.363	-36516	4103	-0.61615	-0.57945	-0.50303
2.364	25.355	-36512	4102.8	-0.61547	-0.58013	-0.50244
2.366	25.356	-36511	4102.6	-0.61478	-0.58082	-0.50186
2.368	25.341	-36509	4102.4	-0.6141	-0.5815	-0.50127
2.37	25.339	-36510	4102.1	-0.61342	-0.58218	-0.50069
2.372	25.327	-36511	4101.9	-0.61488	-0.58121	-0.50069
2.374	25.304	-36516	4101.7	-0.61634	-0.58023	-0.50069
2.376	25.288	-36522	4101.4	-0.61781	-0.57926	-0.50069
2.378	25.296	-36519	4101	-0.61927	-0.57828	-0.50069
2.38	25.29	-36517	4100.6	-0.62074	-0.5773	-0.50069
2.382	25.289	-36515	4100.2	-0.62005	-0.57789	-0.5004
2.384	25.302	-36513	4099.8	-0.61937	-0.57848	-0.5001
2.386	25.304	-36520	4099.3	-0.61869	-0.57906	-0.49981
2.388	25.312	-36527	4098.9	-0.618	-0.57965	-0.49952
2.39	25.316	-36526	4098.4	-0.61732	-0.58023	-0.49922
2.392	25.309	-36524	4098	-0.618	-0.57935	-0.5002
2.394	25.311	-36524	4097.6	-0.61869	-0.57848	-0.50118
2.396	25.311	-36523	4097.2	-0.61937	-0.5776	-0.50215
2.398	25.31	-36521	4096.9	-0.62005	-0.57672	-0.50313
2.4	25.328	-36518	4096.6	-0.62074	-0.57584	-0.5041
2.402	25.318	-36519	4096.6	-0.62074	-0.57643	-0.50342
2.404	25.284	-36520	4096.6	-0.62074	-0.57701	-0.50274
2.406	25.289	-36515	4096.5	-0.62074	-0.5776	-0.50205
2.408	25.301	-36510	4096.3	-0.62074	-0.57818	-0.50137
2.41	25.304	-36521	4096.1	-0.62074	-0.57877	-0.50069
2.412	25.299	-36533	4095.8	-0.61986	-0.57916	-0.50108
2.414	25.3	-36531	4095.5	-0.61898	-0.57955	-0.50147
2.416	25.304	-36528	4095.2	-0.6181	-0.57994	-0.50186
2.418	25.309	-36534	4094.9	-0.61722	-0.58033	-0.50225
2.42	25.313	-36540	4094.6	-0.61634	-0.58072	-0.50264
2.422	25.323	-36536	4094.2	-0.61664	-0.58131	-0.50225
2.424	25.335	-36532	4093.8	-0.61693	-0.58189	-0.50186
2.426	25.346	-36534	4093.4	-0.61722	-0.58248	-0.50147
2.428	25.347	-36535	4093	-0.61752	-0.58306	-0.50108
2.43	25.351	-36536	4092.5	-0.61781	-0.58365	-0.50069
2.432	25.362	-36537	4092.2	-0.61859	-0.58189	-0.50166
2.434	25.354	-36534	4091.8	-0.61937	-0.58013	-0.50264
2.436	25.347	-36531	4091.4	-0.62015	-0.57838	-0.50362
2.438	25.378	-36531	4091	-0.62093	-0.57662	-0.50459
2.44	25.394	-36532	4090.6	-0.62171	-0.57486	-0.50557
2.442	25.38	-36532	4090.2	-0.62259	-0.57506	-0.50625
2.444	25.408	-36533	4089.7	-0.62347	-0.57525	-0.50693
2.446	25.445	-36541	4089.2	-0.62435	-0.57545	-0.50762
2.448	25.454	-36548	4088.7	-0.62523	-0.57564	-0.5083
2.45	25.458	-36544	4088.2	-0.6261	-0.57584	-0.50898
2.452	25.477	-36541	4087.5	-0.62415	-0.57701	-0.50762
2.454	25.496	-36543	4086.9	-0.6222	-0.57818	-0.50625
2.456	25.455	-36546	4086.3	-0.62025	-0.57935	-0.50488
2.458	25.423	-36545	4085.6	-0.6183	-0.58052	-0.50352
2.46	25.404	-36545	4084.9	-0.61634	-0.5817	-0.50215
2.462	25.371	-36544	4084.2	-0.61634	-0.58189	-0.50196
2.464	25.316	-36544	4083.5	-0.61634	-0.58209	-0.50176
2.466	25.269	-36546	4082.9	-0.61634	-0.58228	-0.50157
2.468	25.232	-36547	4082.4	-0.61634	-0.58248	-0.50137
2.47	25.189	-36549	4081.8	-0.61634	-0.58267	-0.50118
2.472	25.174	-36551	4081.2	-0.61586	-0.58228	-0.50127
2.474	25.191	-36550	4080.6	-0.61537	-0.58189	-0.50137
2.476	25.201	-36549	4080	-0.61488	-0.5815	-0.50147
2.478	25.218	-36553	4079.4	-0.61439	-0.58111	-0.50157
2.48	25.252	-36557	4078.9	-0.6139	-0.58072	-0.50166
2.482	25.268	-36559	4078.4	-0.61527	-0.58023	-0.50157
2.484	25.277	-36560	4078	-0.61664	-0.57974	-0.50147
2.486	25.289	-36557	4077.6	-0.618	-0.57926	-0.50137
2.488	25.295	-36553	4077.2	-0.61937	-0.57877	-0.50127
2.49	25.308	-36562	4076.8	-0.62074	-0.57828	-0.50118
2.492	25.313	-36571	4076.3	-0.61986	-0.57887	-0.50147
2.494	25.307	-36565	4075.8	-0.61898	-0.57945	-0.50176
2.496	25.299	-36559	4075.3	-0.6181	-0.58004	-0.50205
2.498	25.317	-36565	4074.8	-0.61722	-0.58062	-0.50235
2.5	25.332	-36571	4074.3	-0.61634	-0.58121	-0.50264
2.502	25.312	-36573	4073.8	-0.61683	-0.58023	-0.50303
2.504	25.305	-36576	4073.4	-0.61732	-0.57926	-0.50342
2.506	25.31	-36575	4072.9	-0.61781	-0.57828	-0.50381
2.508	25.322	-36575	4072.4	-0.6183	-0.5773	-0.5042
2.51	25.321	-36575	4071.9	-0.61878	-0.57633	-0.50459
2.512	25.317	-36575	4071.5	-0.61908	-0.57623	-0.50401
2.514	25.311	-36575	4071.1	-0.61937	-0.57613	-0.50342
2.516	25.318	-36575	4070.8	-0.61966	-0.57604	-0.50284
2.518	25.307	-36575	4070.5	-0.61996	-0.57594	-0.50225
2.52	25.315	-36575	4070.3	-0.62025	-0.57584	-0.50166
2.522	25.317	-36579	4070.1	-0.61947	-0.57623	-0.50147
2.524	25.314	-36582	4069.9	-0.61869	-0.57662	-0.50127
2.526	25.328	-36581	4069.7	-0.61791	-0.57701	-0.50108
2.528	25.316	-36580	4069.6	-0.61712	-0.5774	-0.50088
2.53	25.3	-36582	4069.5	-0.61634	-0.57779	-0.50069
2.532	25.308	-36584	4069.4	-0.61644	-0.57799	-0.50118
2.534	25.317	-36586	4069.2	-0.61654	-0.57818	-0.50166
2.536	25.297	-36588	4069.1	-0.61664	-0.57838	-0.50215
2.538	25.282	-36584	4069	-0.61673	-0.57857	-0.50264
2.54	25.294	-36579	4068.9	-0.61683	-0.57877	-0.50313
2.542	25.319	-36585	4068.7	-0.61625	-0.58013	-0.50303
2.544	25.323	-36592	4068.6	-0.61566	-0.5815	-0.50293
2.546	25.308	-36594	4068.5	-0.61508	-0.58287	-0.50284
2.548	25.305	-36595	4068.3	-0.61449	-0.58423	-0.50274
2.55	25.305	-36593	4068.2	-0.6139	-0.5856	-0.50264
2.552	25.305	-36591	4068	-0.61478	-0.58492	-0.50274
2.554	25.3	-36593	4067.8	-0.61566	-0.58423	-0.50284
2.556	25.3	-36594	4067.5	-0.61654	-0.58355	-0.50293
2.558	25.306	-36597	4067.1	-0.61742	-0.58287	-0.50303
2.56	25.306	-36600	4066.7	-0.6183	-0.58218	-0.50313
2.562	25.305	-36599	4066.2	-0.61888	-0.58131	-0.50332
2.564	25.306	-36597	4065.7	-0.61947	-0.58043	-0.50352
2.566	25.311	-36597	4065.2	-0.62005	-0.57955	-0.50371
2.568	25.299	-36597	4064.8	-0.62064	-0.57867	-0.50391
2.57	25.288	-36598	4064.4	-0.62122	-0.57779	-0.5041
2.572	25.305	-36599	4063.9	-0.62161	-0.57779	-0.50488
2.574	25.329	-36603	4063.4	-0.622	-0.57779	-0.50567
2.576	25.334	-36607	4062.7	-0.6224	-0.57779	-0.50645
2.578	25.322	-36607	4062	-0.62279	-0.57779	-0.50723
2.58	25.317	-36606	4061.3	-0.62318	-0.57779	-0.50801
2.582	25.303	-36606	4060.6	-0.62161	-0.57877	-0.50703
2.584	25.298	-36607	4059.8	-0.62005	-0.57974	-0.50606
2.586	25.293	-36608	4059	-0.61849	-0.58072	-0.50508
2.588	25.289	-36609	4058.1	-0.61693	-0.5817	-0.5041
2.59	25.304	-36610	4057.3	-0.61537	-0.58267	-0.50313
2.592	25.304	-36611	4056.3	-0.61634	-0.58238	-0.50215
2.594	25.291	-36615	4055.3	-0.61732	-0.58209	-0.50118
2.596	25.293	-36620	4054.3	-0.6183	-0.58179	-0.5002
2.598	25.306	-36616	4053.3	-0.61927	-0.5815	-0.49922
2.6	25.312	-36613	4052.3	-0.62025	-0.58121	-0.49825
2.602	25.304	-36613	4051.2	-0.61976	-0.58101	-0.49786
2.604	25.303	-36613	4050.2	-0.61927	-0.58082	-0.49747
2.606	25.305	-36620	4049.2	-0.61878	-0.58062	-0.49708
2.608	25.302	-36627	4048.2	-0.6183	-0.58043	-0.49669
2.61	25.298	-36625	4047.3	-0.61781	-0.58023	-0.4963
2.612	25.307	-36623	4046.4	-0.61781	-0.58023	-0.4962
2.614	25.308	-36624	4045.5	-0.61781	-0.58023	-0.4961
2.616	25.313	-36625	4044.7	-0.61781	-0.58023	-0.496
2.618	25.32	-36629	4044.1	-0.61781	-0.58023	-0.49591
2.62	25.351	-36634	4043.5	-0.61781	-0.58023	-0.49581
2.622	25.336	-36634	4043.4	-0.61791	-0.58043	-0.49639
2.624	25.291	-36635	4043.4	-0.618	-0.58062	-0.49698
2.626	25.263	-36630	4043.5	-0.6181	-0.58082	-0.49756
2.628	25.268	-36625	4043.8	-0.6182	-0.58101	-0.49815
2.63	25.296	-36628	4044.1	-0.6183	-0.58121	-0.49874
2.632	25.304	-36632	4044.9	-0.6182	-0.5814	-0.49942
2.634	25.31	-36635	4045.8	-0.6181	-0.5816	-0.5001
2.636	25.318	-36638	4047	-0.618	-0.58179	-0.50079
2.638	25.319	-36639	4048.6	-0.61791	-0.58199	-0.50147
2.64	25.306	-36640	4050.1	-0.61781	-0.58218	-0.50215
2.642	25.305	-36645	4052.5	-0.61781	-0.58238	-0.50225
2.644	25.318	-36649	4054.9	-0.61781	-0.58257	-0.50235
2.646	25.327	-36646	4057.7	-0.61781	-0.58277	-0.50244
2.648	25.331	-36643	4061	-0.61781	-0.58296	-0.50254
2.65	25.332	-36637	4064.2	-0.61781	-0.58316	-0.50264
2.652	25.323	-36631	4068.5	-0.61908	-0.58287	-0.50264
2.654	25.318	-36631	4072.7	-0.62035	-0.58257	-0.50264
2.656	25.333	-36631	4077.4	-0.62161	-0.58228	-0.50264
2.658	25.343	-36635	4082.4	-0.62288	-0.58199	-0.50264
2.66	25.33	-36639	4087.5	-0.62415	-0.5817	-0.50264
2.662	25.317	-36644	4093.3	-0.62474	-0.5815	-0.50342
2.664	25.319	-36648	4099.1	-0.62532	-0.58131	-0.5042
2.666	25.335	-36649	4105.2	-0.62591	-0.58111	-0.50498
2.668	25.346	-36651	4111.5	-0.62649	-0.58092	-0.50576
2.67	25.351	-36653	4117.8	-0.62708	-0.58072	-0.50654
2.672	25.353	-36654	4124.5	-0.62698	-0.58033	-0.50586
2.674	25.341	-36656	4131.2	-0.62688	-0.57994	-0.50518
2.676	25.343	-36657	4138	-0.62679	-0.57955	-0.50449
2.678	25.348	-36651	4144.9	-0.62669	-0.57916	-0.50381
2.68	25.355	-36645	4151.7	-0.62659	-0.57877	-0.50313
2.682	25.349	-36641	4158.6	-0.62718	-0.57926	-0.50381
2.684	25.353	-36638	4165.4	-0.62776	-0.57974	-0.50449
2.686	25.365	-36638	4172.2	-0.62835	-0.58023	-0.50518
2.688	25.363	-36638	4178.7	-0.62893	-0.58072	-0.50586
2.69	25.362	-36646	4185.3	-0.62952	-0.58121	-0.50654
2.692	25.362	-36654	4191.6	-0.62903	-0.58082	-0.50684
2.694	25.362	-36653	4197.8	-0.62854	-0.58043	-0.50713
2.696	25.37	-36652	4203.8	-0.62806	-0.58004	-0.50742
2.698	25.374	-36648	4209.6	-0.62757	-0.57965	-0.50772
2.7	25.379	-36643	4215.3	-0.62708	-0.57926	-0.50801
2.702	25.372	-36642	4220.4	-0.62659	-0.57887	-0.50732
2.704	25.37	-36640	4225.5	-0.6261	-0.57848	-0.50664
2.706	25.366	-36637	4230.3	-0.62562	-0.57808	-0.50596
2.708	25.361	-36634	4234.6	-0.62513	-0.57769	-0.50528
2.71	25.363	-36632	4239	-0.62464	-0.5773	-0.50459
2.712	25.365	-36630	4242.6	-0.62435	-0.57652	-0.50537
2.714	25.356	-36630	4246.1	-0.62405	-0.57574	-0.50615
2.716	25.361	-36631	4249.4	-0.62376	-0.57496	-0.50693
2.718	25.397	-36630	4252.6	-0.62347	-0.57418	-0.50772
2.72	25.355	-36629	4255.7	-0.62318	-0.5734	-0.5085
2.722	25.347	-36628	4258.2	-0.62103	-0.57447	-0.50713
2.724	25.395	-36627	4260.8	-0.61888	-0.57555	-0.50576
2.726	25.394	-36622	4262.9	-0.61673	-0.57662	-0.5044
2.728	25.373	-36617	4264.7	-0.61459	-0.57769	-0.50303
2.73	25.365	-36616	4266.5	-0.61244	-0.57877	-0.50166
2.732	25.37	-36615	4267.5	-0.61351	-0.57838	-0.50118
2.734	25.379	-36612	4268.5	-0.61459	-0.57799	-0.50069
2.736	25.382	-36610	4269.3	-0.61566	-0.5776	-0.5002
2.738	25.38	-36604	4269.7	-0.61673	-0.57721	-0.49971
2.74	25.377	-36597	4270.1	-0.61781	-0.57682	-0.49922
2.742	25.358	-36597	4270	-0.61878	-0.5774	-0.49883
2.744	25.349	-36597	4269.8	-0.61976	-0.57799	-0.49844
2.746	25.372	-36596	4269.3	-0.62074	-0.57857	-0.49805
2.748	25.382	-36594	4268.5	-0.62171	-0.57916	-0.49766
2.75	25.37	-36593	4267.7	-0.62269	-0.57974	-0.49727
2.752	25.361	-36591	4266.3	-0.622	-0.57896	-0.49796
2.754	25.355	-36591	4265	-0.62132	-0.57818	-0.49864
2.756	25.35	-36590	4263.4	-0.62064	-0.5774	-0.49932
2.758	25.35	-36582	4261.5	-0.61996	-0.57662	-0.5
2.76	25.351	-36573	4259.7	-0.61927	-0.57584	-0.50069
2.762	25.346	-36569	4257.4	-0.62054	-0.57701	-0.5
2.764	25.346	-36565	4255	-0.62181	-0.57818	-0.49932
2.766	25.359	-36566	4252.6	-0.62308	-0.57935	-0.49864
2.768	25.359	-36568	4249.9	-0.62435	-0.58052	-0.49796
2.77	25.336	-36568	4247.3	-0.62562	-0.5817	-0.49727
2.772	25.315	-36568	4244.5	-0.62435	-0.58101	-0.49883
2.774	25.356	-36562	4241.7	-0.62308	-0.58033	-0.5004
2.776	25.355	-36556	4239	-0.62181	-0.57965	-0.50196
2.778	25.325	-36552	4236.4	-0.62054	-0.57896	-0.50352
2.78	25.345	-36549	4233.8	-0.61927	-0.57828	-0.50508
2.782	25.315	-36546	4231.3	-0.6183	-0.58013	-0.50449
2.784	25.301	-36542	4228.9	-0.61732	-0.58199	-0.50391
2.786	25.33	-36539	4226.4	-0.61634	-0.58384	-0.50332
2.788	25.334	-36535	4224	-0.61537	-0.5857	-0.50274
2.79	25.318	-36541	4221.6	-0.61439	-0.58755	-0.50215
2.792	25.292	-36547	4219.3	-0.61508	-0.58648	-0.50166
2.794	25.314	-36548	4216.9	-0.61576	-0.5854	-0.50118
2.796	25.317	-36549	4214.6	-0.61644	-0.58433	-0.50069
2.798	25.287	-36541	4212.3	-0.61712	-0.58326	-0.5002
2.8	25.287	-36533	4210	-0.61781	-0.58218	-0.49971
2.802	25.29	-36531	4207.9	-0.61712	-0.58228	-0.5002
2.804	25.293	-36530	4205.8	-0.61644	-0.58238	-0.50069
2.806	25.292	-36527	4203.6	-0.61576	-0.58248	-0.50118
2.808	25.3	-36525	4201.5	-0.61508	-0.58257	-0.50166
2.81	25.298	-36522	4199.4	-0.61439	-0.58267	-0.50215
2.812	25.29	-36520	4197.5	-0.61498	-0.58218	-0.50235
2.814	25.293	-36519	4195.5	-0.61556	-0.5817	-0.50254
2.816	25.307	-36519	4193.6	-0.61615	-0.58121	-0.50274
2.818	25.297	-36515	4191.7	-0.61673	-0.58072	-0.50293
2.82	25.286	-36510	4189.8	-0.61732	-0.58023	-0.50313
2.822	25.285	-36515	4188	-0.61869	-0.57906	-0.5044
2.824	25.29	-36519	4186.2	-0.62005	-0.57789	-0.50567
2.826	25.297	-36520	4184.4	-0.62142	-0.57672	-0.50693
2.828	25.293	-36521	4182.6	-0.62279	-0.57555	-0.5082
2.83	25.286	-36514	4180.8	-0.62415	-0.57438	-0.50947
2.832	25.286	-36507	4179	-0.62503	-0.57545	-0.50918
2.834	25.288	-36503	4177.1	-0.62591	-0.57652	-0.50889
2.836	25.291	-36499	4175.3	-0.62679	-0.5776	-0.50859
2.838	25.298	-36501	4173.4	-0.62767	-0.57867	-0.5083
2.84	25.294	-36503	4171.5	-0.62854	-0.57974	-0.50801
2.842	25.288	-36501	4169.6	-0.62796	-0.57916	-0.5083
2.844	25.293	-36499	4167.8	-0.62737	-0.57857	-0.50859
2.846	25.303	-36502	4165.9	-0.62679	-0.57799	-0.50889
2.848	25.306	-36504	4164.1	-0.6262	-0.5774	-0.50918
2.85	25.297	-36498	4162.3	-0.62562	-0.57682	-0.50947
2.852	25.28	-36491	4160.7	-0.62454	-0.57623	-0.50869
2.854	25.298	-36496	4159.1	-0.62347	-0.57564	-0.50791
2.856	25.305	-36501	4157.6	-0.6224	-0.57506	-0.50713
2.858	25.302	-36502	4156.2	-0.62132	-0.57447	-0.50635
2.86	25.295	-36503	4154.8	-0.62025	-0.57389	-0.50557
2.862	25.29	-36498	4153.3	-0.62025	-0.57399	-0.50547
2.864	25.277	-36493	4151.9	-0.62025	-0.57408	-0.50537
2.866	25.276	-36495	4150.4	-0.62025	-0.57418	-0.50528
2.868	25.272	-36497	4148.9	-0.62025	-0.57428	-0.50518
2.87	25.275	-36493	4147.4	-0.62025	-0.57438	-0.50508
2.872	25.283	-36490	4145.9	-0.62161	-0.57477	-0.50557
2.874	25.291	-36492	4144.4	-0.62298	-0.57516	-0.50606
2.876	25.272	-36494	4142.9	-0.62435	-0.57555	-0.50654
2.878	25.278	-36484	4141.4	-0.62571	-0.57594	-0.50703
2.88	25.272	-36475	4140	-0.62708	-0.57633	-0.50752
2.882	25.267	-36475	4138.6	-0.62601	-0.57555	-0.50703
2.884	25.274	-36474	4137.3	-0.62493	-0.57477	-0.50654
2.886	25.297	-36475	4136	-0.62386	-0.57399	-0.50606
2.888	25.308	-36476	4134.9	-0.62279	-0.5732	-0.50557
2.89	25.312	-36480	4133.7	-0.62171	-0.57242	-0.50508
2.892	25.305	-36484	4132.8	-0.62103	-0.5736	-0.5042
2.894	25.304	-36481	4131.9	-0.62035	-0.57477	-0.50332
2.896	25.311	-36478	4131.2	-0.61966	-0.57594	-0.50244
2.898	25.299	-36478	4130.6	-0.61898	-0.57711	-0.50157
2.9	25.27	-36478	4130.1	-0.6183	-0.57828	-0.50069
2.902	25.265	-36479	4129.8	-0.61869	-0.57818	-0.50049
2.904	25.284	-36481	4129.5	-0.61908	-0.57808	-0.5003
2.906	25.296	-36476	4129.3	-0.61947	-0.57799	-0.5001
2.908	25.29	-36470	4129.1	-0.61986	-0.57789	-0.49991
2.91	25.282	-36470	4128.9	-0.62025	-0.57779	-0.49971
2.912	25.278	-36470	4128.8	-0.61966	-0.57779	-0.50098
2.914	25.271	-36475	4128.7	-0.61908	-0.57779	-0.50225
2.916	25.271	-36480	4128.7	-0.61849	-0.57779	-0.50352
2.918	25.281	-36475	4128.6	-0.61791	-0.57779	-0.50479
2.92	25.289	-36469	4128.6	-0.61732	-0.57779	-0.50606
2.922	25.294	-36468	4128.7	-0.61712	-0.57769	-0.50615
2.924	25.298	-36467	4128.8	-0.61693	-0.5776	-0.50625
2.926	25.309	-36470	4129.1	-0.61673	-0.5775	-0.50635
2.928	25.326	-36472	4129.7	-0.61654	-0.5774	-0.50645
2.93	25.312	-36478	4130.2	-0.61634	-0.5773	-0.50654
2.932	25.28	-36483	4131	-0.61673	-0.57799	-0.50606
2.934	25.28	-36480	4131.8	-0.61712	-0.57867	-0.50557
2.936	25.279	-36477	4132.6	-0.61752	-0.57935	-0.50508
2.938	25.277	-36471	4133.4	-0.61791	-0.58004	-0.50459
2.94	25.298	-36465	4134.2	-0.6183	-0.58072	-0.5041
2.942	25.301	-36471	4134.9	-0.6183	-0.58052	-0.5041
2.944	25.288	-36477	4135.7	-0.6183	-0.58033	-0.5041
2.946	25.286	-36479	4136.5	-0.6183	-0.58013	-0.5041
2.948	25.281	-36481	4137.4	-0.6183	-0.57994	-0.5041
2.95	25.285	-36481	4138.2	-0.6183	-0.57974	-0.5041
2.952	25.268	-36481	4139	-0.61771	-0.57994	-0.50371
2.954	25.263	-36478	4139.8	-0.61712	-0.58013	-0.50332
2.956	25.27	-36476	4140.5	-0.61654	-0.58033	-0.50293
2.958	25.28	-36473	4141.2	-0.61595	-0.58052	-0.50254
2.96	25.294	-36471	4141.8	-0.61537	-0.58072	-0.50215
2.962	25.3	-36469	4142.5	-0.61712	-0.57974	-0.50352
2.964	25.29	-36466	4143.1	-0.61888	-0.57877	-0.50488
2.966	25.274	-36466	4143.7	-0.62064	-0.57779	-0.50625
2.968	25.29	-36467	4144.2	-0.6224	-0.57682	-0.50762
2.97	25.297	-36468	4144.7	-0.62415	-0.57584	-0.50898
2.972	25.283	-36470	4145.1	-0.62405	-0.57574	-0.50859
2.974	25.279	-36469	4145.5	-0.62396	-0.57564	-0.5082
2.976	25.293	-36468	4145.8	-0.62386	-0.57555	-0.50781
2.978	25.282	-36470	4146.2	-0.62376	-0.57545	-0.50742
2.98	25.278	-36471	4146.5	-0.62366	-0.57535	-0.50703
2.982	25.286	-36462	4146.7	-0.62386	-0.57604	-0.50684
2.984	25.285	-36453	4146.9	-0.62405	-0.57672	-0.50664
2.986	25.289	-36459	4147	-0.62425	-0.5774	-0.50645
2.988	25.293	-36465	4147.1	-0.62444	-0.57808	-0.50625
2.99	25.277	-36462	4147.1	-0.62464	-0.57877	-0.50606
2.992	25.256	-36459	4147.2	-0.62337	-0.5774	-0.50615
2.994	25.274	-36456	4147.2	-0.6221	-0.57604	-0.50625
2.996	25.289	-36453	4147.3	-0.62083	-0.57467	-0.50635
2.998	25.278	-36455	4147.4	-0.61956	-0.5733	-0.50645
3	25.278	-36457	4147.5	-0.6183	-0.57194	-0.50654
3.002	25.284	-36461	4147.4	-0.6181	-0.57242	-0.50635
3.004	25.286	-36466	4147.3	-0.61791	-0.57291	-0.50615
3.006	25.276	-36464	4147.1	-0.61771	-0.5734	-0.50596
3.008	25.272	-36462	4146.9	-0.61752	-0.57389	-0.50576
3.01	25.281	-36454	4146.6	-0.61732	-0.57438	-0.50557
3.012	25.294	-36446	4146.2	-0.61712	-0.57555	-0.5044
3.014	25.289	-36450	4145.8	-0.61693	-0.57672	-0.50323
3.016	25.278	-36453	4145.3	-0.61673	-0.57789	-0.50205
3.018	25.281	-36454	4144.7	-0.61654	-0.57906	-0.50088
3.02	25.292	-36454	4144.1	-0.61634	-0.58023	-0.49971
3.022	25.276	-36455	4143.3	-0.61615	-0.58033	-0.5002
3.024	25.267	-36455	4142.5	-0.61595	-0.58043	-0.50069
3.026	25.268	-36450	4141.6	-0.61576	-0.58052	-0.50118
3.028	25.265	-36444	4140.6	-0.61556	-0.58062	-0.50166
3.03	25.265	-36448	4139.7	-0.61537	-0.58072	-0.50215
3.032	25.267	-36453	4138.5	-0.61527	-0.58121	-0.50235
3.034	25.266	-36451	4137.4	-0.61517	-0.5817	-0.50254
3.036	25.263	-36448	4136.2	-0.61508	-0.58218	-0.50274
3.038	25.253	-36451	4135.1	-0.61498	-0.58267	-0.50293
3.04	25.295	-36453	4133.9	-0.61488	-0.58316	-0.50313
3.042	25.274	-36459	4133	-0.61498	-0.58336	-0.50323
3.044	25.27	-36464	4132	-0.61508	-0.58355	-0.50332
3.046	25.253	-36464	4131.1	-0.61517	-0.58375	-0.50342
3.048	25.236	-36465	4130.2	-0.61527	-0.58394	-0.50352
3.05	25.257	-36463	4129.2	-0.61537	-0.58414	-0.50362
3.052	25.278	-36461	4128.1	-0.61547	-0.58472	-0.50459
3.054	25.289	-36451	4127	-0.61556	-0.58531	-0.50557
3.056	25.285	-36441	4125.9	-0.61566	-0.58589	-0.50654
3.058	25.278	-36446	4124.8	-0.61576	-0.58648	-0.50752
3.06	25.28	-36450	4123.6	-0.61586	-0.58706	-0.5085
3.062	25.285	-36444	4122.6	-0.61556	-0.58638	-0.50684
3.064	25.272	-36439	4121.5	-0.61527	-0.5857	-0.50518
3.066	25.263	-36439	4120.4	-0.61498	-0.58501	-0.50352
3.068	25.263	-36440	4119.4	-0.61468	-0.58433	-0.50186
3.07	25.264	-36442	4118.4	-0.61439	-0.58365	-0.5002
3.072	25.26	-36443	4117.3	-0.61537	-0.58306	-0.5003
3.074	25.257	-36440	4116.3	-0.61634	-0.58248	-0.5004
3.076	25.25	-36438	4115.2	-0.61732	-0.58189	-0.50049
3.078	25.236	-36444	4114.1	-0.6183	-0.58131	-0.50059
3.08	25.238	-36451	4112.9	-0.61927	-0.58072	-0.50069
3.082	25.266	-36446	4111.8	-0.61908	-0.58043	-0.50098
3.084	25.289	-36442	4110.7	-0.61888	-0.58013	-0.50127
3.086	25.286	-36446	4109.7	-0.61869	-0.57984	-0.50157
3.088	25.275	-36451	4108.7	-0.61849	-0.57955	-0.50186
3.09	25.269	-36448	4107.7	-0.6183	-0.57926	-0.50215
3.092	25.27	-36444	4106.7	-0.61869	-0.57857	-0.50303
3.094	25.262	-36442	4105.6	-0.61908	-0.57789	-0.50391
3.096	25.265	-36440	4104.5	-0.61947	-0.57721	-0.50479
3.098	25.272	-36443	4103.4	-0.61986	-0.57652	-0.50567
3.1	25.279	-36446	4102.3	-0.62025	-0.57584	-0.50654
3.102	25.279	-36451	4101.1	-0.62122	-0.57564	-0.50703
3.104	25.269	-36456	4100	-0.6222	-0.57545	-0.50752
3.106	25.274	-36450	4098.8	-0.62318	-0.57525	-0.50801
3.108	25.282	-36444	4097.5	-0.62415	-0.57506	-0.5085
3.11	25.283	-36447	4096.3	-0.62513	-0.57486	-0.50898
3.112	25.291	-36451	4095.2	-0.62376	-0.57486	-0.50811
3.114	25.307	-36446	4094.1	-0.6224	-0.57486	-0.50723
3.116	25.282	-36440	4093.1	-0.62103	-0.57486	-0.50635
3.118	25.228	-36442	4092.1	-0.61966	-0.57486	-0.50547
3.12	25.249	-36444	4091.1	-0.6183	-0.57486	-0.50459
3.122	25.274	-36442	4090.1	-0.61966	-0.57467	-0.50488
3.124	25.265	-36441	4089.1	-0.62103	-0.57447	-0.50518
3.126	25.25	-36449	4088.1	-0.6224	-0.57428	-0.50547
3.128	25.251	-36457	4087.1	-0.62376	-0.57408	-0.50576
3.13	25.262	-36453	4086.1	-0.62513	-0.57389	-0.50606
3.132	25.268	-36450	4085.1	-0.62454	-0.57369	-0.50625
3.134	25.267	-36452	4084.1	-0.62396	-0.5735	-0.50645
3.136	25.273	-36455	4083	-0.62337	-0.5733	-0.50664
3.138	25.278	-36452	4082	-0.62279	-0.57311	-0.50684
3.14	25.282	-36449	4081	-0.6222	-0.57291	-0.50703
3.142	25.284	-36452	4080	-0.62288	-0.57379	-0.50703
3.144	25.284	-36456	4079	-0.62357	-0.57467	-0.50703
3.146	25.274	-36455	4077.9	-0.62425	-0.57555	-0.50703
3.148	25.274	-36454	4076.9	-0.62493	-0.57643	-0.50703
3.15	25.276	-36459	4075.8	-0.62562	-0.5773	-0.50703
3.152	25.274	-36463	4074.8	-0.62513	-0.57652	-0.50713
3.154	25.284	-36466	4073.8	-0.62464	-0.57574	-0.50723
3.156	25.31	-36469	4073	-0.62415	-0.57496	-0.50732
3.158	25.306	-36465	4072.3	-0.62366	-0.57418	-0.50742
3.16	25.272	-36461	4071.7	-0.62318	-0.5734	-0.50752
3.162	25.247	-36462	4071.1	-0.62269	-0.57389	-0.50693
3.164	25.232	-36463	4070.6	-0.6222	-0.57438	-0.50635
3.166	25.225	-36460	4070	-0.62171	-0.57486	-0.50576
3.168	25.235	-36457	4069.4	-0.62122	-0.57535	-0.50518
3.17	25.266	-36458	4068.9	-0.62074	-0.57584	-0.50459
3.172	25.29	-36459	4068.4	-0.62142	-0.57574	-0.50528
3.174	25.274	-36457	4067.9	-0.6221	-0.57564	-0.50596
3.176	25.261	-36455	4067.5	-0.62279	-0.57555	-0.50664
3.178	25.271	-36459	4067.2	-0.62347	-0.57545	-0.50732
3.18	25.283	-36463	4066.9	-0.62415	-0.57535	-0.50801
3.182	25.293	-36465	4066.7	-0.62347	-0.57457	-0.50684
3.184	25.291	-36466	4066.5	-0.62279	-0.57379	-0.50567
3.186	25.288	-36464	4066.3	-0.6221	-0.57301	-0.50449
3.188	25.277	-36462	4066.1	-0.62142	-0.57223	-0.50332
3.19	25.27	-36463	4065.9	-0.62074	-0.57145	-0.50215
3.192	25.276	-36463	4065.7	-0.62132	-0.57155	-0.50323
3.194	25.278	-36467	4065.5	-0.62191	-0.57164	-0.5043
3.196	25.275	-36470	4065.4	-0.62249	-0.57174	-0.50537
3.198	25.287	-36468	4065.4	-0.62308	-0.57184	-0.50645
3.2	25.29	-36466	4065.3	-0.62366	-0.57194	-0.50752
3.202	25.249	-36466	4065.4	-0.62405	-0.57291	-0.50742
3.204	25.244	-36467	4065.5	-0.62444	-0.57389	-0.50732
3.206	25.238	-36466	4065.5	-0.62484	-0.57486	-0.50723
3.208	25.262	-36466	4065.6	-0.62523	-0.57584	-0.50713
3.21	25.264	-36470	4065.7	-0.62562	-0.57682	-0.50703
3.212	25.258	-36473	4065.8	-0.62649	-0.5775	-0.50693
3.214	25.287	-36470	4065.9	-0.62737	-0.57818	-0.50684
3.216	25.282	-36468	4066	-0.62825	-0.57887	-0.50674
3.218	25.27	-36468	4066.1	-0.62913	-0.57955	-0.50664
3.22	25.259	-36469	4066.2	-0.63001	-0.58023	-0.50654
3.222	25.28	-36473	4066.3	-0.62903	-0.57945	-0.50674
3.224	25.282	-36477	4066.3	-0.62806	-0.57867	-0.50693
3.226	25.281	-36480	4066.3	-0.62708	-0.57789	-0.50713
3.228	25.282	-36483	4066.3	-0.6261	-0.57711	-0.50732
3.23	25.286	-36480	4066.2	-0.62513	-0.57633	-0.50752
3.232	25.29	-36478	4066.1	-0.62493	-0.57584	-0.50732
3.234	25.29	-36477	4065.9	-0.62474	-0.57535	-0.50713
3.236	25.292	-36476	4065.7	-0.62454	-0.57486	-0.50693
3.238	25.3	-36478	4065.4	-0.62435	-0.57438	-0.50674
3.24	25.302	-36481	4065.2	-0.62415	-0.57389	-0.50654
3.242	25.297	-36486	4064.9	-0.62454	-0.57467	-0.50732
3.244	25.299	-36492	4064.6	-0.62493	-0.57545	-0.50811
3.246	25.309	-36487	4064.4	-0.62532	-0.57623	-0.50889
3.248	25.313	-36481	4064.3	-0.62571	-0.57701	-0.50967
3.25	25.299	-36483	4064.3	-0.6261	-0.57779	-0.51045
3.252	25.293	-36485	4064.3	-0.62562	-0.5774	-0.51006
3.254	25.314	-36484	4064.3	-0.62513	-0.57701	-0.50967
3.256	25.324	-36483	4064.3	-0.62464	-0.57662	-0.50928
3.258	25.319	-36486	4064.4	-0.62415	-0.57623	-0.50889
3.26	25.323	-36489	4064.5	-0.62366	-0.57584	-0.5085
3.262	25.321	-36489	4064.5	-0.62279	-0.57584	-0.50752
3.264	25.319	-36488	4064.5	-0.62191	-0.57584	-0.50654
3.266	25.318	-36493	4064.5	-0.62103	-0.57584	-0.50557
3.268	25.318	-36498	4064.4	-0.62015	-0.57584	-0.50459
3.27	25.319	-36498	4064.4	-0.61927	-0.57584	-0.50362
3.272	25.325	-36498	4064.3	-0.61888	-0.57643	-0.5041
3.274	25.322	-36497	4064.1	-0.61849	-0.57701	-0.50459
3.276	25.326	-36496	4064	-0.6181	-0.5776	-0.50508
3.278	25.333	-36494	4063.9	-0.61771	-0.57818	-0.50557
3.28	25.307	-36492	4063.8	-0.61732	-0.57877	-0.50606
3.282	25.285	-36491	4063.7	-0.61947	-0.57857	-0.50645
3.284	25.272	-36490	4063.6	-0.62161	-0.57838	-0.50684
3.286	25.27	-36491	4063.4	-0.62376	-0.57818	-0.50723
3.288	25.273	-36492	4063.1	-0.62591	-0.57799	-0.50762
3.29	25.263	-36494	4062.9	-0.62806	-0.57779	-0.50801
3.292	25.256	-36496	4062.7	-0.6263	-0.57721	-0.50772
3.294	25.247	-36498	4062.4	-0.62454	-0.57662	-0.50742
3.296	25.232	-36501	4062.2	-0.62279	-0.57604	-0.50713
3.298	25.234	-36502	4061.9	-0.62103	-0.57545	-0.50684
3.3	25.258	-36504	4061.6	-0.61927	-0.57486	-0.50654
3.302	25.256	-36503	4061.3	-0.61976	-0.57467	-0.50674
3.304	25.269	-36501	4061	-0.62025	-0.57447	-0.50693
3.306	25.275	-36504	4060.7	-0.62074	-0.57428	-0.50713
3.308	25.269	-36507	4060.3	-0.62122	-0.57408	-0.50732
3.31	25.279	-36510	4060	-0.62171	-0.57389	-0.50752
3.312	25.287	-36512	4059.6	-0.62249	-0.57457	-0.50723
3.314	25.276	-36512	4059.3	-0.62327	-0.57525	-0.50693
3.316	25.263	-36512	4058.9	-0.62405	-0.57594	-0.50664
3.318	25.256	-36511	4058.5	-0.62484	-0.57662	-0.50635
3.32	25.253	-36510	4058	-0.62562	-0.5773	-0.50606
3.322	25.258	-36510	4057.5	-0.6263	-0.57769	-0.50703
3.324	25.269	-36509	4057	-0.62698	-0.57808	-0.50801
3.326	25.269	-36511	4056.6	-0.62767	-0.57848	-0.50898
3.328	25.267	-36512	4056.3	-0.62835	-0.57887	-0.50996
3.33	25.28	-36513	4055.9	-0.62903	-0.57926	-0.51094
3.332	25.28	-36515	4055.6	-0.62786	-0.57887	-0.51016
3.334	25.273	-36515	4055.3	-0.62669	-0.57848	-0.50937
3.336	25.277	-36516	4054.9	-0.62552	-0.57808	-0.50859
3.338	25.283	-36512	4054.4	-0.62435	-0.57769	-0.50781
3.34	25.287	-36509	4054	-0.62318	-0.5773	-0.50703
3.342	25.288	-36511	4053.5	-0.62308	-0.5773	-0.50703
3.344	25.291	-36513	4053	-0.62298	-0.5773	-0.50703
3.346	25.289	-36515	4052.5	-0.62288	-0.5773	-0.50703
3.348	25.285	-36517	4051.9	-0.62279	-0.5773	-0.50703
3.35	25.298	-36517	4051.3	-0.62269	-0.5773	-0.50703
3.352	25.326	-36518	4050.7	-0.62337	-0.5775	-0.50674
3.354	25.345	-36520	4050.1	-0.62405	-0.57769	-0.50645
3.356	25.355	-36521	4049.4	-0.62474	-0.57789	-0.50615
3.358	25.378	-36522	4048.7	-0.62542	-0.57808	-0.50586
3.36	25.399	-36522	4048	-0.6261	-0.57828	-0.50557
3.362	25.421	-36528	4047.2	-0.62581	-0.57877	-0.50547
3.364	25.433	-36534	4046.4	-0.62552	-0.57926	-0.50537
3.366	25.432	-36534	4045.6	-0.62523	-0.57974	-0.50528
3.368	25.412	-36534	4044.7	-0.62493	-0.58023	-0.50518
3.37	25.396	-36530	4043.9	-0.62464	-0.58072	-0.50508
3.372	25.42	-36527	4043.4	-0.62513	-0.58062	-0.50547
3.374	25.326	-36528	4042.9	-0.62562	-0.58052	-0.50586
3.376	25.249	-36529	4042.5	-0.6261	-0.58043	-0.50625
3.378	25.229	-36528	4042	-0.62659	-0.58033	-0.50664
3.38	25.116	-36527	4041.6	-0.62708	-0.58023	-0.50703
3.382	25.088	-36528	4041.2	-0.62571	-0.57935	-0.50684
3.384	25.101	-36528	4040.8	-0.62435	-0.57848	-0.50664
3.386	25.113	-36528	4040.5	-0.62298	-0.5776	-0.50645
3.388	25.158	-36528	4040.2	-0.62161	-0.57672	-0.50625
3.39	25.186	-36532	4039.9	-0.62025	-0.57584	-0.50606
3.392	25.203	-36535	4039.7	-0.62035	-0.57545	-0.50596
3.394	25.219	-36538	4039.4	-0.62044	-0.57506	-0.50586
3.396	25.236	-36541	4039.1	-0.62054	-0.57467	-0.50576
3.398	25.243	-36538	4038.8	-0.62064	-0.57428	-0.50567
3.4	25.251	-36536	4038.5	-0.62074	-0.57389	-0.50557
3.402	25.261	-36540	4038.1	-0.62064	-0.5735	-0.50557
3.404	25.272	-36545	4037.8	-0.62054	-0.57311	-0.50557
3.406	25.266	-36548	4037.4	-0.62044	-0.57272	-0.50557
3.408	25.259	-36550	4037	-0.62035	-0.57233	-0.50557
3.41	25.261	-36548	4036.7	-0.62025	-0.57194	-0.50557
3.412	25.268	-36545	4036.3	-0.62025	-0.57174	-0.50518
3.414	25.274	-36545	4036	-0.62025	-0.57155	-0.50479
3.416	25.275	-36544	4035.6	-0.62025	-0.57135	-0.5044
3.418	25.281	-36548	4035.2	-0.62025	-0.57116	-0.50401
3.42	25.287	-36552	4034.8	-0.62025	-0.57096	-0.50362
3.422	25.288	-36555	4034.3	-0.62025	-0.57135	-0.5042
3.424	25.293	-36558	4033.8	-0.62025	-0.57174	-0.50479
3.426	25.286	-36553	4033.2	-0.62025	-0.57213	-0.50537
3.428	25.273	-36548	4032.6	-0.62025	-0.57252	-0.50596
3.43	25.272	-36550	4032	-0.62025	-0.57291	-0.50654
3.432	25.266	-36552	4031.4	-0.61937	-0.57447	-0.50547
3.434	25.252	-36553	4030.8	-0.61849	-0.57604	-0.5044
3.436	25.25	-36554	4030.2	-0.61761	-0.5776	-0.50332
3.438	25.253	-36558	4029.7	-0.61673	-0.57916	-0.50225
3.44	25.259	-36561	4029.1	-0.61586	-0.58072	-0.50118
3.442	25.263	-36558	4028.6	-0.61693	-0.57984	-0.50254
3.444	25.26	-36554	4028.2	-0.618	-0.57896	-0.50391
3.446	25.268	-36557	4027.8	-0.61908	-0.57808	-0.50528
3.448	25.285	-36559	4027.5	-0.62015	-0.57721	-0.50664
3.45	25.287	-36562	4027.2	-0.62122	-0.57633	-0.50801
3.452	25.25	-36565	4027.2	-0.62161	-0.57691	-0.50762
3.454	25.237	-36563	4027.2	-0.622	-0.5775	-0.50723
3.456	25.26	-36562	4027.2	-0.6224	-0.57808	-0.50684
3.458	25.258	-36567	4027.1	-0.62279	-0.57867	-0.50645
3.46	25.267	-36573	4027.1	-0.62318	-0.57926	-0.50606
3.462	25.259	-36572	4027	-0.6224	-0.57945	-0.50586
3.464	25.274	-36572	4027	-0.62161	-0.57965	-0.50567
3.466	25.292	-36574	4026.9	-0.62083	-0.57984	-0.50547
3.468	25.27	-36576	4026.8	-0.62005	-0.58004	-0.50528
3.47	25.262	-36574	4026.7	-0.61927	-0.58023	-0.50508
3.472	25.265	-36573	4026.5	-0.61908	-0.58043	-0.50508
3.474	25.289	-36574	4026.3	-0.61888	-0.58062	-0.50508
3.476	25.267	-36576	4026.1	-0.61869	-0.58082	-0.50508
3.478	25.258	-36580	4025.7	-0.61849	-0.58101	-0.50508
3.48	25.261	-36583	4025.4	-0.6183	-0.58121	-0.50508
3.482	25.272	-36586	4024.9	-0.62054	-0.58111	-0.50488
3.484	25.277	-36588	4024.4	-0.62279	-0.58101	-0.50469
3.486	25.275	-36587	4023.9	-0.62503	-0.58092	-0.50449
3.488	25.272	-36585	4023.3	-0.62728	-0.58082	-0.5043
3.49	25.265	-36584	4022.8	-0.62952	-0.58072	-0.5041
3.492	25.262	-36582	4022	-0.62786	-0.57974	-0.5043
3.494	25.26	-36587	4021.3	-0.6262	-0.57877	-0.50449
3.496	25.259	-36591	4020.5	-0.62454	-0.57779	-0.50469
3.498	25.259	-36593	4019.7	-0.62288	-0.57682	-0.50488
3.5	25.265	-36595	4018.9	-0.62122	-0.57584	-0.50508
3.502	25.276	-36589	4018.2	-0.62142	-0.57594	-0.50547
3.504	25.27	-36583	4017.4	-0.62161	-0.57604	-0.50586
3.506	25.256	-36588	4016.6	-0.62181	-0.57613	-0.50625
3.508	25.249	-36594	4015.8	-0.622	-0.57623	-0.50664
3.51	25.244	-36598	4015	-0.6222	-0.57633	-0.50703
3.512	25.258	-36602	4014	-0.62083	-0.57604	-0.50547
3.514	25.271	-36602	4013.1	-0.61947	-0.57574	-0.50391
3.516	25.268	-36602	4012.2	-0.6181	-0.57545	-0.50235
3.518	25.265	-36603	4011.4	-0.61673	-0.57516	-0.50079
3.52	25.268	-36603	4010.6	-0.61537	-0.57486	-0.49922
3.522	25.271	-36605	4010.2	-0.61537	-0.57574	-0.49883
3.524	25.266	-36607	4009.7	-0.61537	-0.57662	-0.49844
3.526	25.246	-36603	4009.4	-0.61537	-0.5775	-0.49805
3.528	25.246	-36599	4009.2	-0.61537	-0.57838	-0.49766
3.53	25.275	-36606	4009.1	-0.61537	-0.57926	-0.49727
3.532	25.286	-36612	4009	-0.61527	-0.57916	-0.49796
3.534	25.264	-36614	4008.9	-0.61517	-0.57906	-0.49864
3.536	25.261	-36616	4008.9	-0.61508	-0.57896	-0.49932
3.538	25.263	-36615	4009	-0.61498	-0.57887	-0.5
3.54	25.265	-36613	4009.1	-0.61488	-0.57877	-0.50069
3.542	25.28	-36612	4009.4	-0.61586	-0.57857	-0.50079
3.544	25.28	-36611	4009.7	-0.61683	-0.57838	-0.50088
3.546	25.266	-36614	4010.2	-0.61781	-0.57818	-0.50098
3.548	25.267	-36618	4010.9	-0.61878	-0.57799	-0.50108
3.55	25.278	-36619	4011.5	-0.61976	-0.57779	-0.50118
3.552	25.285	-36619	4012.7	-0.61898	-0.57877	-0.50147
3.554	25.294	-36617	4013.8	-0.6182	-0.57974	-0.50176
3.556	25.278	-36614	4015.3	-0.61742	-0.58072	-0.50205
3.558	25.283	-36618	4017.1	-0.61664	-0.5817	-0.50235
3.56	25.296	-36623	4018.9	-0.61586	-0.58267	-0.50264
3.562	25.284	-36626	4021.5	-0.61625	-0.58228	-0.50284
3.564	25.298	-36629	4024	-0.61664	-0.58189	-0.50303
3.566	25.312	-36629	4027.1	-0.61703	-0.5815	-0.50323
3.568	25.301	-36629	4030.7	-0.61742	-0.58111	-0.50342
3.57	25.276	-36630	4034.3	-0.61781	-0.58072	-0.50362
3.572	25.276	-36630	4038.6	-0.62025	-0.58131	-0.5042
3.574	25.294	-36628	4043	-0.62269	-0.58189	-0.50479
3.576	25.296	-36626	4047.7	-0.62513	-0.58248	-0.50537
3.578	25.306	-36626	4052.7	-0.62757	-0.58306	-0.50596
3.58	25.321	-36627	4057.7	-0.63001	-0.58365	-0.50654
3.582	25.327	-36630	4063.3	-0.63079	-0.58296	-0.50674
3.584	25.319	-36634	4068.9	-0.63157	-0.58228	-0.50693
3.586	25.322	-36637	4074.7	-0.63235	-0.5816	-0.50713
3.588	25.317	-36640	4080.7	-0.63313	-0.58092	-0.50732
3.59	25.311	-36640	4086.7	-0.63391	-0.58023	-0.50752
3.592	25.327	-36640	4093	-0.63303	-0.58072	-0.50742
3.594	25.324	-36634	4099.4	-0.63216	-0.58121	-0.50732
3.596	25.304	-36628	4105.8	-0.63128	-0.5817	-0.50723
3.598	25.305	-36630	4112.2	-0.6304	-0.58218	-0.50713
3.6	25.306	-36632	4118.7	-0.62952	-0.58267	-0.50703
3.602	25.302	-36632	4125	-0.6303	-0.58101	-0.5084
3.604	25.315	-36633	4131.4	-0.63108	-0.57935	-0.50976
3.606	25.337	-36639	4137.7	-0.63186	-0.57769	-0.51113
3.608	25.344	-36646	4143.9	-0.63264	-0.57604	-0.5125
3.61	25.336	-36639	4150.1	-0.63342	-0.57438	-0.51386
3.612	25.339	-36632	4156	-0.63206	-0.57516	-0.51162
3.614	25.347	-36633	4161.9	-0.63069	-0.57594	-0.50937
3.616	25.349	-36634	4167.6	-0.62932	-0.57672	-0.50713
3.618	25.344	-36629	4173.2	-0.62796	-0.5775	-0.50488
3.62	25.348	-36624	4178.7	-0.62659	-0.57828	-0.50264
3.622	25.344	-36625	4183.8	-0.62562	-0.5775	-0.50323
3.624	25.335	-36627	4188.8	-0.62464	-0.57672	-0.50381
3.626	25.34	-36626	4193.5	-0.62366	-0.57594	-0.5044
3.628	25.338	-36624	4197.8	-0.62269	-0.57516	-0.50498
3.63	25.336	-36627	4202.1	-0.62171	-0.57438	-0.50557
3.632	25.349	-36630	4205.7	-0.62054	-0.57506	-0.50528
3.634	25.366	-36626	4209.4	-0.61937	-0.57574	-0.50498
3.636	25.348	-36622	4212.7	-0.6182	-0.57643	-0.50469
3.638	25.343	-36623	4215.6	-0.61703	-0.57711	-0.5044
3.64	25.359	-36624	4218.6	-0.61586	-0.57779	-0.5041
3.642	25.358	-36616	4220.9	-0.61752	-0.5775	-0.50244
3.644	25.347	-36608	4223.2	-0.61917	-0.57721	-0.50079
3.646	25.323	-36602	4225	-0.62083	-0.57691	-0.49913
3.648	25.331	-36595	4226.5	-0.62249	-0.57662	-0.49747
3.65	25.349	-36595	4227.9	-0.62415	-0.57633	-0.49581
3.652	25.359	-36595	4228.7	-0.62386	-0.57672	-0.49669
3.654	25.352	-36590	4229.5	-0.62357	-0.57711	-0.49756
3.656	25.335	-36584	4230	-0.62327	-0.5775	-0.49844
3.658	25.327	-36586	4230.2	-0.62298	-0.57789	-0.49932
3.66	25.333	-36587	4230.4	-0.62269	-0.57828	-0.5002
3.662	25.337	-36584	4229.9	-0.62249	-0.57789	-0.49991
3.664	25.336	-36580	4229.5	-0.6223	-0.5775	-0.49961
3.666	25.332	-36581	4228.7	-0.6221	-0.57711	-0.49932
3.668	25.325	-36582	4227.8	-0.62191	-0.57672	-0.49903
3.67	25.324	-36579	4226.8	-0.62171	-0.57633	-0.49874
3.672	25.33	-36575	4225.4	-0.62191	-0.57662	-0.49825
3.674	25.331	-36572	4224.1	-0.6221	-0.57691	-0.49776
3.676	25.323	-36568	4222.5	-0.6223	-0.57721	-0.49727
3.678	25.314	-36563	4220.8	-0.62249	-0.5775	-0.49678
3.68	25.308	-36557	4219.1	-0.62269	-0.57779	-0.4963
3.682	25.297	-36559	4217	-0.62327	-0.57945	-0.49649
3.684	25.293	-36561	4214.9	-0.62386	-0.58111	-0.49669
3.686	25.294	-36551	4212.7	-0.62444	-0.58277	-0.49688
3.688	25.285	-36540	4210.4	-0.62503	-0.58443	-0.49708
3.69	25.281	-36540	4208	-0.62562	-0.58609	-0.49727
3.692	25.276	-36541	4205.4	-0.62493	-0.58531	-0.49756
3.694	25.282	-36541	4202.8	-0.62425	-0.58453	-0.49786
3.696	25.302	-36542	4200.1	-0.62357	-0.58375	-0.49815
3.698	25.295	-36540	4197.5	-0.62288	-0.58296	-0.49844
3.7	25.275	-36538	4194.9	-0.6222	-0.58218	-0.49874
3.702	25.27	-36532	4192.3	-0.62161	-0.5816	-0.49903
3.704	25.259	-36527	4189.8	-0.62103	-0.58101	-0.49932
3.706	25.258	-36523	4187.2	-0.62044	-0.58043	-0.49961
3.708	25.258	-36520	4184.6	-0.61986	-0.57984	-0.49991
3.71	25.275	-36525	4182	-0.61927	-0.57926	-0.5002
3.712	25.283	-36530	4179.4	-0.61917	-0.57984	-0.50079
3.714	25.284	-36526	4176.7	-0.61908	-0.58043	-0.50137
3.716	25.27	-36522	4174.1	-0.61898	-0.58101	-0.50196
3.718	25.269	-36512	4171.6	-0.61888	-0.5816	-0.50254
3.72	25.264	-36501	4169.1	-0.61878	-0.58218	-0.50313
3.722	25.275	-36504	4166.7	-0.61898	-0.5817	-0.50313
3.724	25.272	-36507	4164.3	-0.61917	-0.58121	-0.50313
3.726	25.265	-36506	4162	-0.61937	-0.58072	-0.50313
3.728	25.278	-36506	4159.8	-0.61956	-0.58023	-0.50313
3.73	25.261	-36504	4157.6	-0.61976	-0.57974	-0.50313
3.732	25.263	-36502	4155.5	-0.62044	-0.57877	-0.50391
3.734	25.269	-36504	4153.4	-0.62113	-0.57779	-0.50469
3.736	25.255	-36505	4151.3	-0.62181	-0.57682	-0.50547
3.738	25.264	-36508	4149.3	-0.62249	-0.57584	-0.50625
3.74	25.269	-36510	4147.2	-0.62318	-0.57486	-0.50703
3.742	25.256	-36503	4145.3	-0.62327	-0.57584	-0.50635
3.744	25.25	-36496	4143.4	-0.62337	-0.57682	-0.50567
3.746	25.26	-36495	4141.6	-0.62347	-0.57779	-0.50498
3.748	25.268	-36494	4139.8	-0.62357	-0.57877	-0.5043
3.75	25.261	-36495	4138	-0.62366	-0.57974	-0.50362
3.752	25.228	-36497	4136.4	-0.62279	-0.57867	-0.50371
3.754	25.222	-36493	4134.8	-0.62191	-0.5776	-0.50381
3.756	25.252	-36489	4133.2	-0.62103	-0.57652	-0.50391
3.758	25.272	-36493	4131.5	-0.62015	-0.57545	-0.50401
3.76	25.264	-36496	4129.9	-0.61927	-0.57438	-0.5041
3.762	25.257	-36490	4128.3	-0.61956	-0.57428	-0.50469
3.764	25.275	-36484	4126.6	-0.61986	-0.57418	-0.50528
3.766	25.29	-36485	4125	-0.62015	-0.57408	-0.50586
3.768	25.275	-36487	4123.5	-0.62044	-0.57399	-0.50645
3.77	25.25	-36489	4121.9	-0.62074	-0.57389	-0.50703
3.772	25.245	-36491	4120.3	-0.62015	-0.57457	-0.50684
3.774	25.259	-36490	4118.7	-0.61956	-0.57525	-0.50664
3.776	25.254	-36489	4117.1	-0.61898	-0.57594	-0.50645
3.778	25.251	-36486	4115.5	-0.61839	-0.57662	-0.50625
3.78	25.273	-36483	4113.9	-0.61781	-0.5773	-0.50606
3.782	25.275	-36483	4112.3	-0.61869	-0.57613	-0.50606
3.784	25.249	-36483	4110.6	-0.61956	-0.57496	-0.50606
3.786	25.248	-36483	4109	-0.62044	-0.57379	-0.50606
3.788	25.268	-36483	4107.4	-0.62132	-0.57262	-0.50606
3.79	25.272	-36487	4105.8	-0.6222	-0.57145	-0.50606
3.792	25.256	-36491	4104.3	-0.62142	-0.57233	-0.50547
3.794	25.25	-36486	4102.8	-0.62064	-0.5732	-0.50488
3.796	25.257	-36481	4101.3	-0.61986	-0.57408	-0.5043
3.798	25.259	-36480	4100	-0.61908	-0.57496	-0.50371
3.8	25.263	-36478	4098.7	-0.6183	-0.57584	-0.50313
3.802	25.287	-36482	4097.7	-0.61908	-0.57545	-0.50303
3.804	25.284	-36486	4096.6	-0.61986	-0.57506	-0.50293
3.806	25.268	-36487	4095.8	-0.62064	-0.57467	-0.50284
3.808	25.282	-36487	4095.1	-0.62142	-0.57428	-0.50274
3.81	25.281	-36483	4094.4	-0.6222	-0.57389	-0.50264
3.812	25.251	-36479	4094	-0.62191	-0.57301	-0.50274
3.814	25.231	-36478	4093.6	-0.62161	-0.57213	-0.50284
3.816	25.25	-36477	4093.4	-0.62132	-0.57125	-0.50293
3.818	25.261	-36483	4093.2	-0.62103	-0.57037	-0.50303
3.82	25.274	-36488	4093.1	-0.62074	-0.5695	-0.50313
3.822	25.273	-36484	4093.1	-0.62044	-0.57057	-0.50352
3.824	25.273	-36480	4093.1	-0.62015	-0.57164	-0.50391
3.826	25.275	-36483	4093.2	-0.61986	-0.57272	-0.5043
3.828	25.279	-36487	4093.4	-0.61956	-0.57379	-0.50469
3.83	25.287	-36488	4093.6	-0.61927	-0.57486	-0.50508
3.832	25.284	-36489	4094.3	-0.62083	-0.57633	-0.5044
3.834	25.245	-36483	4095	-0.6224	-0.57779	-0.50371
3.836	25.236	-36478	4095.8	-0.62396	-0.57926	-0.50303
3.838	25.253	-36480	4096.7	-0.62552	-0.58072	-0.50235
3.84	25.258	-36482	4097.6	-0.62708	-0.58218	-0.50166
3.842	25.266	-36481	4098.6	-0.62718	-0.5816	-0.50284
3.844	25.28	-36480	4099.5	-0.62728	-0.58101	-0.50401
3.846	25.276	-36480	4100.4	-0.62737	-0.58043	-0.50518
3.848	25.269	-36480	4101.3	-0.62747	-0.57984	-0.50635
3.85	25.264	-36478	4102.3	-0.62757	-0.57926	-0.50752
3.852	25.258	-36476	4103.3	-0.62581	-0.57779	-0.50674
3.854	25.258	-36475	4104.4	-0.62405	-0.57633	-0.50596
3.856	25.26	-36474	4105.5	-0.6223	-0.57486	-0.50518
3.858	25.266	-36484	4106.6	-0.62054	-0.5734	-0.5044
3.86	25.262	-36494	4107.8	-0.61878	-0.57194	-0.50362
3.862	25.261	-36488	4108.9	-0.61947	-0.57184	-0.50371
3.864	25.263	-36482	4110.1	-0.62015	-0.57174	-0.50381
3.866	25.268	-36483	4111.2	-0.62083	-0.57164	-0.50391
3.868	25.279	-36483	4112.2	-0.62152	-0.57155	-0.50401
3.87	25.261	-36483	4113.3	-0.6222	-0.57145	-0.5041
3.872	25.244	-36482	4114.1	-0.62132	-0.57155	-0.5043
3.874	25.252	-36480	4115	-0.62044	-0.57164	-0.50449
3.876	25.256	-36479	4115.9	-0.61956	-0.57174	-0.50469
3.878	25.26	-36477	4116.8	-0.61869	-0.57184	-0.50488
3.88	25.249	-36475	4117.8	-0.61781	-0.57194	-0.50508
3.882	25.247	-36477	4118.7	-0.62074	-0.57291	-0.50645
3.884	25.254	-36478	4119.6	-0.62366	-0.57389	-0.50781
3.886	25.258	-36476	4120.4	-0.62659	-0.57486	-0.50918
3.888	25.257	-36474	4121.2	-0.62952	-0.57584	-0.51055
3.89	25.259	-36473	4121.9	-0.63245	-0.57682	-0.51191
3.892	25.25	-36472	4122.5	-0.63118	-0.57623	-0.51152
3.894	25.253	-36472	4123.1	-0.62991	-0.57564	-0.51113
3.896	25.26	-36471	4123.7	-0.62864	-0.57506	-0.51074
3.898	25.261	-36470	4124.2	-0.62737	-0.57447	-0.51035
3.9	25.25	-36470	4124.8	-0.6261	-0.57389	-0.50996
3.902	25.243	-36469	4125.1	-0.62552	-0.5736	-0.50976
3.904	25.254	-36467	4125.5	-0.62493	-0.5733	-0.50957
3.906	25.265	-36466	4125.8	-0.62435	-0.57301	-0.50937
3.908	25.26	-36465	4126	-0.62376	-0.57272	-0.50918
3.91	25.251	-36466	4126.2	-0.62318	-0.57242	-0.50898
3.912	25.241	-36466	4126.2	-0.62279	-0.57203	-0.50801
3.914	25.246	-36466	4126.3	-0.6224	-0.57164	-0.50703
3.916	25.28	-36465	4126.3	-0.622	-0.57125	-0.50606
3.918	25.272	-36464	4126.4	-0.62161	-0.57086	-0.50508
3.92	25.24	-36463	4126.4	-0.62122	-0.57047	-0.5041
3.922	25.225	-36463	4126.2	-0.62044	-0.57194	-0.50371
3.924	25.228	-36463	4126.1	-0.61966	-0.5734	-0.50332
3.926	25.245	-36465	4125.8	-0.61888	-0.57486	-0.50293
3.928	25.255	-36467	4125.4	-0.6181	-0.57633	-0.50254
3.93	25.258	-36467	4125	-0.61732	-0.57779	-0.50215
3.932	25.25	-36467	4124.4	-0.61771	-0.5776	-0.50186
3.934	25.248	-36463	4123.9	-0.6181	-0.5774	-0.50157
3.936	25.26	-36460	4123.3	-0.61849	-0.57721	-0.50127
3.938	25.265	-36454	4122.8	-0.61888	-0.57701	-0.50098
3.94	25.254	-36448	4122.2	-0.61927	-0.57682	-0.50069
3.942	25.236	-36452	4121.6	-0.61937	-0.57711	-0.50059
3.944	25.238	-36456	4121	-0.61947	-0.5774	-0.50049
3.946	25.253	-36463	4120.3	-0.61956	-0.57769	-0.5004
3.948	25.256	-36470	4119.6	-0.61966	-0.57799	-0.5003
3.95	25.253	-36465	4118.9	-0.61976	-0.57828	-0.5002
3.952	25.245	-36459	4118	-0.61947	-0.57926	-0.49981
3.954	25.236	-36459	4117.1	-0.61917	-0.58023	-0.49942
3.956	25.234	-36459	4116.2	-0.61888	-0.58121	-0.49903
3.958	25.249	-36460	4115.3	-0.61859	-0.58218	-0.49864
3.96	25.266	-36461	4114.3	-0.6183	-0.58316	-0.49825
3.962	25.279	-36454	4113.2	-0.6183	-0.58199	-0.49913
3.964	25.266	-36448	4112	-0.6183	-0.58082	-0.5
3.966	25.244	-36448	4110.8	-0.6183	-0.57965	-0.50088
3.968	25.245	-36448	4109.5	-0.6183	-0.57848	-0.50176
3.97	25.242	-36448	4108.2	-0.6183	-0.5773	-0.50264
3.972	25.258	-36448	4106.9	-0.61898	-0.57779	-0.50176
3.974	25.269	-36452	4105.6	-0.61966	-0.57828	-0.50088
3.976	25.261	-36456	4104.3	-0.62035	-0.57877	-0.5
3.978	25.257	-36456	4103.2	-0.62103	-0.57926	-0.49913
3.98	25.24	-36456	4102.1	-0.62171	-0.57974	-0.49825
3.982	25.212	-36454	4101	-0.62161	-0.57887	-0.49961
3.984	25.229	-36451	4099.9	-0.62152	-0.57799	-0.50098
3.986	25.233	-36451	4098.7	-0.62142	-0.57711	-0.50235
3.988	25.227	-36451	4097.5	-0.62132	-0.57623	-0.50371
3.99	25.231	-36452	4096.3	-0.62122	-0.57535	-0.50508
3.992	25.252	-36452	4095	-0.62181	-0.57643	-0.50508
3.994	25.267	-36454	4093.8	-0.6224	-0.5775	-0.50508
3.996	25.268	-36457	4092.5	-0.62298	-0.57857	-0.50508
3.998	25.247	-36456	4091.3	-0.62357	-0.57965	-0.50508
4	25.235	-36455	4090.1	-0.62415	-0.58072	-0.50508
4.002	25.235	-36454	4088.8	-0.62435	-0.58023	-0.5044
4.004	25.234	-36453	4087.6	-0.62454	-0.57974	-0.50371
4.006	25.245	-36453	4086.4	-0.62474	-0.57926	-0.50303
4.008	25.266	-36453	4085.1	-0.62493	-0.57877	-0.50235
4.01	25.265	-36452	4083.9	-0.62513	-0.57828	-0.50166
4.012	25.265	-36451	4082.8	-0.62425	-0.57828	-0.50176
4.014	25.273	-36450	4081.6	-0.62337	-0.57828	-0.50186
4.016	25.273	-36448	4080.5	-0.62249	-0.57828	-0.50196
4.018	25.257	-36448	4079.4	-0.62161	-0.57828	-0.50205
4.02	25.242	-36447	4078.3	-0.62074	-0.57828	-0.50215
4.022	25.248	-36450	4077.2	-0.62044	-0.57779	-0.50225
4.024	25.248	-36453	4076.2	-0.62015	-0.5773	-0.50235
4.026	25.234	-36453	4075.1	-0.61986	-0.57682	-0.50244
4.028	25.232	-36453	4074.1	-0.61956	-0.57633	-0.50254
4.03	25.244	-36453	4073.1	-0.61927	-0.57584	-0.50264
4.032	25.251	-36453	4072.1	-0.62005	-0.57506	-0.50332
4.034	25.25	-36450	4071.1	-0.62083	-0.57428	-0.50401
4.036	25.256	-36447	4070.1	-0.62161	-0.5735	-0.50469
4.038	25.258	-36442	4069	-0.6224	-0.57272	-0.50537
4.04	25.259	-36438	4067.9	-0.62318	-0.57194	-0.50606
4.042	25.26	-36451	4066.9	-0.62161	-0.57301	-0.50567
4.044	25.267	-36464	4065.9	-0.62005	-0.57408	-0.50528
4.046	25.265	-36460	4064.9	-0.61849	-0.57516	-0.50488
4.048	25.248	-36456	4064.1	-0.61693	-0.57623	-0.50449
4.05	25.253	-36456	4063.2	-0.61537	-0.5773	-0.5041
4.052	25.264	-36455	4062.6	-0.61644	-0.57623	-0.50381
4.054	25.226	-36461	4062	-0.61752	-0.57516	-0.50352
4.056	25.223	-36466	4061.4	-0.61859	-0.57408	-0.50323
4.058	25.277	-36469	4060.8	-0.61966	-0.57301	-0.50293
4.06	25.255	-36471	4060.2	-0.62074	-0.57194	-0.50264
4.062	25.245	-36466	4059.6	-0.62093	-0.57252	-0.50303
4.064	25.237	-36461	4059.1	-0.62113	-0.57311	-0.50342
4.066	25.237	-36460	4058.6	-0.62132	-0.57369	-0.50381
4.068	25.246	-36460	4058.1	-0.62152	-0.57428	-0.5042
4.07	25.253	-36458	4057.6	-0.62171	-0.57486	-0.50459
4.072	25.238	-36457	4057.2	-0.62152	-0.57467	-0.50449
4.074	25.243	-36463	4056.9	-0.62132	-0.57447	-0.5044
4.076	25.252	-36470	4056.4	-0.62113	-0.57428	-0.5043
4.078	25.246	-36471	4056	-0.62093	-0.57408	-0.5042
4.08	25.247	-36473	4055.6	-0.62074	-0.57389	-0.5041
4.082	25.255	-36472	4055.1	-0.62103	-0.5734	-0.50371
4.084	25.256	-36471	4054.7	-0.62132	-0.57291	-0.50332
4.086	25.256	-36471	4054.2	-0.62161	-0.57242	-0.50293
4.088	25.254	-36472	4053.7	-0.62191	-0.57194	-0.50254
4.09	25.25	-36467	4053.2	-0.6222	-0.57145	-0.50215
4.092	25.246	-36462	4052.7	-0.62161	-0.57242	-0.50264
4.094	25.241	-36465	4052.2	-0.62103	-0.5734	-0.50313
4.096	25.244	-36468	4051.7	-0.62044	-0.57438	-0.50362
4.098	25.239	-36467	4051.2	-0.61986	-0.57535	-0.5041
4.1	25.236	-36467	4050.7	-0.61927	-0.57633	-0.50459
4.102	25.265	-36472	4050.4	-0.61996	-0.57584	-0.50508
4.104	25.27	-36478	4050.1	-0.62064	-0.57535	-0.50557
4.106	25.245	-36476	4050	-0.62132	-0.57486	-0.50606
4.108	25.24	-36475	4050	-0.622	-0.57438	-0.50654
4.11	25.239	-36477	4050.1	-0.62269	-0.57389	-0.50703
4.112	25.231	-36479	4050	-0.6222	-0.57428	-0.50635
4.114	25.228	-36479	4050	-0.62171	-0.57467	-0.50567
4.116	25.234	-36479	4050.1	-0.62122	-0.57506	-0.50498
4.118	25.233	-36478	4050.1	-0.62074	-0.57545	-0.5043
4.12	25.245	-36476	4050.2	-0.62025	-0.57584	-0.50362
4.122	25.242	-36481	4050.3	-0.62083	-0.57604	-0.5041
4.124	25.243	-36486	4050.5	-0.62142	-0.57623	-0.50459
4.126	25.268	-36484	4050.7	-0.622	-0.57643	-0.50508
4.128	25.282	-36482	4050.9	-0.62259	-0.57662	-0.50557
4.13	25.268	-36483	4051.1	-0.62318	-0.57682	-0.50606
4.132	25.261	-36484	4051.3	-0.6223	-0.57623	-0.50567
4.134	25.263	-36482	4051.5	-0.62142	-0.57564	-0.50528
4.136	25.266	-36480	4051.7	-0.62054	-0.57506	-0.50488
4.138	25.273	-36483	4051.9	-0.61966	-0.57447	-0.50449
4.14	25.281	-36487	4052	-0.61878	-0.57389	-0.5041
4.142	25.277	-36488	4052.2	-0.61888	-0.57457	-0.50342
4.144	25.27	-36490	4052.4	-0.61898	-0.57525	-0.50274
4.146	25.278	-36493	4052.5	-0.61908	-0.57594	-0.50205
4.148	25.288	-36497	4052.6	-0.61917	-0.57662	-0.50137
4.15	25.292	-36489	4052.7	-0.61927	-0.5773	-0.50069
4.152	25.292	-36481	4052.8	-0.61947	-0.5776	-0.50069
4.154	25.293	-36483	4052.8	-0.61966	-0.57789	-0.50069
4.156	25.288	-36485	4052.7	-0.61986	-0.57818	-0.50069
4.158	25.312	-36481	4052.6	-0.62005	-0.57848	-0.50069
4.16	25.326	-36477	4052.5	-0.62025	-0.57877	-0.50069
4.162	25.312	-36478	4052.7	-0.61996	-0.57867	-0.50127
4.164	25.319	-36479	4052.8	-0.61966	-0.57857	-0.50186
4.166	25.299	-36478	4053	-0.61937	-0.57848	-0.50244
4.168	25.302	-36476	4053.2	-0.61908	-0.57838	-0.50303
4.17	25.302	-36479	4053.4	-0.61878	-0.57828	-0.50362
4.172	25.282	-36482	4053.5	-0.61898	-0.57838	-0.50323
4.174	25.276	-36484	4053.7	-0.61917	-0.57848	-0.50284
4.176	25.282	-36486	4053.8	-0.61937	-0.57857	-0.50244
4.178	25.28	-36486	4053.8	-0.61956	-0.57867	-0.50205
4.18	25.275	-36487	4053.8	-0.61976	-0.57877	-0.50166
4.182	25.286	-36490	4053.9	-0.62005	-0.57808	-0.50235
4.184	25.298	-36493	4054	-0.62035	-0.5774	-0.50303
4.186	25.293	-36496	4054.1	-0.62064	-0.57672	-0.50371
4.188	25.28	-36499	4054.2	-0.62093	-0.57604	-0.5044
4.19	25.274	-36499	4054.3	-0.62122	-0.57535	-0.50508
4.192	25.267	-36499	4054.3	-0.62064	-0.57555	-0.50459
4.194	25.257	-36504	4054.2	-0.62005	-0.57574	-0.5041
4.196	25.253	-36508	4054.1	-0.61947	-0.57594	-0.50362
4.198	25.244	-36503	4054	-0.61888	-0.57613	-0.50313
4.2	25.234	-36499	4053.9	-0.6183	-0.57633	-0.50264
4.202	25.231	-36499	4053.7	-0.61839	-0.57555	-0.50215
4.204	25.234	-36499	4053.5	-0.61849	-0.57477	-0.50166
4.206	25.233	-36505	4053.2	-0.61859	-0.57399	-0.50118
4.208	25.219	-36510	4052.9	-0.61869	-0.5732	-0.50069
4.21	25.213	-36501	4052.7	-0.61878	-0.57242	-0.5002
4.212	25.224	-36493	4052.2	-0.61849	-0.57311	-0.50098
4.214	25.234	-36502	4051.8	-0.6182	-0.57379	-0.50176
4.216	25.236	-36510	4051.4	-0.61791	-0.57447	-0.50254
4.218	25.237	-36508	4050.9	-0.61761	-0.57516	-0.50332
4.22	25.241	-36505	4050.3	-0.61732	-0.57584	-0.5041
4.222	25.241	-36502	4049.7	-0.61781	-0.57633	-0.50323
4.224	25.235	-36499	4049	-0.6183	-0.57682	-0.50235
4.226	25.237	-36502	4048.3	-0.61878	-0.5773	-0.50147
4.228	25.243	-36505	4047.5	-0.61927	-0.57779	-0.50059
4.23	25.239	-36504	4046.7	-0.61976	-0.57828	-0.49971
4.232	25.22	-36502	4046	-0.61956	-0.57877	-0.5003
4.234	25.224	-36505	4045.3	-0.61937	-0.57926	-0.50088
4.236	25.238	-36508	4044.9	-0.61917	-0.57974	-0.50147
4.238	25.26	-36512	4044.7	-0.61898	-0.58023	-0.50205
4.24	25.284	-36515	4044.6	-0.61878	-0.58072	-0.50264
4.242	25.254	-36514	4044.6	-0.61947	-0.57965	-0.50244
4.244	25.23	-36513	4044.7	-0.62015	-0.57857	-0.50225
4.246	25.235	-36513	4044.7	-0.62083	-0.5775	-0.50205
4.248	25.266	-36514	4044.7	-0.62152	-0.57643	-0.50186
4.25	25.26	-36518	4044.7	-0.6222	-0.57535	-0.50166
4.252	25.251	-36523	4044.7	-0.62152	-0.57535	-0.50157
4.254	25.247	-36518	4044.6	-0.62083	-0.57535	-0.50147
4.256	25.24	-36513	4044.6	-0.62015	-0.57535	-0.50137
4.258	25.251	-36510	4044.5	-0.61947	-0.57535	-0.50127
4.26	25.249	-36507	4044.5	-0.61878	-0.57535	-0.50118
4.262	25.248	-36507	4044.5	-0.61966	-0.57633	-0.50069
4.264	25.257	-36508	4044.5	-0.62054	-0.5773	-0.5002
4.266	25.259	-36517	4044.6	-0.62142	-0.57828	-0.49971
4.268	25.269	-36526	4044.6	-0.6223	-0.57926	-0.49922
4.27	25.302	-36524	4044.6	-0.62318	-0.58023	-0.49874
4.272	25.335	-36521	4044.5	-0.62532	-0.58072	-0.49786
4.274	25.343	-36520	4044.5	-0.62747	-0.58121	-0.49698
4.276	25.323	-36518	4044.4	-0.62962	-0.5817	-0.4961
4.278	25.287	-36525	4044.3	-0.63176	-0.58218	-0.49522
4.28	25.253	-36531	4044.1	-0.63391	-0.58267	-0.49434
4.282	25.225	-36525	4044.1	-0.63274	-0.58248	-0.49473
4.284	25.169	-36519	4044	-0.63157	-0.58228	-0.49512
4.286	25.085	-36522	4044	-0.6304	-0.58209	-0.49552
4.288	25.04	-36526	4043.9	-0.62923	-0.58189	-0.49591
4.29	25.032	-36527	4043.8	-0.62806	-0.5817	-0.4963
4.292	25.028	-36527	4043.6	-0.62864	-0.58101	-0.4963
4.294	25.032	-36527	4043.3	-0.62923	-0.58033	-0.4963
4.296	25.05	-36526	4043	-0.62981	-0.57965	-0.4963
4.298	25.072	-36529	4042.7	-0.6304	-0.57896	-0.4963
4.3	25.095	-36532	4042.3	-0.63098	-0.57828	-0.4963
4.302	25.123	-36529	4041.8	-0.63108	-0.57896	-0.4963
4.304	25.155	-36527	4041.3	-0.63118	-0.57965	-0.4963
4.306	25.184	-36525	4040.7	-0.63128	-0.58033	-0.4963
4.308	25.194	-36523	4040	-0.63137	-0.58101	-0.4963
4.31	25.22	-36526	4039.4	-0.63147	-0.5817	-0.4963
4.312	25.245	-36530	4038.6	-0.63137	-0.58199	-0.4962
4.314	25.251	-36531	4037.8	-0.63128	-0.58228	-0.4961
4.316	25.247	-36532	4037	-0.63118	-0.58257	-0.496
4.318	25.247	-36531	4036.3	-0.63108	-0.58287	-0.49591
4.32	25.271	-36530	4035.5	-0.63098	-0.58316	-0.49581
4.322	25.294	-36531	4035.3	-0.62854	-0.58267	-0.49659
4.324	25.273	-36532	4035.1	-0.6261	-0.58218	-0.49737
4.326	25.224	-36536	4034.9	-0.62366	-0.5817	-0.49815
4.328	25.232	-36540	4034.7	-0.62122	-0.58121	-0.49893
4.33	25.245	-36541	4034.5	-0.61878	-0.58072	-0.49971
4.332	25.252	-36542	4034.3	-0.61839	-0.58043	-0.5001
4.334	25.269	-36538	4034.1	-0.618	-0.58013	-0.50049
4.336	25.248	-36535	4033.9	-0.61761	-0.57984	-0.50088
4.338	25.245	-36537	4033.7	-0.61722	-0.57955	-0.50127
4.34	25.246	-36540	4033.4	-0.61683	-0.57926	-0.50166
4.342	25.245	-36549	4033.3	-0.6183	-0.57945	-0.50108
4.344	25.238	-36558	4033.1	-0.61976	-0.57965	-0.50049
4.346	25.243	-36565	4032.9	-0.62122	-0.57984	-0.49991
4.348	25.255	-36572	4032.7	-0.62269	-0.58004	-0.49932
4.35	25.255	-36572	4032.5	-0.62415	-0.58023	-0.49874
4.352	25.239	-36573	4032.4	-0.62357	-0.57945	-0.5001
4.354	25.231	-36577	4032.3	-0.62298	-0.57867	-0.50147
4.356	25.243	-36581	4032.2	-0.6224	-0.57789	-0.50284
4.358	25.235	-36574	4032.4	-0.62181	-0.57711	-0.5042
4.36	25.213	-36567	4032.5	-0.62122	-0.57633	-0.50557
4.362	25.227	-36571	4032.4	-0.62103	-0.57652	-0.50508
4.364	25.256	-36576	4032.4	-0.62083	-0.57672	-0.50459
4.366	25.259	-36576	4032.3	-0.62064	-0.57691	-0.5041
4.368	25.254	-36575	4032.2	-0.62044	-0.57711	-0.50362
4.37	25.261	-36572	4032.1	-0.62025	-0.5773	-0.50313
4.372	25.265	-36569	4031.9	-0.61976	-0.5773	-0.50313
4.374	25.258	-36570	4031.7	-0.61927	-0.5773	-0.50313
4.376	25.25	-36570	4031.5	-0.61878	-0.5773	-0.50313
4.378	25.241	-36576	4031.2	-0.6183	-0.5773	-0.50313
4.38	25.24	-36582	4030.9	-0.61781	-0.5773	-0.50313
4.382	25.242	-36583	4030.5	-0.62035	-0.57818	-0.50176
4.384	25.252	-36585	4030	-0.62288	-0.57906	-0.5004
4.386	25.265	-36582	4029.6	-0.62542	-0.57994	-0.49903
4.388	25.253	-36579	4029.1	-0.62796	-0.58082	-0.49766
4.39	25.239	-36583	4028.6	-0.6305	-0.5817	-0.4963
4.392	25.246	-36587	4028	-0.63069	-0.5817	-0.49571
4.394	25.25	-36583	4027.4	-0.63089	-0.5817	-0.49512
4.396	25.266	-36580	4026.9	-0.63108	-0.5817	-0.49454
4.398	25.219	-36587	4026.5	-0.63128	-0.5817	-0.49395
4.4	25.23	-36595	4026.1	-0.63147	-0.5817	-0.49337
4.402	25.24	-36592	4025.9	-0.63147	-0.5817	-0.49415
4.404	25.237	-36588	4025.6	-0.63147	-0.5817	-0.49493
4.406	25.223	-36589	4025.2	-0.63147	-0.5817	-0.49571
4.408	25.23	-36590	4024.8	-0.63147	-0.5817	-0.49649
4.41	25.251	-36590	4024.4	-0.63147	-0.5817	-0.49727
4.412	25.243	-36589	4023.8	-0.63001	-0.58072	-0.49727
4.414	25.24	-36589	4023.3	-0.62854	-0.57974	-0.49727
4.416	25.24	-36589	4022.7	-0.62708	-0.57877	-0.49727
4.418	25.248	-36592	4022.2	-0.62562	-0.57779	-0.49727
4.42	25.268	-36594	4021.7	-0.62415	-0.57682	-0.49727
4.422	25.257	-36601	4021.2	-0.62318	-0.57691	-0.49747
4.424	25.218	-36607	4020.7	-0.6222	-0.57701	-0.49766
4.426	25.218	-36596	4020.2	-0.62122	-0.57711	-0.49786
4.428	25.235	-36584	4019.7	-0.62025	-0.57721	-0.49805
4.43	25.245	-36582	4019.2	-0.61927	-0.5773	-0.49825
4.432	25.252	-36580	4018.6	-0.61986	-0.57789	-0.49766
4.434	25.248	-36581	4018.1	-0.62044	-0.57848	-0.49708
4.436	25.247	-36581	4017.6	-0.62103	-0.57906	-0.49649
4.438	25.248	-36583	4017.1	-0.62161	-0.57965	-0.49591
4.44	25.243	-36585	4016.5	-0.6222	-0.58023	-0.49532
4.442	25.243	-36586	4016.2	-0.62327	-0.5817	-0.4961
4.444	25.258	-36587	4015.8	-0.62435	-0.58316	-0.49688
4.446	25.285	-36589	4015.8	-0.62542	-0.58462	-0.49766
4.448	25.275	-36592	4016	-0.62649	-0.58609	-0.49844
4.45	25.237	-36595	4016.1	-0.62757	-0.58755	-0.49922
4.452	25.238	-36598	4016.5	-0.62747	-0.58736	-0.49961
4.454	25.265	-36601	4016.8	-0.62737	-0.58716	-0.5
4.456	25.276	-36603	4017.2	-0.62728	-0.58697	-0.5004
4.458	25.269	-36605	4017.7	-0.62718	-0.58677	-0.50079
4.46	25.268	-36608	4018.1	-0.62708	-0.58658	-0.50118
4.462	25.283	-36605	4019	-0.62659	-0.58619	-0.50108
4.464	25.293	-36603	4019.8	-0.6261	-0.5858	-0.50098
4.466	25.265	-36604	4020.9	-0.62562	-0.5854	-0.50088
4.468	25.265	-36606	4022.1	-0.62513	-0.58501	-0.50079
4.47	25.276	-36612	4023.4	-0.62464	-0.58462	-0.50069
4.472	25.268	-36619	4025.2	-0.62484	-0.58384	-0.50069
4.474	25.268	-36616	4027	-0.62503	-0.58306	-0.50069
4.476	25.278	-36614	4029.3	-0.62523	-0.58228	-0.50069
4.478	25.26	-36612	4031.9	-0.62542	-0.5815	-0.50069
4.48	25.272	-36609	4034.5	-0.62562	-0.58072	-0.50069
4.482	25.319	-36614	4037.9	-0.62591	-0.58092	-0.50079
4.484	25.271	-36619	4041.4	-0.6262	-0.58111	-0.50088
4.486	25.241	-36619	4045.2	-0.62649	-0.58131	-0.50098
4.488	25.278	-36618	4049.3	-0.62679	-0.5815	-0.50108
4.49	25.281	-36619	4053.4	-0.62708	-0.5817	-0.50118
4.492	25.297	-36619	4058.2	-0.62591	-0.57965	-0.50235
4.494	25.285	-36618	4062.9	-0.62474	-0.5776	-0.50352
4.496	25.304	-36616	4067.9	-0.62357	-0.57555	-0.50469
4.498	25.336	-36614	4073.3	-0.6224	-0.5735	-0.50586
4.5	25.317	-36612	4078.7	-0.62122	-0.57145	-0.50703
4.502	25.292	-36617	4084.7	-0.6223	-0.57203	-0.50723
4.504	25.297	-36622	4090.7	-0.62337	-0.57262	-0.50742
4.506	25.3	-36622	4096.8	-0.62444	-0.5732	-0.50762
4.508	25.297	-36622	4103	-0.62552	-0.57379	-0.50781
4.51	25.311	-36620	4109.2	-0.62659	-0.57438	-0.50801
4.512	25.334	-36617	4115.5	-0.62532	-0.57428	-0.50752
