t	ekg	optical	pressure	accel_x	accel_y	accel_z
0	33.297	-35377	3851.3	-0.40992	-0.63879	0.63098
0.002	33.297	-35376	3851.7	-0.4109	-0.6385	0.63098
0.004	33.301	-35375	3852.1	-0.41187	-0.63821	0.63098
0.006	33.304	-35373	3852.4	-0.41285	-0.63791	0.63098
0.008	33.302	-35372	3852.7	-0.41382	-0.63762	0.63098
0.01	33.296	-35373	3852.9	-0.4148	-0.63733	0.63098
0.012	33.288	-35375	3853.2	-0.41441	-0.63772	0.63001
0.014	33.289	-35376	3853.4	-0.41402	-0.63811	0.62903
0.016	33.294	-35377	3853.6	-0.41363	-0.6385	0.62806
0.018	33.296	-35368	3853.8	-0.41324	-0.63889	0.62708
0.02	33.296	-35360	3854	-0.41285	-0.63928	0.6261
0.022	33.294	-35365	3854.1	-0.41148	-0.63879	0.62581
0.024	33.296	-35369	3854.3	-0.41012	-0.6383	0.62552
0.026	33.295	-35371	3854.4	-0.40875	-0.63782	0.62523
0.028	33.292	-35373	3854.4	-0.40738	-0.63733	0.62493
0.03	33.285	-35369	3854.5	-0.40602	-0.63684	0.62464
0.032	33.286	-35365	3854.5	-0.40563	-0.63713	0.62474
0.034	33.293	-35363	3854.6	-0.40524	-0.63743	0.62484
0.036	33.291	-35361	3854.5	-0.40484	-0.63772	0.62493
0.038	33.289	-35358	3854.4	-0.40445	-0.63801	0.62503
0.04	33.29	-35355	3854.4	-0.40406	-0.6383	0.62513
0.042	33.295	-35354	3854.2	-0.40328	-0.63869	0.62542
0.044	33.298	-35352	3854	-0.4025	-0.63908	0.62571
0.046	33.299	-35355	3853.8	-0.40172	-0.63948	0.62601
0.048	33.294	-35359	3853.7	-0.40094	-0.63987	0.6263
0.05	33.294	-35357	3853.5	-0.40016	-0.64026	0.62659
0.052	33.3	-35354	3853.2	-0.40153	-0.63977	0.62659
0.054	33.307	-35351	3852.9	-0.40289	-0.63928	0.62659
0.056	33.311	-35348	3852.5	-0.40426	-0.63879	0.62659
0.058	33.308	-35350	3852.1	-0.40563	-0.6383	0.62659
0.06	33.302	-35352	3851.8	-0.40699	-0.63782	0.62659
0.062	33.295	-35351	3851.4	-0.4065	-0.63733	0.62659
0.064	33.293	-35351	3850.9	-0.40602	-0.63684	0.62659
0.066	33.293	-35346	3850.5	-0.40553	-0.63635	0.62659
0.068	33.288	-35342	3849.9	-0.40504	-0.63586	0.62659
0.07	33.285	-35344	3849.4	-0.40455	-0.63538	0.62659
0.072	33.29	-35346	3848.8	-0.40465	-0.63596	0.62649
0.074	33.296	-35346	3848.2	-0.40475	-0.63655	0.6264
0.076	33.298	-35345	3847.6	-0.40484	-0.63713	0.6263
0.078	33.295	-35343	3846.9	-0.40494	-0.63772	0.6262
0.08	33.294	-35340	3846.2	-0.40504	-0.6383	0.6261
0.082	33.295	-35346	3845.5	-0.40406	-0.63811	0.62591
0.084	33.296	-35352	3844.7	-0.40309	-0.63791	0.62571
0.086	33.294	-35353	3844	-0.40211	-0.63772	0.62552
0.088	33.288	-35354	3843.3	-0.40114	-0.63752	0.62532
0.09	33.288	-35352	3842.5	-0.40016	-0.63733	0.62513
0.092	33.293	-35351	3841.7	-0.40172	-0.63801	0.62571
0.094	33.293	-35346	3840.9	-0.40328	-0.63869	0.6263
0.096	33.288	-35342	3840.1	-0.40484	-0.63938	0.62688
0.098	33.294	-35347	3839.2	-0.40641	-0.64006	0.62747
0.1	33.302	-35352	3838.4	-0.40797	-0.64074	0.62806
0.102	33.299	-35350	3837.5	-0.40885	-0.64113	0.62854
0.104	33.294	-35348	3836.6	-0.40972	-0.64152	0.62903
0.106	33.3	-35347	3835.7	-0.4106	-0.64192	0.62952
0.108	33.302	-35346	3834.8	-0.41148	-0.64231	0.63001
0.11	33.302	-35346	3834	-0.41236	-0.6427	0.6305
0.112	33.301	-35347	3833	-0.4109	-0.64231	0.63108
0.114	33.299	-35346	3832.1	-0.40943	-0.64192	0.63167
0.116	33.295	-35345	3831.2	-0.40797	-0.64152	0.63225
0.118	33.294	-35347	3830.2	-0.4065	-0.64113	0.63284
0.12	33.291	-35349	3829.2	-0.40504	-0.64074	0.63342
0.122	33.283	-35348	3828.3	-0.40572	-0.64084	0.63313
0.124	33.285	-35347	3827.3	-0.40641	-0.64094	0.63284
0.126	33.292	-35348	3826.4	-0.40709	-0.64104	0.63255
0.128	33.293	-35349	3825.4	-0.40777	-0.64113	0.63225
0.13	33.293	-35350	3824.5	-0.40846	-0.64123	0.63196
0.132	33.297	-35352	3823.5	-0.40807	-0.64104	0.63225
0.134	33.301	-35352	3822.6	-0.40768	-0.64084	0.63255
0.136	33.299	-35352	3821.7	-0.40728	-0.64065	0.63284
0.138	33.298	-35351	3820.7	-0.40689	-0.64045	0.63313
0.14	33.299	-35350	3819.8	-0.4065	-0.64026	0.63342
0.142	33.296	-35356	3818.8	-0.40738	-0.64026	0.63333
0.144	33.292	-35363	3817.8	-0.40826	-0.64026	0.63323
0.146	33.291	-35362	3816.9	-0.40914	-0.64026	0.63313
0.148	33.291	-35361	3816	-0.41002	-0.64026	0.63303
0.15	33.289	-35358	3815.1	-0.4109	-0.64026	0.63294
0.152	33.287	-35356	3814.1	-0.41099	-0.64055	0.63255
0.154	33.288	-35356	3813.2	-0.41109	-0.64084	0.63216
0.156	33.289	-35355	3812.4	-0.41119	-0.64113	0.63176
0.158	33.291	-35358	3811.5	-0.41129	-0.64143	0.63137
0.16	33.294	-35362	3810.7	-0.41138	-0.64172	0.63098
0.162	33.293	-35356	3809.9	-0.41119	-0.64123	0.63118
0.164	33.284	-35351	3809.1	-0.41099	-0.64074	0.63137
0.166	33.28	-35360	3808.3	-0.4108	-0.64026	0.63157
0.168	33.279	-35369	3807.5	-0.4106	-0.63977	0.63176
0.17	33.276	-35368	3806.7	-0.41041	-0.63928	0.63196
0.172	33.276	-35368	3806	-0.4107	-0.63987	0.63118
0.174	33.283	-35371	3805.3	-0.41099	-0.64045	0.6304
0.176	33.287	-35374	3804.7	-0.41129	-0.64104	0.62962
0.178	33.287	-35371	3804	-0.41158	-0.64162	0.62884
0.18	33.282	-35369	3803.3	-0.41187	-0.64221	0.62806
0.182	33.281	-35370	3802.7	-0.41119	-0.64143	0.62786
0.184	33.279	-35372	3802.1	-0.41051	-0.64065	0.62767
0.186	33.276	-35371	3801.6	-0.40982	-0.63987	0.62747
0.188	33.275	-35370	3801.1	-0.40914	-0.63908	0.62728
0.19	33.273	-35374	3800.7	-0.40846	-0.6383	0.62708
0.192	33.273	-35378	3800.2	-0.40816	-0.63869	0.62737
0.194	33.281	-35382	3799.8	-0.40787	-0.63908	0.62767
0.196	33.284	-35386	3799.4	-0.40758	-0.63948	0.62796
0.198	33.286	-35390	3799	-0.40728	-0.63987	0.62825
0.2	33.288	-35394	3798.5	-0.40699	-0.64026	0.62854
0.202	33.287	-35389	3798.2	-0.40709	-0.64016	0.62864
0.204	33.291	-35384	3797.9	-0.40719	-0.64006	0.62874
0.206	33.288	-35385	3797.7	-0.40728	-0.63996	0.62884
0.208	33.283	-35387	3797.4	-0.40738	-0.63987	0.62893
0.21	33.28	-35392	3797.2	-0.40748	-0.63977	0.62903
0.212	33.276	-35397	3796.9	-0.40777	-0.64006	0.62932
0.214	33.271	-35394	3796.7	-0.40807	-0.64035	0.62962
0.216	33.269	-35390	3796.5	-0.40836	-0.64065	0.62991
0.218	33.269	-35396	3796.3	-0.40865	-0.64094	0.6302
0.22	33.268	-35402	3796.1	-0.40894	-0.64123	0.6305
0.222	33.274	-35405	3796	-0.40875	-0.64074	0.62991
0.224	33.285	-35409	3795.9	-0.40855	-0.64026	0.62932
0.226	33.288	-35406	3795.8	-0.40836	-0.63977	0.62874
0.228	33.284	-35402	3795.7	-0.40816	-0.63928	0.62815
0.23	33.279	-35403	3795.5	-0.40797	-0.63879	0.62757
0.232	33.275	-35403	3795.4	-0.40807	-0.63948	0.62806
0.234	33.277	-35407	3795.3	-0.40816	-0.64016	0.62854
0.236	33.28	-35411	3795.3	-0.40826	-0.64084	0.62903
0.238	33.284	-35410	3795.2	-0.40836	-0.64152	0.62952
0.24	33.285	-35410	3795.2	-0.40846	-0.64221	0.63001
0.242	33.28	-35414	3795.1	-0.40748	-0.64182	0.63089
0.244	33.276	-35419	3795.1	-0.4065	-0.64143	0.63176
0.246	33.272	-35419	3795	-0.40553	-0.64104	0.63264
0.248	33.272	-35420	3795	-0.40455	-0.64065	0.63352
0.25	33.28	-35416	3795	-0.40358	-0.64026	0.6344
0.252	33.292	-35411	3795	-0.40436	-0.64094	0.63391
0.254	33.298	-35413	3795	-0.40514	-0.64162	0.63342
0.256	33.293	-35415	3795	-0.40592	-0.64231	0.63294
0.258	33.289	-35421	3795	-0.4067	-0.64299	0.63245
0.26	33.29	-35427	3794.9	-0.40748	-0.64367	0.63196
0.262	33.287	-35426	3794.9	-0.40768	-0.6426	0.63118
0.264	33.281	-35425	3795	-0.40787	-0.64152	0.6304
0.266	33.279	-35425	3794.9	-0.40807	-0.64045	0.62962
0.268	33.273	-35426	3794.8	-0.40826	-0.63938	0.62884
0.27	33.273	-35426	3794.8	-0.40846	-0.6383	0.62806
0.272	33.276	-35425	3794.8	-0.40885	-0.63879	0.62854
0.274	33.279	-35428	3794.8	-0.40924	-0.63928	0.62903
0.276	33.275	-35432	3794.7	-0.40963	-0.63977	0.62952
0.278	33.279	-35430	3794.7	-0.41002	-0.64026	0.63001
0.28	33.276	-35428	3794.6	-0.41041	-0.64074	0.6305
0.282	33.275	-35425	3794.6	-0.41012	-0.64152	0.63128
0.284	33.271	-35423	3794.5	-0.40982	-0.64231	0.63206
0.286	33.276	-35424	3794.4	-0.40953	-0.64309	0.63284
0.288	33.278	-35426	3794.3	-0.40924	-0.64387	0.63362
0.29	33.28	-35431	3794.3	-0.40894	-0.64465	0.6344
0.292	33.287	-35435	3794.2	-0.40855	-0.64445	0.6345
0.294	33.286	-35435	3794.1	-0.40816	-0.64426	0.6346
0.296	33.284	-35434	3794	-0.40777	-0.64406	0.63469
0.298	33.283	-35436	3793.9	-0.40738	-0.64387	0.63479
0.3	33.283	-35438	3793.7	-0.40699	-0.64367	0.63489
0.302	33.281	-35442	3793.6	-0.40728	-0.6425	0.63342
0.304	33.277	-35446	3793.5	-0.40758	-0.64133	0.63196
0.306	33.274	-35446	3793.3	-0.40787	-0.64016	0.6305
0.308	33.266	-35447	3793.2	-0.40816	-0.63899	0.62903
0.31	33.257	-35447	3793	-0.40846	-0.63782	0.62757
0.312	33.259	-35447	3792.8	-0.40777	-0.6385	0.62903
0.314	33.275	-35451	3792.7	-0.40709	-0.63918	0.6305
0.316	33.287	-35454	3792.5	-0.40641	-0.63987	0.63196
0.318	33.284	-35454	3792.3	-0.40572	-0.64055	0.63342
0.32	33.278	-35455	3792	-0.40504	-0.64123	0.63489
0.322	33.272	-35453	3791.8	-0.40592	-0.64113	0.63391
0.324	33.267	-35452	3791.6	-0.4068	-0.64104	0.63294
0.326	33.269	-35452	3791.4	-0.40768	-0.64094	0.63196
0.328	33.275	-35453	3791.2	-0.40855	-0.64084	0.63098
0.33	33.28	-35456	3791	-0.40943	-0.64074	0.63001
0.332	33.283	-35459	3790.7	-0.40924	-0.64172	0.63098
0.334	33.287	-35462	3790.4	-0.40904	-0.6427	0.63196
0.336	33.283	-35464	3790.2	-0.40885	-0.64367	0.63294
0.338	33.273	-35462	3789.9	-0.40865	-0.64465	0.63391
0.34	33.272	-35459	3789.6	-0.40846	-0.64562	0.63489
0.342	33.278	-35461	3789.3	-0.40846	-0.64465	0.63391
0.344	33.287	-35462	3789	-0.40846	-0.64367	0.63294
0.346	33.296	-35463	3788.7	-0.40846	-0.6427	0.63196
0.348	33.305	-35465	3788.4	-0.40846	-0.64172	0.63098
0.35	33.307	-35470	3788	-0.40846	-0.64074	0.63001
0.352	33.305	-35475	3787.7	-0.40738	-0.64006	0.6302
0.354	33.293	-35476	3787.3	-0.40631	-0.63938	0.6304
0.356	33.289	-35477	3786.9	-0.40524	-0.63869	0.63059
0.358	33.301	-35477	3786.6	-0.40416	-0.63801	0.63079
0.36	33.314	-35477	3786.2	-0.40309	-0.63733	0.63098
0.362	33.318	-35479	3785.8	-0.40416	-0.6385	0.63128
0.364	33.315	-35482	3785.5	-0.40524	-0.63967	0.63157
0.366	33.312	-35483	3785	-0.40631	-0.64084	0.63186
0.368	33.314	-35484	3784.6	-0.40738	-0.64201	0.63216
0.37	33.325	-35484	3784.1	-0.40846	-0.64318	0.63245
0.372	33.332	-35484	3783.7	-0.40797	-0.64211	0.63147
0.374	33.332	-35491	3783.3	-0.40748	-0.64104	0.6305
0.376	33.33	-35497	3782.9	-0.40699	-0.63996	0.62952
0.378	33.328	-35498	3782.4	-0.4065	-0.63889	0.62854
0.38	33.324	-35499	3782	-0.40602	-0.63782	0.62757
0.382	33.321	-35496	3781.5	-0.40699	-0.63889	0.62845
0.384	33.319	-35494	3781.1	-0.40797	-0.63996	0.62932
0.386	33.317	-35490	3780.6	-0.40894	-0.64104	0.6302
0.388	33.317	-35487	3780.2	-0.40992	-0.64211	0.63108
0.39	33.32	-35490	3779.7	-0.4109	-0.64318	0.63196
0.392	33.322	-35493	3779.2	-0.41002	-0.64231	0.63137
0.394	33.322	-35497	3778.7	-0.40914	-0.64143	0.63079
0.396	33.324	-35501	3778.2	-0.40826	-0.64055	0.6302
0.398	33.332	-35505	3777.7	-0.40738	-0.63967	0.62962
0.4	33.339	-35510	3777.2	-0.4065	-0.63879	0.62903
0.402	33.338	-35509	3776.7	-0.40641	-0.63899	0.62942
0.404	33.329	-35509	3776.2	-0.40631	-0.63918	0.62981
0.406	33.319	-35508	3775.6	-0.40621	-0.63938	0.6302
0.408	33.309	-35508	3775	-0.40611	-0.63957	0.63059
0.41	33.298	-35512	3774.4	-0.40602	-0.63977	0.63098
0.412	33.286	-35516	3773.8	-0.4065	-0.64074	0.63128
0.414	33.277	-35517	3773.2	-0.40699	-0.64172	0.63157
0.416	33.272	-35518	3772.7	-0.40748	-0.6427	0.63186
0.418	33.271	-35519	3772.1	-0.40797	-0.64367	0.63216
0.42	33.274	-35520	3771.6	-0.40846	-0.64465	0.63245
0.422	33.273	-35526	3771	-0.40816	-0.64367	0.63167
0.424	33.269	-35531	3770.4	-0.40787	-0.6427	0.63089
0.426	33.258	-35534	3769.8	-0.40758	-0.64172	0.63011
0.428	33.254	-35538	3769.2	-0.40728	-0.64074	0.62932
0.43	33.257	-35538	3768.6	-0.40699	-0.63977	0.62854
0.432	33.263	-35538	3768	-0.40728	-0.64055	0.62942
0.434	33.269	-35534	3767.4	-0.40758	-0.64133	0.6303
0.436	33.271	-35531	3766.8	-0.40787	-0.64211	0.63118
0.438	33.268	-35530	3766.2	-0.40816	-0.64289	0.63206
0.44	33.276	-35530	3765.7	-0.40846	-0.64367	0.63294
0.442	33.276	-35533	3765.1	-0.40758	-0.6424	0.63128
0.444	33.276	-35535	3764.5	-0.4067	-0.64113	0.62962
0.446	33.274	-35540	3763.9	-0.40582	-0.63987	0.62796
0.448	33.272	-35545	3763.3	-0.40494	-0.6386	0.6263
0.45	33.276	-35545	3762.7	-0.40406	-0.63733	0.62464
0.452	33.276	-35545	3762.2	-0.40397	-0.63713	0.62484
0.454	33.276	-35545	3761.6	-0.40387	-0.63694	0.62503
0.456	33.279	-35545	3761.1	-0.40377	-0.63674	0.62523
0.458	33.277	-35546	3760.6	-0.40367	-0.63655	0.62542
0.46	33.276	-35547	3760.1	-0.40358	-0.63635	0.62562
0.462	33.281	-35552	3759.5	-0.40406	-0.63625	0.6261
0.464	33.292	-35556	3759	-0.40455	-0.63616	0.62659
0.466	33.299	-35556	3758.5	-0.40504	-0.63606	0.62708
0.468	33.296	-35557	3758	-0.40553	-0.63596	0.62757
0.47	33.289	-35559	3757.6	-0.40602	-0.63586	0.62806
0.472	33.281	-35561	3757	-0.40621	-0.63694	0.62796
0.474	33.28	-35571	3756.5	-0.40641	-0.63801	0.62786
0.476	33.282	-35581	3756	-0.4066	-0.63908	0.62776
0.478	33.284	-35575	3755.6	-0.4068	-0.64016	0.62767
0.48	33.286	-35569	3755.1	-0.40699	-0.64123	0.62757
0.482	33.293	-35570	3754.7	-0.40728	-0.64201	0.62874
0.484	33.298	-35572	3754.3	-0.40758	-0.64279	0.62991
0.486	33.306	-35577	3753.9	-0.40787	-0.64357	0.63108
0.488	33.322	-35582	3753.5	-0.40816	-0.64436	0.63225
0.49	33.343	-35581	3753.1	-0.40846	-0.64514	0.63342
0.492	33.363	-35580	3752.7	-0.40904	-0.64465	0.63264
0.494	33.369	-35585	3752.3	-0.40963	-0.64416	0.63186
0.496	33.362	-35591	3751.9	-0.41021	-0.64367	0.63108
0.498	33.347	-35586	3751.6	-0.4108	-0.64318	0.6303
0.5	33.319	-35581	3751.3	-0.41138	-0.6427	0.62952
0.502	33.271	-35587	3751	-0.4108	-0.6427	0.62952
0.504	33.215	-35594	3750.7	-0.41021	-0.6427	0.62952
0.506	33.172	-35593	3750.3	-0.40963	-0.6427	0.62952
0.508	33.138	-35593	3750.1	-0.40904	-0.6427	0.62952
0.51	33.11	-35588	3749.8	-0.40846	-0.6427	0.62952
0.512	33.099	-35582	3749.5	-0.40777	-0.64279	0.6304
0.514	33.1	-35592	3749.2	-0.40709	-0.64289	0.63128
0.516	33.113	-35603	3749	-0.40641	-0.64299	0.63216
0.518	33.134	-35606	3748.7	-0.40572	-0.64309	0.63303
0.52	33.168	-35609	3748.5	-0.40504	-0.64318	0.63391
0.522	33.197	-35605	3748.2	-0.40524	-0.64211	0.63274
0.524	33.218	-35602	3748	-0.40543	-0.64104	0.63157
0.526	33.237	-35607	3747.7	-0.40563	-0.63996	0.6304
0.528	33.252	-35611	3747.5	-0.40582	-0.63889	0.62923
0.53	33.264	-35614	3747.4	-0.40602	-0.63782	0.62806
0.532	33.278	-35616	3747.1	-0.40621	-0.6385	0.62864
0.534	33.276	-35619	3746.9	-0.40641	-0.63918	0.62923
0.536	33.275	-35622	3746.7	-0.4066	-0.63987	0.62981
0.538	33.273	-35617	3746.5	-0.4068	-0.64055	0.6304
0.54	33.278	-35612	3746.4	-0.40699	-0.64123	0.63098
0.542	33.291	-35621	3746.2	-0.40748	-0.64231	0.63137
0.544	33.297	-35629	3746	-0.40797	-0.64338	0.63176
0.546	33.294	-35627	3745.8	-0.40846	-0.64445	0.63216
0.548	33.292	-35625	3745.7	-0.40894	-0.64553	0.63255
0.55	33.293	-35633	3745.5	-0.40943	-0.6466	0.63294
0.552	33.291	-35640	3745.4	-0.40933	-0.64582	0.63264
0.554	33.289	-35635	3745.2	-0.40924	-0.64504	0.63235
0.556	33.292	-35631	3745	-0.40914	-0.64426	0.63206
0.558	33.293	-35638	3744.8	-0.40904	-0.64348	0.63176
0.56	33.29	-35646	3744.7	-0.40894	-0.6427	0.63147
0.562	33.285	-35649	3744.5	-0.40816	-0.6427	0.63147
0.564	33.281	-35651	3744.4	-0.40738	-0.6427	0.63147
0.566	33.278	-35656	3744.2	-0.4066	-0.6427	0.63147
0.568	33.275	-35660	3744	-0.40582	-0.6427	0.63147
0.57	33.271	-35661	3743.9	-0.40504	-0.6427	0.63147
0.572	33.27	-35663	3743.7	-0.40572	-0.64377	0.63176
0.574	33.269	-35658	3743.6	-0.40641	-0.64484	0.63206
0.576	33.271	-35654	3743.4	-0.40709	-0.64592	0.63235
0.578	33.277	-35655	3743.2	-0.40777	-0.64699	0.63264
0.58	33.28	-35657	3743.1	-0.40846	-0.64806	0.63294
0.582	33.28	-35657	3742.8	-0.40768	-0.64709	0.63381
0.584	33.282	-35658	3742.6	-0.40689	-0.64611	0.63469
0.586	33.28	-35661	3742.3	-0.40611	-0.64514	0.63557
0.588	33.277	-35664	3742.1	-0.40533	-0.64416	0.63645
0.59	33.284	-35667	3741.9	-0.40455	-0.64318	0.63733
0.592	33.288	-35670	3741.5	-0.40484	-0.64299	0.63684
0.594	33.288	-35672	3741.2	-0.40514	-0.64279	0.63635
0.596	33.285	-35674	3740.8	-0.40543	-0.6426	0.63586
0.598	33.281	-35673	3740.4	-0.40572	-0.6424	0.63538
0.6	33.283	-35673	3740	-0.40602	-0.64221	0.63489
0.602	33.284	-35678	3739.5	-0.40689	-0.6425	0.6342
0.604	33.283	-35683	3739	-0.40777	-0.64279	0.63352
0.606	33.288	-35687	3738.5	-0.40865	-0.64309	0.63284
0.608	33.291	-35691	3738	-0.40953	-0.64338	0.63216
0.61	33.289	-35686	3737.5	-0.41041	-0.64367	0.63147
0.612	33.289	-35681	3737	-0.40972	-0.64279	0.63069
0.614	33.3	-35687	3736.4	-0.40904	-0.64192	0.62991
0.616	33.3	-35692	3735.9	-0.40836	-0.64104	0.62913
0.618	33.285	-35690	3735.3	-0.40768	-0.64016	0.62835
0.62	33.283	-35688	3734.7	-0.40699	-0.63928	0.62757
0.622	33.283	-35689	3734	-0.40777	-0.63977	0.62776
0.624	33.29	-35690	3733.3	-0.40855	-0.64026	0.62796
0.626	33.296	-35688	3732.7	-0.40933	-0.64074	0.62815
0.628	33.294	-35686	3731.9	-0.41012	-0.64123	0.62835
0.63	33.293	-35697	3731.2	-0.4109	-0.64172	0.62854
0.632	33.293	-35707	3730.5	-0.41002	-0.64123	0.62835
0.634	33.297	-35704	3729.7	-0.40914	-0.64074	0.62815
0.636	33.295	-35701	3729	-0.40826	-0.64026	0.62796
0.638	33.288	-35708	3728.2	-0.40738	-0.63977	0.62776
0.64	33.286	-35714	3727.4	-0.4065	-0.63928	0.62757
0.642	33.288	-35716	3726.6	-0.40445	-0.64026	0.62708
0.644	33.29	-35718	3725.9	-0.4024	-0.64123	0.62659
0.646	33.288	-35718	3725.2	-0.40036	-0.64221	0.6261
0.648	33.286	-35718	3724.5	-0.39831	-0.64318	0.62562
0.65	33.284	-35724	3723.8	-0.39626	-0.64416	0.62513
0.652	33.286	-35730	3723.3	-0.39713	-0.64309	0.62454
0.654	33.294	-35729	3722.7	-0.39801	-0.64201	0.62396
0.656	33.302	-35729	3722.2	-0.39889	-0.64094	0.62337
0.658	33.303	-35730	3721.9	-0.39977	-0.63987	0.62279
0.66	33.302	-35730	3721.5	-0.40065	-0.63879	0.6222
0.662	33.305	-35727	3721.2	-0.40104	-0.64084	0.62337
0.664	33.303	-35724	3720.9	-0.40143	-0.64289	0.62454
0.666	33.3	-35730	3720.8	-0.40182	-0.64494	0.62571
0.668	33.302	-35736	3720.7	-0.40221	-0.64699	0.62688
0.67	33.303	-35737	3720.6	-0.4026	-0.64904	0.62806
0.672	33.3	-35737	3720.8	-0.40387	-0.64924	0.62854
0.674	33.297	-35738	3720.9	-0.40514	-0.64943	0.62903
0.676	33.297	-35739	3721.3	-0.40641	-0.64963	0.62952
0.678	33.298	-35745	3721.8	-0.40768	-0.64982	0.63001
0.68	33.307	-35751	3722.3	-0.40894	-0.65002	0.6305
0.682	33.313	-35749	3723.4	-0.40992	-0.65031	0.6304
0.684	33.314	-35747	3724.4	-0.4109	-0.6506	0.6303
0.686	33.32	-35750	3725.7	-0.41187	-0.65089	0.6302
0.688	33.321	-35754	3727.4	-0.41285	-0.65119	0.63011
0.69	33.323	-35758	3729	-0.41382	-0.65148	0.63001
0.692	33.325	-35761	3731.4	-0.41363	-0.6506	0.63196
0.694	33.325	-35763	3733.7	-0.41343	-0.64972	0.63391
0.696	33.33	-35766	3736.5	-0.41324	-0.64884	0.63586
0.698	33.334	-35766	3739.7	-0.41304	-0.64797	0.63782
0.7	33.333	-35767	3742.9	-0.41285	-0.64709	0.63977
0.702	33.327	-35773	3746.8	-0.41275	-0.6468	0.63948
0.704	33.328	-35778	3750.7	-0.41265	-0.6465	0.63918
0.706	33.325	-35772	3755	-0.41256	-0.64621	0.63889
0.708	33.329	-35766	3759.5	-0.41246	-0.64592	0.6386
0.71	33.339	-35764	3764.1	-0.41236	-0.64562	0.6383
0.712	33.343	-35762	3769	-0.41138	-0.64436	0.63752
0.714	33.35	-35764	3774	-0.41041	-0.64309	0.63674
0.716	33.355	-35765	3779.1	-0.40943	-0.64182	0.63596
0.718	33.352	-35774	3784.4	-0.40846	-0.64055	0.63518
0.72	33.343	-35782	3789.7	-0.40748	-0.63928	0.6344
0.722	33.34	-35787	3795.1	-0.40894	-0.63801	0.63372
0.724	33.348	-35791	3800.6	-0.41041	-0.63674	0.63303
0.726	33.355	-35781	3806.2	-0.41187	-0.63547	0.63235
0.728	33.362	-35770	3811.8	-0.41334	-0.6342	0.63167
0.73	33.368	-35774	3817.5	-0.4148	-0.63294	0.63098
0.732	33.367	-35777	3823	-0.41363	-0.63479	0.63059
0.734	33.366	-35778	3828.6	-0.41246	-0.63664	0.6302
0.736	33.363	-35778	3834	-0.41129	-0.6385	0.62981
0.738	33.363	-35775	3839.4	-0.41012	-0.64035	0.62942
0.74	33.367	-35773	3844.8	-0.40894	-0.64221	0.62903
0.742	33.373	-35771	3849.3	-0.40768	-0.64123	0.62815
0.744	33.376	-35769	3853.9	-0.40641	-0.64026	0.62728
0.746	33.375	-35772	3857.9	-0.40514	-0.63928	0.6264
0.748	33.372	-35775	3861.5	-0.40387	-0.6383	0.62552
0.75	33.376	-35767	3865	-0.4026	-0.63733	0.62464
0.752	33.387	-35760	3867.7	-0.40114	-0.63791	0.62493
0.754	33.394	-35760	3870.4	-0.39967	-0.6385	0.62523
0.756	33.396	-35761	3872.7	-0.39821	-0.63908	0.62552
0.758	33.398	-35758	3874.8	-0.39674	-0.63967	0.62581
0.76	33.402	-35755	3876.9	-0.39528	-0.64026	0.6261
0.762	33.4	-35754	3878.8	-0.39645	-0.64035	0.62659
0.764	33.395	-35752	3880.6	-0.39762	-0.64045	0.62708
0.766	33.395	-35747	3882.2	-0.39879	-0.64055	0.62757
0.768	33.397	-35742	3883.7	-0.39996	-0.64065	0.62806
0.77	33.396	-35739	3885.2	-0.40114	-0.64074	0.62854
0.772	33.392	-35736	3886.4	-0.40075	-0.64162	0.62903
0.774	33.391	-35730	3887.5	-0.40036	-0.6425	0.62952
0.776	33.398	-35725	3888.5	-0.39996	-0.64338	0.63001
0.778	33.402	-35719	3889.3	-0.39957	-0.64426	0.6305
0.78	33.401	-35713	3890.2	-0.39918	-0.64514	0.63098
0.782	33.405	-35709	3890.7	-0.40036	-0.64465	0.63098
0.784	33.401	-35705	3891.2	-0.40153	-0.64416	0.63098
0.786	33.402	-35700	3891.6	-0.4027	-0.64367	0.63098
0.788	33.41	-35694	3891.8	-0.40387	-0.64318	0.63098
0.79	33.404	-35692	3892.1	-0.40504	-0.6427	0.63098
0.792	33.404	-35689	3892	-0.40514	-0.6425	0.63108
0.794	33.412	-35687	3891.9	-0.40524	-0.64231	0.63118
0.796	33.412	-35684	3891.7	-0.40533	-0.64211	0.63128
0.798	33.41	-35681	3891.4	-0.40543	-0.64192	0.63137
0.8	33.407	-35677	3891.1	-0.40553	-0.64172	0.63147
0.802	33.397	-35675	3890.5	-0.40533	-0.64172	0.63128
0.804	33.383	-35673	3890	-0.40514	-0.64172	0.63108
0.806	33.384	-35672	3889.3	-0.40494	-0.64172	0.63089
0.808	33.39	-35672	3888.5	-0.40475	-0.64172	0.63069
0.81	33.384	-35659	3887.7	-0.40455	-0.64172	0.6305
0.812	33.374	-35646	3886.7	-0.40494	-0.64211	0.63137
0.814	33.364	-35644	3885.7	-0.40533	-0.6425	0.63225
0.816	33.362	-35642	3884.7	-0.40572	-0.64289	0.63313
0.818	33.361	-35642	3883.5	-0.40611	-0.64328	0.63401
0.82	33.353	-35643	3882.4	-0.4065	-0.64367	0.63489
0.822	33.344	-35636	3881.1	-0.40592	-0.64406	0.63499
0.824	33.34	-35628	3879.8	-0.40533	-0.64445	0.63508
0.826	33.339	-35623	3878.5	-0.40475	-0.64484	0.63518
0.828	33.337	-35617	3877.1	-0.40416	-0.64523	0.63528
0.83	33.335	-35616	3875.7	-0.40358	-0.64562	0.63538
0.832	33.333	-35614	3874.3	-0.40465	-0.64523	0.63538
0.834	33.333	-35612	3872.8	-0.40572	-0.64484	0.63538
0.836	33.333	-35609	3871.4	-0.4068	-0.64445	0.63538
0.838	33.33	-35607	3869.9	-0.40787	-0.64406	0.63538
0.84	33.321	-35605	3868.4	-0.40894	-0.64367	0.63538
0.842	33.314	-35604	3867	-0.40943	-0.64309	0.63411
0.844	33.307	-35603	3865.5	-0.40992	-0.6425	0.63284
0.846	33.307	-35597	3864.1	-0.41041	-0.64192	0.63157
0.848	33.313	-35592	3862.6	-0.4109	-0.64133	0.6303
0.85	33.315	-35595	3861.1	-0.41138	-0.64074	0.62903
0.852	33.31	-35598	3859.7	-0.41138	-0.64104	0.62942
0.854	33.297	-35596	3858.4	-0.41138	-0.64133	0.62981
0.856	33.292	-35594	3857	-0.41138	-0.64162	0.6302
0.858	33.303	-35587	3855.7	-0.41138	-0.64192	0.63059
0.86	33.306	-35580	3854.4	-0.41138	-0.64221	0.63098
0.862	33.295	-35577	3853.2	-0.4108	-0.64221	0.63137
0.864	33.299	-35575	3852.1	-0.41021	-0.64221	0.63176
0.866	33.304	-35577	3850.9	-0.40963	-0.64221	0.63216
0.868	33.303	-35578	3849.8	-0.40904	-0.64221	0.63255
0.87	33.293	-35575	3848.7	-0.40846	-0.64221	0.63294
0.872	33.29	-35571	3847.8	-0.40807	-0.64192	0.63284
0.874	33.287	-35567	3846.8	-0.40768	-0.64162	0.63274
0.876	33.289	-35563	3845.8	-0.40728	-0.64133	0.63264
0.878	33.288	-35565	3845	-0.40689	-0.64104	0.63255
0.88	33.29	-35567	3844.1	-0.4065	-0.64074	0.63245
0.882	33.295	-35569	3843.3	-0.40748	-0.64094	0.63157
0.884	33.293	-35571	3842.4	-0.40846	-0.64113	0.63069
0.886	33.287	-35569	3841.6	-0.40943	-0.64133	0.62981
0.888	33.289	-35567	3840.8	-0.41041	-0.64152	0.62893
0.89	33.284	-35564	3840	-0.41138	-0.64172	0.62806
0.892	33.28	-35562	3839.2	-0.4107	-0.64104	0.62737
0.894	33.285	-35562	3838.4	-0.41002	-0.64035	0.62669
0.896	33.29	-35563	3837.6	-0.40933	-0.63967	0.62601
0.898	33.293	-35561	3836.9	-0.40865	-0.63899	0.62532
0.9	33.294	-35559	3836.1	-0.40797	-0.6383	0.62464
0.902	33.289	-35555	3835.3	-0.4066	-0.63752	0.62454
0.904	33.281	-35551	3834.5	-0.40524	-0.63674	0.62444
0.906	33.274	-35551	3833.7	-0.40387	-0.63596	0.62435
0.908	33.272	-35550	3832.8	-0.4025	-0.63518	0.62425
0.91	33.275	-35550	3832	-0.40114	-0.6344	0.62415
0.912	33.277	-35551	3831.1	-0.40094	-0.63586	0.62464
0.914	33.275	-35556	3830.2	-0.40075	-0.63733	0.62513
0.916	33.276	-35561	3829.2	-0.40055	-0.63879	0.62562
0.918	33.283	-35557	3828.2	-0.40036	-0.64026	0.6261
0.92	33.294	-35554	3827.3	-0.40016	-0.64172	0.62659
0.922	33.302	-35549	3826.3	-0.40084	-0.64231	0.62796
0.924	33.301	-35545	3825.3	-0.40153	-0.64289	0.62932
0.926	33.293	-35545	3824.3	-0.40221	-0.64348	0.63069
0.928	33.289	-35546	3823.3	-0.40289	-0.64406	0.63206
0.93	33.293	-35548	3822.4	-0.40358	-0.64465	0.63342
0.932	33.298	-35549	3821.6	-0.40377	-0.64387	0.63225
0.934	33.295	-35551	3820.7	-0.40397	-0.64309	0.63108
0.936	33.289	-35553	3820	-0.40416	-0.64231	0.62991
0.938	33.288	-35554	3819.3	-0.40436	-0.64152	0.62874
0.94	33.296	-35554	3818.7	-0.40455	-0.64074	0.62757
0.942	33.292	-35556	3818.2	-0.40387	-0.64074	0.62737
0.944	33.287	-35557	3817.8	-0.40319	-0.64074	0.62718
0.946	33.284	-35557	3817.4	-0.4025	-0.64074	0.62698
0.948	33.278	-35556	3817.1	-0.40182	-0.64074	0.62679
0.95	33.288	-35554	3816.8	-0.40114	-0.64074	0.62659
0.952	33.293	-35552	3816.7	-0.40231	-0.64065	0.62659
0.954	33.287	-35556	3816.6	-0.40348	-0.64055	0.62659
0.956	33.285	-35559	3816.5	-0.40465	-0.64045	0.62659
0.958	33.278	-35560	3816.6	-0.40582	-0.64035	0.62659
0.96	33.276	-35561	3816.6	-0.40699	-0.64026	0.62659
0.962	33.29	-35556	3816.7	-0.40689	-0.64074	0.62767
0.964	33.304	-35551	3816.9	-0.4068	-0.64123	0.62874
0.966	33.304	-35548	3817.1	-0.4067	-0.64172	0.62981
0.968	33.299	-35546	3817.4	-0.4066	-0.64221	0.63089
0.97	33.295	-35546	3817.7	-0.4065	-0.6427	0.63196
0.972	33.288	-35547	3818.1	-0.40699	-0.6426	0.63225
0.974	33.284	-35549	3818.5	-0.40748	-0.6425	0.63255
0.976	33.283	-35552	3819	-0.40797	-0.6424	0.63284
0.978	33.284	-35550	3819.5	-0.40846	-0.64231	0.63313
0.98	33.288	-35548	3820.1	-0.40894	-0.64221	0.63342
0.982	33.289	-35546	3820.7	-0.40816	-0.64221	0.63381
0.984	33.283	-35543	3821.3	-0.40738	-0.64221	0.6342
0.986	33.282	-35547	3822	-0.4066	-0.64221	0.6346
0.988	33.28	-35550	3822.7	-0.40582	-0.64221	0.63499
0.99	33.275	-35550	3823.4	-0.40504	-0.64221	0.63538
0.992	33.274	-35551	3824.2	-0.40553	-0.64221	0.63469
0.994	33.273	-35549	3824.9	-0.40602	-0.64221	0.63401
0.996	33.275	-35548	3825.6	-0.4065	-0.64221	0.63333
0.998	33.278	-35553	3826.3	-0.40699	-0.64221	0.63264
1	33.28	-35558	3827	-0.40748	-0.64221	0.63196
1.002	33.286	-35560	3827.7	-0.40777	-0.64211	0.63196
1.004	33.289	-35562	3828.4	-0.40807	-0.64201	0.63196
1.006	33.282	-35564	3829.1	-0.40836	-0.64192	0.63196
1.008	33.277	-35566	3829.7	-0.40865	-0.64182	0.63196
1.01	33.279	-35561	3830.4	-0.40894	-0.64172	0.63196
1.012	33.287	-35556	3831	-0.40875	-0.64162	0.63167
1.014	33.29	-35556	3831.6	-0.40855	-0.64152	0.63137
1.016	33.285	-35556	3832.2	-0.40836	-0.64143	0.63108
1.018	33.276	-35556	3832.6	-0.40816	-0.64133	0.63079
1.02	33.268	-35556	3833.1	-0.40797	-0.64123	0.6305
1.022	33.263	-35558	3833.5	-0.40826	-0.64113	0.6303
1.024	33.266	-35559	3834	-0.40855	-0.64104	0.63011
1.026	33.273	-35559	3834.4	-0.40885	-0.64094	0.62991
1.028	33.275	-35559	3834.8	-0.40914	-0.64084	0.62972
1.03	33.279	-35554	3835.1	-0.40943	-0.64074	0.62952
1.032	33.282	-35549	3835.4	-0.40904	-0.64074	0.62884
1.034	33.277	-35548	3835.6	-0.40865	-0.64074	0.62815
1.036	33.276	-35547	3835.9	-0.40826	-0.64074	0.62747
1.038	33.275	-35548	3836	-0.40787	-0.64074	0.62679
1.04	33.275	-35549	3836.2	-0.40748	-0.64074	0.6261
1.042	33.279	-35551	3836.3	-0.40553	-0.64016	0.62542
1.044	33.277	-35552	3836.4	-0.40358	-0.63957	0.62474
1.046	33.273	-35549	3836.5	-0.40162	-0.63899	0.62405
1.048	33.259	-35546	3836.5	-0.39967	-0.6384	0.62337
1.05	33.253	-35546	3836.5	-0.39772	-0.63782	0.62269
1.052	33.25	-35545	3836.4	-0.39909	-0.63821	0.62396
1.054	33.253	-35545	3836.3	-0.40045	-0.6386	0.62523
1.056	33.264	-35544	3836.2	-0.40182	-0.63899	0.62649
1.058	33.266	-35543	3836.1	-0.40319	-0.63938	0.62776
1.06	33.271	-35541	3835.9	-0.40455	-0.63977	0.62903
1.062	33.283	-35539	3835.7	-0.40309	-0.64006	0.62806
1.064	33.285	-35538	3835.5	-0.40162	-0.64035	0.62708
1.066	33.283	-35536	3835.3	-0.40016	-0.64065	0.6261
1.068	33.28	-35534	3835	-0.3987	-0.64094	0.62513
1.07	33.272	-35536	3834.6	-0.39723	-0.64123	0.62415
1.072	33.264	-35538	3834.3	-0.39733	-0.6426	0.62581
1.074	33.261	-35536	3833.9	-0.39743	-0.64396	0.62747
1.076	33.257	-35533	3833.5	-0.39752	-0.64533	0.62913
1.078	33.259	-35534	3833	-0.39762	-0.6467	0.63079
1.08	33.267	-35535	3832.5	-0.39772	-0.64806	0.63245
1.082	33.27	-35534	3832	-0.39821	-0.64728	0.63284
1.084	33.269	-35533	3831.5	-0.3987	-0.6465	0.63323
1.086	33.265	-35535	3830.9	-0.39918	-0.64572	0.63362
1.088	33.26	-35538	3830.3	-0.39967	-0.64494	0.63401
1.09	33.261	-35538	3829.7	-0.40016	-0.64416	0.6344
1.092	33.261	-35539	3829	-0.40162	-0.64396	0.63411
1.094	33.259	-35539	3828.3	-0.40309	-0.64377	0.63381
1.096	33.257	-35540	3827.6	-0.40455	-0.64357	0.63352
1.098	33.254	-35538	3826.9	-0.40602	-0.64338	0.63323
1.1	33.256	-35535	3826.1	-0.40748	-0.64318	0.63294
1.102	33.262	-35531	3825.3	-0.40728	-0.64309	0.63294
1.104	33.264	-35527	3824.6	-0.40709	-0.64299	0.63294
1.106	33.269	-35526	3823.7	-0.40689	-0.64289	0.63294
1.108	33.271	-35525	3822.9	-0.4067	-0.64279	0.63294
1.11	33.269	-35530	3822.1	-0.4065	-0.6427	0.63294
1.112	33.265	-35535	3821.1	-0.40621	-0.6425	0.63284
1.114	33.256	-35532	3820.2	-0.40592	-0.64231	0.63274
1.116	33.256	-35529	3819.2	-0.40563	-0.64211	0.63264
1.118	33.268	-35533	3818.2	-0.40533	-0.64192	0.63255
1.12	33.268	-35537	3817.3	-0.40504	-0.64172	0.63245
1.122	33.264	-35537	3816.2	-0.40543	-0.64211	0.63274
1.124	33.262	-35537	3815.2	-0.40582	-0.6425	0.63303
1.126	33.257	-35536	3814.2	-0.40621	-0.64289	0.63333
1.128	33.253	-35536	3813.2	-0.4066	-0.64328	0.63362
1.13	33.257	-35536	3812.2	-0.40699	-0.64367	0.63391
1.132	33.26	-35536	3811.1	-0.40728	-0.64396	0.63333
1.134	33.263	-35533	3810	-0.40758	-0.64426	0.63274
1.136	33.263	-35530	3808.9	-0.40787	-0.64455	0.63216
1.138	33.265	-35531	3807.9	-0.40816	-0.64484	0.63157
1.14	33.262	-35532	3806.8	-0.40846	-0.64514	0.63098
1.142	33.256	-35534	3805.7	-0.40738	-0.64406	0.63147
1.144	33.253	-35537	3804.6	-0.40631	-0.64299	0.63196
1.146	33.251	-35538	3803.5	-0.40524	-0.64192	0.63245
1.148	33.253	-35539	3802.4	-0.40416	-0.64084	0.63294
1.15	33.254	-35533	3801.3	-0.40309	-0.63977	0.63342
1.152	33.255	-35527	3800.2	-0.40455	-0.64055	0.63323
1.154	33.257	-35534	3799.2	-0.40602	-0.64133	0.63303
1.156	33.261	-35541	3798.1	-0.40748	-0.64211	0.63284
1.158	33.261	-35542	3797.1	-0.40894	-0.64289	0.63264
1.16	33.255	-35543	3796	-0.41041	-0.64367	0.63245
1.162	33.251	-35537	3795	-0.40953	-0.64377	0.63235
1.164	33.253	-35532	3794	-0.40865	-0.64387	0.63225
1.166	33.253	-35535	3793.1	-0.40777	-0.64396	0.63216
1.168	33.251	-35539	3792.1	-0.40689	-0.64406	0.63206
1.17	33.254	-35541	3791.2	-0.40602	-0.64416	0.63196
1.172	33.258	-35544	3790.3	-0.40533	-0.64289	0.6304
1.174	33.253	-35543	3789.3	-0.40465	-0.64162	0.62884
1.176	33.248	-35541	3788.5	-0.40397	-0.64035	0.62728
1.178	33.254	-35541	3787.6	-0.40328	-0.63908	0.62571
1.18	33.257	-35541	3786.8	-0.4026	-0.63782	0.62415
1.182	33.257	-35544	3786	-0.4027	-0.63811	0.62415
1.184	33.258	-35547	3785.2	-0.4028	-0.6384	0.62415
1.186	33.261	-35553	3784.5	-0.40289	-0.63869	0.62415
1.188	33.255	-35560	3783.9	-0.40299	-0.63899	0.62415
1.19	33.252	-35555	3783.2	-0.40309	-0.63928	0.62415
1.192	33.255	-35550	3782.6	-0.40319	-0.63879	0.62523
1.194	33.254	-35549	3781.9	-0.40328	-0.6383	0.6263
1.196	33.252	-35548	3781.3	-0.40338	-0.63782	0.62737
1.198	33.252	-35550	3780.7	-0.40348	-0.63733	0.62845
1.2	33.252	-35551	3780.2	-0.40358	-0.63684	0.62952
1.202	33.251	-35550	3779.7	-0.40416	-0.63733	0.62962
1.204	33.253	-35549	3779.3	-0.40475	-0.63782	0.62972
1.206	33.248	-35555	3778.8	-0.40533	-0.6383	0.62981
1.208	33.251	-35562	3778.4	-0.40592	-0.63879	0.62991
1.21	33.261	-35556	3778.1	-0.4065	-0.63928	0.63001
1.212	33.265	-35550	3777.7	-0.40572	-0.63948	0.6302
1.214	33.265	-35555	3777.3	-0.40494	-0.63967	0.6304
1.216	33.265	-35560	3777	-0.40416	-0.63987	0.63059
1.218	33.259	-35563	3776.7	-0.40338	-0.64006	0.63079
1.22	33.255	-35567	3776.4	-0.4026	-0.64026	0.63098
1.222	33.256	-35565	3776.1	-0.40289	-0.64026	0.63147
1.224	33.256	-35563	3775.9	-0.40319	-0.64026	0.63196
1.226	33.255	-35563	3775.6	-0.40348	-0.64026	0.63245
1.228	33.255	-35563	3775.5	-0.40377	-0.64026	0.63294
1.23	33.256	-35567	3775.3	-0.40406	-0.64026	0.63342
1.232	33.257	-35571	3775	-0.40455	-0.64084	0.63333
1.234	33.262	-35574	3774.8	-0.40504	-0.64143	0.63323
1.236	33.264	-35578	3774.7	-0.40553	-0.64201	0.63313
1.238	33.265	-35577	3774.6	-0.40602	-0.6426	0.63303
1.24	33.26	-35577	3774.5	-0.4065	-0.64318	0.63294
1.242	33.251	-35571	3774.3	-0.40631	-0.6425	0.63235
1.244	33.243	-35565	3774.2	-0.40611	-0.64182	0.63176
1.246	33.241	-35578	3774	-0.40592	-0.64113	0.63118
1.248	33.244	-35590	3773.9	-0.40572	-0.64045	0.63059
1.25	33.248	-35587	3773.8	-0.40553	-0.63977	0.63001
1.252	33.251	-35585	3773.7	-0.40426	-0.64045	0.63079
1.254	33.253	-35585	3773.6	-0.40299	-0.64113	0.63157
1.256	33.252	-35586	3773.5	-0.40172	-0.64182	0.63235
1.258	33.25	-35590	3773.4	-0.40045	-0.6425	0.63313
1.26	33.249	-35594	3773.3	-0.39918	-0.64318	0.63391
1.262	33.249	-35597	3773.3	-0.40133	-0.64328	0.63342
1.264	33.253	-35600	3773.2	-0.40348	-0.64338	0.63294
1.266	33.257	-35594	3773.2	-0.40563	-0.64348	0.63245
1.268	33.252	-35588	3773.1	-0.40777	-0.64357	0.63196
1.27	33.245	-35597	3773	-0.40992	-0.64367	0.63147
1.272	33.249	-35606	3773	-0.40933	-0.64328	0.63069
1.274	33.255	-35603	3772.9	-0.40875	-0.64289	0.62991
1.276	33.256	-35601	3772.9	-0.40816	-0.6425	0.62913
1.278	33.26	-35607	3772.8	-0.40758	-0.64211	0.62835
1.28	33.262	-35612	3772.8	-0.40699	-0.64172	0.62757
1.282	33.255	-35608	3772.8	-0.40699	-0.64201	0.62874
1.284	33.251	-35603	3772.7	-0.40699	-0.64231	0.62991
1.286	33.256	-35603	3772.7	-0.40699	-0.6426	0.63108
1.288	33.257	-35603	3772.6	-0.40699	-0.64289	0.63225
1.29	33.257	-35607	3772.6	-0.40699	-0.64318	0.63342
1.292	33.253	-35611	3772.6	-0.40787	-0.64309	0.63284
1.294	33.257	-35612	3772.5	-0.40875	-0.64299	0.63225
1.296	33.26	-35613	3772.5	-0.40963	-0.64289	0.63167
1.298	33.264	-35613	3772.4	-0.41051	-0.64279	0.63108
1.3	33.264	-35614	3772.4	-0.41138	-0.6427	0.6305
1.302	33.261	-35616	3772.3	-0.4107	-0.64309	0.63098
1.304	33.261	-35619	3772.2	-0.41002	-0.64348	0.63147
1.306	33.261	-35620	3772.2	-0.40933	-0.64387	0.63196
1.308	33.256	-35621	3772.1	-0.40865	-0.64426	0.63245
1.31	33.254	-35621	3772.1	-0.40797	-0.64465	0.63294
1.312	33.26	-35622	3772	-0.40758	-0.64387	0.63294
1.314	33.263	-35624	3771.9	-0.40719	-0.64309	0.63294
1.316	33.262	-35627	3771.8	-0.4068	-0.64231	0.63294
1.318	33.266	-35628	3771.7	-0.40641	-0.64152	0.63294
1.32	33.271	-35629	3771.6	-0.40602	-0.64074	0.63294
1.322	33.275	-35624	3771.5	-0.4066	-0.64084	0.63255
1.324	33.284	-35620	3771.3	-0.40719	-0.64094	0.63216
1.326	33.294	-35627	3771.2	-0.40777	-0.64104	0.63176
1.328	33.291	-35635	3771.1	-0.40836	-0.64113	0.63137
1.33	33.286	-35636	3771	-0.40894	-0.64123	0.63098
1.332	33.292	-35638	3770.8	-0.40904	-0.64143	0.63118
1.334	33.299	-35635	3770.6	-0.40914	-0.64162	0.63137
1.336	33.303	-35632	3770.4	-0.40924	-0.64182	0.63157
1.338	33.307	-35641	3770.2	-0.40933	-0.64201	0.63176
1.34	33.308	-35650	3770.1	-0.40943	-0.64221	0.63196
1.342	33.305	-35640	3769.8	-0.40953	-0.64328	0.63176
1.344	33.307	-35629	3769.6	-0.40963	-0.64436	0.63157
1.346	33.317	-35641	3769.4	-0.40972	-0.64543	0.63137
1.348	33.325	-35654	3769.2	-0.40982	-0.6465	0.63118
1.35	33.326	-35649	3768.9	-0.40992	-0.64758	0.63098
1.352	33.331	-35645	3768.7	-0.40992	-0.64621	0.6305
1.354	33.331	-35650	3768.5	-0.40992	-0.64484	0.63001
1.356	33.328	-35656	3768.3	-0.40992	-0.64348	0.62952
1.358	33.334	-35654	3768	-0.40992	-0.64211	0.62903
1.36	33.348	-35653	3767.7	-0.40992	-0.64074	0.62854
1.362	33.354	-35653	3767.5	-0.40924	-0.64113	0.62962
1.364	33.35	-35653	3767.2	-0.40855	-0.64152	0.63069
1.366	33.34	-35655	3766.9	-0.40787	-0.64192	0.63176
1.368	33.328	-35657	3766.6	-0.40719	-0.64231	0.63284
1.37	33.324	-35660	3766.2	-0.4065	-0.6427	0.63391
1.372	33.321	-35663	3765.9	-0.40611	-0.64211	0.63323
1.374	33.32	-35659	3765.6	-0.40572	-0.64152	0.63255
1.376	33.322	-35656	3765.2	-0.40533	-0.64094	0.63186
1.378	33.324	-35661	3764.8	-0.40494	-0.64035	0.63118
1.38	33.326	-35665	3764.4	-0.40455	-0.63977	0.6305
1.382	33.331	-35665	3764	-0.40465	-0.63987	0.63001
1.384	33.332	-35666	3763.7	-0.40475	-0.63996	0.62952
1.386	33.335	-35671	3763.3	-0.40484	-0.64006	0.62903
1.388	33.329	-35676	3762.9	-0.40494	-0.64016	0.62854
1.39	33.311	-35673	3762.6	-0.40504	-0.64026	0.62806
1.392	33.298	-35671	3762.1	-0.40514	-0.64084	0.62903
1.394	33.286	-35671	3761.7	-0.40524	-0.64143	0.63001
1.396	33.274	-35671	3761.2	-0.40533	-0.64201	0.63098
1.398	33.274	-35674	3760.7	-0.40543	-0.6426	0.63196
1.4	33.279	-35678	3760.3	-0.40553	-0.64318	0.63294
1.402	33.283	-35683	3759.8	-0.40582	-0.64328	0.63264
1.404	33.283	-35689	3759.3	-0.40611	-0.64338	0.63235
1.406	33.28	-35686	3758.8	-0.40641	-0.64348	0.63206
1.408	33.282	-35683	3758.3	-0.4067	-0.64357	0.63176
1.41	33.285	-35679	3757.7	-0.40699	-0.64367	0.63147
1.412	33.284	-35674	3757.2	-0.40709	-0.64299	0.63069
1.414	33.282	-35677	3756.6	-0.40719	-0.64231	0.62991
1.416	33.279	-35679	3756	-0.40728	-0.64162	0.62913
1.418	33.277	-35686	3755.4	-0.40738	-0.64094	0.62835
1.42	33.274	-35692	3754.8	-0.40748	-0.64026	0.62757
1.422	33.272	-35692	3754.2	-0.40777	-0.64065	0.62845
1.424	33.269	-35693	3753.6	-0.40807	-0.64104	0.62932
1.426	33.267	-35695	3753	-0.40836	-0.64143	0.6302
1.428	33.266	-35696	3752.4	-0.40865	-0.64182	0.63108
1.43	33.271	-35698	3751.8	-0.40894	-0.64221	0.63196
1.432	33.28	-35699	3751.2	-0.40875	-0.6425	0.63176
1.434	33.289	-35701	3750.7	-0.40855	-0.64279	0.63157
1.436	33.288	-35702	3750.1	-0.40836	-0.64309	0.63137
1.438	33.287	-35701	3749.4	-0.40816	-0.64338	0.63118
1.44	33.286	-35700	3748.8	-0.40797	-0.64367	0.63098
1.442	33.284	-35703	3748.2	-0.40768	-0.64367	0.63137
1.444	33.285	-35706	3747.7	-0.40738	-0.64367	0.63176
1.446	33.289	-35704	3747.1	-0.40709	-0.64367	0.63216
1.448	33.291	-35703	3746.5	-0.4068	-0.64367	0.63255
1.45	33.293	-35703	3745.9	-0.4065	-0.64367	0.63294
1.452	33.297	-35704	3745.4	-0.40631	-0.64318	0.63274
1.454	33.302	-35706	3744.8	-0.40611	-0.6427	0.63255
1.456	33.298	-35708	3744.3	-0.40592	-0.64221	0.63235
1.458	33.293	-35717	3743.7	-0.40572	-0.64172	0.63216
1.46	33.285	-35726	3743.2	-0.40553	-0.64123	0.63196
1.462	33.282	-35723	3742.7	-0.40582	-0.64133	0.63196
1.464	33.29	-35719	3742.2	-0.40611	-0.64143	0.63196
1.466	33.294	-35722	3741.7	-0.40641	-0.64152	0.63196
1.468	33.296	-35725	3741.2	-0.4067	-0.64162	0.63196
1.47	33.306	-35729	3740.7	-0.40699	-0.64172	0.63196
1.472	33.328	-35733	3740.2	-0.4068	-0.6425	0.63245
1.474	33.353	-35730	3739.7	-0.4066	-0.64328	0.63294
1.476	33.369	-35728	3739.3	-0.40641	-0.64406	0.63342
1.478	33.36	-35734	3738.8	-0.40621	-0.64484	0.63391
1.48	33.34	-35739	3738.4	-0.40602	-0.64562	0.6344
1.482	33.317	-35737	3738	-0.40631	-0.64455	0.63333
1.484	33.287	-35735	3737.5	-0.4066	-0.64348	0.63225
1.486	33.234	-35737	3737.1	-0.40689	-0.6424	0.63118
1.488	33.182	-35739	3736.7	-0.40719	-0.64133	0.63011
1.49	33.14	-35743	3736.4	-0.40748	-0.64026	0.62903
1.492	33.11	-35746	3735.9	-0.40728	-0.64045	0.62932
1.494	33.092	-35749	3735.5	-0.40709	-0.64065	0.62962
1.496	33.089	-35751	3735.2	-0.40689	-0.64084	0.62991
1.498	33.095	-35747	3734.8	-0.4067	-0.64104	0.6302
1.5	33.108	-35744	3734.4	-0.4065	-0.64123	0.6305
1.502	33.136	-35750	3734	-0.40728	-0.64192	0.63069
1.504	33.172	-35756	3733.6	-0.40807	-0.6426	0.63089
1.506	33.202	-35760	3733.3	-0.40885	-0.64328	0.63108
1.508	33.221	-35764	3732.9	-0.40963	-0.64396	0.63128
1.51	33.238	-35764	3732.6	-0.41041	-0.64465	0.63147
1.512	33.255	-35764	3732.2	-0.41012	-0.64416	0.63137
1.514	33.272	-35762	3731.9	-0.40982	-0.64367	0.63128
1.516	33.287	-35761	3731.6	-0.40953	-0.64318	0.63118
1.518	33.3	-35763	3731.2	-0.40924	-0.6427	0.63108
1.52	33.303	-35764	3730.9	-0.40894	-0.64221	0.63098
1.522	33.295	-35768	3730.6	-0.40826	-0.6425	0.63128
1.524	33.29	-35772	3730.2	-0.40758	-0.64279	0.63157
1.526	33.29	-35773	3729.9	-0.40689	-0.64309	0.63186
1.528	33.295	-35773	3729.6	-0.40621	-0.64338	0.63216
1.53	33.307	-35778	3729.3	-0.40553	-0.64367	0.63245
1.532	33.318	-35783	3729	-0.40621	-0.64406	0.63245
1.534	33.318	-35785	3728.7	-0.40689	-0.64445	0.63245
1.536	33.313	-35786	3728.4	-0.40758	-0.64484	0.63245
1.538	33.31	-35786	3728.1	-0.40826	-0.64523	0.63245
1.54	33.308	-35786	3727.8	-0.40894	-0.64562	0.63245
1.542	33.303	-35787	3727.5	-0.40836	-0.64504	0.63235
1.544	33.297	-35787	3727.2	-0.40777	-0.64445	0.63225
1.546	33.295	-35791	3726.9	-0.40719	-0.64387	0.63216
1.548	33.297	-35795	3726.7	-0.4066	-0.64328	0.63206
1.55	33.299	-35795	3726.4	-0.40602	-0.6427	0.63196
1.552	33.294	-35795	3726.1	-0.4065	-0.6427	0.63206
1.554	33.293	-35792	3725.8	-0.40699	-0.6427	0.63216
1.556	33.29	-35789	3725.6	-0.40748	-0.6427	0.63225
1.558	33.288	-35790	3725.3	-0.40797	-0.6427	0.63235
1.56	33.291	-35791	3725	-0.40846	-0.6427	0.63245
1.562	33.292	-35802	3724.7	-0.40699	-0.64318	0.63284
1.564	33.293	-35813	3724.4	-0.40553	-0.64367	0.63323
1.566	33.294	-35814	3724	-0.40406	-0.64416	0.63362
1.568	33.292	-35816	3723.7	-0.4026	-0.64465	0.63401
1.57	33.287	-35816	3723.4	-0.40114	-0.64514	0.6344
1.572	33.286	-35817	3723	-0.4028	-0.64504	0.63401
1.574	33.284	-35818	3722.7	-0.40445	-0.64494	0.63362
1.576	33.281	-35818	3722.3	-0.40611	-0.64484	0.63323
1.578	33.288	-35821	3721.9	-0.40777	-0.64475	0.63284
1.58	33.295	-35823	3721.4	-0.40943	-0.64465	0.63245
1.582	33.301	-35824	3721	-0.40894	-0.64406	0.63274
1.584	33.3	-35825	3720.5	-0.40846	-0.64348	0.63303
1.586	33.295	-35827	3720.1	-0.40797	-0.64289	0.63333
1.588	33.29	-35828	3719.6	-0.40748	-0.64231	0.63362
1.59	33.291	-35833	3719.1	-0.40699	-0.64172	0.63391
1.592	33.295	-35838	3718.6	-0.40758	-0.64231	0.6342
1.594	33.294	-35836	3718	-0.40816	-0.64289	0.6345
1.596	33.29	-35835	3717.5	-0.40875	-0.64348	0.63479
1.598	33.286	-35836	3716.9	-0.40933	-0.64406	0.63508
1.6	33.281	-35837	3716.2	-0.40992	-0.64465	0.63538
1.602	33.281	-35839	3715.7	-0.40972	-0.64436	0.6345
1.604	33.287	-35840	3715.1	-0.40953	-0.64406	0.63362
1.606	33.296	-35841	3714.5	-0.40933	-0.64377	0.63274
1.608	33.299	-35842	3713.8	-0.40914	-0.64348	0.63186
1.61	33.298	-35848	3713.2	-0.40894	-0.64318	0.63098
1.612	33.297	-35855	3712.5	-0.40797	-0.64221	0.62991
1.614	33.287	-35856	3711.8	-0.40699	-0.64123	0.62884
1.616	33.278	-35857	3711.1	-0.40602	-0.64026	0.62776
1.618	33.279	-35860	3710.4	-0.40504	-0.63928	0.62669
1.62	33.282	-35863	3709.7	-0.40406	-0.6383	0.62562
1.622	33.285	-35864	3709	-0.40289	-0.6384	0.62532
1.624	33.286	-35866	3708.3	-0.40172	-0.6385	0.62503
1.626	33.283	-35865	3707.6	-0.40055	-0.6386	0.62474
1.628	33.283	-35864	3706.9	-0.39938	-0.63869	0.62444
1.63	33.281	-35867	3706.2	-0.39821	-0.63879	0.62415
1.632	33.283	-35870	3705.5	-0.39821	-0.63967	0.62454
1.634	33.291	-35870	3704.9	-0.39821	-0.64055	0.62493
1.636	33.293	-35869	3704.3	-0.39821	-0.64143	0.62532
1.638	33.297	-35874	3703.7	-0.39821	-0.64231	0.62571
1.64	33.299	-35878	3703.2	-0.39821	-0.64318	0.6261
1.642	33.295	-35883	3702.8	-0.39928	-0.6425	0.6261
1.644	33.295	-35887	3702.4	-0.40036	-0.64182	0.6261
1.646	33.294	-35884	3702.1	-0.40143	-0.64113	0.6261
1.648	33.293	-35880	3701.9	-0.4025	-0.64045	0.6261
1.65	33.293	-35884	3701.7	-0.40358	-0.63977	0.6261
1.652	33.294	-35888	3701.7	-0.40475	-0.64152	0.62698
1.654	33.298	-35891	3701.6	-0.40592	-0.64328	0.62786
1.656	33.292	-35894	3701.7	-0.40709	-0.64504	0.62874
1.658	33.286	-35898	3701.9	-0.40826	-0.6468	0.62962
1.66	33.288	-35902	3702.1	-0.40943	-0.64855	0.6305
1.662	33.3	-35902	3702.6	-0.41031	-0.64826	0.6302
1.664	33.308	-35902	3703.1	-0.41119	-0.64797	0.62991
1.666	33.312	-35903	3703.8	-0.41207	-0.64767	0.62962
1.668	33.315	-35905	3704.7	-0.41295	-0.64738	0.62932
1.67	33.314	-35909	3705.6	-0.41382	-0.64709	0.62903
1.672	33.318	-35914	3707.2	-0.41295	-0.64689	0.63089
1.674	33.326	-35911	3708.8	-0.41207	-0.6467	0.63274
1.676	33.323	-35909	3710.7	-0.41119	-0.6465	0.6346
1.678	33.318	-35910	3712.9	-0.41031	-0.64631	0.63645
1.68	33.32	-35911	3715.1	-0.40943	-0.64611	0.6383
1.682	33.321	-35916	3718.2	-0.40914	-0.64601	0.6386
1.684	33.317	-35922	3721.2	-0.40885	-0.64592	0.63889
1.686	33.314	-35923	3724.7	-0.40855	-0.64582	0.63918
1.688	33.317	-35924	3728.4	-0.40826	-0.64572	0.63948
1.69	33.325	-35926	3732.2	-0.40797	-0.64562	0.63977
1.692	33.328	-35927	3736.6	-0.40816	-0.64484	0.63918
1.694	33.326	-35928	3741.1	-0.40836	-0.64406	0.6386
1.696	33.325	-35929	3745.7	-0.40855	-0.64328	0.63801
1.698	33.33	-35929	3750.5	-0.40875	-0.6425	0.63743
1.7	33.335	-35930	3755.4	-0.40894	-0.64172	0.63684
1.702	33.337	-35932	3760.5	-0.41002	-0.64084	0.63557
1.704	33.339	-35935	3765.6	-0.41109	-0.63996	0.6343
1.706	33.338	-35926	3770.9	-0.41216	-0.63908	0.63303
1.708	33.338	-35918	3776.2	-0.41324	-0.63821	0.63176
1.71	33.341	-35920	3781.5	-0.41431	-0.63733	0.6305
1.712	33.344	-35923	3787	-0.41256	-0.63733	0.62952
1.714	33.342	-35929	3792.5	-0.4108	-0.63733	0.62854
1.716	33.339	-35934	3798	-0.40904	-0.63733	0.62757
1.718	33.348	-35934	3803.6	-0.40728	-0.63733	0.62659
1.72	33.354	-35934	3809.1	-0.40553	-0.63733	0.62562
1.722	33.352	-35933	3814.5	-0.40592	-0.63674	0.6261
1.724	33.356	-35932	3820	-0.40631	-0.63616	0.62659
1.726	33.361	-35925	3825.2	-0.4067	-0.63557	0.62708
1.728	33.363	-35918	3830.2	-0.40709	-0.63499	0.62757
1.73	33.362	-35919	3835.3	-0.40748	-0.6344	0.62806
1.732	33.367	-35920	3839.4	-0.4068	-0.6346	0.62747
1.734	33.373	-35916	3843.5	-0.40611	-0.63479	0.62688
1.736	33.378	-35913	3847.2	-0.40543	-0.63499	0.6263
1.738	33.378	-35911	3850.2	-0.40475	-0.63518	0.62571
1.74	33.378	-35909	3853.3	-0.40406	-0.63538	0.62513
1.742	33.371	-35909	3855.6	-0.40377	-0.63635	0.62542
1.744	33.371	-35909	3857.9	-0.40348	-0.63733	0.62571
1.746	33.375	-35908	3860	-0.40319	-0.6383	0.62601
1.748	33.375	-35907	3861.8	-0.40289	-0.63928	0.6263
1.75	33.382	-35897	3863.6	-0.4026	-0.64026	0.62659
1.752	33.389	-35887	3865.1	-0.40182	-0.64104	0.62698
1.754	33.395	-35886	3866.6	-0.40104	-0.64182	0.62737
1.756	33.396	-35885	3868	-0.40026	-0.6426	0.62776
1.758	33.391	-35884	3869.2	-0.39948	-0.64338	0.62815
1.76	33.39	-35884	3870.4	-0.3987	-0.64416	0.62854
1.762	33.392	-35875	3871.3	-0.40006	-0.64377	0.62913
1.764	33.391	-35867	3872.2	-0.40143	-0.64338	0.62972
1.766	33.39	-35865	3872.9	-0.4028	-0.64299	0.6303
1.768	33.391	-35864	3873.4	-0.40416	-0.6426	0.63089
1.77	33.389	-35865	3874	-0.40553	-0.64221	0.63147
1.772	33.387	-35865	3874.2	-0.40563	-0.64211	0.63137
1.774	33.387	-35854	3874.4	-0.40572	-0.64201	0.63128
1.776	33.384	-35843	3874.5	-0.40582	-0.64192	0.63118
1.778	33.379	-35841	3874.4	-0.40592	-0.64182	0.63108
1.78	33.383	-35838	3874.3	-0.40602	-0.64172	0.63098
1.782	33.387	-35834	3874	-0.40582	-0.64192	0.63157
1.784	33.383	-35831	3873.6	-0.40563	-0.64211	0.63216
1.786	33.372	-35827	3873.1	-0.40543	-0.64231	0.63274
1.788	33.368	-35823	3872.5	-0.40524	-0.6425	0.63333
1.79	33.367	-35819	3871.9	-0.40504	-0.6427	0.63391
1.792	33.359	-35816	3871.1	-0.40387	-0.64357	0.63411
1.794	33.356	-35812	3870.2	-0.4027	-0.64445	0.6343
1.796	33.356	-35809	3869.3	-0.40153	-0.64533	0.6345
1.798	33.35	-35805	3868.2	-0.40036	-0.64621	0.63469
1.8	33.345	-35800	3867.2	-0.39918	-0.64709	0.63489
1.802	33.337	-35797	3866	-0.40094	-0.64621	0.63489
1.804	33.342	-35794	3864.8	-0.4027	-0.64533	0.63489
1.806	33.344	-35788	3863.5	-0.40445	-0.64445	0.63489
1.808	33.339	-35783	3862.2	-0.40621	-0.64357	0.63489
1.81	33.335	-35785	3860.8	-0.40797	-0.6427	0.63489
1.812	33.332	-35787	3859.4	-0.40807	-0.64328	0.6342
1.814	33.325	-35782	3857.9	-0.40816	-0.64387	0.63352
1.816	33.314	-35778	3856.4	-0.40826	-0.64445	0.63284
1.818	33.306	-35774	3854.9	-0.40836	-0.64504	0.63216
1.82	33.305	-35771	3853.4	-0.40846	-0.64562	0.63147
1.822	33.304	-35769	3851.7	-0.40933	-0.64455	0.63098
1.824	33.296	-35766	3850.1	-0.41021	-0.64348	0.6305
1.826	33.293	-35768	3848.5	-0.41109	-0.6424	0.63001
1.828	33.29	-35770	3846.9	-0.41197	-0.64133	0.62952
1.83	33.286	-35766	3845.3	-0.41285	-0.64026	0.62903
1.832	33.286	-35762	3843.7	-0.41226	-0.64026	0.62835
1.834	33.285	-35761	3842.2	-0.41168	-0.64026	0.62767
1.836	33.281	-35759	3840.6	-0.41109	-0.64026	0.62698
1.838	33.276	-35754	3839	-0.41051	-0.64026	0.6263
1.84	33.277	-35748	3837.5	-0.40992	-0.64026	0.62562
1.842	33.287	-35744	3835.9	-0.41031	-0.64035	0.62649
1.844	33.297	-35741	3834.4	-0.4107	-0.64045	0.62737
1.846	33.294	-35746	3832.9	-0.41109	-0.64055	0.62825
1.848	33.291	-35750	3831.5	-0.41148	-0.64065	0.62913
1.85	33.288	-35747	3830.1	-0.41187	-0.64074	0.63001
1.852	33.284	-35744	3828.8	-0.41236	-0.64055	0.62942
1.854	33.284	-35747	3827.5	-0.41285	-0.64035	0.62884
1.856	33.286	-35750	3826.2	-0.41334	-0.64016	0.62825
1.858	33.282	-35742	3825	-0.41382	-0.63996	0.62767
1.86	33.278	-35734	3823.7	-0.41431	-0.63977	0.62708
1.862	33.277	-35735	3822.6	-0.41216	-0.64016	0.62854
1.864	33.273	-35736	3821.5	-0.41002	-0.64055	0.63001
1.866	33.272	-35735	3820.4	-0.40787	-0.64094	0.63147
1.868	33.276	-35735	3819.4	-0.40572	-0.64133	0.63294
1.87	33.279	-35736	3818.4	-0.40358	-0.64172	0.6344
1.872	33.278	-35737	3817.4	-0.40465	-0.64201	0.6344
1.874	33.277	-35732	3816.5	-0.40572	-0.64231	0.6344
1.876	33.271	-35728	3815.6	-0.4068	-0.6426	0.6344
1.878	33.263	-35728	3814.7	-0.40787	-0.64289	0.6344
1.88	33.261	-35728	3813.8	-0.40894	-0.64318	0.6344
1.882	33.261	-35726	3813	-0.40904	-0.6426	0.63342
1.884	33.26	-35723	3812.1	-0.40914	-0.64201	0.63245
1.886	33.257	-35724	3811.2	-0.40924	-0.64143	0.63147
1.888	33.261	-35725	3810.3	-0.40933	-0.64084	0.6305
1.89	33.272	-35723	3809.5	-0.40943	-0.64026	0.62952
1.892	33.278	-35722	3808.5	-0.40924	-0.64035	0.62952
1.894	33.276	-35725	3807.6	-0.40904	-0.64045	0.62952
1.896	33.271	-35728	3806.6	-0.40885	-0.64055	0.62952
1.898	33.269	-35727	3805.7	-0.40865	-0.64065	0.62952
1.9	33.274	-35726	3804.7	-0.40846	-0.64074	0.62952
1.902	33.278	-35728	3803.7	-0.40719	-0.63948	0.62893
1.904	33.276	-35730	3802.6	-0.40592	-0.63821	0.62835
1.906	33.275	-35727	3801.6	-0.40465	-0.63694	0.62776
1.908	33.274	-35725	3800.6	-0.40338	-0.63567	0.62718
1.91	33.271	-35724	3799.6	-0.40211	-0.6344	0.62659
1.912	33.272	-35723	3798.6	-0.40123	-0.63547	0.6261
1.914	33.275	-35721	3797.6	-0.40036	-0.63655	0.62562
1.916	33.276	-35719	3796.6	-0.39948	-0.63762	0.62513
1.918	33.276	-35725	3795.7	-0.3986	-0.63869	0.62464
1.92	33.27	-35731	3794.8	-0.39772	-0.63977	0.62415
1.922	33.264	-35729	3794.1	-0.39948	-0.64094	0.62542
1.924	33.267	-35728	3793.3	-0.40123	-0.64211	0.62669
1.926	33.274	-35726	3792.7	-0.40299	-0.64328	0.62796
1.928	33.276	-35725	3792.2	-0.40475	-0.64445	0.62923
1.93	33.275	-35724	3791.7	-0.4065	-0.64562	0.6305
1.932	33.274	-35723	3791.4	-0.40524	-0.64436	0.63089
1.934	33.272	-35727	3791	-0.40397	-0.64309	0.63128
1.936	33.269	-35731	3790.8	-0.4027	-0.64182	0.63167
1.938	33.267	-35734	3790.6	-0.40143	-0.64055	0.63206
1.94	33.267	-35738	3790.4	-0.40016	-0.63928	0.63245
1.942	33.268	-35736	3790.4	-0.40153	-0.63948	0.63255
1.944	33.27	-35735	3790.4	-0.40289	-0.63967	0.63264
1.946	33.271	-35731	3790.5	-0.40426	-0.63987	0.63274
1.948	33.27	-35727	3790.6	-0.40563	-0.64006	0.63284
1.95	33.265	-35732	3790.7	-0.40699	-0.64026	0.63294
1.952	33.267	-35737	3791	-0.40709	-0.64074	0.63313
1.954	33.272	-35731	3791.3	-0.40719	-0.64123	0.63333
1.956	33.276	-35724	3791.6	-0.40728	-0.64172	0.63352
1.958	33.276	-35726	3792	-0.40738	-0.64221	0.63372
1.96	33.275	-35728	3792.4	-0.40748	-0.6427	0.63391
1.962	33.273	-35724	3792.9	-0.40807	-0.64279	0.63333
1.964	33.275	-35721	3793.5	-0.40865	-0.64289	0.63274
1.966	33.271	-35723	3794	-0.40924	-0.64299	0.63216
1.968	33.269	-35724	3794.7	-0.40982	-0.64309	0.63157
1.97	33.274	-35724	3795.3	-0.41041	-0.64318	0.63098
1.972	33.272	-35724	3795.9	-0.41012	-0.64309	0.63167
1.974	33.262	-35727	3796.5	-0.40982	-0.64299	0.63235
1.976	33.256	-35730	3797.2	-0.40953	-0.64289	0.63303
1.978	33.256	-35729	3797.9	-0.40924	-0.64279	0.63372
1.98	33.254	-35728	3798.7	-0.40894	-0.6427	0.6344
1.982	33.26	-35730	3799.5	-0.41041	-0.64152	0.63333
1.984	33.265	-35733	3800.3	-0.41187	-0.64035	0.63225
1.986	33.268	-35731	3801.1	-0.41334	-0.63918	0.63118
1.988	33.275	-35730	3801.8	-0.4148	-0.63801	0.63011
1.99	33.274	-35727	3802.5	-0.41626	-0.63684	0.62903
1.992	33.268	-35723	3803.3	-0.41607	-0.63616	0.62972
1.994	33.26	-35724	3804	-0.41587	-0.63547	0.6304
1.996	33.259	-35725	3804.7	-0.41568	-0.63479	0.63108
1.998	33.256	-35726	3805.3	-0.41548	-0.63411	0.63176
2	33.258	-35727	3805.9	-0.41529	-0.63342	0.63245
2.002	33.258	-35728	3806.5	-0.41441	-0.6345	0.63128
2.004	33.258	-35729	3807.1	-0.41353	-0.63557	0.63011
2.006	33.261	-35734	3807.6	-0.41265	-0.63664	0.62893
2.008	33.264	-35739	3808.1	-0.41177	-0.63772	0.62776
2.01	33.27	-35736	3808.5	-0.4109	-0.63879	0.62659
2.012	33.277	-35732	3809	-0.41129	-0.63879	0.6264
2.014	33.278	-35729	3809.4	-0.41168	-0.63879	0.6262
2.016	33.274	-35725	3809.8	-0.41207	-0.63879	0.62601
2.018	33.267	-35726	3810.1	-0.41246	-0.63879	0.62581
2.02	33.261	-35726	3810.4	-0.41285	-0.63879	0.62562
2.022	33.258	-35724	3810.6	-0.41207	-0.63957	0.6264
2.024	33.258	-35722	3810.9	-0.41129	-0.64035	0.62718
2.026	33.259	-35721	3811.1	-0.41051	-0.64113	0.62796
2.028	33.258	-35719	3811.3	-0.40972	-0.64192	0.62874
2.03	33.254	-35721	3811.5	-0.40894	-0.6427	0.62952
2.032	33.249	-35722	3811.5	-0.40933	-0.6424	0.62913
2.034	33.25	-35724	3811.5	-0.40972	-0.64211	0.62874
2.036	33.256	-35725	3811.5	-0.41012	-0.64182	0.62835
2.038	33.256	-35720	3811.5	-0.41051	-0.64152	0.62796
2.04	33.254	-35715	3811.5	-0.4109	-0.64123	0.62757
2.042	33.252	-35714	3811.3	-0.41012	-0.64172	0.62864
2.044	33.251	-35714	3811.2	-0.40933	-0.64221	0.62972
2.046	33.255	-35713	3811	-0.40855	-0.6427	0.63079
2.048	33.259	-35712	3810.8	-0.40777	-0.64318	0.63186
2.05	33.254	-35712	3810.6	-0.40699	-0.64367	0.63294
2.052	33.251	-35713	3810.3	-0.40709	-0.64289	0.63176
2.054	33.255	-35713	3810	-0.40719	-0.64211	0.63059
2.056	33.255	-35713	3809.7	-0.40728	-0.64133	0.62942
2.058	33.26	-35713	3809.3	-0.40738	-0.64055	0.62825
2.06	33.253	-35712	3809	-0.40748	-0.63977	0.62708
2.062	33.258	-35710	3808.5	-0.40709	-0.64045	0.62825
2.064	33.263	-35709	3808.1	-0.4067	-0.64113	0.62942
2.066	33.257	-35709	3807.6	-0.40631	-0.64182	0.63059
2.068	33.243	-35710	3807	-0.40592	-0.6425	0.63176
2.07	33.244	-35713	3806.4	-0.40553	-0.64318	0.63294
2.072	33.25	-35717	3805.8	-0.40582	-0.6425	0.63216
2.074	33.253	-35716	3805.2	-0.40611	-0.64182	0.63137
2.076	33.251	-35714	3804.6	-0.40641	-0.64113	0.63059
2.078	33.253	-35714	3803.8	-0.4067	-0.64045	0.62981
2.08	33.255	-35714	3803.1	-0.40699	-0.63977	0.62903
2.082	33.257	-35708	3802.4	-0.4067	-0.63967	0.63001
2.084	33.258	-35703	3801.7	-0.40641	-0.63957	0.63098
2.086	33.256	-35706	3800.9	-0.40611	-0.63948	0.63196
2.088	33.248	-35710	3800	-0.40582	-0.63938	0.63294
2.09	33.238	-35710	3799.2	-0.40553	-0.63928	0.63391
2.092	33.238	-35710	3798.3	-0.40631	-0.63918	0.63323
2.094	33.24	-35713	3797.4	-0.40709	-0.63908	0.63255
2.096	33.239	-35717	3796.4	-0.40787	-0.63899	0.63186
2.098	33.239	-35716	3795.5	-0.40865	-0.63889	0.63118
2.1	33.241	-35714	3794.5	-0.40943	-0.63879	0.6305
2.102	33.245	-35714	3793.5	-0.40875	-0.63928	0.63089
2.104	33.248	-35714	3792.5	-0.40807	-0.63977	0.63128
2.106	33.247	-35717	3791.5	-0.40738	-0.64026	0.63167
2.108	33.245	-35719	3790.4	-0.4067	-0.64074	0.63206
2.11	33.246	-35718	3789.3	-0.40602	-0.64123	0.63245
2.112	33.247	-35718	3788.2	-0.40602	-0.64104	0.63264
2.114	33.253	-35717	3787.1	-0.40602	-0.64084	0.63284
2.116	33.256	-35717	3786	-0.40602	-0.64065	0.63303
2.118	33.25	-35711	3784.8	-0.40602	-0.64045	0.63323
2.12	33.247	-35706	3783.7	-0.40602	-0.64026	0.63342
2.122	33.242	-35713	3782.6	-0.40631	-0.64055	0.63362
2.124	33.239	-35720	3781.4	-0.4066	-0.64084	0.63381
2.126	33.239	-35720	3780.3	-0.40689	-0.64113	0.63401
2.128	33.237	-35720	3779.1	-0.40719	-0.64143	0.6342
2.13	33.236	-35714	3778	-0.40748	-0.64172	0.6344
2.132	33.243	-35709	3776.8	-0.40768	-0.64231	0.6342
2.134	33.246	-35709	3775.6	-0.40787	-0.64289	0.63401
2.136	33.236	-35709	3774.5	-0.40807	-0.64348	0.63381
2.138	33.229	-35715	3773.4	-0.40826	-0.64406	0.63362
2.14	33.23	-35720	3772.3	-0.40846	-0.64465	0.63342
2.142	33.231	-35720	3771.1	-0.40836	-0.64396	0.63313
2.144	33.231	-35719	3770	-0.40826	-0.64328	0.63284
2.146	33.233	-35720	3768.9	-0.40816	-0.6426	0.63255
2.148	33.242	-35722	3767.8	-0.40807	-0.64192	0.63225
2.15	33.248	-35722	3766.6	-0.40797	-0.64123	0.63196
2.152	33.248	-35723	3765.6	-0.40748	-0.64143	0.63255
2.154	33.246	-35720	3764.6	-0.40699	-0.64162	0.63313
2.156	33.243	-35717	3763.5	-0.4065	-0.64182	0.63372
2.158	33.243	-35723	3762.5	-0.40602	-0.64201	0.6343
2.16	33.244	-35730	3761.6	-0.40553	-0.64221	0.63489
2.162	33.235	-35731	3760.6	-0.4068	-0.6426	0.63411
2.164	33.234	-35733	3759.7	-0.40807	-0.64299	0.63333
2.166	33.234	-35737	3758.8	-0.40933	-0.64338	0.63255
2.168	33.231	-35742	3757.9	-0.4106	-0.64377	0.63176
2.17	33.231	-35743	3757	-0.41187	-0.64416	0.63098
2.172	33.234	-35744	3756.2	-0.41129	-0.64348	0.63079
2.174	33.234	-35740	3755.4	-0.4107	-0.64279	0.63059
2.176	33.234	-35736	3754.6	-0.41012	-0.64211	0.6304
2.178	33.235	-35735	3753.9	-0.40953	-0.64143	0.6302
2.18	33.239	-35734	3753.1	-0.40894	-0.64074	0.63001
2.182	33.245	-35732	3752.5	-0.40924	-0.64123	0.6302
2.184	33.247	-35730	3751.8	-0.40953	-0.64172	0.6304
2.186	33.246	-35736	3751.2	-0.40982	-0.64221	0.63059
2.188	33.246	-35743	3750.5	-0.41012	-0.6427	0.63079
2.19	33.246	-35743	3749.9	-0.41041	-0.64318	0.63098
2.192	33.242	-35742	3749.4	-0.41051	-0.64289	0.63128
2.194	33.235	-35743	3748.8	-0.4106	-0.6426	0.63157
2.196	33.229	-35744	3748.3	-0.4107	-0.64231	0.63186
2.198	33.227	-35745	3747.9	-0.4108	-0.64201	0.63216
2.2	33.23	-35746	3747.4	-0.4109	-0.64172	0.63245
2.202	33.235	-35748	3747	-0.4108	-0.64221	0.63264
2.204	33.235	-35750	3746.6	-0.4107	-0.6427	0.63284
2.206	33.234	-35753	3746.2	-0.4106	-0.64318	0.63303
2.208	33.234	-35755	3745.8	-0.41051	-0.64367	0.63323
2.21	33.238	-35757	3745.4	-0.41041	-0.64416	0.63342
2.212	33.242	-35759	3745.1	-0.40933	-0.64338	0.63303
2.214	33.24	-35760	3744.8	-0.40826	-0.6426	0.63264
2.216	33.236	-35762	3744.6	-0.40719	-0.64182	0.63225
2.218	33.236	-35762	3744.3	-0.40611	-0.64104	0.63186
2.22	33.236	-35763	3744	-0.40504	-0.64026	0.63147
2.222	33.233	-35768	3743.8	-0.40563	-0.64065	0.63216
2.224	33.227	-35773	3743.6	-0.40621	-0.64104	0.63284
2.226	33.228	-35774	3743.4	-0.4068	-0.64143	0.63352
2.228	33.231	-35774	3743.2	-0.40738	-0.64182	0.6342
2.23	33.235	-35773	3743.1	-0.40797	-0.64221	0.63489
2.232	33.235	-35772	3742.9	-0.40787	-0.64201	0.63469
2.234	33.233	-35769	3742.8	-0.40777	-0.64182	0.6345
2.236	33.235	-35765	3742.6	-0.40768	-0.64162	0.6343
2.238	33.231	-35765	3742.5	-0.40758	-0.64143	0.63411
2.24	33.231	-35764	3742.5	-0.40748	-0.64123	0.63391
2.242	33.237	-35768	3742.4	-0.40719	-0.64113	0.63381
2.244	33.232	-35771	3742.3	-0.40689	-0.64104	0.63372
2.246	33.226	-35778	3742.2	-0.4066	-0.64094	0.63362
2.248	33.226	-35784	3742.2	-0.40631	-0.64084	0.63352
2.25	33.233	-35785	3742.1	-0.40602	-0.64074	0.63342
2.252	33.237	-35786	3742.1	-0.40709	-0.64133	0.63303
2.254	33.237	-35789	3742	-0.40816	-0.64192	0.63264
2.256	33.234	-35792	3741.9	-0.40924	-0.6425	0.63225
2.258	33.232	-35794	3741.9	-0.41031	-0.64309	0.63186
2.26	33.227	-35797	3741.9	-0.41138	-0.64367	0.63147
2.262	33.225	-35799	3741.8	-0.41051	-0.64279	0.63128
2.264	33.223	-35800	3741.8	-0.40963	-0.64192	0.63108
2.266	33.22	-35800	3741.8	-0.40875	-0.64104	0.63089
2.268	33.216	-35800	3741.7	-0.40787	-0.64016	0.63069
2.27	33.211	-35801	3741.6	-0.40699	-0.63928	0.6305
2.272	33.212	-35803	3741.6	-0.40631	-0.63918	0.63157
2.274	33.223	-35802	3741.7	-0.40563	-0.63908	0.63264
2.276	33.235	-35801	3741.7	-0.40494	-0.63899	0.63372
2.278	33.238	-35799	3741.7	-0.40426	-0.63889	0.63479
2.28	33.237	-35797	3741.6	-0.40358	-0.63879	0.63586
2.282	33.235	-35803	3741.6	-0.40504	-0.63938	0.6343
2.284	33.233	-35808	3741.6	-0.4065	-0.63996	0.63274
2.286	33.231	-35810	3741.5	-0.40797	-0.64055	0.63118
2.288	33.231	-35812	3741.5	-0.40943	-0.64113	0.62962
2.29	33.231	-35813	3741.4	-0.4109	-0.64172	0.62806
2.292	33.23	-35814	3741.3	-0.41051	-0.64182	0.62923
2.294	33.231	-35815	3741.3	-0.41012	-0.64192	0.6304
2.296	33.232	-35816	3741.2	-0.40972	-0.64201	0.63157
2.298	33.229	-35814	3741.1	-0.40933	-0.64211	0.63274
2.3	33.226	-35811	3741	-0.40894	-0.64221	0.63391
2.302	33.224	-35812	3740.9	-0.40943	-0.64192	0.63294
2.304	33.226	-35812	3740.9	-0.40992	-0.64162	0.63196
2.306	33.233	-35817	3740.8	-0.41041	-0.64133	0.63098
2.308	33.24	-35822	3740.7	-0.4109	-0.64104	0.63001
2.31	33.242	-35821	3740.5	-0.41138	-0.64074	0.62903
2.312	33.251	-35820	3740.4	-0.41119	-0.64094	0.62913
2.314	33.256	-35821	3740.3	-0.41099	-0.64113	0.62923
2.316	33.258	-35821	3740.1	-0.4108	-0.64133	0.62932
2.318	33.261	-35824	3740	-0.4106	-0.64152	0.62942
2.32	33.263	-35826	3739.9	-0.41041	-0.64172	0.62952
2.322	33.261	-35824	3739.7	-0.41031	-0.64182	0.6305
2.324	33.27	-35823	3739.6	-0.41021	-0.64192	0.63147
2.326	33.277	-35832	3739.4	-0.41012	-0.64201	0.63245
2.328	33.279	-35840	3739.2	-0.41002	-0.64211	0.63342
2.33	33.28	-35837	3739.1	-0.40992	-0.64221	0.6344
2.332	33.273	-35835	3738.9	-0.40963	-0.6424	0.63381
2.334	33.269	-35833	3738.7	-0.40933	-0.6426	0.63323
2.336	33.267	-35832	3738.4	-0.40904	-0.64279	0.63264
2.338	33.265	-35836	3738.2	-0.40875	-0.64299	0.63206
2.34	33.269	-35840	3737.9	-0.40846	-0.64318	0.63147
2.342	33.272	-35842	3737.7	-0.40816	-0.6425	0.63108
2.344	33.269	-35845	3737.5	-0.40787	-0.64182	0.63069
2.346	33.268	-35853	3737.2	-0.40758	-0.64113	0.6303
2.348	33.267	-35862	3736.9	-0.40728	-0.64045	0.62991
2.35	33.265	-35852	3736.7	-0.40699	-0.63977	0.62952
2.352	33.262	-35843	3736.4	-0.40768	-0.64016	0.62991
2.354	33.262	-35852	3736.1	-0.40836	-0.64055	0.6303
2.356	33.262	-35861	3735.8	-0.40904	-0.64094	0.63069
2.358	33.261	-35857	3735.4	-0.40972	-0.64133	0.63108
2.36	33.259	-35854	3735	-0.41041	-0.64172	0.63147
2.362	33.254	-35858	3734.7	-0.40982	-0.64133	0.63118
2.364	33.25	-35862	3734.3	-0.40924	-0.64094	0.63089
2.366	33.249	-35863	3734	-0.40865	-0.64055	0.63059
2.368	33.244	-35863	3733.6	-0.40807	-0.64016	0.6303
2.37	33.229	-35867	3733.2	-0.40748	-0.63977	0.63001
2.372	33.215	-35870	3732.8	-0.40758	-0.63996	0.6302
2.374	33.213	-35866	3732.5	-0.40768	-0.64016	0.6304
2.376	33.213	-35863	3732.1	-0.40777	-0.64035	0.63059
2.378	33.207	-35867	3731.7	-0.40787	-0.64055	0.63079
2.38	33.205	-35871	3731.2	-0.40797	-0.64074	0.63098
2.382	33.209	-35866	3730.8	-0.40836	-0.64152	0.63137
2.384	33.215	-35861	3730.4	-0.40875	-0.64231	0.63176
2.386	33.215	-35866	3730	-0.40914	-0.64309	0.63216
2.388	33.212	-35871	3729.5	-0.40953	-0.64387	0.63255
2.39	33.211	-35871	3729.1	-0.40992	-0.64465	0.63294
2.392	33.211	-35871	3728.6	-0.40943	-0.64436	0.63313
2.394	33.208	-35867	3728.2	-0.40894	-0.64406	0.63333
2.396	33.211	-35864	3727.7	-0.40846	-0.64377	0.63352
2.398	33.216	-35872	3727.3	-0.40797	-0.64348	0.63372
2.4	33.214	-35880	3726.8	-0.40748	-0.64318	0.63391
2.402	33.209	-35880	3726.4	-0.40768	-0.64289	0.63294
2.404	33.201	-35880	3725.9	-0.40787	-0.6426	0.63196
2.406	33.202	-35881	3725.5	-0.40807	-0.64231	0.63098
2.408	33.206	-35883	3725	-0.40826	-0.64201	0.63001
2.41	33.212	-35884	3724.5	-0.40846	-0.64172	0.62903
2.412	33.218	-35885	3724	-0.40797	-0.64172	0.62991
2.414	33.221	-35887	3723.5	-0.40748	-0.64172	0.63079
2.416	33.221	-35889	3723.1	-0.40699	-0.64172	0.63167
2.418	33.218	-35891	3722.6	-0.4065	-0.64172	0.63255
2.42	33.218	-35893	3722.2	-0.40602	-0.64172	0.63342
2.422	33.222	-35895	3721.7	-0.40689	-0.64211	0.63274
2.424	33.233	-35896	3721.2	-0.40777	-0.6425	0.63206
2.426	33.235	-35895	3720.7	-0.40865	-0.64289	0.63137
2.428	33.234	-35894	3720.3	-0.40953	-0.64328	0.63069
2.43	33.24	-35898	3719.8	-0.41041	-0.64367	0.63001
2.432	33.247	-35901	3719.3	-0.41041	-0.64309	0.63011
2.434	33.249	-35898	3718.8	-0.41041	-0.6425	0.6302
2.436	33.247	-35896	3718.3	-0.41041	-0.64192	0.6303
2.438	33.251	-35900	3717.8	-0.41041	-0.64133	0.6304
2.44	33.257	-35905	3717.3	-0.41041	-0.64074	0.6305
2.442	33.263	-35902	3716.8	-0.41051	-0.64133	0.63128
2.444	33.277	-35899	3716.3	-0.4106	-0.64192	0.63206
2.446	33.296	-35903	3715.9	-0.4107	-0.6425	0.63284
2.448	33.311	-35906	3715.4	-0.4108	-0.64309	0.63362
2.45	33.325	-35912	3714.9	-0.4109	-0.64367	0.6344
2.452	33.339	-35917	3714.4	-0.41002	-0.6426	0.63284
2.454	33.343	-35918	3713.9	-0.40914	-0.64152	0.63128
2.456	33.328	-35920	3713.3	-0.40826	-0.64045	0.62972
2.458	33.3	-35921	3712.7	-0.40738	-0.63938	0.62815
2.46	33.264	-35922	3712.2	-0.4065	-0.6383	0.62659
2.462	33.224	-35921	3711.6	-0.40631	-0.63821	0.62767
2.464	33.19	-35920	3711.1	-0.40611	-0.63811	0.62874
2.466	33.156	-35922	3710.5	-0.40592	-0.63801	0.62981
2.468	33.126	-35923	3709.9	-0.40572	-0.63791	0.63089
2.47	33.106	-35927	3709.3	-0.40553	-0.63782	0.63196
2.472	33.096	-35931	3708.7	-0.40621	-0.63791	0.63186
2.474	33.1	-35930	3708.2	-0.40689	-0.63801	0.63176
2.476	33.117	-35930	3707.7	-0.40758	-0.63811	0.63167
2.478	33.14	-35936	3707.2	-0.40826	-0.63821	0.63157
2.48	33.161	-35941	3706.7	-0.40894	-0.6383	0.63147
2.482	33.177	-35943	3706.3	-0.40933	-0.63879	0.63137
2.484	33.193	-35944	3705.8	-0.40972	-0.63928	0.63128
2.486	33.189	-35940	3705.3	-0.41012	-0.63977	0.63118
2.488	33.19	-35937	3704.9	-0.41051	-0.64026	0.63108
2.49	33.209	-35943	3704.5	-0.4109	-0.64074	0.63098
2.492	33.231	-35949	3704.1	-0.41041	-0.64113	0.6305
2.494	33.242	-35952	3703.7	-0.40992	-0.64152	0.63001
2.496	33.235	-35954	3703.4	-0.40943	-0.64192	0.62952
2.498	33.222	-35955	3703	-0.40894	-0.64231	0.62903
2.5	33.223	-35956	3702.6	-0.40846	-0.6427	0.62854
2.502	33.235	-35957	3702.3	-0.40748	-0.64192	0.62767
2.504	33.241	-35959	3702	-0.4065	-0.64113	0.62679
2.506	33.241	-35959	3701.7	-0.40553	-0.64035	0.62591
2.508	33.237	-35958	3701.4	-0.40455	-0.63957	0.62503
2.51	33.227	-35960	3701.1	-0.40358	-0.63879	0.62415
2.512	33.217	-35962	3700.9	-0.40348	-0.6384	0.62396
2.514	33.212	-35961	3700.6	-0.40338	-0.63801	0.62376
2.516	33.211	-35960	3700.3	-0.40328	-0.63762	0.62357
2.518	33.212	-35965	3700.1	-0.40319	-0.63723	0.62337
2.52	33.213	-35970	3699.9	-0.40309	-0.63684	0.62318
2.522	33.211	-35972	3699.6	-0.40455	-0.63743	0.62396
2.524	33.211	-35974	3699.4	-0.40602	-0.63801	0.62474
2.526	33.212	-35975	3699.2	-0.40748	-0.6386	0.62552
2.528	33.21	-35976	3698.9	-0.40894	-0.63918	0.6263
2.53	33.209	-35980	3698.6	-0.41041	-0.63977	0.62708
2.532	33.213	-35983	3698.4	-0.41012	-0.64094	0.62893
2.534	33.215	-35983	3698.2	-0.40982	-0.64211	0.63079
2.536	33.216	-35984	3698	-0.40953	-0.64328	0.63264
2.538	33.215	-35987	3697.7	-0.40924	-0.64445	0.6345
2.54	33.209	-35991	3697.4	-0.40894	-0.64562	0.63635
2.542	33.208	-35987	3697.2	-0.40885	-0.64514	0.63625
2.544	33.216	-35982	3697	-0.40875	-0.64465	0.63616
2.546	33.219	-35985	3696.7	-0.40865	-0.64416	0.63606
2.548	33.212	-35987	3696.4	-0.40855	-0.64367	0.63596
2.55	33.211	-35994	3696.1	-0.40846	-0.64318	0.63586
2.552	33.211	-36001	3695.7	-0.40797	-0.64279	0.63557
2.554	33.209	-36003	3695.4	-0.40748	-0.6424	0.63528
2.556	33.209	-36004	3695	-0.40699	-0.64201	0.63499
2.558	33.213	-36005	3694.6	-0.4065	-0.64162	0.63469
2.56	33.213	-36005	3694.2	-0.40602	-0.64123	0.6344
2.562	33.213	-36004	3693.8	-0.40611	-0.64104	0.6344
2.564	33.216	-36003	3693.5	-0.40621	-0.64084	0.6344
2.566	33.222	-36004	3693	-0.40631	-0.64065	0.6344
2.568	33.226	-36005	3692.5	-0.40641	-0.64045	0.6344
2.57	33.225	-36010	3692.1	-0.4065	-0.64026	0.6344
2.572	33.218	-36016	3691.5	-0.40768	-0.64035	0.63411
2.574	33.218	-36025	3691	-0.40885	-0.64045	0.63381
2.576	33.222	-36035	3690.4	-0.41002	-0.64055	0.63352
2.578	33.215	-36035	3689.8	-0.41119	-0.64065	0.63323
2.58	33.211	-36035	3689.2	-0.41236	-0.64074	0.63294
2.582	33.212	-36036	3688.6	-0.41148	-0.63977	0.63176
2.584	33.212	-36036	3687.9	-0.4106	-0.63879	0.63059
2.586	33.219	-36042	3687.3	-0.40972	-0.63782	0.62942
2.588	33.221	-36048	3686.6	-0.40885	-0.63684	0.62825
2.59	33.219	-36050	3685.9	-0.40797	-0.63586	0.62708
2.592	33.216	-36053	3685.2	-0.40689	-0.63557	0.62688
2.594	33.218	-36050	3684.5	-0.40582	-0.63528	0.62669
2.596	33.22	-36047	3683.8	-0.40475	-0.63499	0.62649
2.598	33.219	-36054	3683.2	-0.40367	-0.63469	0.6263
2.6	33.213	-36061	3682.5	-0.4026	-0.6344	0.6261
2.602	33.21	-36063	3682	-0.40231	-0.63411	0.62542
2.604	33.211	-36066	3681.4	-0.40201	-0.63381	0.62474
2.606	33.214	-36067	3680.9	-0.40172	-0.63352	0.62405
2.608	33.221	-36069	3680.5	-0.40143	-0.63323	0.62337
2.61	33.222	-36069	3680	-0.40114	-0.63294	0.62269
2.612	33.217	-36069	3679.7	-0.40104	-0.63411	0.62347
2.614	33.211	-36068	3679.3	-0.40094	-0.63528	0.62425
2.616	33.208	-36067	3679.1	-0.40084	-0.63645	0.62503
2.618	33.207	-36072	3678.9	-0.40075	-0.63762	0.62581
2.62	33.208	-36077	3678.7	-0.40065	-0.63879	0.62659
2.622	33.212	-36075	3678.9	-0.40162	-0.63967	0.62806
2.624	33.222	-36073	3679	-0.4026	-0.64055	0.62952
2.626	33.225	-36076	3679.3	-0.40358	-0.64143	0.63098
2.628	33.22	-36080	3679.7	-0.40455	-0.64231	0.63245
2.63	33.222	-36079	3680.2	-0.40553	-0.64318	0.63391
2.632	33.224	-36079	3681.2	-0.40631	-0.64299	0.63323
2.634	33.223	-36087	3682.3	-0.40709	-0.64279	0.63255
2.636	33.223	-36094	3683.7	-0.40787	-0.6426	0.63186
2.638	33.224	-36093	3685.4	-0.40865	-0.6424	0.63118
2.64	33.221	-36091	3687.2	-0.40943	-0.64221	0.6305
2.642	33.219	-36094	3689.8	-0.40924	-0.6424	0.63157
2.644	33.22	-36097	3692.4	-0.40904	-0.6426	0.63264
2.646	33.221	-36102	3695.5	-0.40885	-0.64279	0.63372
2.648	33.221	-36106	3698.9	-0.40865	-0.64299	0.63479
2.65	33.231	-36106	3702.3	-0.40846	-0.64318	0.63586
2.652	33.234	-36106	3706.7	-0.40787	-0.64309	0.63596
2.654	33.237	-36107	3711	-0.40728	-0.64299	0.63606
2.656	33.241	-36108	3715.7	-0.4067	-0.64289	0.63616
2.658	33.237	-36092	3720.8	-0.40611	-0.64279	0.63625
2.66	33.238	-36076	3725.9	-0.40553	-0.6427	0.63635
2.662	33.238	-36087	3731.5	-0.40611	-0.64309	0.63664
2.664	33.242	-36098	3737.1	-0.4067	-0.64348	0.63694
2.666	33.248	-36096	3742.8	-0.40728	-0.64387	0.63723
2.668	33.246	-36093	3748.6	-0.40787	-0.64426	0.63752
2.67	33.243	-36090	3754.5	-0.40846	-0.64465	0.63782
2.672	33.241	-36087	3760.6	-0.40933	-0.64338	0.63694
2.674	33.238	-36093	3766.7	-0.41021	-0.64211	0.63606
2.676	33.241	-36099	3772.9	-0.41109	-0.64084	0.63518
2.678	33.246	-36097	3779.1	-0.41197	-0.63957	0.6343
2.68	33.246	-36095	3785.3	-0.41285	-0.6383	0.63342
2.682	33.245	-36090	3791.7	-0.41285	-0.63713	0.63391
2.684	33.245	-36085	3798	-0.41285	-0.63596	0.6344
2.686	33.246	-36084	3804.3	-0.41285	-0.63479	0.63489
2.688	33.251	-36082	3810.5	-0.41285	-0.63362	0.63538
2.69	33.254	-36082	3816.7	-0.41285	-0.63245	0.63586
2.692	33.255	-36082	3822.2	-0.41226	-0.63352	0.63508
2.694	33.261	-36080	3827.7	-0.41168	-0.6346	0.6343
2.696	33.265	-36078	3832.6	-0.41109	-0.63567	0.63352
2.698	33.264	-36077	3836.9	-0.41051	-0.63674	0.63274
2.7	33.261	-36075	3841.2	-0.40992	-0.63782	0.63196
2.702	33.263	-36073	3844.3	-0.41002	-0.63811	0.63176
2.704	33.264	-36072	3847.5	-0.41012	-0.6384	0.63157
2.706	33.262	-36068	3850.3	-0.41021	-0.63869	0.63137
2.708	33.263	-36064	3852.8	-0.41031	-0.63899	0.63118
2.71	33.267	-36061	3855.3	-0.41041	-0.63928	0.63098
2.712	33.272	-36059	3857.3	-0.4108	-0.63879	0.63089
2.714	33.274	-36056	3859.4	-0.41119	-0.6383	0.63079
2.716	33.273	-36054	3861.3	-0.41158	-0.63782	0.63069
2.718	33.274	-36046	3863.1	-0.41197	-0.63733	0.63059
2.72	33.276	-36039	3864.9	-0.41236	-0.63684	0.6305
2.722	33.274	-36040	3866.3	-0.41168	-0.63723	0.62991
2.724	33.273	-36040	3867.7	-0.41099	-0.63762	0.62932
2.726	33.274	-36035	3868.9	-0.41031	-0.63801	0.62874
2.728	33.275	-36029	3869.9	-0.40963	-0.6384	0.62815
2.73	33.279	-36020	3870.9	-0.40894	-0.63879	0.62757
2.732	33.284	-36011	3871.6	-0.40865	-0.63869	0.62776
2.734	33.281	-36008	3872.3	-0.40836	-0.6386	0.62796
2.736	33.277	-36005	3872.8	-0.40807	-0.6385	0.62815
2.738	33.279	-36000	3873.1	-0.40777	-0.6384	0.62835
2.74	33.283	-35994	3873.4	-0.40748	-0.6383	0.62854
2.742	33.286	-35986	3873.3	-0.40709	-0.6384	0.62864
2.744	33.291	-35977	3873.3	-0.4067	-0.6385	0.62874
2.746	33.283	-35978	3873.1	-0.40631	-0.6386	0.62884
2.748	33.273	-35979	3872.8	-0.40592	-0.63869	0.62893
2.75	33.278	-35975	3872.5	-0.40553	-0.63879	0.62903
2.752	33.278	-35970	3871.9	-0.40377	-0.63928	0.63011
2.754	33.275	-35965	3871.2	-0.40201	-0.63977	0.63118
2.756	33.272	-35960	3870.5	-0.40026	-0.64026	0.63225
2.758	33.267	-35953	3869.7	-0.3985	-0.64074	0.63333
2.76	33.262	-35947	3868.9	-0.39674	-0.64123	0.6344
2.762	33.256	-35939	3867.9	-0.39684	-0.64201	0.63499
2.764	33.256	-35931	3866.9	-0.39694	-0.64279	0.63557
2.766	33.263	-35930	3865.8	-0.39704	-0.64357	0.63616
2.768	33.268	-35930	3864.6	-0.39713	-0.64436	0.63674
2.77	33.266	-35922	3863.5	-0.39723	-0.64514	0.63733
2.772	33.258	-35915	3862.2	-0.39762	-0.64475	0.63743
2.774	33.252	-35911	3860.9	-0.39801	-0.64436	0.63752
2.776	33.242	-35907	3859.5	-0.3984	-0.64396	0.63762
2.778	33.233	-35903	3858.1	-0.39879	-0.64357	0.63772
2.78	33.24	-35899	3856.8	-0.39918	-0.64318	0.63782
2.782	33.249	-35896	3855.3	-0.40075	-0.64211	0.63606
2.784	33.249	-35894	3853.9	-0.40231	-0.64104	0.6343
2.786	33.245	-35888	3852.5	-0.40387	-0.63996	0.63255
2.788	33.241	-35882	3851	-0.40543	-0.63889	0.63079
2.79	33.236	-35883	3849.5	-0.40699	-0.63782	0.62903
2.792	33.234	-35884	3848.1	-0.40797	-0.63869	0.62923
2.794	33.234	-35887	3846.6	-0.40894	-0.63957	0.62942
2.796	33.232	-35890	3845.2	-0.40992	-0.64045	0.62962
2.798	33.228	-35880	3843.8	-0.4109	-0.64133	0.62981
2.8	33.221	-35869	3842.3	-0.41187	-0.64221	0.63001
2.802	33.215	-35868	3841	-0.41138	-0.64182	0.63011
2.804	33.211	-35868	3839.7	-0.4109	-0.64143	0.6302
2.806	33.209	-35865	3838.4	-0.41041	-0.64104	0.6303
2.808	33.214	-35863	3837.2	-0.40992	-0.64065	0.6304
2.81	33.217	-35862	3836	-0.40943	-0.64026	0.6305
2.812	33.214	-35861	3834.9	-0.40904	-0.64065	0.63147
2.814	33.209	-35859	3833.8	-0.40865	-0.64104	0.63245
2.816	33.204	-35857	3832.7	-0.40826	-0.64143	0.63342
2.818	33.204	-35850	3831.7	-0.40787	-0.64182	0.6344
2.82	33.208	-35843	3830.8	-0.40748	-0.64221	0.63538
2.822	33.209	-35839	3829.9	-0.40904	-0.64104	0.63391
2.824	33.21	-35835	3829.1	-0.4106	-0.63987	0.63245
2.826	33.205	-35836	3828.3	-0.41216	-0.63869	0.63098
2.828	33.2	-35837	3827.7	-0.41373	-0.63752	0.62952
2.83	33.202	-35841	3827.1	-0.41529	-0.63635	0.62806
2.832	33.198	-35845	3826.5	-0.41548	-0.63586	0.62932
2.834	33.196	-35846	3825.9	-0.41568	-0.63538	0.63059
2.836	33.199	-35848	3825.4	-0.41587	-0.63489	0.63186
2.838	33.199	-35846	3825	-0.41607	-0.6344	0.63313
2.84	33.2	-35844	3824.5	-0.41626	-0.63391	0.6344
2.842	33.202	-35836	3824.2	-0.41568	-0.63479	0.63342
2.844	33.197	-35829	3823.9	-0.41509	-0.63567	0.63245
2.846	33.192	-35822	3823.6	-0.41451	-0.63655	0.63147
2.848	33.199	-35815	3823.3	-0.41392	-0.63743	0.6305
2.85	33.205	-35814	3823	-0.41334	-0.6383	0.62952
2.852	33.206	-35813	3822.8	-0.41363	-0.63743	0.62913
2.854	33.205	-35814	3822.6	-0.41392	-0.63655	0.62874
2.856	33.199	-35815	3822.4	-0.41421	-0.63567	0.62835
2.858	33.197	-35814	3822.1	-0.41451	-0.63479	0.62796
2.86	33.196	-35814	3821.9	-0.4148	-0.63391	0.62757
2.862	33.195	-35812	3821.6	-0.4147	-0.63411	0.62786
2.864	33.196	-35811	3821.4	-0.4146	-0.6343	0.62815
2.866	33.199	-35811	3821.1	-0.41451	-0.6345	0.62845
2.868	33.203	-35811	3820.7	-0.41441	-0.63469	0.62874
2.87	33.208	-35812	3820.3	-0.41431	-0.63489	0.62903
2.872	33.209	-35814	3819.8	-0.41343	-0.63606	0.62913
2.874	33.208	-35814	3819.4	-0.41256	-0.63723	0.62923
2.876	33.209	-35813	3818.8	-0.41168	-0.6384	0.62932
2.878	33.205	-35811	3818.1	-0.4108	-0.63957	0.62942
2.88	33.196	-35808	3817.5	-0.40992	-0.64074	0.62952
2.882	33.193	-35804	3816.8	-0.40933	-0.63996	0.62923
2.884	33.196	-35800	3816.2	-0.40875	-0.63918	0.62893
2.886	33.195	-35796	3815.4	-0.40816	-0.6384	0.62864
2.888	33.192	-35793	3814.5	-0.40758	-0.63762	0.62835
2.89	33.194	-35793	3813.7	-0.40699	-0.63684	0.62806
2.892	33.206	-35792	3812.8	-0.4065	-0.63684	0.62747
2.894	33.213	-35793	3811.9	-0.40602	-0.63684	0.62688
2.896	33.208	-35793	3811	-0.40553	-0.63684	0.6263
2.898	33.203	-35795	3810.2	-0.40504	-0.63684	0.62571
2.9	33.201	-35798	3809.4	-0.40455	-0.63684	0.62513
2.902	33.202	-35799	3808.7	-0.40514	-0.63674	0.62552
2.904	33.198	-35800	3808	-0.40572	-0.63664	0.62591
2.906	33.195	-35789	3807.3	-0.40631	-0.63655	0.6263
2.908	33.195	-35778	3806.8	-0.40689	-0.63645	0.62669
2.91	33.193	-35775	3806.3	-0.40748	-0.63635	0.62708
2.912	33.198	-35771	3805.9	-0.40738	-0.63694	0.62796
2.914	33.201	-35772	3805.5	-0.40728	-0.63752	0.62884
2.916	33.193	-35773	3805.2	-0.40719	-0.63811	0.62972
2.918	33.192	-35774	3805	-0.40709	-0.63869	0.63059
2.92	33.194	-35775	3804.7	-0.40699	-0.63928	0.63147
2.922	33.19	-35775	3804.6	-0.40738	-0.64026	0.63157
2.924	33.192	-35776	3804.5	-0.40777	-0.64123	0.63167
2.926	33.2	-35778	3804.4	-0.40816	-0.64221	0.63176
2.928	33.213	-35781	3804.4	-0.40855	-0.64318	0.63186
2.93	33.22	-35782	3804.4	-0.40894	-0.64416	0.63196
2.932	33.219	-35783	3804.5	-0.40865	-0.64426	0.63284
2.934	33.211	-35783	3804.5	-0.40836	-0.64436	0.63372
2.936	33.205	-35783	3804.7	-0.40807	-0.64445	0.6346
2.938	33.203	-35781	3804.9	-0.40777	-0.64455	0.63547
2.94	33.2	-35780	3805	-0.40748	-0.64465	0.63635
2.942	33.199	-35780	3805.3	-0.40787	-0.64357	0.63499
2.944	33.202	-35779	3805.6	-0.40826	-0.6425	0.63362
2.946	33.201	-35781	3805.9	-0.40865	-0.64143	0.63225
2.948	33.195	-35783	3806.2	-0.40904	-0.64035	0.63089
2.95	33.194	-35777	3806.6	-0.40943	-0.63928	0.62952
2.952	33.195	-35770	3807	-0.40982	-0.64045	0.63069
2.954	33.195	-35767	3807.4	-0.41021	-0.64162	0.63186
2.956	33.194	-35764	3807.8	-0.4106	-0.64279	0.63303
2.958	33.193	-35760	3808.2	-0.41099	-0.64396	0.6342
2.96	33.195	-35757	3808.6	-0.41138	-0.64514	0.63538
2.962	33.194	-35759	3809.1	-0.41119	-0.64367	0.63479
2.964	33.188	-35761	3809.5	-0.41099	-0.64221	0.6342
2.966	33.184	-35763	3809.9	-0.4108	-0.64074	0.63362
2.968	33.186	-35765	3810.4	-0.4106	-0.63928	0.63303
2.97	33.193	-35769	3810.8	-0.41041	-0.63782	0.63245
2.972	33.198	-35773	3811.3	-0.4107	-0.63821	0.63157
2.974	33.197	-35768	3811.7	-0.41099	-0.6386	0.63069
2.976	33.192	-35764	3812	-0.41129	-0.63899	0.62981
2.978	33.191	-35764	3812.4	-0.41158	-0.63938	0.62893
2.98	33.188	-35764	3812.8	-0.41187	-0.63977	0.62806
2.982	33.183	-35762	3813.1	-0.41119	-0.63977	0.62825
2.984	33.183	-35761	3813.5	-0.41051	-0.63977	0.62845
2.986	33.186	-35760	3813.8	-0.40982	-0.63977	0.62864
2.988	33.187	-35760	3814.1	-0.40914	-0.63977	0.62884
2.99	33.19	-35758	3814.4	-0.40846	-0.63977	0.62903
2.992	33.188	-35755	3814.5	-0.40885	-0.64006	0.62962
2.994	33.186	-35759	3814.7	-0.40924	-0.64035	0.6302
2.996	33.188	-35762	3814.9	-0.40963	-0.64065	0.63079
2.998	33.18	-35755	3815	-0.41002	-0.64094	0.63137
3	33.183	-35748	3815.2	-0.41041	-0.64123	0.63196
3.002	33.181	-35751	3815.3	-0.4106	-0.64123	0.63147
3.004	33.178	-35754	3815.3	-0.4108	-0.64123	0.63098
3.006	33.182	-35752	3815.4	-0.41099	-0.64123	0.6305
3.008	33.182	-35750	3815.4	-0.41119	-0.64123	0.63001
3.01	33.177	-35750	3815.3	-0.41138	-0.64123	0.62952
3.012	33.18	-35751	3815.2	-0.41158	-0.64104	0.62932
3.014	33.182	-35747	3815.1	-0.41177	-0.64084	0.62913
3.016	33.187	-35743	3815	-0.41197	-0.64065	0.62893
3.018	33.193	-35744	3814.8	-0.41216	-0.64045	0.62874
3.02	33.191	-35745	3814.7	-0.41236	-0.64026	0.62854
3.022	33.186	-35743	3814.4	-0.41216	-0.64065	0.62913
3.024	33.182	-35741	3814.1	-0.41197	-0.64104	0.62972
3.026	33.18	-35740	3813.8	-0.41177	-0.64143	0.6303
3.028	33.179	-35738	3813.5	-0.41158	-0.64182	0.63089
3.03	33.178	-35738	3813.2	-0.41138	-0.64221	0.63147
3.032	33.168	-35738	3812.8	-0.4107	-0.64172	0.63069
3.034	33.158	-35734	3812.4	-0.41002	-0.64123	0.62991
3.036	33.176	-35731	3812	-0.40933	-0.64074	0.62913
3.038	33.191	-35728	3811.5	-0.40865	-0.64026	0.62835
3.04	33.188	-35726	3811.1	-0.40797	-0.63977	0.62757
3.042	33.185	-35728	3810.6	-0.40807	-0.63987	0.62786
3.044	33.181	-35731	3810.1	-0.40816	-0.63996	0.62815
3.046	33.176	-35727	3809.5	-0.40826	-0.64006	0.62845
3.048	33.179	-35722	3808.9	-0.40836	-0.64016	0.62874
3.05	33.185	-35721	3808.4	-0.40846	-0.64026	0.62903
3.052	33.187	-35719	3807.7	-0.40914	-0.64035	0.62962
3.054	33.184	-35724	3807.1	-0.40982	-0.64045	0.6302
3.056	33.183	-35730	3806.5	-0.41051	-0.64055	0.63079
3.058	33.186	-35728	3805.8	-0.41119	-0.64065	0.63137
3.06	33.188	-35727	3805.1	-0.41187	-0.64074	0.63196
3.062	33.186	-35727	3804.3	-0.41099	-0.63977	0.63176
3.064	33.178	-35727	3803.5	-0.41012	-0.63879	0.63157
3.066	33.176	-35721	3802.8	-0.40924	-0.63782	0.63137
3.068	33.185	-35715	3802	-0.40836	-0.63684	0.63118
3.07	33.191	-35722	3801.2	-0.40748	-0.63586	0.63098
3.072	33.189	-35729	3800.3	-0.40816	-0.63694	0.63079
3.074	33.188	-35730	3799.4	-0.40885	-0.63801	0.63059
3.076	33.183	-35732	3798.5	-0.40953	-0.63908	0.6304
3.078	33.178	-35732	3797.6	-0.41021	-0.64016	0.6302
3.08	33.176	-35732	3796.6	-0.4109	-0.64123	0.63001
3.082	33.178	-35726	3795.7	-0.40992	-0.64152	0.63137
3.084	33.179	-35720	3794.7	-0.40894	-0.64182	0.63274
3.086	33.178	-35720	3793.7	-0.40797	-0.64211	0.63411
3.088	33.179	-35720	3792.6	-0.40699	-0.6424	0.63547
3.09	33.181	-35719	3791.6	-0.40602	-0.6427	0.63684
3.092	33.181	-35718	3790.6	-0.40709	-0.6424	0.63547
3.094	33.184	-35717	3789.6	-0.40816	-0.64211	0.63411
3.096	33.184	-35717	3788.6	-0.40924	-0.64182	0.63274
3.098	33.183	-35719	3787.6	-0.41031	-0.64152	0.63137
3.1	33.183	-35721	3786.5	-0.41138	-0.64123	0.63001
3.102	33.181	-35720	3785.5	-0.4108	-0.64123	0.63118
3.104	33.179	-35719	3784.5	-0.41021	-0.64123	0.63235
3.106	33.175	-35712	3783.5	-0.40963	-0.64123	0.63352
3.108	33.173	-35705	3782.5	-0.40904	-0.64123	0.63469
3.11	33.171	-35711	3781.5	-0.40846	-0.64123	0.63586
3.112	33.17	-35717	3780.5	-0.40855	-0.64152	0.63567
3.114	33.17	-35715	3779.5	-0.40865	-0.64182	0.63547
3.116	33.172	-35714	3778.5	-0.40875	-0.64211	0.63528
3.118	33.174	-35715	3777.5	-0.40885	-0.6424	0.63508
3.12	33.179	-35716	3776.5	-0.40894	-0.6427	0.63489
3.122	33.182	-35718	3775.6	-0.40933	-0.64221	0.63352
3.124	33.176	-35720	3774.6	-0.40972	-0.64172	0.63216
3.126	33.172	-35719	3773.7	-0.41012	-0.64123	0.63079
3.128	33.172	-35719	3772.8	-0.41051	-0.64074	0.62942
3.13	33.174	-35721	3771.8	-0.4109	-0.64026	0.62806
3.132	33.179	-35723	3771	-0.41119	-0.64084	0.62942
3.134	33.181	-35723	3770.1	-0.41148	-0.64143	0.63079
3.136	33.178	-35724	3769.3	-0.41177	-0.64201	0.63216
3.138	33.176	-35731	3768.4	-0.41207	-0.6426	0.63352
3.14	33.173	-35737	3767.6	-0.41236	-0.64318	0.63489
3.142	33.169	-35734	3766.9	-0.41187	-0.6426	0.63411
3.144	33.17	-35731	3766.1	-0.41138	-0.64201	0.63333
3.146	33.171	-35733	3765.4	-0.4109	-0.64143	0.63255
3.148	33.174	-35735	3764.7	-0.41041	-0.64084	0.63176
3.15	33.181	-35746	3764	-0.40992	-0.64026	0.63098
3.152	33.185	-35756	3763.3	-0.40963	-0.63938	0.63108
3.154	33.189	-35748	3762.6	-0.40933	-0.6385	0.63118
3.156	33.187	-35739	3762	-0.40904	-0.63762	0.63128
3.158	33.182	-35739	3761.4	-0.40875	-0.63674	0.63137
3.16	33.181	-35740	3760.8	-0.40846	-0.63586	0.63147
3.162	33.178	-35741	3760.3	-0.40846	-0.63625	0.63128
3.164	33.173	-35743	3759.8	-0.40846	-0.63664	0.63108
3.166	33.169	-35740	3759.3	-0.40846	-0.63704	0.63089
3.168	33.171	-35737	3758.8	-0.40846	-0.63743	0.63069
3.17	33.177	-35741	3758.4	-0.40846	-0.63782	0.6305
3.172	33.181	-35745	3758	-0.40914	-0.63821	0.63069
3.174	33.177	-35748	3757.6	-0.40982	-0.6386	0.63089
3.176	33.177	-35751	3757.2	-0.41051	-0.63899	0.63108
3.178	33.18	-35745	3756.9	-0.41119	-0.63938	0.63128
3.18	33.173	-35739	3756.6	-0.41187	-0.63977	0.63147
3.182	33.164	-35743	3756.3	-0.41109	-0.63948	0.63089
3.184	33.163	-35746	3756	-0.41031	-0.63918	0.6303
3.186	33.171	-35752	3755.7	-0.40953	-0.63889	0.62972
3.188	33.179	-35759	3755.5	-0.40875	-0.6386	0.62913
3.19	33.181	-35756	3755.2	-0.40797	-0.6383	0.62854
3.192	33.178	-35753	3755	-0.40777	-0.6385	0.62962
3.194	33.173	-35756	3754.8	-0.40758	-0.63869	0.63069
3.196	33.169	-35759	3754.6	-0.40738	-0.63889	0.63176
3.198	33.167	-35755	3754.5	-0.40719	-0.63908	0.63284
3.2	33.167	-35752	3754.3	-0.40699	-0.63928	0.63391
3.202	33.171	-35760	3754.2	-0.40768	-0.63948	0.63313
3.204	33.174	-35769	3754.1	-0.40836	-0.63967	0.63235
3.206	33.173	-35768	3754	-0.40904	-0.63987	0.63157
3.208	33.171	-35767	3754	-0.40972	-0.64006	0.63079
3.21	33.171	-35769	3753.9	-0.41041	-0.64026	0.63001
3.212	33.17	-35770	3753.8	-0.41021	-0.63987	0.63001
3.214	33.173	-35774	3753.7	-0.41002	-0.63948	0.63001
3.216	33.175	-35779	3753.6	-0.40982	-0.63908	0.63001
3.218	33.172	-35778	3753.6	-0.40963	-0.63869	0.63001
3.22	33.169	-35777	3753.6	-0.40943	-0.6383	0.63001
3.222	33.17	-35775	3753.5	-0.40885	-0.63879	0.63059
3.224	33.173	-35774	3753.5	-0.40826	-0.63928	0.63118
3.226	33.172	-35772	3753.4	-0.40768	-0.63977	0.63176
3.228	33.171	-35771	3753.4	-0.40709	-0.64026	0.63235
3.23	33.176	-35775	3753.3	-0.4065	-0.64074	0.63294
3.232	33.178	-35779	3753.3	-0.40709	-0.64084	0.63216
3.234	33.178	-35782	3753.3	-0.40768	-0.64094	0.63137
3.236	33.178	-35785	3753.2	-0.40826	-0.64104	0.63059
3.238	33.182	-35780	3753.2	-0.40885	-0.64113	0.62981
3.24	33.181	-35774	3753.2	-0.40943	-0.64123	0.62903
3.242	33.175	-35775	3753.2	-0.40904	-0.64094	0.62952
3.244	33.169	-35776	3753.2	-0.40865	-0.64065	0.63001
3.246	33.169	-35775	3753.1	-0.40826	-0.64035	0.6305
3.248	33.169	-35774	3753.1	-0.40787	-0.64006	0.63098
3.25	33.169	-35777	3753.1	-0.40748	-0.63977	0.63147
3.252	33.172	-35780	3753	-0.40816	-0.64006	0.63128
3.254	33.169	-35787	3752.9	-0.40885	-0.64035	0.63108
3.256	33.163	-35794	3752.9	-0.40953	-0.64065	0.63089
3.258	33.157	-35788	3752.8	-0.41021	-0.64094	0.63069
3.26	33.16	-35783	3752.7	-0.4109	-0.64123	0.6305
3.262	33.164	-35783	3752.7	-0.41041	-0.64162	0.63118
3.264	33.167	-35783	3752.7	-0.40992	-0.64201	0.63186
3.266	33.169	-35785	3752.6	-0.40943	-0.6424	0.63255
3.268	33.172	-35786	3752.5	-0.40894	-0.64279	0.63323
3.27	33.172	-35791	3752.3	-0.40846	-0.64318	0.63391
3.272	33.172	-35796	3752.2	-0.40885	-0.64299	0.63362
3.274	33.17	-35795	3752	-0.40924	-0.64279	0.63333
3.276	33.167	-35795	3751.9	-0.40963	-0.6426	0.63303
3.278	33.168	-35801	3751.8	-0.41002	-0.6424	0.63274
3.28	33.168	-35807	3751.7	-0.41041	-0.64221	0.63245
3.282	33.168	-35807	3751.5	-0.41002	-0.64211	0.63225
3.284	33.165	-35806	3751.3	-0.40963	-0.64201	0.63206
3.286	33.163	-35800	3751.2	-0.40924	-0.64192	0.63186
3.288	33.164	-35793	3751	-0.40885	-0.64182	0.63167
3.29	33.159	-35794	3750.8	-0.40846	-0.64172	0.63147
3.292	33.164	-35794	3750.6	-0.40816	-0.64123	0.63147
3.294	33.18	-35805	3750.4	-0.40787	-0.64074	0.63147
3.296	33.191	-35816	3750.1	-0.40758	-0.64026	0.63147
3.298	33.194	-35814	3749.9	-0.40728	-0.63977	0.63147
3.3	33.195	-35812	3749.6	-0.40699	-0.63928	0.63147
3.302	33.194	-35805	3749.3	-0.40719	-0.63908	0.63118
3.304	33.194	-35798	3749	-0.40738	-0.63889	0.63089
3.306	33.197	-35803	3748.7	-0.40758	-0.63869	0.63059
3.308	33.2	-35808	3748.4	-0.40777	-0.6385	0.6303
3.31	33.201	-35810	3748.2	-0.40797	-0.6383	0.63001
3.312	33.202	-35812	3747.9	-0.40826	-0.63889	0.62962
3.314	33.198	-35807	3747.5	-0.40855	-0.63948	0.62923
3.316	33.194	-35802	3747.2	-0.40885	-0.64006	0.62884
3.318	33.195	-35815	3746.8	-0.40914	-0.64065	0.62845
3.32	33.202	-35828	3746.4	-0.40943	-0.64123	0.62806
3.322	33.204	-35822	3746.1	-0.40933	-0.64123	0.62845
3.324	33.204	-35816	3745.7	-0.40924	-0.64123	0.62884
3.326	33.209	-35823	3745.3	-0.40914	-0.64123	0.62923
3.328	33.215	-35831	3744.9	-0.40904	-0.64123	0.62962
3.33	33.217	-35827	3744.4	-0.40894	-0.64123	0.63001
3.332	33.218	-35824	3744.1	-0.40787	-0.64113	0.63069
3.334	33.217	-35826	3743.7	-0.4068	-0.64104	0.63137
3.336	33.213	-35829	3743.3	-0.40572	-0.64094	0.63206
3.338	33.205	-35830	3742.8	-0.40465	-0.64084	0.63274
3.34	33.201	-35832	3742.4	-0.40358	-0.64074	0.63342
3.342	33.204	-35825	3742	-0.40455	-0.64094	0.63294
3.344	33.206	-35819	3741.5	-0.40553	-0.64113	0.63245
3.346	33.204	-35823	3741.1	-0.4065	-0.64133	0.63196
3.348	33.205	-35827	3740.7	-0.40748	-0.64152	0.63147
3.35	33.202	-35828	3740.3	-0.40846	-0.64172	0.63098
3.352	33.19	-35829	3739.8	-0.40846	-0.64182	0.63128
3.354	33.179	-35832	3739.3	-0.40846	-0.64192	0.63157
3.356	33.175	-35835	3738.9	-0.40846	-0.64201	0.63186
3.358	33.176	-35833	3738.4	-0.40846	-0.64211	0.63216
3.36	33.175	-35831	3738	-0.40846	-0.64221	0.63245
3.362	33.169	-35830	3737.5	-0.40807	-0.64162	0.63255
3.364	33.163	-35828	3737	-0.40768	-0.64104	0.63264
3.366	33.156	-35840	3736.5	-0.40728	-0.64045	0.63274
3.368	33.153	-35851	3736	-0.40689	-0.63987	0.63284
3.37	33.151	-35847	3735.6	-0.4065	-0.63928	0.63294
3.372	33.151	-35843	3735.1	-0.40621	-0.63879	0.63264
3.374	33.158	-35846	3734.6	-0.40592	-0.6383	0.63235
3.376	33.16	-35849	3734.1	-0.40563	-0.63782	0.63206
3.378	33.156	-35844	3733.6	-0.40533	-0.63733	0.63176
3.38	33.154	-35839	3733.1	-0.40504	-0.63684	0.63147
3.382	33.159	-35844	3732.5	-0.40592	-0.63801	0.63137
3.384	33.165	-35849	3732	-0.4068	-0.63918	0.63128
3.386	33.165	-35852	3731.5	-0.40768	-0.64035	0.63118
3.388	33.159	-35856	3731	-0.40855	-0.64152	0.63108
3.39	33.152	-35860	3730.5	-0.40943	-0.6427	0.63098
3.392	33.145	-35865	3730	-0.40924	-0.64289	0.63128
3.394	33.141	-35860	3729.5	-0.40904	-0.64309	0.63157
3.396	33.149	-35855	3729	-0.40885	-0.64328	0.63186
3.398	33.161	-35857	3728.4	-0.40865	-0.64348	0.63216
3.4	33.165	-35859	3727.9	-0.40846	-0.64367	0.63245
3.402	33.162	-35867	3727.4	-0.40807	-0.64328	0.63245
3.404	33.16	-35875	3726.9	-0.40768	-0.64289	0.63245
3.406	33.158	-35870	3726.3	-0.40728	-0.6425	0.63245
3.408	33.156	-35865	3725.8	-0.40689	-0.64211	0.63245
3.41	33.162	-35867	3725.3	-0.4065	-0.64172	0.63245
3.412	33.175	-35870	3724.8	-0.40758	-0.6424	0.63245
3.414	33.189	-35874	3724.3	-0.40865	-0.64309	0.63245
3.416	33.191	-35879	3723.8	-0.40972	-0.64377	0.63245
3.418	33.183	-35879	3723.3	-0.4108	-0.64445	0.63245
3.42	33.183	-35879	3722.8	-0.41187	-0.64514	0.63245
3.422	33.186	-35880	3722.4	-0.4108	-0.64318	0.63225
3.424	33.182	-35882	3721.9	-0.40972	-0.64123	0.63206
3.426	33.188	-35882	3721.4	-0.40865	-0.63928	0.63186
3.428	33.2	-35882	3720.9	-0.40758	-0.63733	0.63167
3.43	33.211	-35881	3720.4	-0.4065	-0.63538	0.63147
3.432	33.225	-35880	3720	-0.40699	-0.63655	0.63167
3.434	33.254	-35881	3719.6	-0.40748	-0.63772	0.63186
3.436	33.286	-35883	3719.2	-0.40797	-0.63889	0.63206
3.438	33.302	-35883	3718.8	-0.40846	-0.64006	0.63225
3.44	33.312	-35884	3718.4	-0.40894	-0.64123	0.63245
3.442	33.304	-35888	3717.9	-0.40807	-0.64084	0.63274
3.444	33.289	-35893	3717.5	-0.40719	-0.64045	0.63303
3.446	33.269	-35896	3717.1	-0.40631	-0.64006	0.63333
3.448	33.242	-35899	3716.7	-0.40543	-0.63967	0.63362
3.45	33.203	-35899	3716.3	-0.40455	-0.63928	0.63391
3.452	33.169	-35899	3715.9	-0.40641	-0.63967	0.63333
3.454	33.134	-35901	3715.5	-0.40826	-0.64006	0.63274
3.456	33.095	-35903	3715.1	-0.41012	-0.64045	0.63216
3.458	33.061	-35903	3714.7	-0.41197	-0.64084	0.63157
3.46	33.043	-35904	3714.3	-0.41382	-0.64123	0.63098
3.462	33.04	-35904	3713.9	-0.41334	-0.64133	0.63069
3.464	33.053	-35904	3713.5	-0.41285	-0.64143	0.6304
3.466	33.076	-35905	3713.1	-0.41236	-0.64152	0.63011
3.468	33.098	-35906	3712.7	-0.41187	-0.64162	0.62981
3.47	33.117	-35907	3712.3	-0.41138	-0.64172	0.62952
3.472	33.129	-35907	3711.9	-0.41119	-0.64113	0.62952
3.474	33.136	-35906	3711.5	-0.41099	-0.64055	0.62952
3.476	33.149	-35905	3711.2	-0.4108	-0.63996	0.62952
3.478	33.161	-35906	3710.8	-0.4106	-0.63938	0.62952
3.48	33.166	-35908	3710.5	-0.41041	-0.63879	0.62952
3.482	33.166	-35915	3710.1	-0.40953	-0.63938	0.63001
3.484	33.17	-35922	3709.8	-0.40865	-0.63996	0.6305
3.486	33.175	-35922	3709.4	-0.40777	-0.64055	0.63098
3.488	33.177	-35922	3709.1	-0.40689	-0.64113	0.63147
3.49	33.177	-35925	3708.8	-0.40602	-0.64172	0.63196
3.492	33.183	-35928	3708.4	-0.40621	-0.64152	0.63147
3.494	33.181	-35934	3708.1	-0.40641	-0.64133	0.63098
3.496	33.177	-35939	3707.8	-0.4066	-0.64113	0.6305
3.498	33.176	-35941	3707.5	-0.4068	-0.64094	0.63001
3.5	33.168	-35943	3707.2	-0.40699	-0.64074	0.62952
3.502	33.162	-35945	3706.9	-0.40758	-0.64123	0.62991
3.504	33.155	-35948	3706.5	-0.40816	-0.64172	0.6303
3.506	33.153	-35942	3706.3	-0.40875	-0.64221	0.63069
3.508	33.156	-35936	3706	-0.40933	-0.6427	0.63108
3.51	33.155	-35939	3705.8	-0.40992	-0.64318	0.63147
3.512	33.15	-35941	3705.5	-0.40982	-0.64338	0.63186
3.514	33.156	-35943	3705.2	-0.40972	-0.64357	0.63225
3.516	33.159	-35946	3705	-0.40963	-0.64377	0.63264
3.518	33.158	-35943	3704.8	-0.40953	-0.64396	0.63303
3.52	33.166	-35941	3704.5	-0.40943	-0.64416	0.63342
3.522	33.175	-35942	3704.3	-0.40943	-0.64328	0.63303
3.524	33.17	-35943	3704.1	-0.40943	-0.6424	0.63264
3.526	33.165	-35944	3703.9	-0.40943	-0.64152	0.63225
3.528	33.161	-35945	3703.7	-0.40943	-0.64065	0.63186
3.53	33.166	-35953	3703.5	-0.40943	-0.63977	0.63147
3.532	33.164	-35961	3703.3	-0.40963	-0.64016	0.63186
3.534	33.155	-35966	3703.1	-0.40982	-0.64055	0.63225
3.536	33.152	-35971	3702.9	-0.41002	-0.64094	0.63264
3.538	33.153	-35972	3702.6	-0.41021	-0.64133	0.63303
3.54	33.154	-35973	3702.4	-0.41041	-0.64172	0.63342
3.542	33.155	-35971	3702.1	-0.40924	-0.64094	0.63352
3.544	33.156	-35969	3701.9	-0.40807	-0.64016	0.63362
3.546	33.156	-35973	3701.6	-0.40689	-0.63938	0.63372
3.548	33.156	-35977	3701.2	-0.40572	-0.6386	0.63381
3.55	33.155	-35978	3700.9	-0.40455	-0.63782	0.63391
3.552	33.153	-35979	3700.5	-0.40572	-0.63869	0.63411
3.554	33.152	-35981	3700.1	-0.40689	-0.63957	0.6343
3.556	33.155	-35983	3699.6	-0.40807	-0.64045	0.6345
3.558	33.16	-35984	3699.1	-0.40924	-0.64133	0.63469
3.56	33.165	-35985	3698.6	-0.41041	-0.64221	0.63489
3.562	33.164	-35985	3698.1	-0.41002	-0.64172	0.6343
3.564	33.166	-35985	3697.5	-0.40963	-0.64123	0.63372
3.566	33.17	-35987	3696.9	-0.40924	-0.64074	0.63313
3.568	33.166	-35988	3696.3	-0.40885	-0.64026	0.63255
3.57	33.161	-35988	3695.7	-0.40846	-0.63977	0.63196
3.572	33.157	-35987	3695.1	-0.40807	-0.63948	0.63157
3.574	33.156	-35996	3694.4	-0.40768	-0.63918	0.63118
3.576	33.154	-36004	3693.8	-0.40728	-0.63889	0.63079
3.578	33.147	-36001	3693.1	-0.40689	-0.6386	0.6304
3.58	33.148	-35998	3692.4	-0.4065	-0.6383	0.63001
3.582	33.157	-36002	3691.6	-0.40524	-0.63772	0.62884
3.584	33.157	-36005	3690.9	-0.40397	-0.63713	0.62767
3.586	33.155	-36001	3690.2	-0.4027	-0.63655	0.62649
3.588	33.158	-35996	3689.5	-0.40143	-0.63596	0.62532
3.59	33.161	-36005	3688.8	-0.40016	-0.63538	0.62415
3.592	33.164	-36014	3688.2	-0.40055	-0.63625	0.62474
3.594	33.163	-36013	3687.6	-0.40094	-0.63713	0.62532
3.596	33.161	-36012	3687.1	-0.40133	-0.63801	0.62591
3.598	33.158	-36008	3686.7	-0.40172	-0.63889	0.62649
3.6	33.156	-36004	3686.3	-0.40211	-0.63977	0.62708
3.602	33.156	-36013	3686	-0.40182	-0.63977	0.62757
3.604	33.16	-36022	3685.6	-0.40153	-0.63977	0.62806
3.606	33.166	-36020	3685.4	-0.40123	-0.63977	0.62854
3.608	33.163	-36018	3685.3	-0.40094	-0.63977	0.62903
3.61	33.161	-36020	3685.3	-0.40065	-0.63977	0.62952
3.612	33.164	-36022	3685.4	-0.40172	-0.63996	0.62942
3.614	33.166	-36023	3685.5	-0.4028	-0.64016	0.62932
3.616	33.165	-36024	3685.9	-0.40387	-0.64035	0.62923
3.618	33.165	-36028	3686.5	-0.40494	-0.64055	0.62913
3.62	33.164	-36033	3687.1	-0.40602	-0.64074	0.62903
3.622	33.164	-36036	3688.2	-0.40553	-0.64113	0.63001
3.624	33.164	-36039	3689.4	-0.40504	-0.64152	0.63098
3.626	33.162	-36043	3691	-0.40455	-0.64192	0.63196
3.628	33.166	-36047	3692.9	-0.40406	-0.64231	0.63294
3.63	33.165	-36045	3694.8	-0.40358	-0.6427	0.63391
3.632	33.16	-36043	3697.7	-0.40455	-0.64338	0.63489
3.634	33.158	-36047	3700.6	-0.40553	-0.64406	0.63586
3.636	33.165	-36051	3703.9	-0.4065	-0.64475	0.63684
3.638	33.179	-36050	3707.6	-0.40748	-0.64543	0.63782
3.64	33.19	-36048	3711.4	-0.40846	-0.64611	0.63879
3.642	33.196	-36050	3715.9	-0.40924	-0.64553	0.63782
3.644	33.196	-36051	3720.5	-0.41002	-0.64494	0.63684
3.646	33.191	-36048	3725.4	-0.4108	-0.64436	0.63586
3.648	33.186	-36045	3730.6	-0.41158	-0.64377	0.63489
3.65	33.183	-36050	3735.8	-0.41236	-0.64318	0.63391
3.652	33.182	-36056	3741.5	-0.41256	-0.6427	0.63411
3.654	33.187	-36059	3747.2	-0.41275	-0.64221	0.6343
3.656	33.188	-36062	3753	-0.41295	-0.64172	0.6345
3.658	33.179	-36054	3759	-0.41314	-0.64123	0.63469
3.66	33.176	-36046	3764.9	-0.41334	-0.64074	0.63489
3.662	33.188	-36053	3771.2	-0.41256	-0.64045	0.6346
3.664	33.194	-36059	3777.4	-0.41177	-0.64016	0.6343
3.666	33.188	-36061	3783.7	-0.41099	-0.63987	0.63401
3.668	33.188	-36063	3790	-0.41021	-0.63957	0.63372
3.67	33.191	-36056	3796.4	-0.40943	-0.63928	0.63342
3.672	33.195	-36048	3802.6	-0.41002	-0.63801	0.63342
3.674	33.198	-36055	3808.7	-0.4106	-0.63674	0.63342
3.676	33.2	-36061	3814.6	-0.41119	-0.63547	0.63342
3.678	33.197	-36055	3820.1	-0.41177	-0.6342	0.63342
3.68	33.193	-36048	3825.7	-0.41236	-0.63294	0.63342
3.682	33.193	-36042	3830.1	-0.4109	-0.63274	0.63391
3.684	33.19	-36036	3834.6	-0.40943	-0.63255	0.6344
3.686	33.192	-36034	3838.6	-0.40797	-0.63235	0.63489
3.688	33.202	-36032	3842	-0.4065	-0.63216	0.63538
3.69	33.212	-36029	3845.4	-0.40504	-0.63196	0.63586
3.692	33.213	-36027	3848.1	-0.40436	-0.63128	0.63684
3.694	33.213	-36024	3850.8	-0.40367	-0.63059	0.63782
3.696	33.214	-36021	3853.3	-0.40299	-0.62991	0.63879
3.698	33.217	-36020	3855.5	-0.40231	-0.62923	0.63977
3.7	33.217	-36019	3857.8	-0.40162	-0.62854	0.64074
3.702	33.22	-36025	3859.7	-0.40211	-0.62942	0.63889
3.704	33.222	-36031	3861.6	-0.4026	-0.6303	0.63704
3.706	33.223	-36015	3863.4	-0.40309	-0.63118	0.63518
3.708	33.226	-35999	3865	-0.40358	-0.63206	0.63333
3.71	33.227	-35996	3866.5	-0.40406	-0.63294	0.63147
3.712	33.225	-35994	3867.7	-0.40397	-0.63352	0.63001
3.714	33.221	-35991	3869	-0.40387	-0.63411	0.62854
3.716	33.219	-35989	3869.9	-0.40377	-0.63469	0.62708
3.718	33.219	-35984	3870.7	-0.40367	-0.63528	0.62562
3.72	33.219	-35978	3871.5	-0.40358	-0.63586	0.62415
3.722	33.222	-35979	3872	-0.40406	-0.63606	0.62503
3.724	33.224	-35979	3872.5	-0.40455	-0.63625	0.62591
3.726	33.222	-35972	3872.8	-0.40504	-0.63645	0.62679
3.728	33.223	-35964	3872.9	-0.40553	-0.63664	0.62767
3.73	33.223	-35954	3873.1	-0.40602	-0.63684	0.62854
3.732	33.219	-35943	3872.9	-0.40533	-0.63752	0.62903
3.734	33.218	-35942	3872.8	-0.40465	-0.63821	0.62952
3.736	33.218	-35942	3872.5	-0.40397	-0.63889	0.63001
3.738	33.221	-35932	3872.1	-0.40328	-0.63957	0.6305
3.74	33.221	-35923	3871.7	-0.4026	-0.64026	0.63098
3.742	33.217	-35916	3871.1	-0.40309	-0.64016	0.63011
3.744	33.218	-35910	3870.5	-0.40358	-0.64006	0.62923
3.746	33.217	-35907	3869.8	-0.40406	-0.63996	0.62835
3.748	33.213	-35903	3868.9	-0.40455	-0.63987	0.62747
3.75	33.215	-35903	3868.1	-0.40504	-0.63977	0.62659
3.752	33.216	-35903	3867.1	-0.40543	-0.63908	0.62679
3.754	33.213	-35894	3866.1	-0.40582	-0.6384	0.62698
3.756	33.211	-35886	3865.1	-0.40621	-0.63772	0.62718
3.758	33.209	-35885	3863.9	-0.4066	-0.63704	0.62737
3.76	33.206	-35885	3862.8	-0.40699	-0.63635	0.62757
3.762	33.198	-35877	3861.5	-0.4065	-0.63684	0.62874
3.764	33.187	-35868	3860.3	-0.40602	-0.63733	0.62991
3.766	33.18	-35866	3859	-0.40553	-0.63782	0.63108
3.768	33.182	-35864	3857.6	-0.40504	-0.6383	0.63225
3.77	33.19	-35860	3856.2	-0.40455	-0.63879	0.63342
3.772	33.192	-35856	3854.9	-0.40582	-0.63938	0.63313
3.774	33.186	-35851	3853.5	-0.40709	-0.63996	0.63284
3.776	33.176	-35845	3852.1	-0.40836	-0.64055	0.63255
3.778	33.169	-35839	3850.7	-0.40963	-0.64113	0.63225
3.78	33.167	-35834	3849.3	-0.4109	-0.64172	0.63196
3.782	33.171	-35832	3847.9	-0.41099	-0.64123	0.63147
3.784	33.171	-35830	3846.5	-0.41109	-0.64074	0.63098
3.786	33.164	-35824	3845.2	-0.41119	-0.64026	0.6305
3.788	33.162	-35817	3843.9	-0.41129	-0.63977	0.63001
3.79	33.163	-35816	3842.5	-0.41138	-0.63928	0.62952
3.792	33.167	-35815	3841.3	-0.41197	-0.63928	0.62952
3.794	33.167	-35816	3840.1	-0.41256	-0.63928	0.62952
3.796	33.161	-35817	3838.9	-0.41314	-0.63928	0.62952
3.798	33.157	-35817	3837.7	-0.41373	-0.63928	0.62952
3.8	33.156	-35817	3836.6	-0.41431	-0.63928	0.62952
3.802	33.159	-35812	3835.6	-0.4147	-0.6384	0.62903
3.804	33.164	-35807	3834.6	-0.41509	-0.63752	0.62854
3.806	33.166	-35803	3833.6	-0.41548	-0.63664	0.62806
3.808	33.164	-35798	3832.8	-0.41587	-0.63577	0.62757
3.81	33.162	-35803	3831.9	-0.41626	-0.63489	0.62708
3.812	33.16	-35809	3831.1	-0.41607	-0.63528	0.62698
3.814	33.159	-35799	3830.4	-0.41587	-0.63567	0.62688
3.816	33.158	-35790	3829.8	-0.41568	-0.63606	0.62679
3.818	33.153	-35789	3829.2	-0.41548	-0.63645	0.62669
3.82	33.152	-35789	3828.6	-0.41529	-0.63684	0.62659
3.822	33.156	-35790	3828.1	-0.415	-0.63723	0.62698
3.824	33.158	-35791	3827.6	-0.4147	-0.63762	0.62737
3.826	33.158	-35784	3827.2	-0.41441	-0.63801	0.62776
3.828	33.161	-35776	3826.8	-0.41412	-0.6384	0.62815
3.83	33.171	-35778	3826.5	-0.41382	-0.63879	0.62854
3.832	33.168	-35780	3826.2	-0.4147	-0.63752	0.62864
3.834	33.159	-35778	3825.9	-0.41558	-0.63625	0.62874
3.836	33.163	-35776	3825.6	-0.41646	-0.63499	0.62884
3.838	33.167	-35775	3825.3	-0.41734	-0.63372	0.62893
3.84	33.168	-35774	3825.1	-0.41822	-0.63245	0.62903
3.842	33.162	-35773	3824.8	-0.41744	-0.63333	0.62903
3.844	33.161	-35773	3824.5	-0.41665	-0.6342	0.62903
3.846	33.158	-35775	3824.3	-0.41587	-0.63508	0.62903
3.848	33.154	-35776	3824	-0.41509	-0.63596	0.62903
3.85	33.157	-35770	3823.7	-0.41431	-0.63684	0.62903
3.852	33.156	-35765	3823.3	-0.41363	-0.63733	0.62874
3.854	33.156	-35764	3823	-0.41295	-0.63782	0.62845
3.856	33.154	-35762	3822.6	-0.41226	-0.6383	0.62815
3.858	33.156	-35765	3822.2	-0.41158	-0.63879	0.62786
3.86	33.152	-35767	3821.8	-0.4109	-0.63928	0.62757
3.862	33.15	-35758	3821.2	-0.41041	-0.63957	0.62815
3.864	33.147	-35748	3820.7	-0.40992	-0.63987	0.62874
3.866	33.143	-35750	3820.1	-0.40943	-0.64016	0.62932
3.868	33.153	-35752	3819.4	-0.40894	-0.64045	0.62991
3.87	33.162	-35747	3818.8	-0.40846	-0.64074	0.6305
3.872	33.161	-35743	3818	-0.40807	-0.64055	0.62991
3.874	33.157	-35743	3817.2	-0.40768	-0.64035	0.62932
3.876	33.158	-35743	3816.5	-0.40728	-0.64016	0.62874
3.878	33.158	-35744	3815.7	-0.40689	-0.63996	0.62815
3.88	33.159	-35744	3815	-0.4065	-0.63977	0.62757
3.882	33.158	-35748	3814.2	-0.40602	-0.63957	0.62718
3.884	33.158	-35751	3813.5	-0.40553	-0.63938	0.62679
3.886	33.158	-35749	3812.8	-0.40504	-0.63918	0.6264
3.888	33.16	-35746	3812.2	-0.40455	-0.63899	0.62601
3.89	33.162	-35743	3811.5	-0.40406	-0.63879	0.62562
3.892	33.162	-35740	3811.1	-0.40299	-0.63908	0.62581
3.894	33.162	-35737	3810.6	-0.40192	-0.63938	0.62601
3.896	33.159	-35734	3810.2	-0.40084	-0.63967	0.6262
3.898	33.155	-35735	3809.8	-0.39977	-0.63996	0.6264
3.9	33.156	-35737	3809.5	-0.3987	-0.64026	0.62659
3.902	33.157	-35734	3809.2	-0.40075	-0.64123	0.62757
3.904	33.154	-35731	3809	-0.4028	-0.64221	0.62854
3.906	33.15	-35731	3808.9	-0.40484	-0.64318	0.62952
3.908	33.15	-35732	3808.8	-0.40689	-0.64416	0.6305
3.91	33.155	-35729	3808.7	-0.40894	-0.64514	0.63147
3.912	33.157	-35726	3808.6	-0.40885	-0.64367	0.63128
3.914	33.158	-35728	3808.5	-0.40875	-0.64221	0.63108
3.916	33.158	-35730	3808.6	-0.40865	-0.64074	0.63089
3.918	33.161	-35729	3808.6	-0.40855	-0.63928	0.63069
3.92	33.163	-35728	3808.7	-0.40846	-0.63782	0.6305
3.922	33.164	-35726	3808.9	-0.40797	-0.63879	0.63137
3.924	33.165	-35723	3809	-0.40748	-0.63977	0.63225
3.926	33.163	-35723	3809.2	-0.40699	-0.64074	0.63313
3.928	33.157	-35723	3809.5	-0.4065	-0.64172	0.63401
3.93	33.146	-35726	3809.7	-0.40602	-0.6427	0.63489
3.932	33.148	-35729	3810	-0.4068	-0.64192	0.6344
3.934	33.161	-35728	3810.3	-0.40758	-0.64113	0.63391
3.936	33.164	-35727	3810.6	-0.40836	-0.64035	0.63342
3.938	33.166	-35726	3810.9	-0.40914	-0.63957	0.63294
3.94	33.167	-35725	3811.3	-0.40992	-0.63879	0.63245
3.942	33.16	-35724	3811.7	-0.40982	-0.63869	0.63235
3.944	33.153	-35723	3812	-0.40972	-0.6386	0.63225
3.946	33.149	-35724	3812.4	-0.40963	-0.6385	0.63216
3.948	33.147	-35725	3812.8	-0.40953	-0.6384	0.63206
3.95	33.15	-35720	3813.3	-0.40943	-0.6383	0.63196
3.952	33.15	-35715	3813.6	-0.40982	-0.63899	0.63216
3.954	33.158	-35717	3814	-0.41021	-0.63967	0.63235
3.956	33.163	-35719	3814.4	-0.4106	-0.64035	0.63255
3.958	33.156	-35716	3814.8	-0.41099	-0.64104	0.63274
3.96	33.149	-35713	3815.2	-0.41138	-0.64172	0.63294
3.962	33.152	-35716	3815.5	-0.41109	-0.64113	0.63255
3.964	33.155	-35719	3815.8	-0.4108	-0.64055	0.63216
3.966	33.151	-35714	3816.1	-0.41051	-0.63996	0.63176
3.968	33.15	-35709	3816.4	-0.41021	-0.63938	0.63137
3.97	33.155	-35709	3816.8	-0.40992	-0.63879	0.63098
3.972	33.155	-35710	3817	-0.40992	-0.63928	0.63089
3.974	33.153	-35709	3817.1	-0.40992	-0.63977	0.63079
3.976	33.154	-35708	3817.3	-0.40992	-0.64026	0.63069
3.978	33.157	-35705	3817.4	-0.40992	-0.64074	0.63059
3.98	33.16	-35701	3817.6	-0.40992	-0.64123	0.6305
3.982	33.159	-35703	3817.7	-0.41012	-0.64074	0.6302
3.984	33.153	-35705	3817.8	-0.41031	-0.64026	0.62991
3.986	33.15	-35705	3817.9	-0.41051	-0.63977	0.62962
3.988	33.153	-35705	3818	-0.4107	-0.63928	0.62932
3.99	33.156	-35706	3818	-0.4109	-0.63879	0.62903
3.992	33.158	-35707	3818	-0.41012	-0.63879	0.62893
3.994	33.155	-35703	3817.9	-0.40933	-0.63879	0.62884
3.996	33.149	-35698	3817.8	-0.40855	-0.63879	0.62874
3.998	33.149	-35698	3817.7	-0.40777	-0.63879	0.62864
4	33.15	-35698	3817.6	-0.40699	-0.63879	0.62854
4.002	33.148	-35702	3817.4	-0.40728	-0.63869	0.62825
4.004	33.146	-35706	3817.2	-0.40758	-0.6386	0.62796
4.006	33.146	-35696	3817	-0.40787	-0.6385	0.62767
4.008	33.152	-35687	3816.7	-0.40816	-0.6384	0.62737
4.01	33.153	-35690	3816.5	-0.40846	-0.6383	0.62708
4.012	33.152	-35693	3816.2	-0.40816	-0.6386	0.62757
4.014	33.154	-35694	3815.9	-0.40787	-0.63889	0.62806
4.016	33.159	-35696	3815.5	-0.40758	-0.63918	0.62854
4.018	33.158	-35691	3815.1	-0.40728	-0.63948	0.62903
4.02	33.154	-35685	3814.8	-0.40699	-0.63977	0.62952
4.022	33.151	-35689	3814.3	-0.40689	-0.63967	0.62981
4.024	33.149	-35692	3813.8	-0.4068	-0.63957	0.63011
4.026	33.148	-35688	3813.3	-0.4067	-0.63948	0.6304
4.028	33.153	-35685	3812.8	-0.4066	-0.63938	0.63069
4.03	33.158	-35684	3812.3	-0.4065	-0.63928	0.63098
4.032	33.158	-35682	3811.7	-0.4068	-0.63948	0.63059
4.034	33.151	-35685	3811.1	-0.40709	-0.63967	0.6302
4.036	33.149	-35687	3810.5	-0.40738	-0.63987	0.62981
4.038	33.153	-35688	3809.8	-0.40768	-0.64006	0.62942
4.04	33.156	-35688	3809.2	-0.40797	-0.64026	0.62903
4.042	33.152	-35687	3808.5	-0.40689	-0.63987	0.62962
4.044	33.151	-35685	3807.7	-0.40582	-0.63948	0.6302
4.046	33.154	-35681	3807	-0.40475	-0.63908	0.63079
4.048	33.152	-35678	3806.2	-0.40367	-0.63869	0.63137
4.05	33.15	-35678	3805.4	-0.4026	-0.6383	0.63196
4.052	33.149	-35678	3804.6	-0.40436	-0.63987	0.63157
4.054	33.147	-35679	3803.9	-0.40611	-0.64143	0.63118
4.056	33.148	-35680	3803	-0.40787	-0.64299	0.63079
4.058	33.149	-35683	3802.2	-0.40963	-0.64455	0.6304
4.06	33.144	-35686	3801.3	-0.41138	-0.64611	0.63001
4.062	33.141	-35682	3800.4	-0.41129	-0.64543	0.6304
4.064	33.142	-35679	3799.5	-0.41119	-0.64475	0.63079
4.066	33.145	-35675	3798.5	-0.41109	-0.64406	0.63118
4.068	33.147	-35670	3797.6	-0.41099	-0.64338	0.63157
4.07	33.151	-35674	3796.6	-0.4109	-0.6427	0.63196
4.072	33.153	-35677	3795.7	-0.41051	-0.6424	0.63216
4.074	33.147	-35680	3794.8	-0.41012	-0.64211	0.63235
4.076	33.144	-35682	3793.8	-0.40972	-0.64182	0.63255
4.078	33.149	-35681	3792.9	-0.40933	-0.64152	0.63274
4.08	33.151	-35680	3791.9	-0.40894	-0.64123	0.63294
4.082	33.143	-35682	3790.9	-0.40875	-0.64065	0.63303
4.084	33.143	-35683	3790	-0.40855	-0.64006	0.63313
4.086	33.149	-35681	3789	-0.40836	-0.63948	0.63323
4.088	33.15	-35680	3788	-0.40816	-0.63889	0.63333
4.09	33.149	-35678	3787.1	-0.40797	-0.6383	0.63342
4.092	33.147	-35677	3786.1	-0.40914	-0.63938	0.63333
4.094	33.148	-35672	3785.1	-0.41031	-0.64045	0.63323
4.096	33.147	-35668	3784.1	-0.41148	-0.64152	0.63313
4.098	33.147	-35670	3783.2	-0.41265	-0.6426	0.63303
4.1	33.147	-35673	3782.2	-0.41382	-0.64367	0.63294
4.102	33.149	-35678	3781.3	-0.41285	-0.64309	0.63284
4.104	33.146	-35683	3780.4	-0.41187	-0.6425	0.63274
4.106	33.144	-35680	3779.5	-0.4109	-0.64192	0.63264
4.108	33.148	-35676	3778.6	-0.40992	-0.64133	0.63255
4.11	33.148	-35676	3777.7	-0.40894	-0.64074	0.63245
4.112	33.148	-35676	3776.7	-0.40924	-0.64035	0.63137
4.114	33.148	-35677	3775.8	-0.40953	-0.63996	0.6303
4.116	33.148	-35678	3775	-0.40982	-0.63957	0.62923
4.118	33.144	-35676	3774.1	-0.41012	-0.63918	0.62815
4.12	33.135	-35675	3773.3	-0.41041	-0.63879	0.62708
4.122	33.132	-35679	3772.4	-0.40972	-0.63879	0.62757
4.124	33.139	-35683	3771.6	-0.40904	-0.63879	0.62806
4.126	33.151	-35686	3770.8	-0.40836	-0.63879	0.62854
4.128	33.153	-35690	3770.1	-0.40768	-0.63879	0.62903
4.13	33.148	-35689	3769.4	-0.40699	-0.63879	0.62952
4.132	33.151	-35689	3768.7	-0.40611	-0.63879	0.6304
4.134	33.153	-35687	3768	-0.40524	-0.63879	0.63128
4.136	33.149	-35684	3767.3	-0.40436	-0.63879	0.63216
4.138	33.147	-35683	3766.6	-0.40348	-0.63879	0.63303
4.14	33.144	-35682	3765.9	-0.4026	-0.63879	0.63391
4.142	33.142	-35684	3765.4	-0.40358	-0.63977	0.63352
4.144	33.144	-35686	3764.8	-0.40455	-0.64074	0.63313
4.146	33.151	-35686	3764.2	-0.40553	-0.64172	0.63274
4.148	33.155	-35686	3763.7	-0.4065	-0.6427	0.63235
4.15	33.152	-35690	3763.1	-0.40748	-0.64367	0.63196
4.152	33.144	-35694	3762.6	-0.40689	-0.64172	0.63186
4.154	33.14	-35698	3762.2	-0.40631	-0.63977	0.63176
4.156	33.138	-35702	3761.7	-0.40572	-0.63782	0.63167
4.158	33.137	-35704	3761.3	-0.40514	-0.63586	0.63157
4.16	33.137	-35706	3760.8	-0.40455	-0.63391	0.63147
4.162	33.141	-35707	3760.5	-0.40533	-0.63518	0.63137
4.164	33.145	-35708	3760.1	-0.40611	-0.63645	0.63128
4.166	33.151	-35706	3759.8	-0.40689	-0.63772	0.63118
4.168	33.152	-35704	3759.5	-0.40768	-0.63899	0.63108
4.17	33.148	-35704	3759.2	-0.40846	-0.64026	0.63098
4.172	33.153	-35705	3758.9	-0.40914	-0.64026	0.63089
4.174	33.155	-35705	3758.7	-0.40982	-0.64026	0.63079
4.176	33.151	-35705	3758.5	-0.41051	-0.64026	0.63069
4.178	33.148	-35705	3758.2	-0.41119	-0.64026	0.63059
4.18	33.15	-35705	3758	-0.41187	-0.64026	0.6305
4.182	33.15	-35711	3757.9	-0.41099	-0.63996	0.62991
4.184	33.147	-35717	3757.7	-0.41012	-0.63967	0.62932
4.186	33.146	-35719	3757.5	-0.40924	-0.63938	0.62874
4.188	33.143	-35721	3757.3	-0.40836	-0.63908	0.62815
4.19	33.145	-35719	3757.1	-0.40748	-0.63879	0.62757
4.192	33.145	-35716	3757	-0.40768	-0.63918	0.62854
4.194	33.139	-35717	3756.9	-0.40787	-0.63957	0.62952
4.196	33.135	-35718	3756.9	-0.40807	-0.63996	0.6305
4.198	33.141	-35720	3756.8	-0.40826	-0.64035	0.63147
4.2	33.143	-35721	3756.7	-0.40846	-0.64074	0.63245
4.202	33.14	-35720	3756.6	-0.40797	-0.64026	0.63216
4.204	33.138	-35719	3756.5	-0.40748	-0.63977	0.63186
4.206	33.137	-35717	3756.4	-0.40699	-0.63928	0.63157
4.208	33.139	-35714	3756.3	-0.4065	-0.63879	0.63128
4.21	33.145	-35720	3756.3	-0.40602	-0.6383	0.63098
4.212	33.143	-35727	3756.2	-0.40689	-0.63957	0.63128
4.214	33.14	-35729	3756.1	-0.40777	-0.64084	0.63157
4.216	33.143	-35730	3756	-0.40865	-0.64211	0.63186
4.218	33.141	-35731	3756	-0.40953	-0.64338	0.63216
4.22	33.139	-35732	3756	-0.41041	-0.64465	0.63245
4.222	33.139	-35728	3755.9	-0.40963	-0.64377	0.63245
4.224	33.142	-35724	3755.8	-0.40885	-0.64289	0.63245
4.226	33.139	-35722	3755.8	-0.40807	-0.64201	0.63245
4.228	33.132	-35720	3755.7	-0.40728	-0.64113	0.63245
4.23	33.131	-35724	3755.7	-0.4065	-0.64026	0.63245
4.232	33.134	-35727	3755.6	-0.40709	-0.64074	0.63264
4.234	33.138	-35733	3755.5	-0.40768	-0.64123	0.63284
4.236	33.139	-35740	3755.4	-0.40826	-0.64172	0.63303
4.238	33.138	-35739	3755.3	-0.40885	-0.64221	0.63323
4.24	33.136	-35737	3755.3	-0.40943	-0.6427	0.63342
4.242	33.133	-35739	3755.2	-0.40992	-0.64221	0.63313
4.244	33.129	-35741	3755.1	-0.41041	-0.64172	0.63284
4.246	33.131	-35741	3755	-0.4109	-0.64123	0.63255
4.248	33.135	-35741	3754.9	-0.41138	-0.64074	0.63225
4.25	33.135	-35742	3754.8	-0.41187	-0.64026	0.63196
4.252	33.132	-35744	3754.7	-0.41099	-0.64094	0.63284
4.254	33.133	-35742	3754.6	-0.41012	-0.64162	0.63372
4.256	33.137	-35739	3754.5	-0.40924	-0.64231	0.6346
4.258	33.137	-35742	3754.4	-0.40836	-0.64299	0.63547
4.26	33.135	-35744	3754.2	-0.40748	-0.64367	0.63635
4.262	33.132	-35747	3754.1	-0.40826	-0.64309	0.63508
4.264	33.13	-35749	3753.9	-0.40904	-0.6425	0.63381
4.266	33.135	-35752	3753.7	-0.40982	-0.64192	0.63255
4.268	33.141	-35755	3753.5	-0.4106	-0.64133	0.63128
4.27	33.141	-35753	3753.3	-0.41138	-0.64074	0.63001
4.272	33.139	-35750	3753.1	-0.41119	-0.64143	0.6305
4.274	33.135	-35751	3752.9	-0.41099	-0.64211	0.63098
4.276	33.134	-35753	3752.7	-0.4108	-0.64279	0.63147
4.278	33.136	-35748	3752.5	-0.4106	-0.64348	0.63196
4.28	33.134	-35744	3752.3	-0.41041	-0.64416	0.63245
4.282	33.137	-35750	3752	-0.40992	-0.64289	0.63255
4.284	33.136	-35756	3751.8	-0.40943	-0.64162	0.63264
4.286	33.14	-35758	3751.5	-0.40894	-0.64035	0.63274
4.288	33.142	-35761	3751.2	-0.40846	-0.63908	0.63284
4.29	33.143	-35767	3750.9	-0.40797	-0.63782	0.63294
4.292	33.145	-35774	3750.6	-0.40875	-0.63879	0.63255
4.294	33.15	-35769	3750.3	-0.40953	-0.63977	0.63216
4.296	33.151	-35764	3750	-0.41031	-0.64074	0.63176
4.298	33.15	-35767	3749.7	-0.41109	-0.64172	0.63137
4.3	33.155	-35771	3749.4	-0.41187	-0.6427	0.63098
4.302	33.162	-35770	3749	-0.41158	-0.64289	0.63128
4.304	33.167	-35770	3748.7	-0.41129	-0.64309	0.63157
4.306	33.172	-35770	3748.3	-0.41099	-0.64328	0.63186
4.308	33.182	-35770	3748	-0.4107	-0.64348	0.63216
4.31	33.187	-35771	3747.6	-0.41041	-0.64367	0.63245
4.312	33.183	-35772	3747.3	-0.4106	-0.64338	0.63196
4.314	33.175	-35773	3746.9	-0.4108	-0.64309	0.63147
4.316	33.172	-35774	3746.5	-0.41099	-0.64279	0.63098
4.318	33.172	-35778	3746.1	-0.41119	-0.6425	0.6305
4.32	33.171	-35782	3745.7	-0.41138	-0.64221	0.63001
4.322	33.168	-35786	3745.3	-0.41099	-0.64201	0.6302
4.324	33.166	-35790	3744.9	-0.4106	-0.64182	0.6304
4.326	33.173	-35790	3744.5	-0.41021	-0.64162	0.63059
4.328	33.18	-35790	3744.1	-0.40982	-0.64143	0.63079
4.33	33.184	-35787	3743.7	-0.40943	-0.64123	0.63098
4.332	33.186	-35785	3743.3	-0.40894	-0.64113	0.63137
4.334	33.183	-35789	3742.8	-0.40846	-0.64104	0.63176
4.336	33.178	-35792	3742.4	-0.40797	-0.64094	0.63216
4.338	33.177	-35787	3742	-0.40748	-0.64084	0.63255
4.34	33.181	-35782	3741.5	-0.40699	-0.64074	0.63294
4.342	33.183	-35787	3741.1	-0.4066	-0.64006	0.63294
4.344	33.184	-35792	3740.6	-0.40621	-0.63938	0.63294
4.346	33.178	-35792	3740.1	-0.40582	-0.63869	0.63294
4.348	33.171	-35792	3739.6	-0.40543	-0.63801	0.63294
4.35	33.168	-35789	3739.1	-0.40504	-0.63733	0.63294
4.352	33.16	-35785	3738.6	-0.40494	-0.63723	0.63294
4.354	33.15	-35792	3738.2	-0.40484	-0.63713	0.63294
4.356	33.141	-35799	3737.6	-0.40475	-0.63704	0.63294
4.358	33.139	-35799	3737.1	-0.40465	-0.63694	0.63294
4.36	33.131	-35800	3736.6	-0.40455	-0.63684	0.63294
4.362	33.124	-35798	3736	-0.40484	-0.63772	0.63303
4.364	33.117	-35796	3735.5	-0.40514	-0.6386	0.63313
4.366	33.113	-35794	3735	-0.40543	-0.63948	0.63323
4.368	33.111	-35793	3734.4	-0.40572	-0.64035	0.63333
4.37	33.112	-35792	3733.8	-0.40602	-0.64123	0.63342
4.372	33.115	-35792	3733.2	-0.40592	-0.64094	0.63303
4.374	33.119	-35800	3732.7	-0.40582	-0.64065	0.63264
4.376	33.119	-35808	3732.1	-0.40572	-0.64035	0.63225
4.378	33.117	-35813	3731.5	-0.40563	-0.64006	0.63186
4.38	33.119	-35817	3730.9	-0.40553	-0.63977	0.63147
4.382	33.12	-35813	3730.3	-0.40621	-0.64006	0.63147
4.384	33.125	-35809	3729.7	-0.40689	-0.64035	0.63147
4.386	33.128	-35814	3729.1	-0.40758	-0.64065	0.63147
4.388	33.126	-35819	3728.6	-0.40826	-0.64094	0.63147
4.39	33.125	-35823	3728.1	-0.40894	-0.64123	0.63147
4.392	33.124	-35827	3727.5	-0.40875	-0.64192	0.63206
4.394	33.121	-35824	3727	-0.40855	-0.6426	0.63264
4.396	33.115	-35820	3726.4	-0.40836	-0.64328	0.63323
4.398	33.11	-35825	3725.8	-0.40816	-0.64396	0.63381
4.4	33.114	-35831	3725.2	-0.40797	-0.64465	0.6344
4.402	33.124	-35828	3724.6	-0.40846	-0.64396	0.63372
4.404	33.134	-35825	3724.1	-0.40894	-0.64328	0.63303
4.406	33.141	-35822	3723.6	-0.40943	-0.6426	0.63235
4.408	33.147	-35818	3723.1	-0.40992	-0.64192	0.63167
4.41	33.151	-35833	3722.6	-0.41041	-0.64123	0.63098
4.412	33.151	-35847	3722	-0.41031	-0.64123	0.63128
4.414	33.151	-35840	3721.5	-0.41021	-0.64123	0.63157
4.416	33.155	-35833	3721	-0.41012	-0.64123	0.63186
4.418	33.157	-35838	3720.5	-0.41002	-0.64123	0.63216
4.42	33.155	-35842	3720	-0.40992	-0.64123	0.63245
4.422	33.152	-35847	3719.5	-0.40953	-0.64133	0.63225
4.424	33.155	-35852	3719	-0.40914	-0.64143	0.63206
4.426	33.167	-35846	3718.6	-0.40875	-0.64152	0.63186
4.428	33.19	-35840	3718.1	-0.40836	-0.64162	0.63167
4.43	33.218	-35844	3717.7	-0.40797	-0.64172	0.63147
4.432	33.244	-35849	3717.2	-0.40865	-0.64192	0.63206
4.434	33.261	-35852	3716.7	-0.40933	-0.64211	0.63264
4.436	33.272	-35855	3716.2	-0.41002	-0.64231	0.63323
4.438	33.272	-35855	3715.8	-0.4107	-0.6425	0.63381
4.44	33.256	-35854	3715.3	-0.41138	-0.6427	0.6344
4.442	33.232	-35855	3714.9	-0.4108	-0.64201	0.63372
4.444	33.204	-35855	3714.5	-0.41021	-0.64133	0.63303
4.446	33.162	-35861	3714	-0.40963	-0.64065	0.63235
4.448	33.119	-35867	3713.6	-0.40904	-0.63996	0.63167
4.45	33.079	-35870	3713.2	-0.40846	-0.63928	0.63098
4.452	33.04	-35873	3712.8	-0.40836	-0.63908	0.63059
4.454	33.013	-35870	3712.4	-0.40826	-0.63889	0.6302
4.456	33	-35867	3712	-0.40816	-0.63869	0.62981
4.458	33.007	-35872	3711.6	-0.40807	-0.6385	0.62942
4.46	33.014	-35877	3711.2	-0.40797	-0.6383	0.62903
4.462	33.031	-35878	3710.8	-0.40836	-0.63879	0.62923
4.464	33.06	-35879	3710.5	-0.40875	-0.63928	0.62942
4.466	33.082	-35887	3710.2	-0.40914	-0.63977	0.62962
4.468	33.092	-35896	3709.8	-0.40953	-0.64026	0.62981
4.47	33.096	-35886	3709.5	-0.40992	-0.64074	0.63001
4.472	33.101	-35875	3709.1	-0.40933	-0.64035	0.62903
4.474	33.106	-35883	3708.8	-0.40875	-0.63996	0.62806
4.476	33.115	-35891	3708.4	-0.40816	-0.63957	0.62708
4.478	33.126	-35886	3708.1	-0.40758	-0.63918	0.6261
4.48	33.132	-35880	3707.8	-0.40699	-0.63879	0.62513
4.482	33.133	-35888	3707.5	-0.40758	-0.63899	0.62571
4.484	33.13	-35896	3707.2	-0.40816	-0.63918	0.6263
4.486	33.132	-35895	3706.9	-0.40875	-0.63938	0.62688
4.488	33.138	-35894	3706.6	-0.40933	-0.63957	0.62747
4.49	33.141	-35897	3706.3	-0.40992	-0.63977	0.62806
4.492	33.143	-35899	3706.1	-0.40933	-0.64016	0.62864
4.494	33.143	-35896	3705.8	-0.40875	-0.64055	0.62923
4.496	33.142	-35893	3705.5	-0.40816	-0.64094	0.62981
4.498	33.14	-35900	3705.3	-0.40758	-0.64133	0.6304
4.5	33.132	-35908	3705	-0.40699	-0.64172	0.63098
4.502	33.121	-35908	3704.7	-0.40787	-0.64211	0.63118
4.504	33.116	-35909	3704.4	-0.40875	-0.6425	0.63137
4.506	33.118	-35909	3704.2	-0.40963	-0.64289	0.63157
4.508	33.116	-35910	3703.9	-0.41051	-0.64328	0.63176
4.51	33.114	-35911	3703.7	-0.41138	-0.64367	0.63196
4.512	33.116	-35912	3703.4	-0.41002	-0.64289	0.63157
4.514	33.121	-35911	3703.2	-0.40865	-0.64211	0.63118
4.516	33.122	-35911	3703	-0.40728	-0.64133	0.63079
4.518	33.127	-35910	3702.7	-0.40592	-0.64055	0.6304
4.52	33.13	-35910	3702.5	-0.40455	-0.63977	0.63001
4.522	33.133	-35913	3702.3	-0.40406	-0.64016	0.63118
4.524	33.134	-35915	3702	-0.40358	-0.64055	0.63235
4.526	33.129	-35922	3701.8	-0.40309	-0.64094	0.63352
4.528	33.128	-35929	3701.6	-0.4026	-0.64133	0.63469
4.53	33.129	-35924	3701.3	-0.40211	-0.64172	0.63586
4.532	33.129	-35919	3701.1	-0.40289	-0.64182	0.63577
4.534	33.126	-35923	3700.8	-0.40367	-0.64192	0.63567
4.536	33.127	-35926	3700.5	-0.40445	-0.64201	0.63557
4.538	33.126	-35932	3700.2	-0.40524	-0.64211	0.63547
4.54	33.13	-35938	3699.9	-0.40602	-0.64221	0.63538
4.542	33.127	-35942	3699.5	-0.40524	-0.64094	0.6345
4.544	33.123	-35945	3699.1	-0.40445	-0.63967	0.63362
4.546	33.123	-35943	3698.7	-0.40367	-0.6384	0.63274
4.548	33.123	-35941	3698.3	-0.40289	-0.63713	0.63186
4.55	33.125	-35944	3697.9	-0.40211	-0.63586	0.63098
4.552	33.13	-35946	3697.5	-0.40397	-0.63655	0.63108
4.554	33.136	-35950	3697	-0.40582	-0.63723	0.63118
4.556	33.136	-35953	3696.5	-0.40768	-0.63791	0.63128
4.558	33.129	-35958	3696	-0.40953	-0.6386	0.63137
4.56	33.121	-35964	3695.4	-0.41138	-0.63928	0.63147
4.562	33.12	-35963	3694.8	-0.41051	-0.6383	0.63079
4.564	33.121	-35963	3694.2	-0.40963	-0.63733	0.63011
4.566	33.126	-35968	3693.6	-0.40875	-0.63635	0.62942
4.568	33.135	-35973	3692.9	-0.40787	-0.63538	0.62874
4.57	33.136	-35970	3692.2	-0.40699	-0.6344	0.62806
4.572	33.131	-35966	3691.5	-0.40719	-0.63557	0.62845
4.574	33.13	-35966	3690.8	-0.40738	-0.63674	0.62884
4.576	33.132	-35965	3690	-0.40758	-0.63791	0.62923
4.578	33.129	-35976	3689.2	-0.40777	-0.63908	0.62962
4.58	33.126	-35987	3688.4	-0.40797	-0.64026	0.63001
4.582	33.122	-35981	3687.6	-0.40641	-0.63908	0.62893
4.584	33.118	-35975	3686.8	-0.40484	-0.63791	0.62786
4.586	33.119	-35975	3686.1	-0.40328	-0.63674	0.62679
4.588	33.128	-35975	3685.3	-0.40172	-0.63557	0.62571
4.59	33.133	-35977	3684.6	-0.40016	-0.6344	0.62464
4.592	33.13	-35980	3684	-0.39977	-0.63616	0.62552
4.594	33.126	-35981	3683.4	-0.39938	-0.63791	0.6264
