t	ekg	optical	pressure	accel_x	accel_y	accel_z
0	19.666	-34711	2477.7	-0.29075	-0.95619	0.14162
0.002	19.661	-34709	2477.6	-0.29163	-0.95638	0.14074
0.004	19.666	-34707	2477.5	-0.29251	-0.95658	0.13986
0.006	19.668	-34704	2477.3	-0.29339	-0.95677	0.13898
0.008	19.668	-34704	2477.2	-0.29426	-0.95697	0.1381
0.01	19.67	-34703	2477.2	-0.29514	-0.95716	0.13723
0.012	19.672	-34704	2477.2	-0.29602	-0.95736	0.13635
0.014	19.66	-34706	2477.1	-0.2969	-0.95755	0.13547
0.016	19.645	-34702	2477.1	-0.29778	-0.95775	0.13459
0.018	19.647	-34699	2477	-0.29866	-0.95794	0.13371
0.02	19.654	-34696	2477	-0.297	-0.95736	0.13537
0.022	19.654	-34693	2477	-0.29534	-0.95677	0.13703
0.024	19.65	-34697	2477.1	-0.29368	-0.95619	0.13869
0.026	19.646	-34700	2477.1	-0.29202	-0.9556	0.14035
0.028	19.653	-34702	2477.2	-0.29036	-0.95502	0.14201
0.03	19.669	-34704	2477.1	-0.29056	-0.95443	0.14181
0.032	19.661	-34702	2477.1	-0.29075	-0.95384	0.14162
0.034	19.649	-34699	2477.1	-0.29095	-0.95326	0.14142
0.036	19.659	-34703	2477.1	-0.29114	-0.95267	0.14123
0.038	19.668	-34707	2477.1	-0.29134	-0.95209	0.14103
0.04	19.66	-34710	2477.1	-0.29056	-0.9517	0.14162
0.042	19.653	-34712	2477	-0.28977	-0.95131	0.1422
0.044	19.657	-34706	2477	-0.28899	-0.95092	0.14279
0.046	19.665	-34700	2476.9	-0.28821	-0.95053	0.14337
0.048	19.675	-34701	2476.9	-0.28743	-0.95014	0.14396
0.05	19.676	-34702	2476.9	-0.28724	-0.94965	0.14279
0.052	19.673	-34707	2476.9	-0.28704	-0.94916	0.14162
0.054	19.664	-34713	2477	-0.28685	-0.94867	0.14045
0.056	19.663	-34709	2477	-0.28665	-0.94818	0.13928
0.058	19.665	-34705	2477	-0.28646	-0.9477	0.1381
0.06	19.662	-34706	2477	-0.28655	-0.9477	0.1382
0.062	19.659	-34706	2477.1	-0.28665	-0.9477	0.1383
0.064	19.652	-34706	2477.1	-0.28675	-0.9477	0.1384
0.066	19.648	-34707	2477.2	-0.28685	-0.9477	0.13849
0.068	19.654	-34707	2477.2	-0.28694	-0.9477	0.13859
0.07	19.665	-34708	2477.3	-0.28685	-0.94692	0.1381
0.072	19.665	-34706	2477.3	-0.28675	-0.94613	0.13762
0.074	19.663	-34705	2477.4	-0.28665	-0.94535	0.13713
0.076	19.66	-34705	2477.5	-0.28655	-0.94457	0.13664
0.078	19.646	-34706	2477.6	-0.28646	-0.94379	0.13615
0.08	19.641	-34710	2477.7	-0.28528	-0.94438	0.13547
0.082	19.642	-34714	2477.7	-0.28411	-0.94496	0.13479
0.084	19.654	-34713	2477.8	-0.28294	-0.94555	0.1341
0.086	19.657	-34713	2477.9	-0.28177	-0.94613	0.13342
0.088	19.653	-34706	2478	-0.2806	-0.94672	0.13274
0.09	19.646	-34699	2478.1	-0.28158	-0.94633	0.13303
0.092	19.644	-34705	2478.2	-0.28255	-0.94594	0.13332
0.094	19.632	-34711	2478.2	-0.28353	-0.94555	0.13361
0.096	19.641	-34710	2478.3	-0.2845	-0.94516	0.13391
0.098	19.663	-34708	2478.4	-0.28548	-0.94477	0.1342
0.1	19.663	-34709	2478.5	-0.28607	-0.94545	0.13488
0.102	19.652	-34710	2478.6	-0.28665	-0.94613	0.13557
0.104	19.643	-34716	2478.8	-0.28724	-0.94682	0.13625
0.106	19.637	-34721	2478.9	-0.28782	-0.9475	0.13693
0.108	19.644	-34717	2479	-0.28841	-0.94818	0.13762
0.11	19.647	-34713	2479.1	-0.29026	-0.94857	0.13752
0.112	19.644	-34713	2479.2	-0.29212	-0.94896	0.13742
0.114	19.643	-34714	2479.3	-0.29397	-0.94936	0.13732
0.116	19.648	-34712	2479.3	-0.29583	-0.94975	0.13723
0.118	19.655	-34710	2479.3	-0.29768	-0.95014	0.13713
0.12	19.658	-34714	2479.4	-0.29768	-0.95062	0.13703
0.122	19.657	-34718	2479.4	-0.29768	-0.95111	0.13693
0.124	19.653	-34721	2479.4	-0.29768	-0.9516	0.13684
0.126	19.651	-34724	2479.4	-0.29768	-0.95209	0.13674
0.128	19.65	-34726	2479.5	-0.29768	-0.95258	0.13664
0.13	19.642	-34729	2479.4	-0.29856	-0.95072	0.13654
0.132	19.627	-34730	2479.4	-0.29944	-0.94887	0.13644
0.134	19.613	-34730	2479.4	-0.30032	-0.94701	0.13635
0.136	19.612	-34729	2479.3	-0.30119	-0.94516	0.13625
0.138	19.64	-34728	2479.3	-0.30207	-0.9433	0.13615
0.14	19.672	-34730	2479.2	-0.30207	-0.9436	0.13547
0.142	19.668	-34733	2479.2	-0.30207	-0.94389	0.13479
0.144	19.662	-34731	2479.1	-0.30207	-0.94418	0.1341
0.146	19.659	-34728	2479	-0.30207	-0.94448	0.13342
0.148	19.644	-34725	2478.9	-0.30207	-0.94477	0.13274
0.15	19.646	-34722	2478.8	-0.3009	-0.94487	0.13293
0.152	19.648	-34725	2478.7	-0.29973	-0.94496	0.13313
0.154	19.648	-34729	2478.6	-0.29856	-0.94506	0.13332
0.156	19.661	-34728	2478.5	-0.29739	-0.94516	0.13352
0.158	19.664	-34728	2478.4	-0.29622	-0.94526	0.13371
0.16	19.653	-34726	2478.3	-0.29612	-0.94545	0.13313
0.162	19.655	-34724	2478.3	-0.29602	-0.94565	0.13254
0.164	19.655	-34722	2478.2	-0.29592	-0.94584	0.13196
0.166	19.65	-34721	2478.2	-0.29583	-0.94604	0.13137
0.168	19.67	-34724	2478.2	-0.29573	-0.94623	0.13078
0.17	19.676	-34727	2478.1	-0.29602	-0.94623	0.13137
0.172	19.671	-34731	2478.1	-0.29631	-0.94623	0.13196
0.174	19.656	-34735	2478	-0.29661	-0.94623	0.13254
0.176	19.638	-34735	2477.9	-0.2969	-0.94623	0.13313
0.178	19.638	-34735	2477.8	-0.29719	-0.94623	0.13371
0.18	19.662	-34734	2477.7	-0.29622	-0.94623	0.13303
0.182	19.673	-34733	2477.6	-0.29524	-0.94623	0.13235
0.184	19.66	-34731	2477.5	-0.29426	-0.94623	0.13166
0.186	19.658	-34729	2477.3	-0.29329	-0.94623	0.13098
0.188	19.657	-34729	2477.1	-0.29231	-0.94623	0.1303
0.19	19.644	-34728	2476.9	-0.29329	-0.94672	0.13137
0.192	19.631	-34728	2476.7	-0.29426	-0.94721	0.13244
0.194	19.642	-34729	2476.6	-0.29524	-0.9477	0.13352
0.196	19.664	-34729	2476.5	-0.29622	-0.94818	0.13459
0.198	19.666	-34728	2476.4	-0.29719	-0.94867	0.13566
0.2	19.653	-34726	2476.3	-0.29631	-0.94945	0.13537
0.202	19.648	-34724	2476.2	-0.29544	-0.95023	0.13508
0.204	19.654	-34728	2476.1	-0.29456	-0.95101	0.13479
0.206	19.668	-34731	2476	-0.29368	-0.9518	0.13449
0.208	19.669	-34734	2475.9	-0.2928	-0.95258	0.1342
0.21	19.662	-34736	2475.8	-0.29153	-0.95082	0.13352
0.212	19.657	-34740	2475.7	-0.29026	-0.94906	0.13283
0.214	19.65	-34743	2475.6	-0.28899	-0.94731	0.13215
0.216	19.652	-34744	2475.5	-0.28772	-0.94555	0.13147
0.218	19.659	-34745	2475.4	-0.28646	-0.94379	0.13078
0.22	19.656	-34743	2475.3	-0.2846	-0.94545	0.13059
0.222	19.646	-34741	2475.2	-0.28275	-0.94711	0.13039
0.224	19.642	-34742	2475.1	-0.28089	-0.94877	0.1302
0.226	19.64	-34744	2474.8	-0.27904	-0.95043	0.13
0.228	19.645	-34743	2474.6	-0.27718	-0.95209	0.12981
0.23	19.664	-34743	2474.5	-0.27894	-0.95189	0.12903
0.232	19.673	-34742	2474.3	-0.2807	-0.9517	0.12825
0.234	19.678	-34741	2474.2	-0.28245	-0.9515	0.12747
0.236	19.679	-34746	2474.1	-0.28421	-0.95131	0.12668
0.238	19.668	-34750	2474	-0.28597	-0.95111	0.1259
0.24	19.663	-34749	2473.9	-0.28577	-0.9517	0.12493
0.242	19.663	-34748	2473.8	-0.28558	-0.95228	0.12395
0.244	19.677	-34748	2473.7	-0.28538	-0.95287	0.12298
0.246	19.699	-34748	2473.7	-0.28519	-0.95345	0.122
0.248	19.702	-34749	2473.7	-0.28499	-0.95404	0.12102
0.25	19.698	-34751	2473.7	-0.28431	-0.95404	0.12171
0.252	19.682	-34749	2473.7	-0.28363	-0.95404	0.12239
0.254	19.685	-34748	2473.7	-0.28294	-0.95404	0.12307
0.256	19.695	-34747	2473.8	-0.28226	-0.95404	0.12376
0.258	19.7	-34746	2473.9	-0.28158	-0.95404	0.12444
0.26	19.71	-34747	2474	-0.27992	-0.95297	0.12493
0.262	19.708	-34748	2474.1	-0.27826	-0.95189	0.12542
0.264	19.706	-34750	2474.1	-0.2766	-0.95082	0.1259
0.266	19.704	-34752	2474.1	-0.27494	-0.94975	0.12639
0.268	19.699	-34754	2474.2	-0.27328	-0.94867	0.12688
0.27	19.697	-34757	2474.1	-0.27201	-0.94887	0.12805
0.272	19.701	-34756	2474.1	-0.27074	-0.94906	0.12922
0.274	19.702	-34756	2474	-0.26947	-0.94926	0.13039
0.276	19.695	-34756	2473.9	-0.2682	-0.94945	0.13156
0.278	19.691	-34755	2473.8	-0.26694	-0.94965	0.13274
0.28	19.696	-34759	2473.8	-0.26703	-0.94877	0.13205
0.282	19.702	-34762	2473.7	-0.26713	-0.94789	0.13137
0.284	19.708	-34767	2473.7	-0.26723	-0.94701	0.13069
0.286	19.704	-34773	2473.6	-0.26733	-0.94613	0.13
0.288	19.7	-34771	2473.5	-0.26742	-0.94526	0.12932
0.29	19.709	-34770	2473.5	-0.26928	-0.94662	0.13088
0.292	19.71	-34769	2473.5	-0.27113	-0.94799	0.13244
0.294	19.698	-34768	2473.6	-0.27299	-0.94936	0.134
0.296	19.696	-34764	2473.7	-0.27484	-0.95072	0.13557
0.298	19.711	-34760	2473.8	-0.2767	-0.95209	0.13713
0.3	19.722	-34762	2473.8	-0.27865	-0.95101	0.13713
0.302	19.712	-34764	2473.9	-0.2806	-0.94994	0.13713
0.304	19.701	-34766	2474	-0.28255	-0.94887	0.13713
0.306	19.694	-34768	2474	-0.2845	-0.94779	0.13713
0.308	19.693	-34764	2474.1	-0.28646	-0.94672	0.13713
0.31	19.692	-34761	2474.2	-0.28597	-0.94643	0.13693
0.312	19.695	-34763	2474.3	-0.28548	-0.94613	0.13674
0.314	19.688	-34765	2474.4	-0.28499	-0.94584	0.13654
0.316	19.684	-34774	2474.4	-0.2845	-0.94555	0.13635
0.318	19.683	-34782	2474.5	-0.28402	-0.94526	0.13615
0.32	19.67	-34783	2474.5	-0.28421	-0.94526	0.13654
0.322	19.659	-34784	2474.5	-0.28441	-0.94526	0.13693
0.324	19.661	-34780	2474.5	-0.2846	-0.94526	0.13732
0.326	19.668	-34776	2474.5	-0.2848	-0.94526	0.13771
0.328	19.666	-34773	2474.5	-0.28499	-0.94526	0.1381
0.33	19.654	-34770	2474.6	-0.2846	-0.94535	0.13762
0.332	19.645	-34775	2474.7	-0.28421	-0.94545	0.13713
0.334	19.638	-34779	2474.8	-0.28382	-0.94555	0.13664
0.336	19.646	-34781	2474.9	-0.28343	-0.94565	0.13615
0.338	19.672	-34783	2475	-0.28304	-0.94574	0.13566
0.34	19.678	-34779	2475.1	-0.28421	-0.94623	0.13615
0.342	19.679	-34775	2475.1	-0.28538	-0.94672	0.13664
0.344	19.671	-34780	2475.2	-0.28655	-0.94721	0.13713
0.346	19.659	-34785	2475.3	-0.28772	-0.9477	0.13762
0.348	19.652	-34787	2475.3	-0.2889	-0.94818	0.1381
0.35	19.655	-34790	2475.4	-0.28909	-0.94828	0.13849
0.352	19.66	-34787	2475.4	-0.28929	-0.94838	0.13888
0.354	19.651	-34784	2475.4	-0.28948	-0.94848	0.13928
0.356	19.649	-34785	2475.4	-0.28968	-0.94857	0.13967
0.358	19.657	-34786	2475.4	-0.28987	-0.94867	0.14006
0.36	19.669	-34784	2475.4	-0.28997	-0.94857	0.13976
0.362	19.676	-34782	2475.4	-0.29007	-0.94848	0.13947
0.364	19.664	-34789	2475.4	-0.29016	-0.94838	0.13918
0.366	19.654	-34795	2475.4	-0.29026	-0.94828	0.13888
0.368	19.669	-34791	2475.4	-0.29036	-0.94818	0.13859
0.37	19.689	-34786	2475.4	-0.28987	-0.9477	0.13849
0.372	19.691	-34791	2475.4	-0.28938	-0.94721	0.1384
0.374	19.687	-34797	2475.4	-0.2889	-0.94672	0.1383
0.376	19.685	-34797	2475.4	-0.28841	-0.94623	0.1382
0.378	19.683	-34797	2475.3	-0.28792	-0.94574	0.1381
0.38	19.681	-34800	2475.3	-0.2886	-0.94682	0.1381
0.382	19.684	-34802	2475.2	-0.28929	-0.94789	0.1381
0.384	19.692	-34798	2475.2	-0.28997	-0.94896	0.1381
0.386	19.706	-34793	2475.2	-0.29065	-0.95004	0.1381
0.388	19.724	-34789	2475.1	-0.29134	-0.95111	0.1381
0.39	19.745	-34786	2475.1	-0.29104	-0.95004	0.13791
0.392	19.772	-34786	2475	-0.29075	-0.94896	0.13771
0.394	19.794	-34787	2474.9	-0.29046	-0.94789	0.13752
0.396	19.795	-34787	2474.9	-0.29016	-0.94682	0.13732
0.398	19.794	-34787	2474.8	-0.28987	-0.94574	0.13713
0.4	19.791	-34797	2474.8	-0.28753	-0.94652	0.13644
0.402	19.777	-34807	2474.7	-0.28519	-0.94731	0.13576
0.404	19.756	-34809	2474.6	-0.28284	-0.94809	0.13508
0.406	19.716	-34811	2474.6	-0.2805	-0.94887	0.1344
0.408	19.669	-34805	2474.5	-0.27816	-0.94965	0.13371
0.41	19.639	-34799	2474.5	-0.27982	-0.94906	0.13391
0.412	19.604	-34807	2474.4	-0.28148	-0.94848	0.1341
0.414	19.568	-34816	2474.4	-0.28314	-0.94789	0.1343
0.416	19.532	-34816	2474.3	-0.2848	-0.94731	0.13449
0.418	19.513	-34816	2474.2	-0.28646	-0.94672	0.13469
0.42	19.513	-34814	2474.1	-0.28636	-0.94643	0.13527
0.422	19.53	-34812	2474	-0.28626	-0.94613	0.13586
0.424	19.548	-34808	2473.9	-0.28616	-0.94584	0.13644
0.426	19.553	-34805	2473.9	-0.28607	-0.94555	0.13703
0.428	19.558	-34807	2473.8	-0.28597	-0.94526	0.13762
0.43	19.565	-34810	2473.8	-0.2847	-0.94711	0.13644
0.432	19.594	-34806	2473.7	-0.28343	-0.94896	0.13527
0.434	19.635	-34803	2473.7	-0.28216	-0.95082	0.1341
0.436	19.64	-34811	2473.7	-0.28089	-0.95267	0.13293
0.438	19.63	-34819	2473.6	-0.27962	-0.95453	0.13176
0.44	19.62	-34821	2473.6	-0.27855	-0.95453	0.13166
0.442	19.629	-34822	2473.5	-0.27748	-0.95453	0.13156
0.444	19.635	-34823	2473.5	-0.2764	-0.95453	0.13147
0.446	19.64	-34823	2473.4	-0.27533	-0.95453	0.13137
0.448	19.654	-34823	2473.3	-0.27426	-0.95453	0.13127
0.45	19.645	-34823	2473.2	-0.27533	-0.95424	0.13215
0.452	19.634	-34820	2473.1	-0.2764	-0.95394	0.13303
0.454	19.629	-34816	2473.1	-0.27748	-0.95365	0.13391
0.456	19.615	-34814	2472.9	-0.27855	-0.95336	0.13479
0.458	19.601	-34813	2472.8	-0.27962	-0.95306	0.13566
0.46	19.606	-34822	2472.8	-0.27875	-0.95355	0.134
0.462	19.619	-34831	2472.7	-0.27787	-0.95404	0.13235
0.464	19.623	-34831	2472.6	-0.27699	-0.95453	0.13069
0.466	19.62	-34830	2472.6	-0.27611	-0.95502	0.12903
0.468	19.611	-34833	2472.5	-0.27523	-0.9555	0.12737
0.47	19.605	-34837	2472.5	-0.27504	-0.95463	0.12883
0.472	19.608	-34831	2472.5	-0.27484	-0.95375	0.1303
0.474	19.611	-34824	2472.4	-0.27465	-0.95287	0.13176
0.476	19.611	-34827	2472.4	-0.27445	-0.95199	0.13322
0.478	19.603	-34829	2472.4	-0.27426	-0.95111	0.13469
0.48	19.587	-34830	2472.3	-0.27426	-0.95131	0.1342
0.482	19.576	-34831	2472.3	-0.27426	-0.9515	0.13371
0.484	19.583	-34838	2472.2	-0.27426	-0.9517	0.13322
0.486	19.593	-34846	2472.2	-0.27426	-0.95189	0.13274
0.488	19.595	-34843	2472.1	-0.27426	-0.95209	0.13225
0.49	19.59	-34840	2472	-0.27367	-0.9517	0.13225
0.492	19.589	-34839	2471.9	-0.27308	-0.95131	0.13225
0.494	19.6	-34838	2471.7	-0.2725	-0.95092	0.13225
0.496	19.61	-34842	2471.6	-0.27191	-0.95053	0.13225
0.498	19.62	-34845	2471.4	-0.27133	-0.95014	0.13225
0.5	19.624	-34846	2471.3	-0.27279	-0.9514	0.13264
0.502	19.604	-34846	2471.1	-0.27426	-0.95267	0.13303
0.504	19.585	-34839	2471	-0.27572	-0.95394	0.13342
0.506	19.585	-34833	2470.8	-0.27718	-0.95521	0.13381
0.508	19.589	-34836	2470.7	-0.27865	-0.95648	0.1342
0.51	19.595	-34840	2470.5	-0.27787	-0.95609	0.13381
0.512	19.602	-34843	2470.4	-0.27709	-0.9557	0.13342
0.514	19.615	-34847	2470.3	-0.27631	-0.95531	0.13303
0.516	19.616	-34843	2470.2	-0.27552	-0.95492	0.13264
0.518	19.592	-34839	2470.1	-0.27474	-0.95453	0.13225
0.52	19.578	-34843	2470.1	-0.27426	-0.95375	0.13313
0.522	19.581	-34848	2470	-0.27377	-0.95297	0.134
0.524	19.592	-34848	2469.9	-0.27328	-0.95219	0.13488
0.526	19.584	-34849	2469.9	-0.27279	-0.9514	0.13576
0.528	19.586	-34852	2469.8	-0.2723	-0.95062	0.13664
0.53	19.6	-34855	2469.8	-0.27211	-0.95023	0.13615
0.532	19.607	-34856	2469.7	-0.27191	-0.94984	0.13566
0.534	19.598	-34857	2469.7	-0.27172	-0.94945	0.13518
0.536	19.596	-34853	2469.6	-0.27152	-0.94906	0.13469
0.538	19.604	-34848	2469.4	-0.27133	-0.94867	0.1342
0.54	19.602	-34850	2469.4	-0.2726	-0.95004	0.1341
0.542	19.59	-34853	2469.3	-0.27387	-0.9514	0.134
0.544	19.586	-34857	2469.3	-0.27513	-0.95277	0.13391
0.546	19.588	-34862	2469.2	-0.2764	-0.95414	0.13381
0.548	19.587	-34861	2469.1	-0.27767	-0.9555	0.13371
0.55	19.591	-34860	2469	-0.2766	-0.95384	0.13449
0.552	19.597	-34865	2468.9	-0.27552	-0.95219	0.13527
0.554	19.587	-34870	2468.8	-0.27445	-0.95053	0.13605
0.556	19.577	-34869	2468.8	-0.27338	-0.94887	0.13684
0.558	19.578	-34867	2468.9	-0.2723	-0.94721	0.13762
0.56	19.583	-34866	2468.9	-0.27201	-0.94682	0.13693
0.562	19.596	-34864	2468.9	-0.27172	-0.94643	0.13625
0.564	19.596	-34860	2469	-0.27143	-0.94604	0.13557
0.566	19.592	-34856	2469	-0.27113	-0.94565	0.13488
0.568	19.595	-34865	2469	-0.27084	-0.94526	0.1342
0.57	19.598	-34873	2469.1	-0.27133	-0.94604	0.13508
0.572	19.597	-34876	2469.2	-0.27182	-0.94682	0.13596
0.574	19.595	-34879	2469.3	-0.2723	-0.9476	0.13684
0.576	19.586	-34877	2469.5	-0.27279	-0.94838	0.13771
0.578	19.582	-34876	2469.6	-0.27328	-0.94916	0.13859
0.58	19.579	-34881	2469.9	-0.27201	-0.94994	0.13615
0.582	19.587	-34886	2470.2	-0.27074	-0.95072	0.13371
0.584	19.592	-34883	2470.5	-0.26947	-0.9515	0.13127
0.586	19.588	-34879	2470.8	-0.2682	-0.95228	0.12883
0.588	19.601	-34884	2471.1	-0.26694	-0.95306	0.12639
0.59	19.618	-34889	2471.5	-0.26772	-0.95297	0.12668
0.592	19.619	-34885	2471.9	-0.2685	-0.95287	0.12698
0.594	19.615	-34881	2472.3	-0.26928	-0.95277	0.12727
0.596	19.606	-34885	2472.9	-0.27006	-0.95267	0.12756
0.598	19.609	-34888	2473.4	-0.27084	-0.95258	0.12786
0.6	19.617	-34890	2473.9	-0.27016	-0.95287	0.12834
0.602	19.618	-34892	2474.5	-0.26947	-0.95316	0.12883
0.604	19.619	-34892	2475.1	-0.26879	-0.95345	0.12932
0.606	19.617	-34891	2475.8	-0.26811	-0.95375	0.12981
0.608	19.616	-34891	2476.4	-0.26742	-0.95404	0.1303
0.61	19.622	-34892	2477.2	-0.26752	-0.95482	0.1303
0.612	19.624	-34894	2477.9	-0.26762	-0.9556	0.1303
0.614	19.619	-34896	2478.7	-0.26772	-0.95638	0.1303
0.616	19.631	-34891	2479.4	-0.26781	-0.95716	0.1303
0.618	19.633	-34887	2480.1	-0.26791	-0.95794	0.1303
0.62	19.631	-34886	2480.7	-0.26869	-0.95668	0.13127
0.622	19.632	-34884	2481.4	-0.26947	-0.95541	0.13225
0.624	19.633	-34885	2482.1	-0.27025	-0.95414	0.13322
0.626	19.631	-34886	2482.8	-0.27104	-0.95287	0.1342
0.628	19.627	-34885	2483.5	-0.27182	-0.9516	0.13518
0.63	19.618	-34885	2484.1	-0.27172	-0.9514	0.13498
0.632	19.615	-34885	2484.8	-0.27162	-0.95121	0.13479
0.634	19.621	-34886	2485.4	-0.27152	-0.95101	0.13459
0.636	19.622	-34891	2486	-0.27143	-0.95082	0.1344
0.638	19.627	-34895	2486.5	-0.27133	-0.95062	0.1342
0.64	19.63	-34892	2487	-0.27201	-0.9518	0.13342
0.642	19.632	-34889	2487.6	-0.27269	-0.95297	0.13264
0.644	19.647	-34885	2488.1	-0.27338	-0.95414	0.13186
0.646	19.655	-34881	2488.6	-0.27406	-0.95531	0.13108
0.648	19.659	-34877	2489.1	-0.27474	-0.95648	0.1303
0.65	19.653	-34872	2489.4	-0.27543	-0.95599	0.13108
0.652	19.646	-34872	2489.7	-0.27611	-0.9555	0.13186
0.654	19.652	-34871	2490.1	-0.27679	-0.95502	0.13264
0.656	19.653	-34869	2490.3	-0.27748	-0.95453	0.13342
0.658	19.651	-34866	2490.6	-0.27816	-0.95404	0.1342
0.66	19.663	-34858	2490.7	-0.27923	-0.95365	0.13498
0.662	19.668	-34851	2490.8	-0.28031	-0.95326	0.13576
0.664	19.663	-34851	2490.9	-0.28138	-0.95287	0.13654
0.666	19.647	-34851	2491	-0.28245	-0.95248	0.13732
0.668	19.643	-34853	2491.1	-0.28353	-0.95209	0.1381
0.67	19.658	-34855	2491.1	-0.28304	-0.95228	0.13801
0.672	19.664	-34850	2491.1	-0.28255	-0.95248	0.13791
0.674	19.666	-34845	2491.1	-0.28206	-0.95267	0.13781
0.676	19.673	-34837	2490.9	-0.28158	-0.95287	0.13771
0.678	19.666	-34829	2490.8	-0.28109	-0.95306	0.13762
0.68	19.659	-34829	2490.7	-0.28109	-0.95219	0.13791
0.682	19.658	-34828	2490.5	-0.28109	-0.95131	0.1382
0.684	19.645	-34824	2490.3	-0.28109	-0.95043	0.13849
0.686	19.645	-34820	2490.1	-0.28109	-0.94955	0.13879
0.688	19.662	-34818	2490	-0.28109	-0.94867	0.13908
0.69	19.681	-34816	2489.7	-0.2805	-0.95004	0.13879
0.692	19.68	-34814	2489.4	-0.27992	-0.9514	0.13849
0.694	19.659	-34812	2489.2	-0.27933	-0.95277	0.1382
0.696	19.638	-34812	2488.9	-0.27875	-0.95414	0.13791
0.698	19.635	-34812	2488.6	-0.27816	-0.9555	0.13762
0.7	19.638	-34811	2488.4	-0.27826	-0.9558	0.13664
0.702	19.643	-34810	2488.1	-0.27836	-0.95609	0.13566
0.704	19.644	-34801	2487.8	-0.27845	-0.95638	0.13469
0.706	19.64	-34793	2487.5	-0.27855	-0.95668	0.13371
0.708	19.642	-34785	2487.2	-0.27865	-0.95697	0.13274
0.71	19.644	-34777	2486.9	-0.27796	-0.9556	0.134
0.712	19.634	-34778	2486.6	-0.27728	-0.95424	0.13527
0.714	19.625	-34778	2486.3	-0.2766	-0.95287	0.13654
0.716	19.633	-34779	2486	-0.27592	-0.9515	0.13781
0.718	19.641	-34780	2485.8	-0.27523	-0.95014	0.13908
0.72	19.634	-34772	2485.5	-0.27611	-0.95131	0.1384
0.722	19.627	-34764	2485.2	-0.27699	-0.95248	0.13771
0.724	19.617	-34764	2485	-0.27787	-0.95365	0.13703
0.726	19.603	-34765	2484.7	-0.27875	-0.95482	0.13635
0.728	19.598	-34759	2484.4	-0.27962	-0.95599	0.13566
0.73	19.606	-34754	2484.2	-0.27904	-0.95638	0.13508
0.732	19.618	-34757	2484	-0.27845	-0.95677	0.13449
0.734	19.618	-34760	2483.8	-0.27787	-0.95716	0.13391
0.736	19.61	-34754	2483.7	-0.27728	-0.95755	0.13332
0.738	19.605	-34749	2483.6	-0.2767	-0.95794	0.13274
0.74	19.598	-34746	2483.5	-0.27709	-0.95785	0.13322
0.742	19.594	-34743	2483.4	-0.27748	-0.95775	0.13371
0.744	19.601	-34741	2483.3	-0.27787	-0.95765	0.1342
0.746	19.608	-34738	2483.2	-0.27826	-0.95755	0.13469
0.748	19.608	-34737	2483.1	-0.27865	-0.95746	0.13518
0.75	19.606	-34735	2483	-0.27718	-0.95638	0.13449
0.752	19.603	-34735	2482.9	-0.27572	-0.95531	0.13381
0.754	19.596	-34735	2482.8	-0.27426	-0.95424	0.13313
0.756	19.585	-34736	2482.7	-0.27279	-0.95316	0.13244
0.758	19.574	-34738	2482.7	-0.27133	-0.95209	0.13176
0.76	19.581	-34731	2482.6	-0.27191	-0.95267	0.13235
0.762	19.579	-34725	2482.6	-0.2725	-0.95326	0.13293
0.764	19.554	-34722	2482.6	-0.27308	-0.95384	0.13352
0.766	19.549	-34720	2482.6	-0.27367	-0.95443	0.1341
0.768	19.561	-34718	2482.7	-0.27426	-0.95502	0.13469
0.77	19.563	-34716	2482.7	-0.27406	-0.95502	0.13352
0.772	19.573	-34716	2482.8	-0.27387	-0.95502	0.13235
0.774	19.575	-34717	2482.9	-0.27367	-0.95502	0.13117
0.776	19.576	-34713	2482.9	-0.27348	-0.95502	0.13
0.778	19.581	-34709	2483	-0.27328	-0.95502	0.12883
0.78	19.586	-34706	2483.1	-0.27387	-0.95541	0.12942
0.782	19.58	-34703	2483.3	-0.27445	-0.9558	0.13
0.784	19.569	-34703	2483.4	-0.27504	-0.95619	0.13059
0.786	19.566	-34703	2483.5	-0.27562	-0.95658	0.13117
0.788	19.581	-34698	2483.7	-0.27621	-0.95697	0.13176
0.79	19.583	-34694	2483.7	-0.2767	-0.95707	0.13176
0.792	19.568	-34690	2483.8	-0.27718	-0.95716	0.13176
0.794	19.566	-34685	2483.8	-0.27767	-0.95726	0.13176
0.796	19.586	-34686	2483.8	-0.27816	-0.95736	0.13176
0.798	19.595	-34686	2483.9	-0.27865	-0.95746	0.13176
0.8	19.586	-34687	2483.8	-0.27962	-0.95648	0.13274
0.802	19.575	-34689	2483.8	-0.2806	-0.9555	0.13371
0.804	19.562	-34690	2483.8	-0.28158	-0.95453	0.13469
0.806	19.55	-34691	2483.8	-0.28255	-0.95355	0.13566
0.808	19.551	-34691	2483.8	-0.28353	-0.95258	0.13664
0.81	19.564	-34692	2483.8	-0.28431	-0.95111	0.13664
0.812	19.577	-34683	2483.7	-0.28509	-0.94965	0.13664
0.814	19.58	-34674	2483.7	-0.28587	-0.94818	0.13664
0.816	19.575	-34674	2483.6	-0.28665	-0.94672	0.13664
0.818	19.563	-34674	2483.5	-0.28743	-0.94526	0.13664
0.82	19.564	-34673	2483.4	-0.28733	-0.94604	0.13703
0.822	19.576	-34672	2483.3	-0.28724	-0.94682	0.13742
0.824	19.573	-34663	2483.1	-0.28714	-0.9476	0.13781
0.826	19.562	-34654	2483	-0.28704	-0.94838	0.1382
0.828	19.57	-34657	2482.8	-0.28694	-0.94916	0.13859
0.83	19.582	-34660	2482.6	-0.28724	-0.94857	0.1382
0.832	19.581	-34663	2482.4	-0.28753	-0.94799	0.13781
0.834	19.578	-34665	2482.3	-0.28782	-0.9474	0.13742
0.836	19.569	-34658	2482.1	-0.28812	-0.94682	0.13703
0.838	19.565	-34651	2482	-0.28841	-0.94623	0.13664
0.84	19.564	-34652	2481.7	-0.28733	-0.94652	0.13644
0.842	19.573	-34652	2481.5	-0.28626	-0.94682	0.13625
0.844	19.573	-34653	2481.4	-0.28519	-0.94711	0.13605
0.846	19.556	-34654	2481.3	-0.28411	-0.9474	0.13586
0.848	19.536	-34650	2481.2	-0.28304	-0.9477	0.13566
0.85	19.539	-34645	2481	-0.28363	-0.94731	0.13605
0.852	19.553	-34644	2480.9	-0.28421	-0.94692	0.13644
0.854	19.563	-34643	2480.9	-0.2848	-0.94652	0.13684
0.856	19.561	-34642	2480.9	-0.28538	-0.94613	0.13723
0.858	19.569	-34640	2480.8	-0.28597	-0.94574	0.13762
0.86	19.581	-34640	2480.8	-0.28568	-0.94701	0.13703
0.862	19.577	-34639	2480.8	-0.28538	-0.94828	0.13644
0.864	19.573	-34638	2480.8	-0.28509	-0.94955	0.13586
0.866	19.568	-34638	2480.9	-0.2848	-0.95082	0.13527
0.868	19.562	-34637	2480.9	-0.2845	-0.95209	0.13469
0.87	19.565	-34636	2481	-0.28226	-0.95306	0.13361
0.872	19.58	-34632	2481.1	-0.28001	-0.95404	0.13254
0.874	19.591	-34627	2481.2	-0.27777	-0.95502	0.13147
0.876	19.595	-34625	2481.3	-0.27552	-0.95599	0.13039
0.878	19.593	-34622	2481.3	-0.27328	-0.95697	0.12932
0.88	19.578	-34622	2481.5	-0.27377	-0.95746	0.1302
0.882	19.561	-34622	2481.6	-0.27426	-0.95794	0.13108
0.884	19.561	-34626	2481.7	-0.27474	-0.95843	0.13196
0.886	19.579	-34631	2481.7	-0.27523	-0.95892	0.13283
0.888	19.587	-34631	2481.8	-0.27572	-0.95941	0.13371
0.89	19.58	-34631	2481.9	-0.27523	-0.95882	0.13313
0.892	19.58	-34625	2482.1	-0.27474	-0.95824	0.13254
0.894	19.582	-34619	2482.2	-0.27426	-0.95765	0.13196
0.896	19.572	-34615	2482.3	-0.27377	-0.95707	0.13137
0.898	19.569	-34610	2482.4	-0.27328	-0.95648	0.13078
0.9	19.58	-34616	2482.4	-0.27357	-0.95668	0.13098
0.902	19.578	-34622	2482.5	-0.27387	-0.95687	0.13117
0.904	19.567	-34624	2482.6	-0.27416	-0.95707	0.13137
0.906	19.559	-34626	2482.7	-0.27445	-0.95726	0.13156
0.908	19.566	-34626	2482.8	-0.27474	-0.95746	0.13176
0.91	19.584	-34626	2482.9	-0.27533	-0.95746	0.13166
0.912	19.585	-34626	2483	-0.27592	-0.95746	0.13156
0.914	19.582	-34625	2483.1	-0.2765	-0.95746	0.13147
0.916	19.584	-34623	2483.3	-0.27709	-0.95746	0.13137
0.918	19.579	-34620	2483.4	-0.27767	-0.95746	0.13127
0.92	19.569	-34615	2483.4	-0.27865	-0.95726	0.13156
0.922	19.569	-34611	2483.5	-0.27962	-0.95707	0.13186
0.924	19.58	-34611	2483.5	-0.2806	-0.95687	0.13215
0.926	19.595	-34612	2483.5	-0.28158	-0.95668	0.13244
0.928	19.604	-34612	2483.5	-0.28255	-0.95648	0.13274
0.93	19.602	-34611	2483.6	-0.28314	-0.95521	0.13381
0.932	19.606	-34609	2483.6	-0.28372	-0.95394	0.13488
0.934	19.604	-34606	2483.6	-0.28431	-0.95267	0.13596
0.936	19.59	-34606	2483.6	-0.28489	-0.9514	0.13703
0.938	19.576	-34605	2483.5	-0.28548	-0.95014	0.1381
0.94	19.573	-34603	2483.4	-0.28538	-0.95014	0.13859
0.942	19.584	-34601	2483.3	-0.28528	-0.95014	0.13908
0.944	19.588	-34601	2483.3	-0.28519	-0.95014	0.13957
0.946	19.575	-34600	2483.2	-0.28509	-0.95014	0.14006
0.948	19.56	-34601	2483.1	-0.28499	-0.95014	0.14054
0.95	19.558	-34601	2483	-0.28441	-0.95062	0.14025
0.952	19.577	-34606	2482.9	-0.28382	-0.95111	0.13996
0.954	19.579	-34611	2482.8	-0.28324	-0.9516	0.13967
0.956	19.572	-34600	2482.7	-0.28265	-0.95209	0.13937
0.958	19.579	-34589	2482.5	-0.28206	-0.95258	0.13908
0.96	19.595	-34587	2482.5	-0.28177	-0.9515	0.13967
0.962	19.59	-34585	2482.4	-0.28148	-0.95043	0.14025
0.964	19.565	-34592	2482.3	-0.28119	-0.94936	0.14084
0.966	19.555	-34599	2482.2	-0.28089	-0.94828	0.14142
0.968	19.566	-34602	2482.1	-0.2806	-0.94721	0.14201
0.97	19.583	-34605	2482	-0.28128	-0.9476	0.14132
0.972	19.589	-34604	2482	-0.28197	-0.94799	0.14064
0.974	19.59	-34604	2481.9	-0.28265	-0.94838	0.13996
0.976	19.588	-34599	2481.7	-0.28333	-0.94877	0.13928
0.978	19.584	-34594	2481.6	-0.28402	-0.94916	0.13859
0.98	19.586	-34592	2481.5	-0.28372	-0.94906	0.13888
0.982	19.582	-34589	2481.3	-0.28343	-0.94896	0.13918
0.984	19.569	-34587	2481.2	-0.28314	-0.94887	0.13947
0.986	19.56	-34585	2481	-0.28284	-0.94877	0.13976
0.988	19.563	-34587	2480.9	-0.28255	-0.94867	0.14006
0.99	19.569	-34589	2480.7	-0.28216	-0.94994	0.13976
0.992	19.578	-34587	2480.6	-0.28177	-0.95121	0.13947
0.994	19.594	-34585	2480.5	-0.28138	-0.95248	0.13918
0.996	19.605	-34589	2480.3	-0.28099	-0.95375	0.13888
0.998	19.6	-34593	2480.2	-0.2806	-0.95502	0.13859
1	19.583	-34588	2480.1	-0.2807	-0.95424	0.13888
1.002	19.576	-34583	2480	-0.2808	-0.95345	0.13918
1.004	19.586	-34589	2479.9	-0.28089	-0.95267	0.13947
1.006	19.591	-34595	2479.8	-0.28099	-0.95189	0.13976
1.008	19.605	-34590	2479.7	-0.28109	-0.95111	0.14006
1.01	19.605	-34585	2479.7	-0.28119	-0.9515	0.14015
1.012	19.585	-34585	2479.6	-0.28128	-0.95189	0.14025
1.014	19.557	-34585	2479.5	-0.28138	-0.95228	0.14035
1.016	19.556	-34578	2479.4	-0.28148	-0.95267	0.14045
1.018	19.581	-34571	2479.3	-0.28158	-0.95306	0.14054
1.02	19.59	-34571	2479.3	-0.28167	-0.95189	0.13937
1.022	19.569	-34570	2479.2	-0.28177	-0.95072	0.1382
1.024	19.568	-34576	2479.1	-0.28187	-0.94955	0.13703
1.026	19.569	-34582	2479.1	-0.28197	-0.94838	0.13586
1.028	19.572	-34577	2479	-0.28206	-0.94721	0.13469
1.03	19.582	-34572	2479	-0.28275	-0.9476	0.13537
1.032	19.591	-34571	2479	-0.28343	-0.94799	0.13605
1.034	19.596	-34571	2478.9	-0.28411	-0.94838	0.13674
1.036	19.584	-34577	2478.8	-0.2848	-0.94877	0.13742
1.038	19.583	-34584	2478.8	-0.28548	-0.94916	0.1381
1.04	19.592	-34584	2478.7	-0.28577	-0.94936	0.13752
1.042	19.593	-34584	2478.7	-0.28607	-0.94955	0.13693
1.044	19.586	-34579	2478.6	-0.28636	-0.94975	0.13635
1.046	19.584	-34575	2478.6	-0.28665	-0.94994	0.13576
1.048	19.585	-34580	2478.6	-0.28694	-0.95014	0.13518
1.05	19.578	-34584	2478.6	-0.28626	-0.94965	0.13518
1.052	19.574	-34587	2478.5	-0.28558	-0.94916	0.13518
1.054	19.569	-34591	2478.5	-0.28489	-0.94867	0.13518
1.056	19.554	-34592	2478.5	-0.28421	-0.94818	0.13518
1.058	19.564	-34594	2478.4	-0.28353	-0.9477	0.13518
1.06	19.595	-34593	2478.4	-0.28333	-0.94848	0.13527
1.062	19.61	-34592	2478.4	-0.28314	-0.94926	0.13537
1.064	19.608	-34588	2478.4	-0.28294	-0.95004	0.13547
1.066	19.6	-34583	2478.3	-0.28275	-0.95082	0.13557
1.068	19.59	-34585	2478.3	-0.28255	-0.9516	0.13566
1.07	19.581	-34587	2478.3	-0.28382	-0.95082	0.13586
1.072	19.577	-34592	2478.3	-0.28509	-0.95004	0.13605
1.074	19.577	-34597	2478.2	-0.28636	-0.94926	0.13625
1.076	19.569	-34595	2478.2	-0.28763	-0.94848	0.13644
1.078	19.565	-34593	2478.1	-0.2889	-0.9477	0.13664
1.08	19.578	-34595	2478.1	-0.28919	-0.94848	0.13644
1.082	19.593	-34597	2478.1	-0.28948	-0.94926	0.13625
1.084	19.597	-34596	2478	-0.28977	-0.95004	0.13605
1.086	19.592	-34595	2477.9	-0.29007	-0.95082	0.13586
1.088	19.591	-34595	2477.8	-0.29036	-0.9516	0.13566
1.09	19.585	-34596	2477.8	-0.28909	-0.95033	0.13498
1.092	19.573	-34591	2477.7	-0.28782	-0.94906	0.1343
1.094	19.582	-34585	2477.7	-0.28655	-0.94779	0.13361
1.096	19.598	-34590	2477.7	-0.28528	-0.94652	0.13293
1.098	19.582	-34595	2477.6	-0.28402	-0.94526	0.13225
1.1	19.578	-34597	2477.6	-0.28353	-0.94662	0.13274
1.102	19.593	-34599	2477.5	-0.28304	-0.94799	0.13322
1.104	19.578	-34599	2477.4	-0.28255	-0.94936	0.13371
1.106	19.566	-34600	2477.4	-0.28206	-0.95072	0.1342
1.108	19.562	-34593	2477.3	-0.28158	-0.95209	0.13469
1.11	19.573	-34586	2477.3	-0.28236	-0.95131	0.13479
1.112	19.589	-34585	2477.3	-0.28314	-0.95053	0.13488
1.114	19.584	-34585	2477.2	-0.28392	-0.94975	0.13498
1.116	19.581	-34583	2477.2	-0.2847	-0.94896	0.13508
1.118	19.585	-34581	2477.2	-0.28548	-0.94818	0.13518
1.12	19.583	-34589	2477.1	-0.28489	-0.94818	0.13488
1.122	19.591	-34597	2477	-0.28431	-0.94818	0.13459
1.124	19.598	-34596	2477	-0.28372	-0.94818	0.1343
1.126	19.588	-34595	2477	-0.28314	-0.94818	0.134
1.128	19.586	-34596	2477	-0.28255	-0.94818	0.13371
1.13	19.594	-34597	2477	-0.28304	-0.94838	0.1343
1.132	19.588	-34596	2476.9	-0.28353	-0.94857	0.13488
1.134	19.572	-34595	2476.9	-0.28402	-0.94877	0.13547
1.136	19.567	-34598	2477	-0.2845	-0.94896	0.13605
1.138	19.57	-34601	2477	-0.28499	-0.94916	0.13664
1.14	19.576	-34598	2476.9	-0.28538	-0.94838	0.13674
1.142	19.581	-34595	2476.9	-0.28577	-0.9476	0.13684
1.144	19.584	-34599	2476.9	-0.28616	-0.94682	0.13693
1.146	19.587	-34602	2476.9	-0.28655	-0.94604	0.13703
1.148	19.591	-34600	2476.9	-0.28694	-0.94526	0.13713
1.15	19.594	-34597	2476.9	-0.28577	-0.94682	0.13635
1.152	19.588	-34599	2476.8	-0.2846	-0.94838	0.13557
1.154	19.577	-34601	2476.8	-0.28343	-0.94994	0.13479
1.156	19.575	-34608	2476.8	-0.28226	-0.9515	0.134
1.158	19.587	-34615	2476.8	-0.28109	-0.95306	0.13322
1.16	19.593	-34612	2476.8	-0.28099	-0.95287	0.13391
1.162	19.586	-34609	2476.7	-0.28089	-0.95267	0.13459
1.164	19.583	-34612	2476.7	-0.2808	-0.95248	0.13527
1.166	19.588	-34616	2476.6	-0.2807	-0.95228	0.13596
1.168	19.595	-34614	2476.5	-0.2806	-0.95209	0.13664
1.17	19.591	-34611	2476.5	-0.28128	-0.95121	0.13703
1.172	19.584	-34611	2476.4	-0.28197	-0.95033	0.13742
1.174	19.578	-34612	2476.4	-0.28265	-0.94945	0.13781
1.176	19.573	-34610	2476.3	-0.28333	-0.94857	0.1382
1.178	19.573	-34608	2476.3	-0.28402	-0.9477	0.13859
1.18	19.572	-34606	2476.3	-0.28304	-0.94877	0.13791
1.182	19.57	-34604	2476.2	-0.28206	-0.94984	0.13723
1.184	19.57	-34606	2476.2	-0.28109	-0.95092	0.13654
1.186	19.58	-34609	2476.1	-0.28011	-0.95199	0.13586
1.188	19.566	-34606	2476.1	-0.27914	-0.95306	0.13518
1.19	19.567	-34603	2476.1	-0.27855	-0.95375	0.13459
1.192	19.573	-34612	2476	-0.27796	-0.95443	0.134
1.194	19.579	-34622	2476	-0.27738	-0.95511	0.13342
1.196	19.583	-34614	2476	-0.27679	-0.9558	0.13283
1.198	19.582	-34606	2476	-0.27621	-0.95648	0.13225
1.2	19.58	-34617	2475.9	-0.2766	-0.95589	0.13293
1.202	19.575	-34627	2475.9	-0.27699	-0.95531	0.13361
1.204	19.58	-34624	2475.9	-0.27738	-0.95472	0.1343
1.206	19.595	-34621	2475.8	-0.27777	-0.95414	0.13498
1.208	19.603	-34623	2475.8	-0.27816	-0.95355	0.13566
1.21	19.605	-34625	2475.8	-0.27787	-0.95414	0.13508
1.212	19.583	-34621	2475.7	-0.27757	-0.95472	0.13449
1.214	19.569	-34617	2475.7	-0.27728	-0.95531	0.13391
1.216	19.574	-34618	2475.6	-0.27699	-0.95589	0.13332
1.218	19.574	-34618	2475.6	-0.2767	-0.95648	0.13274
1.22	19.573	-34615	2475.5	-0.27689	-0.95589	0.13313
1.222	19.572	-34611	2475.5	-0.27709	-0.95531	0.13352
1.224	19.572	-34614	2475.5	-0.27728	-0.95472	0.13391
1.226	19.58	-34618	2475.5	-0.27748	-0.95414	0.1343
1.228	19.579	-34623	2475.5	-0.27767	-0.95355	0.13469
1.23	19.571	-34628	2475.5	-0.27816	-0.95384	0.13479
1.232	19.573	-34626	2475.5	-0.27865	-0.95414	0.13488
1.234	19.581	-34624	2475.5	-0.27914	-0.95443	0.13498
1.236	19.597	-34627	2475.5	-0.27962	-0.95472	0.13508
1.238	19.608	-34629	2475.5	-0.28011	-0.95502	0.13518
1.24	19.594	-34628	2475.5	-0.27884	-0.95424	0.13508
1.242	19.582	-34626	2475.5	-0.27757	-0.95345	0.13498
1.244	19.587	-34627	2475.4	-0.27631	-0.95267	0.13488
1.246	19.593	-34629	2475.4	-0.27504	-0.95189	0.13479
1.248	19.59	-34625	2475.4	-0.27377	-0.95111	0.13469
1.25	19.585	-34622	2475.4	-0.27406	-0.9518	0.13371
1.252	19.585	-34624	2475.3	-0.27435	-0.95248	0.13274
1.254	19.589	-34626	2475.2	-0.27465	-0.95316	0.13176
1.256	19.593	-34631	2475.1	-0.27494	-0.95384	0.13078
1.258	19.59	-34636	2475.1	-0.27523	-0.95453	0.12981
1.26	19.592	-34637	2475	-0.2764	-0.95404	0.13078
1.262	19.599	-34639	2475	-0.27757	-0.95355	0.13176
1.264	19.59	-34636	2474.9	-0.27875	-0.95306	0.13274
1.266	19.574	-34632	2474.7	-0.27992	-0.95258	0.13371
1.268	19.575	-34630	2474.6	-0.28109	-0.95209	0.13469
1.27	19.561	-34627	2474.6	-0.28138	-0.9518	0.13498
1.272	19.558	-34629	2474.5	-0.28167	-0.9515	0.13527
1.274	19.556	-34631	2474.5	-0.28197	-0.95121	0.13557
1.276	19.579	-34637	2474.4	-0.28226	-0.95092	0.13586
1.278	19.617	-34644	2474.4	-0.28255	-0.95062	0.13615
1.28	19.618	-34638	2474.3	-0.28089	-0.9516	0.13469
1.282	19.614	-34633	2474.3	-0.27923	-0.95258	0.13322
1.284	19.611	-34639	2474.2	-0.27757	-0.95355	0.13176
1.286	19.609	-34645	2474.2	-0.27592	-0.95453	0.1303
1.288	19.61	-34644	2474.1	-0.27426	-0.9555	0.12883
1.29	19.613	-34644	2474	-0.27435	-0.95502	0.12893
1.292	19.61	-34643	2473.9	-0.27445	-0.95453	0.12903
1.294	19.614	-34642	2473.8	-0.27455	-0.95404	0.12912
1.296	19.615	-34641	2473.7	-0.27465	-0.95355	0.12922
1.298	19.614	-34639	2473.7	-0.27474	-0.95306	0.12932
1.3	19.623	-34638	2473.6	-0.27679	-0.95297	0.12864
1.302	19.631	-34637	2473.5	-0.27884	-0.95287	0.12795
1.304	19.632	-34639	2473.4	-0.28089	-0.95277	0.12727
1.306	19.623	-34640	2473.3	-0.28294	-0.95267	0.12659
1.308	19.615	-34636	2473.2	-0.28499	-0.95258	0.1259
1.31	19.612	-34633	2473.1	-0.28245	-0.9516	0.12708
1.312	19.609	-34640	2473.1	-0.27992	-0.95062	0.12825
1.314	19.602	-34646	2473	-0.27738	-0.94965	0.12942
1.316	19.604	-34651	2472.9	-0.27484	-0.94867	0.13059
1.318	19.62	-34656	2472.9	-0.2723	-0.9477	0.13176
1.32	19.64	-34655	2472.8	-0.27221	-0.9476	0.13176
1.322	19.649	-34654	2472.8	-0.27211	-0.9475	0.13176
1.324	19.655	-34654	2472.7	-0.27201	-0.9474	0.13176
1.326	19.661	-34654	2472.6	-0.27191	-0.94731	0.13176
1.328	19.658	-34654	2472.6	-0.27182	-0.94721	0.13176
1.33	19.659	-34655	2472.5	-0.27338	-0.94838	0.13254
1.332	19.66	-34662	2472.3	-0.27494	-0.94955	0.13332
1.334	19.654	-34669	2472.3	-0.2765	-0.95072	0.1341
1.336	19.648	-34666	2472.2	-0.27806	-0.95189	0.13488
1.338	19.636	-34663	2472.1	-0.27962	-0.95306	0.13566
1.34	19.618	-34664	2472	-0.27855	-0.95316	0.134
1.342	19.615	-34664	2471.9	-0.27748	-0.95326	0.13235
1.344	19.612	-34659	2471.7	-0.2764	-0.95336	0.13069
1.346	19.606	-34655	2471.6	-0.27533	-0.95345	0.12903
1.348	19.6	-34656	2471.5	-0.27426	-0.95355	0.12737
1.35	19.584	-34656	2471.4	-0.27513	-0.95287	0.12903
1.352	19.565	-34655	2471.3	-0.27601	-0.95219	0.13069
1.354	19.554	-34653	2471.3	-0.27689	-0.9515	0.13235
1.356	19.569	-34654	2471.2	-0.27777	-0.95082	0.134
1.358	19.591	-34655	2471.1	-0.27865	-0.95014	0.13566
1.36	19.572	-34657	2471	-0.27757	-0.94994	0.13488
1.362	19.571	-34660	2470.9	-0.2765	-0.94975	0.1341
1.364	19.591	-34658	2470.8	-0.27543	-0.94955	0.13332
1.366	19.597	-34655	2470.7	-0.27435	-0.94936	0.13254
1.368	19.59	-34661	2470.7	-0.27328	-0.94916	0.13176
1.37	19.589	-34666	2470.6	-0.27377	-0.95023	0.13147
1.372	19.6	-34668	2470.5	-0.27426	-0.95131	0.13117
1.374	19.595	-34670	2470.4	-0.27474	-0.95238	0.13088
1.376	19.594	-34674	2470.4	-0.27523	-0.95345	0.13059
1.378	19.595	-34678	2470.3	-0.27572	-0.95453	0.1303
1.38	19.592	-34678	2470.2	-0.27611	-0.95443	0.13059
1.382	19.594	-34677	2470.1	-0.2765	-0.95433	0.13088
1.384	19.59	-34677	2470	-0.27689	-0.95424	0.13117
1.386	19.588	-34678	2469.9	-0.27728	-0.95414	0.13147
1.388	19.589	-34673	2469.8	-0.27767	-0.95404	0.13176
1.39	19.584	-34669	2469.7	-0.2764	-0.95258	0.13186
1.392	19.578	-34674	2469.7	-0.27513	-0.95111	0.13196
1.394	19.564	-34679	2469.6	-0.27387	-0.94965	0.13205
1.396	19.57	-34681	2469.5	-0.2726	-0.94818	0.13215
1.398	19.593	-34683	2469.4	-0.27133	-0.94672	0.13225
1.4	19.613	-34682	2469.4	-0.27182	-0.94799	0.13215
1.402	19.621	-34681	2469.4	-0.2723	-0.94926	0.13205
1.404	19.623	-34685	2469.3	-0.27279	-0.95053	0.13196
1.406	19.631	-34688	2469.2	-0.27328	-0.9518	0.13186
1.408	19.642	-34691	2469.1	-0.27377	-0.95306	0.13176
1.41	19.646	-34695	2469.1	-0.27387	-0.95228	0.13225
1.412	19.644	-34690	2469	-0.27396	-0.9515	0.13274
1.414	19.649	-34685	2468.9	-0.27406	-0.95072	0.13322
1.416	19.661	-34684	2468.8	-0.27416	-0.94994	0.13371
1.418	19.673	-34683	2468.7	-0.27426	-0.94916	0.1342
1.42	19.693	-34684	2468.6	-0.27348	-0.94955	0.13352
1.422	19.713	-34685	2468.6	-0.27269	-0.94994	0.13283
1.424	19.719	-34694	2468.5	-0.27191	-0.95033	0.13215
1.426	19.737	-34702	2468.4	-0.27113	-0.95072	0.13147
1.428	19.758	-34702	2468.4	-0.27035	-0.95111	0.13078
1.43	19.733	-34702	2468.3	-0.27084	-0.95121	0.13078
1.432	19.693	-34697	2468.2	-0.27133	-0.95131	0.13078
1.434	19.683	-34693	2468.1	-0.27182	-0.9514	0.13078
1.436	19.641	-34694	2468.1	-0.2723	-0.9515	0.13078
1.438	19.581	-34695	2468	-0.27279	-0.9516	0.13078
1.44	19.56	-34699	2468	-0.27348	-0.95287	0.13117
1.442	19.546	-34702	2468	-0.27416	-0.95414	0.13156
1.444	19.52	-34702	2467.9	-0.27484	-0.95541	0.13196
1.446	19.485	-34703	2467.9	-0.27552	-0.95668	0.13235
1.448	19.48	-34703	2467.8	-0.27621	-0.95794	0.13274
1.45	19.49	-34703	2467.7	-0.27601	-0.95716	0.13293
1.452	19.51	-34706	2467.7	-0.27582	-0.95638	0.13313
1.454	19.527	-34709	2467.6	-0.27562	-0.9556	0.13332
1.456	19.532	-34708	2467.6	-0.27543	-0.95482	0.13352
1.458	19.54	-34708	2467.5	-0.27523	-0.95404	0.13371
1.46	19.567	-34706	2467.4	-0.27474	-0.95375	0.13371
1.462	19.583	-34703	2467.4	-0.27426	-0.95345	0.13371
1.464	19.586	-34704	2467.3	-0.27377	-0.95316	0.13371
1.466	19.593	-34705	2467.2	-0.27328	-0.95287	0.13371
1.468	19.606	-34705	2467.1	-0.27279	-0.95258	0.13371
1.47	19.61	-34706	2467.1	-0.27299	-0.95219	0.13391
1.472	19.605	-34712	2467.1	-0.27318	-0.9518	0.1341
1.474	19.598	-34719	2467.1	-0.27338	-0.9514	0.1343
1.476	19.606	-34719	2467.1	-0.27357	-0.95101	0.13449
1.478	19.626	-34719	2467.1	-0.27377	-0.95062	0.13469
1.48	19.646	-34717	2467.1	-0.27416	-0.9514	0.1342
1.482	19.641	-34715	2467	-0.27455	-0.95219	0.13371
1.484	19.614	-34715	2467	-0.27494	-0.95297	0.13322
1.486	19.583	-34715	2467	-0.27533	-0.95375	0.13274
1.488	19.566	-34720	2467	-0.27572	-0.95453	0.13225
1.49	19.575	-34724	2467.1	-0.27552	-0.95424	0.13235
1.492	19.591	-34726	2467.1	-0.27533	-0.95394	0.13244
1.494	19.591	-34729	2467.1	-0.27513	-0.95365	0.13254
1.496	19.598	-34725	2467.2	-0.27494	-0.95336	0.13264
1.498	19.613	-34721	2467.2	-0.27474	-0.95306	0.13274
1.5	19.607	-34723	2467.3	-0.27416	-0.95326	0.13235
1.502	19.599	-34725	2467.3	-0.27357	-0.95345	0.13196
1.504	19.607	-34728	2467.3	-0.27299	-0.95365	0.13156
1.506	19.618	-34731	2467.3	-0.2724	-0.95384	0.13117
1.508	19.621	-34726	2467.3	-0.27182	-0.95404	0.13078
1.51	19.622	-34721	2467.3	-0.27064	-0.95424	0.13049
1.512	19.618	-34722	2467.4	-0.26947	-0.95443	0.1302
1.514	19.613	-34722	2467.4	-0.2683	-0.95463	0.12991
1.516	19.605	-34726	2467.4	-0.26713	-0.95482	0.12961
1.518	19.598	-34731	2467.4	-0.26596	-0.95502	0.12932
1.52	19.585	-34728	2467.4	-0.26674	-0.95472	0.12971
1.522	19.592	-34726	2467.4	-0.26752	-0.95443	0.1301
1.524	19.611	-34726	2467.3	-0.2683	-0.95414	0.13049
1.526	19.6	-34726	2467.2	-0.26908	-0.95384	0.13088
1.528	19.593	-34728	2467.1	-0.26986	-0.95355	0.13127
1.53	19.604	-34730	2467.1	-0.27084	-0.95394	0.13108
1.532	19.615	-34732	2467	-0.27182	-0.95433	0.13088
1.534	19.607	-34734	2466.9	-0.27279	-0.95472	0.13069
1.536	19.597	-34735	2466.8	-0.27377	-0.95511	0.13049
1.538	19.595	-34736	2466.7	-0.27474	-0.9555	0.1303
1.54	19.611	-34737	2466.6	-0.27367	-0.95511	0.13039
1.542	19.624	-34737	2466.5	-0.2726	-0.95472	0.13049
1.544	19.615	-34742	2466.4	-0.27152	-0.95433	0.13059
1.546	19.609	-34748	2466.3	-0.27045	-0.95394	0.13069
1.548	19.612	-34748	2466.2	-0.26938	-0.95355	0.13078
1.55	19.625	-34749	2466.1	-0.27045	-0.95384	0.13059
1.552	19.623	-34748	2466	-0.27152	-0.95414	0.13039
1.554	19.629	-34747	2465.9	-0.2726	-0.95443	0.1302
1.556	19.621	-34746	2465.8	-0.27367	-0.95472	0.13
1.558	19.611	-34745	2465.7	-0.27474	-0.95502	0.12981
1.56	19.61	-34750	2465.6	-0.27357	-0.95355	0.1303
1.562	19.613	-34754	2465.5	-0.2724	-0.95209	0.13078
1.564	19.61	-34749	2465.5	-0.27123	-0.95062	0.13127
1.566	19.608	-34745	2465.4	-0.27006	-0.94916	0.13176
1.568	19.602	-34747	2465.3	-0.26889	-0.9477	0.13225
1.57	19.603	-34750	2465.2	-0.26967	-0.94916	0.13186
1.572	19.613	-34752	2465.2	-0.27045	-0.95062	0.13147
1.574	19.61	-34754	2465.1	-0.27123	-0.95209	0.13108
1.576	19.583	-34756	2465.1	-0.27201	-0.95355	0.13069
1.578	19.566	-34757	2465	-0.27279	-0.95502	0.1303
1.58	19.584	-34754	2465	-0.27357	-0.95433	0.13147
1.582	19.618	-34750	2465	-0.27435	-0.95365	0.13264
1.584	19.64	-34756	2465	-0.27513	-0.95297	0.13381
1.586	19.644	-34762	2465.1	-0.27592	-0.95228	0.13498
1.588	19.632	-34765	2465.1	-0.2767	-0.9516	0.13615
1.59	19.615	-34768	2465.1	-0.27543	-0.9517	0.13518
1.592	19.609	-34770	2465.1	-0.27416	-0.9518	0.1342
1.594	19.618	-34772	2465.1	-0.27289	-0.95189	0.13322
1.596	19.622	-34771	2465.1	-0.27162	-0.95199	0.13225
1.598	19.621	-34769	2465.1	-0.27035	-0.95209	0.13127
1.6	19.623	-34765	2465.1	-0.27074	-0.95189	0.13186
1.602	19.612	-34761	2465.2	-0.27113	-0.9517	0.13244
1.604	19.603	-34762	2465.3	-0.27152	-0.9515	0.13303
1.606	19.623	-34763	2465.5	-0.27191	-0.95131	0.13361
1.608	19.627	-34761	2465.6	-0.2723	-0.95111	0.1342
1.61	19.603	-34758	2465.8	-0.27328	-0.9516	0.13469
1.612	19.609	-34769	2465.9	-0.27426	-0.95209	0.13518
1.614	19.6	-34779	2466.1	-0.27523	-0.95258	0.13566
1.616	19.604	-34772	2466.4	-0.27621	-0.95306	0.13615
1.618	19.61	-34765	2466.6	-0.27718	-0.95355	0.13664
1.62	19.621	-34766	2466.9	-0.2767	-0.95531	0.13498
1.622	19.648	-34766	2467.2	-0.27621	-0.95707	0.13332
1.624	19.663	-34772	2467.6	-0.27572	-0.95882	0.13166
1.626	19.65	-34778	2468.1	-0.27523	-0.96058	0.13
1.628	19.642	-34783	2468.6	-0.27474	-0.96234	0.12834
1.63	19.642	-34787	2469.2	-0.27435	-0.96029	0.12932
1.632	19.64	-34783	2469.7	-0.27396	-0.95824	0.1303
1.634	19.636	-34779	2470.2	-0.27357	-0.95619	0.13127
1.636	19.639	-34780	2470.8	-0.27318	-0.95414	0.13225
1.638	19.646	-34782	2471.3	-0.27279	-0.95209	0.13322
1.64	19.648	-34780	2471.9	-0.27338	-0.95316	0.13176
1.642	19.643	-34779	2472.5	-0.27396	-0.95424	0.1303
1.644	19.638	-34777	2473	-0.27455	-0.95531	0.12883
1.646	19.645	-34775	2473.6	-0.27513	-0.95638	0.12737
1.648	19.654	-34777	2474.3	-0.27572	-0.95746	0.1259
1.65	19.657	-34779	2474.9	-0.27552	-0.95785	0.12639
1.652	19.659	-34777	2475.6	-0.27533	-0.95824	0.12688
1.654	19.66	-34775	2476.3	-0.27513	-0.95863	0.12737
1.656	19.662	-34777	2476.9	-0.27494	-0.95902	0.12786
1.658	19.668	-34778	2477.6	-0.27474	-0.95941	0.12834
1.66	19.668	-34775	2478.2	-0.27513	-0.9596	0.12864
1.662	19.659	-34771	2478.9	-0.27552	-0.9598	0.12893
1.664	19.657	-34771	2479.5	-0.27592	-0.95999	0.12922
1.666	19.666	-34771	2480.1	-0.27631	-0.96019	0.12952
1.668	19.675	-34763	2480.7	-0.2767	-0.96038	0.12981
1.67	19.676	-34754	2481.2	-0.27728	-0.9598	0.12942
1.672	19.677	-34761	2481.8	-0.27787	-0.95921	0.12903
1.674	19.682	-34768	2482.3	-0.27845	-0.95863	0.12864
1.676	19.689	-34767	2482.7	-0.27904	-0.95804	0.12825
1.678	19.689	-34766	2483.2	-0.27962	-0.95746	0.12786
1.68	19.686	-34766	2483.6	-0.27914	-0.95619	0.12873
1.682	19.684	-34766	2484	-0.27865	-0.95492	0.12961
1.684	19.691	-34761	2484.3	-0.27816	-0.95365	0.13049
1.686	19.696	-34757	2484.5	-0.27767	-0.95238	0.13137
1.688	19.703	-34753	2484.8	-0.27718	-0.95111	0.13225
1.69	19.691	-34749	2485	-0.27943	-0.95053	0.13293
1.692	19.669	-34747	2485.2	-0.28167	-0.94994	0.13361
1.694	19.674	-34745	2485.4	-0.28392	-0.94936	0.1343
1.696	19.692	-34749	2485.6	-0.28616	-0.94877	0.13498
1.698	19.703	-34753	2485.7	-0.28841	-0.94818	0.13566
1.7	19.696	-34747	2485.8	-0.28812	-0.94818	0.13566
1.702	19.706	-34740	2485.8	-0.28782	-0.94818	0.13566
1.704	19.707	-34739	2485.9	-0.28753	-0.94818	0.13566
1.706	19.701	-34738	2485.8	-0.28724	-0.94818	0.13566
1.708	19.699	-34735	2485.8	-0.28694	-0.94818	0.13566
1.71	19.707	-34733	2485.7	-0.28636	-0.94838	0.13605
1.712	19.713	-34730	2485.6	-0.28577	-0.94857	0.13644
1.714	19.696	-34727	2485.5	-0.28519	-0.94877	0.13684
1.716	19.675	-34726	2485.4	-0.2846	-0.94896	0.13723
1.718	19.691	-34725	2485.2	-0.28402	-0.94916	0.13762
1.72	19.696	-34722	2485	-0.28294	-0.95033	0.13654
1.722	19.691	-34720	2484.8	-0.28187	-0.9515	0.13547
1.724	19.694	-34712	2484.6	-0.2808	-0.95267	0.1344
1.726	19.69	-34704	2484.4	-0.27972	-0.95384	0.13332
1.728	19.684	-34705	2484.2	-0.27865	-0.95502	0.13225
1.73	19.688	-34706	2483.9	-0.27796	-0.95463	0.13274
1.732	19.684	-34701	2483.7	-0.27728	-0.95424	0.13322
1.734	19.687	-34696	2483.5	-0.2766	-0.95384	0.13371
1.736	19.688	-34699	2483.3	-0.27592	-0.95345	0.1342
1.738	19.68	-34703	2483	-0.27523	-0.95306	0.13469
1.74	19.668	-34694	2482.8	-0.27504	-0.95355	0.13449
1.742	19.664	-34685	2482.6	-0.27484	-0.95404	0.1343
1.744	19.672	-34686	2482.4	-0.27465	-0.95453	0.1341
1.746	19.678	-34687	2482.2	-0.27445	-0.95502	0.13391
1.748	19.674	-34683	2482	-0.27426	-0.9555	0.13371
1.75	19.668	-34679	2481.8	-0.27299	-0.95492	0.13313
1.752	19.661	-34675	2481.6	-0.27172	-0.95433	0.13254
1.754	19.651	-34671	2481.3	-0.27045	-0.95375	0.13196
1.756	19.637	-34668	2481.1	-0.26918	-0.95316	0.13137
1.758	19.626	-34666	2480.8	-0.26791	-0.95258	0.13078
1.76	19.63	-34663	2480.7	-0.2684	-0.95248	0.13117
1.762	19.645	-34660	2480.5	-0.26889	-0.95238	0.13156
1.764	19.647	-34655	2480.4	-0.26938	-0.95228	0.13196
1.766	19.636	-34651	2480.3	-0.26986	-0.95219	0.13235
1.768	19.634	-34646	2480.2	-0.27035	-0.95209	0.13274
1.77	19.633	-34641	2480.1	-0.27025	-0.95238	0.13215
1.772	19.615	-34646	2480.1	-0.27016	-0.95267	0.13156
1.774	19.614	-34651	2480	-0.27006	-0.95297	0.13098
1.776	19.616	-34646	2480	-0.26996	-0.95326	0.13039
1.778	19.627	-34640	2480	-0.26986	-0.95355	0.12981
1.78	19.635	-34636	2480	-0.27074	-0.95375	0.12942
1.782	19.636	-34631	2480	-0.27162	-0.95394	0.12903
1.784	19.626	-34631	2480.1	-0.2725	-0.95414	0.12864
1.786	19.613	-34631	2480.1	-0.27338	-0.95433	0.12825
1.788	19.606	-34634	2480.1	-0.27426	-0.95453	0.12786
1.79	19.595	-34638	2480.1	-0.27416	-0.95404	0.12795
1.792	19.599	-34632	2480.1	-0.27406	-0.95355	0.12805
1.794	19.611	-34626	2480.1	-0.27396	-0.95306	0.12815
1.796	19.61	-34618	2480.1	-0.27387	-0.95258	0.12825
1.798	19.603	-34610	2480.1	-0.27377	-0.95209	0.12834
1.8	19.591	-34614	2480.1	-0.27348	-0.95248	0.12805
1.802	19.602	-34617	2480.2	-0.27318	-0.95287	0.12776
1.804	19.62	-34615	2480.2	-0.27289	-0.95326	0.12747
1.806	19.628	-34613	2480.2	-0.2726	-0.95365	0.12717
1.808	19.621	-34606	2480.2	-0.2723	-0.95404	0.12688
1.81	19.61	-34598	2480.3	-0.27416	-0.95336	0.12825
1.812	19.607	-34600	2480.3	-0.27601	-0.95267	0.12961
1.814	19.601	-34602	2480.4	-0.27787	-0.95199	0.13098
1.816	19.589	-34602	2480.5	-0.27972	-0.95131	0.13235
1.818	19.586	-34603	2480.6	-0.28158	-0.95062	0.13371
1.82	19.585	-34605	2480.6	-0.28216	-0.94965	0.13342
1.822	19.585	-34608	2480.7	-0.28275	-0.94867	0.13313
1.824	19.591	-34601	2480.7	-0.28333	-0.9477	0.13283
1.826	19.599	-34593	2480.8	-0.28392	-0.94672	0.13254
1.828	19.601	-34591	2480.9	-0.2845	-0.94574	0.13225
1.83	19.599	-34590	2480.9	-0.28333	-0.94643	0.13205
1.832	19.603	-34590	2480.9	-0.28216	-0.94711	0.13186
1.834	19.61	-34589	2480.9	-0.28099	-0.94779	0.13166
1.836	19.607	-34584	2480.9	-0.27982	-0.94848	0.13147
1.838	19.6	-34578	2480.9	-0.27865	-0.94916	0.13127
1.84	19.593	-34581	2480.9	-0.27914	-0.94916	0.13176
1.842	19.582	-34585	2480.8	-0.27962	-0.94916	0.13225
1.844	19.572	-34582	2480.8	-0.28011	-0.94916	0.13274
1.846	19.582	-34580	2480.7	-0.2806	-0.94916	0.13322
1.848	19.602	-34578	2480.6	-0.28109	-0.94916	0.13371
1.85	19.607	-34575	2480.5	-0.2807	-0.94877	0.13283
1.852	19.593	-34573	2480.3	-0.28031	-0.94838	0.13196
1.854	19.588	-34571	2480.2	-0.27992	-0.94799	0.13108
1.856	19.583	-34570	2480	-0.27953	-0.9476	0.1302
1.858	19.587	-34568	2479.8	-0.27914	-0.94721	0.12932
1.86	19.594	-34573	2479.7	-0.27865	-0.94818	0.12981
1.862	19.603	-34578	2479.5	-0.27816	-0.94916	0.1303
1.864	19.604	-34567	2479.4	-0.27767	-0.95014	0.13078
1.866	19.591	-34555	2479.2	-0.27718	-0.95111	0.13127
1.868	19.585	-34557	2479.1	-0.2767	-0.95209	0.13176
1.87	19.596	-34559	2478.9	-0.27796	-0.9518	0.13274
1.872	19.596	-34558	2478.7	-0.27923	-0.9515	0.13371
1.874	19.594	-34558	2478.6	-0.2805	-0.95121	0.13469
1.876	19.598	-34558	2478.5	-0.28177	-0.95092	0.13566
1.878	19.599	-34557	2478.4	-0.28304	-0.95062	0.13664
1.88	19.603	-34555	2478.4	-0.28275	-0.95092	0.13576
1.882	19.601	-34552	2478.3	-0.28245	-0.95121	0.13488
1.884	19.597	-34550	2478.2	-0.28216	-0.9515	0.134
1.886	19.589	-34548	2478.2	-0.28187	-0.9518	0.13313
1.888	19.59	-34549	2478.2	-0.28158	-0.95209	0.13225
1.89	19.596	-34550	2478.2	-0.28148	-0.95336	0.13049
1.892	19.599	-34556	2478.3	-0.28138	-0.95463	0.12873
1.894	19.606	-34561	2478.3	-0.28128	-0.95589	0.12698
1.896	19.616	-34557	2478.2	-0.28119	-0.95716	0.12522
1.898	19.613	-34552	2478.2	-0.28109	-0.95843	0.12346
1.9	19.604	-34550	2478.2	-0.28187	-0.95736	0.12424
1.902	19.602	-34548	2478.2	-0.28265	-0.95628	0.12503
1.904	19.602	-34547	2478.2	-0.28343	-0.95521	0.12581
1.906	19.603	-34545	2478.2	-0.28421	-0.95414	0.12659
1.908	19.602	-34545	2478.3	-0.28499	-0.95306	0.12737
1.91	19.592	-34546	2478.3	-0.2845	-0.95326	0.12698
1.912	19.586	-34550	2478.4	-0.28402	-0.95345	0.12659
1.914	19.591	-34553	2478.4	-0.28353	-0.95365	0.1262
1.916	19.6	-34552	2478.5	-0.28304	-0.95384	0.12581
1.918	19.608	-34551	2478.5	-0.28255	-0.95404	0.12542
1.92	19.61	-34544	2478.5	-0.28255	-0.95424	0.12571
1.922	19.603	-34536	2478.6	-0.28255	-0.95443	0.126
1.924	19.594	-34541	2478.7	-0.28255	-0.95463	0.12629
1.926	19.593	-34546	2478.8	-0.28255	-0.95482	0.12659
1.928	19.605	-34540	2478.9	-0.28255	-0.95502	0.12688
1.93	19.611	-34533	2478.9	-0.28255	-0.95482	0.12698
1.932	19.603	-34535	2479	-0.28255	-0.95463	0.12708
1.934	19.594	-34537	2479.1	-0.28255	-0.95443	0.12717
1.936	19.595	-34537	2479.2	-0.28255	-0.95424	0.12727
1.938	19.611	-34537	2479.2	-0.28255	-0.95404	0.12737
1.94	19.619	-34532	2479.3	-0.28197	-0.95443	0.12737
1.942	19.612	-34527	2479.3	-0.28138	-0.95482	0.12737
1.944	19.613	-34527	2479.3	-0.2808	-0.95521	0.12737
1.946	19.617	-34527	2479.3	-0.28021	-0.9556	0.12737
1.948	19.619	-34523	2479.3	-0.27962	-0.95599	0.12737
1.95	19.624	-34520	2479.3	-0.27904	-0.95658	0.12776
1.952	19.617	-34523	2479.2	-0.27845	-0.95716	0.12815
1.954	19.594	-34527	2479.2	-0.27787	-0.95775	0.12854
1.956	19.584	-34526	2479.2	-0.27728	-0.95833	0.12893
1.958	19.591	-34525	2479.2	-0.2767	-0.95892	0.12932
1.96	19.613	-34525	2479.2	-0.2767	-0.95824	0.12912
1.962	19.624	-34524	2479.1	-0.2767	-0.95755	0.12893
1.964	19.616	-34523	2479.1	-0.2767	-0.95687	0.12873
1.966	19.611	-34522	2479	-0.2767	-0.95619	0.12854
1.968	19.606	-34516	2478.9	-0.2767	-0.9555	0.12834
1.97	19.604	-34510	2478.8	-0.27709	-0.95521	0.12952
1.972	19.608	-34516	2478.7	-0.27748	-0.95492	0.13069
1.974	19.599	-34522	2478.6	-0.27787	-0.95463	0.13186
1.976	19.59	-34519	2478.5	-0.27826	-0.95433	0.13303
1.978	19.609	-34517	2478.4	-0.27865	-0.95404	0.1342
1.98	19.622	-34519	2478.4	-0.27728	-0.95384	0.134
1.982	19.622	-34520	2478.3	-0.27592	-0.95365	0.13381
1.984	19.615	-34518	2478.2	-0.27455	-0.95345	0.13361
1.986	19.608	-34516	2478.1	-0.27318	-0.95326	0.13342
1.988	19.605	-34514	2478	-0.27182	-0.95306	0.13322
1.99	19.599	-34512	2477.8	-0.27211	-0.95316	0.13313
1.992	19.598	-34509	2477.7	-0.2724	-0.95326	0.13303
1.994	19.605	-34507	2477.5	-0.27269	-0.95336	0.13293
1.996	19.6	-34507	2477.5	-0.27299	-0.95345	0.13283
1.998	19.596	-34506	2477.4	-0.27328	-0.95355	0.13274
2	19.599	-34505	2477.2	-0.27406	-0.95345	0.13303
2.002	19.598	-34504	2477.1	-0.27484	-0.95336	0.13332
2.004	19.601	-34508	2476.9	-0.27562	-0.95326	0.13361
2.006	19.606	-34511	2476.8	-0.2764	-0.95316	0.13391
2.008	19.603	-34510	2476.7	-0.27718	-0.95306	0.1342
2.01	19.596	-34508	2476.6	-0.2764	-0.95277	0.1342
2.012	19.596	-34508	2476.5	-0.27562	-0.95248	0.1342
2.014	19.613	-34508	2476.4	-0.27484	-0.95219	0.1342
2.016	19.625	-34507	2476.2	-0.27406	-0.95189	0.1342
2.018	19.609	-34506	2476.1	-0.27328	-0.9516	0.1342
2.02	19.592	-34504	2476.1	-0.27465	-0.9518	0.13381
2.022	19.595	-34503	2476	-0.27601	-0.95199	0.13342
2.024	19.596	-34506	2475.9	-0.27738	-0.95219	0.13303
2.026	19.599	-34509	2475.8	-0.27875	-0.95238	0.13264
2.028	19.591	-34505	2475.8	-0.28011	-0.95258	0.13225
2.03	19.595	-34502	2475.7	-0.27865	-0.9518	0.13205
2.032	19.604	-34499	2475.6	-0.27718	-0.95101	0.13186
2.034	19.597	-34497	2475.5	-0.27572	-0.95023	0.13166
2.036	19.603	-34497	2475.4	-0.27426	-0.94945	0.13147
2.038	19.61	-34497	2475.3	-0.27279	-0.94867	0.13127
2.04	19.596	-34494	2475.2	-0.2725	-0.94896	0.13147
2.042	19.584	-34491	2475.2	-0.27221	-0.94926	0.13166
2.044	19.583	-34492	2475.1	-0.27191	-0.94955	0.13186
2.046	19.608	-34494	2475	-0.27162	-0.94984	0.13205
2.048	19.615	-34496	2475	-0.27133	-0.95014	0.13225
2.05	19.608	-34498	2474.9	-0.27104	-0.95014	0.13215
2.052	19.595	-34498	2474.9	-0.27074	-0.95014	0.13205
2.054	19.581	-34498	2474.8	-0.27045	-0.95014	0.13196
2.056	19.587	-34497	2474.6	-0.27016	-0.95014	0.13186
2.058	19.595	-34496	2474.5	-0.26986	-0.95014	0.13176
2.06	19.59	-34491	2474.5	-0.27045	-0.95043	0.13176
2.062	19.611	-34487	2474.4	-0.27104	-0.95072	0.13176
2.064	19.629	-34492	2474.3	-0.27162	-0.95101	0.13176
2.066	19.626	-34496	2474.3	-0.27221	-0.95131	0.13176
2.068	19.617	-34500	2474.3	-0.27279	-0.9516	0.13176
2.07	19.604	-34504	2474.3	-0.27367	-0.95306	0.13069
2.072	19.582	-34501	2474.2	-0.27455	-0.95453	0.12961
2.074	19.577	-34497	2474.2	-0.27543	-0.95599	0.12854
2.076	19.585	-34496	2474.1	-0.27631	-0.95746	0.12747
2.078	19.585	-34495	2474.1	-0.27718	-0.95892	0.12639
2.08	19.587	-34493	2474.1	-0.27777	-0.95824	0.12649
2.082	19.595	-34491	2474.1	-0.27836	-0.95755	0.12659
2.084	19.605	-34492	2474.2	-0.27894	-0.95687	0.12668
2.086	19.605	-34492	2474.2	-0.27953	-0.95619	0.12678
2.088	19.598	-34496	2474.2	-0.28011	-0.9555	0.12688
2.09	19.593	-34499	2474.1	-0.27923	-0.95492	0.12756
2.092	19.59	-34504	2474.1	-0.27836	-0.95433	0.12825
2.094	19.589	-34508	2474	-0.27748	-0.95375	0.12893
2.096	19.593	-34505	2473.9	-0.2766	-0.95316	0.12961
2.098	19.601	-34501	2473.8	-0.27572	-0.95258	0.1303
2.1	19.606	-34498	2473.8	-0.27611	-0.95258	0.13069
2.102	19.604	-34494	2473.8	-0.2765	-0.95258	0.13108
2.104	19.593	-34497	2473.8	-0.27689	-0.95258	0.13147
2.106	19.583	-34499	2473.8	-0.27728	-0.95258	0.13186
2.108	19.581	-34506	2473.7	-0.27767	-0.95258	0.13225
2.11	19.588	-34512	2473.7	-0.27845	-0.95267	0.13264
2.112	19.59	-34509	2473.7	-0.27923	-0.95277	0.13303
2.114	19.573	-34506	2473.7	-0.28001	-0.95287	0.13342
2.116	19.558	-34505	2473.7	-0.2808	-0.95297	0.13381
2.118	19.577	-34504	2473.7	-0.28158	-0.95306	0.1342
2.12	19.599	-34504	2473.7	-0.28109	-0.95258	0.13391
2.122	19.618	-34504	2473.7	-0.2806	-0.95209	0.13361
2.124	19.62	-34501	2473.8	-0.28011	-0.9516	0.13332
2.126	19.595	-34498	2473.8	-0.27962	-0.95111	0.13303
2.128	19.572	-34497	2473.8	-0.27914	-0.95062	0.13274
2.13	19.566	-34496	2473.8	-0.27894	-0.95101	0.13283
2.132	19.593	-34498	2473.8	-0.27875	-0.9514	0.13293
2.134	19.612	-34500	2473.9	-0.27855	-0.9518	0.13303
2.136	19.612	-34502	2473.9	-0.27836	-0.95219	0.13313
2.138	19.605	-34503	2473.9	-0.27816	-0.95258	0.13322
2.14	19.593	-34505	2473.9	-0.27982	-0.9514	0.13342
2.142	19.586	-34507	2473.8	-0.28148	-0.95023	0.13361
2.144	19.587	-34506	2473.8	-0.28314	-0.94906	0.13381
2.146	19.591	-34505	2473.8	-0.2848	-0.94789	0.134
2.148	19.593	-34505	2473.8	-0.28646	-0.94672	0.1342
2.15	19.602	-34505	2473.8	-0.28519	-0.9475	0.1341
2.152	19.601	-34505	2473.8	-0.28392	-0.94828	0.134
2.154	19.591	-34505	2473.8	-0.28265	-0.94906	0.13391
2.156	19.585	-34508	2473.8	-0.28138	-0.94984	0.13381
2.158	19.59	-34511	2473.8	-0.28011	-0.95062	0.13371
2.16	19.603	-34510	2473.8	-0.27962	-0.95238	0.13274
2.162	19.609	-34510	2473.7	-0.27914	-0.95414	0.13176
2.164	19.61	-34509	2473.7	-0.27865	-0.95589	0.13078
2.166	19.61	-34507	2473.7	-0.27816	-0.95765	0.12981
2.168	19.612	-34507	2473.7	-0.27767	-0.95941	0.12883
2.17	19.604	-34507	2473.6	-0.27806	-0.95814	0.12883
2.172	19.592	-34505	2473.5	-0.27845	-0.95687	0.12883
2.174	19.588	-34503	2473.4	-0.27884	-0.9556	0.12883
2.176	19.589	-34504	2473.3	-0.27923	-0.95433	0.12883
2.178	19.595	-34504	2473.3	-0.27962	-0.95306	0.12883
2.18	19.597	-34506	2473.1	-0.27894	-0.95394	0.12883
2.182	19.595	-34509	2473	-0.27826	-0.95482	0.12883
2.184	19.599	-34509	2472.9	-0.27757	-0.9557	0.12883
2.186	19.597	-34509	2472.8	-0.27689	-0.95658	0.12883
2.188	19.591	-34515	2472.7	-0.27621	-0.95746	0.12883
2.19	19.596	-34520	2472.6	-0.2767	-0.95716	0.12932
2.192	19.595	-34514	2472.4	-0.27718	-0.95687	0.12981
2.194	19.584	-34507	2472.3	-0.27767	-0.95658	0.1303
2.196	19.598	-34505	2472.2	-0.27816	-0.95628	0.13078
2.198	19.602	-34503	2472.1	-0.27865	-0.95599	0.13127
2.2	19.595	-34505	2472	-0.27845	-0.95511	0.13098
2.202	19.6	-34508	2471.8	-0.27826	-0.95424	0.13069
2.204	19.595	-34507	2471.7	-0.27806	-0.95336	0.13039
2.206	19.597	-34505	2471.6	-0.27787	-0.95248	0.1301
2.208	19.607	-34505	2471.5	-0.27767	-0.9516	0.12981
2.21	19.609	-34505	2471.4	-0.27923	-0.95043	0.13078
2.212	19.603	-34511	2471.4	-0.2808	-0.94926	0.13176
2.214	19.595	-34517	2471.3	-0.28236	-0.94809	0.13274
2.216	19.581	-34516	2471.2	-0.28392	-0.94692	0.13371
2.218	19.561	-34516	2471.1	-0.28548	-0.94574	0.13469
2.22	19.568	-34516	2471	-0.28324	-0.94731	0.13391
2.222	19.596	-34517	2470.9	-0.28099	-0.94887	0.13313
2.224	19.596	-34513	2470.8	-0.27875	-0.95043	0.13235
2.226	19.575	-34509	2470.8	-0.2765	-0.95199	0.13156
2.228	19.577	-34513	2470.8	-0.27426	-0.95355	0.13078
2.23	19.589	-34518	2470.7	-0.27592	-0.95306	0.13147
2.232	19.597	-34520	2470.6	-0.27757	-0.95258	0.13215
2.234	19.599	-34522	2470.5	-0.27923	-0.95209	0.13283
2.236	19.598	-34520	2470.5	-0.28089	-0.9516	0.13352
2.238	19.601	-34518	2470.4	-0.28255	-0.95111	0.1342
2.24	19.607	-34517	2470.3	-0.28177	-0.95189	0.13381
2.242	19.603	-34515	2470.2	-0.28099	-0.95267	0.13342
2.244	19.593	-34516	2470.1	-0.28021	-0.95345	0.13303
2.246	19.591	-34516	2470.1	-0.27943	-0.95424	0.13264
2.248	19.594	-34516	2470	-0.27865	-0.95502	0.13225
2.25	19.595	-34516	2469.9	-0.27875	-0.95492	0.13108
2.252	19.597	-34519	2469.9	-0.27884	-0.95482	0.12991
2.254	19.607	-34522	2469.8	-0.27894	-0.95472	0.12873
2.256	19.608	-34517	2469.7	-0.27904	-0.95463	0.12756
2.258	19.596	-34512	2469.7	-0.27914	-0.95453	0.12639
2.26	19.595	-34517	2469.6	-0.27894	-0.95492	0.12668
2.262	19.602	-34522	2469.5	-0.27875	-0.95531	0.12698
2.264	19.598	-34523	2469.4	-0.27855	-0.9557	0.12727
2.266	19.586	-34524	2469.3	-0.27836	-0.95609	0.12756
2.268	19.585	-34524	2469.2	-0.27816	-0.95648	0.12786
2.27	19.601	-34525	2469.2	-0.27738	-0.95511	0.12844
2.272	19.605	-34519	2469.1	-0.2766	-0.95375	0.12903
2.274	19.598	-34512	2469	-0.27582	-0.95238	0.12961
2.276	19.593	-34518	2468.9	-0.27504	-0.95101	0.1302
2.278	19.597	-34523	2468.9	-0.27426	-0.94965	0.13078
2.28	19.6	-34527	2468.8	-0.27367	-0.94994	0.13078
2.282	19.598	-34531	2468.7	-0.27308	-0.95023	0.13078
2.284	19.597	-34527	2468.6	-0.2725	-0.95053	0.13078
2.286	19.591	-34524	2468.4	-0.27191	-0.95082	0.13078
2.288	19.592	-34523	2468.3	-0.27133	-0.95111	0.13078
2.29	19.584	-34523	2468.2	-0.27269	-0.95199	0.13078
2.292	19.577	-34521	2468.1	-0.27406	-0.95287	0.13078
2.294	19.582	-34519	2468	-0.27543	-0.95375	0.13078
2.296	19.593	-34522	2467.9	-0.27679	-0.95463	0.13078
2.298	19.596	-34525	2467.8	-0.27816	-0.9555	0.13078
2.3	19.601	-34525	2467.7	-0.27816	-0.95541	0.12981
2.302	19.609	-34525	2467.7	-0.27816	-0.95531	0.12883
2.304	19.622	-34530	2467.6	-0.27816	-0.95521	0.12786
2.306	19.605	-34535	2467.6	-0.27816	-0.95511	0.12688
2.308	19.573	-34527	2467.5	-0.27816	-0.95502	0.1259
2.31	19.577	-34518	2467.5	-0.27836	-0.95511	0.12659
2.312	19.602	-34520	2467.4	-0.27855	-0.95521	0.12727
2.314	19.617	-34521	2467.4	-0.27875	-0.95531	0.12795
2.316	19.621	-34526	2467.4	-0.27894	-0.95541	0.12864
2.318	19.61	-34532	2467.4	-0.27914	-0.9555	0.12932
2.32	19.602	-34526	2467.4	-0.27875	-0.95619	0.12991
2.322	19.604	-34520	2467.3	-0.27836	-0.95687	0.13049
2.324	19.604	-34523	2467.3	-0.27796	-0.95755	0.13108
2.326	19.597	-34527	2467.2	-0.27757	-0.95824	0.13166
2.328	19.607	-34530	2467.1	-0.27718	-0.95892	0.13225
2.33	19.609	-34533	2467.1	-0.27631	-0.95726	0.13205
2.332	19.601	-34534	2467.1	-0.27543	-0.9556	0.13186
2.334	19.604	-34535	2467	-0.27455	-0.95394	0.13166
2.336	19.618	-34530	2467	-0.27367	-0.95228	0.13147
2.338	19.628	-34525	2466.9	-0.27279	-0.95062	0.13127
2.34	19.629	-34532	2466.9	-0.27348	-0.9516	0.13088
2.342	19.625	-34540	2467	-0.27416	-0.95258	0.13049
2.344	19.629	-34538	2467	-0.27484	-0.95355	0.1301
2.346	19.638	-34535	2466.9	-0.27552	-0.95453	0.12971
2.348	19.643	-34541	2466.9	-0.27621	-0.9555	0.12932
2.35	19.638	-34547	2466.8	-0.27718	-0.95482	0.13069
2.352	19.629	-34545	2466.8	-0.27816	-0.95414	0.13205
2.354	19.635	-34544	2466.7	-0.27914	-0.95345	0.13342
2.356	19.646	-34544	2466.8	-0.28011	-0.95277	0.13479
2.358	19.65	-34545	2466.8	-0.28109	-0.95209	0.13615
2.36	19.655	-34549	2466.7	-0.27972	-0.95277	0.13449
2.362	19.661	-34553	2466.7	-0.27836	-0.95345	0.13283
2.364	19.665	-34550	2466.7	-0.27699	-0.95414	0.13117
2.366	19.672	-34546	2466.6	-0.27562	-0.95482	0.12952
2.368	19.662	-34548	2466.6	-0.27426	-0.9555	0.12786
2.37	19.648	-34550	2466.6	-0.27543	-0.95482	0.12952
2.372	19.635	-34557	2466.6	-0.2766	-0.95414	0.13117
2.374	19.629	-34565	2466.6	-0.27777	-0.95345	0.13283
2.376	19.627	-34558	2466.5	-0.27894	-0.95277	0.13449
2.378	19.618	-34552	2466.5	-0.28011	-0.95209	0.13615
2.38	19.63	-34547	2466.5	-0.2807	-0.9514	0.13586
2.382	19.655	-34541	2466.5	-0.28128	-0.95072	0.13557
2.384	19.663	-34542	2466.5	-0.28187	-0.95004	0.13527
2.386	19.652	-34544	2466.4	-0.28245	-0.94936	0.13498
2.388	19.659	-34551	2466.4	-0.28304	-0.94867	0.13469
2.39	19.67	-34558	2466.4	-0.28245	-0.94896	0.13449
2.392	19.662	-34558	2466.3	-0.28187	-0.94926	0.1343
2.394	19.644	-34557	2466.4	-0.28128	-0.94955	0.1341
2.396	19.631	-34559	2466.4	-0.2807	-0.94984	0.13391
2.398	19.621	-34561	2466.5	-0.28011	-0.95014	0.13371
2.4	19.617	-34560	2466.5	-0.2804	-0.94994	0.13449
2.402	19.621	-34559	2466.6	-0.2807	-0.94975	0.13527
2.404	19.613	-34561	2466.6	-0.28099	-0.94955	0.13605
2.406	19.591	-34563	2466.7	-0.28128	-0.94936	0.13684
2.408	19.58	-34563	2466.7	-0.28158	-0.94916	0.13762
2.41	19.583	-34563	2466.8	-0.28294	-0.94887	0.13723
2.412	19.588	-34563	2466.8	-0.28431	-0.94857	0.13684
2.414	19.588	-34563	2466.8	-0.28568	-0.94828	0.13644
2.416	19.587	-34571	2466.9	-0.28704	-0.94799	0.13605
2.418	19.59	-34578	2466.9	-0.28841	-0.9477	0.13566
2.42	19.587	-34581	2466.9	-0.2887	-0.94818	0.13596
2.422	19.587	-34585	2466.9	-0.28899	-0.94867	0.13625
2.424	19.6	-34579	2466.9	-0.28929	-0.94916	0.13654
2.426	19.612	-34574	2466.9	-0.28958	-0.94965	0.13684
2.428	19.611	-34571	2466.9	-0.28987	-0.95014	0.13713
2.43	19.596	-34569	2466.9	-0.28929	-0.95004	0.13644
2.432	19.584	-34573	2466.9	-0.2887	-0.94994	0.13576
2.434	19.583	-34578	2466.9	-0.28812	-0.94984	0.13508
2.436	19.58	-34577	2466.9	-0.28753	-0.94975	0.1344
2.438	19.577	-34576	2466.9	-0.28694	-0.94965	0.13371
2.44	19.593	-34578	2466.9	-0.28685	-0.94916	0.1341
2.442	19.61	-34580	2466.9	-0.28675	-0.94867	0.13449
2.444	19.599	-34586	2466.9	-0.28665	-0.94818	0.13488
2.446	19.596	-34592	2466.9	-0.28655	-0.9477	0.13527
2.448	19.6	-34587	2466.9	-0.28646	-0.94721	0.13566
2.45	19.603	-34581	2466.9	-0.28646	-0.9474	0.13566
2.452	19.605	-34577	2466.9	-0.28646	-0.9476	0.13566
2.454	19.613	-34573	2466.9	-0.28646	-0.94779	0.13566
2.456	19.619	-34576	2466.8	-0.28646	-0.94799	0.13566
2.458	19.613	-34579	2466.8	-0.28646	-0.94818	0.13566
2.46	19.611	-34583	2466.8	-0.28733	-0.94867	0.13596
2.462	19.624	-34587	2466.8	-0.28821	-0.94916	0.13625
2.464	19.619	-34582	2466.8	-0.28909	-0.94965	0.13654
2.466	19.603	-34577	2466.7	-0.28997	-0.95014	0.13684
2.468	19.587	-34579	2466.7	-0.29085	-0.95062	0.13713
2.47	19.581	-34581	2466.7	-0.29085	-0.95121	0.13674
2.472	19.601	-34580	2466.7	-0.29085	-0.9518	0.13635
2.474	19.61	-34580	2466.7	-0.29085	-0.95238	0.13596
2.476	19.637	-34578	2466.7	-0.29085	-0.95297	0.13557
2.478	19.655	-34577	2466.7	-0.29085	-0.95355	0.13518
2.48	19.673	-34580	2466.7	-0.29016	-0.95228	0.13557
2.482	19.692	-34583	2466.7	-0.28948	-0.95101	0.13596
2.484	19.701	-34585	2466.7	-0.2888	-0.94975	0.13635
2.486	19.689	-34587	2466.7	-0.28812	-0.94848	0.13674
2.488	19.664	-34590	2466.7	-0.28743	-0.94721	0.13713
2.49	19.64	-34594	2466.7	-0.28782	-0.94818	0.13684
2.492	19.597	-34592	2466.8	-0.28821	-0.94916	0.13654
2.494	19.551	-34590	2466.8	-0.2886	-0.95014	0.13625
2.496	19.502	-34593	2466.7	-0.28899	-0.95111	0.13596
2.498	19.458	-34595	2466.7	-0.28938	-0.95209	0.13566
2.5	19.426	-34594	2466.7	-0.28929	-0.95092	0.13586
2.502	19.408	-34592	2466.7	-0.28919	-0.94975	0.13605
2.504	19.405	-34594	2466.7	-0.28909	-0.94857	0.13625
2.506	19.417	-34597	2466.7	-0.28899	-0.9474	0.13644
2.508	19.439	-34597	2466.7	-0.2889	-0.94623	0.13664
2.51	19.464	-34597	2466.7	-0.28977	-0.94711	0.13644
2.512	19.488	-34599	2466.7	-0.29065	-0.94799	0.13625
2.514	19.518	-34601	2466.6	-0.29153	-0.94887	0.13605
2.516	19.553	-34600	2466.6	-0.29241	-0.94975	0.13586
2.518	19.576	-34598	2466.6	-0.29329	-0.95062	0.13566
2.52	19.584	-34597	2466.6	-0.2927	-0.95082	0.13625
2.522	19.59	-34596	2466.5	-0.29212	-0.95101	0.13684
2.524	19.599	-34599	2466.5	-0.29153	-0.95121	0.13742
2.526	19.602	-34601	2466.4	-0.29095	-0.9514	0.13801
2.528	19.601	-34603	2466.4	-0.29036	-0.9516	0.13859
2.53	19.605	-34605	2466.4	-0.29026	-0.95121	0.13859
2.532	19.615	-34603	2466.3	-0.29016	-0.95082	0.13859
2.534	19.609	-34602	2466.3	-0.29007	-0.95043	0.13859
2.536	19.612	-34602	2466.3	-0.28997	-0.95004	0.13859
2.538	19.622	-34603	2466.3	-0.28987	-0.94965	0.13859
2.54	19.626	-34605	2466.4	-0.28938	-0.94877	0.13742
2.542	19.619	-34607	2466.4	-0.2889	-0.94789	0.13625
2.544	19.609	-34611	2466.4	-0.28841	-0.94701	0.13508
2.546	19.617	-34615	2466.4	-0.28792	-0.94613	0.13391
2.548	19.619	-34614	2466.4	-0.28743	-0.94526	0.13274
2.55	19.619	-34613	2466.5	-0.28607	-0.94692	0.13215
2.552	19.616	-34612	2466.5	-0.2847	-0.94857	0.13156
2.554	19.613	-34611	2466.6	-0.28333	-0.95023	0.13098
2.556	19.618	-34614	2466.5	-0.28197	-0.95189	0.13039
2.558	19.626	-34617	2466.5	-0.2806	-0.95355	0.12981
2.56	19.619	-34613	2466.6	-0.28226	-0.95238	0.13117
2.562	19.618	-34610	2466.6	-0.28392	-0.95121	0.13254
2.564	19.618	-34613	2466.6	-0.28558	-0.95004	0.13391
2.566	19.609	-34617	2466.6	-0.28724	-0.94887	0.13527
2.568	19.598	-34624	2466.6	-0.2889	-0.9477	0.13664
2.57	19.595	-34631	2466.6	-0.28743	-0.94916	0.13576
2.572	19.596	-34628	2466.6	-0.28597	-0.95062	0.13488
2.574	19.618	-34624	2466.5	-0.2845	-0.95209	0.134
2.576	19.622	-34626	2466.5	-0.28304	-0.95355	0.13313
2.578	19.613	-34628	2466.4	-0.28158	-0.95502	0.13225
2.58	19.603	-34618	2466.3	-0.28119	-0.95502	0.13186
2.582	19.61	-34608	2466.2	-0.2808	-0.95502	0.13147
2.584	19.619	-34617	2466.1	-0.2804	-0.95502	0.13108
2.586	19.628	-34627	2466	-0.28001	-0.95502	0.13069
2.588	19.625	-34629	2465.9	-0.27962	-0.95502	0.1303
2.59	19.602	-34631	2465.8	-0.27953	-0.95502	0.13039
2.592	19.589	-34634	2465.7	-0.27943	-0.95502	0.13049
2.594	19.599	-34637	2465.6	-0.27933	-0.95502	0.13059
2.596	19.608	-34637	2465.5	-0.27923	-0.95502	0.13069
2.598	19.61	-34636	2465.5	-0.27914	-0.95502	0.13078
2.6	19.61	-34630	2465.3	-0.28216	-0.95424	0.13215
2.602	19.609	-34624	2465.2	-0.28519	-0.95345	0.13352
2.604	19.606	-34630	2465.1	-0.28821	-0.95267	0.13488
2.606	19.607	-34636	2465.1	-0.29124	-0.95189	0.13625
2.608	19.617	-34633	2465	-0.29426	-0.95111	0.13762
2.61	19.619	-34629	2464.9	-0.29319	-0.95121	0.13703
2.612	19.616	-34628	2464.9	-0.29212	-0.95131	0.13644
2.614	19.62	-34627	2464.8	-0.29104	-0.9514	0.13586
2.616	19.63	-34636	2464.7	-0.28997	-0.9515	0.13527
2.618	19.644	-34646	2464.7	-0.2889	-0.9516	0.13469
2.62	19.635	-34642	2464.6	-0.28938	-0.95131	0.13537
2.622	19.622	-34638	2464.5	-0.28987	-0.95101	0.13605
2.624	19.615	-34634	2464.5	-0.29036	-0.95072	0.13674
2.626	19.608	-34630	2464.4	-0.29085	-0.95043	0.13742
2.628	19.619	-34630	2464.3	-0.29134	-0.95014	0.1381
2.63	19.61	-34630	2464.3	-0.29036	-0.94916	0.13703
2.632	19.603	-34630	2464.3	-0.28938	-0.94818	0.13596
2.634	19.611	-34630	2464.2	-0.28841	-0.94721	0.13488
2.636	19.611	-34634	2464.2	-0.28743	-0.94623	0.13381
2.638	19.613	-34638	2464.2	-0.28646	-0.94526	0.13274
2.64	19.614	-34642	2464.2	-0.28577	-0.94584	0.13352
2.642	19.62	-34647	2464.2	-0.28509	-0.94643	0.1343
2.644	19.619	-34649	2464.2	-0.28441	-0.94701	0.13508
2.646	19.619	-34651	2464.3	-0.28372	-0.9476	0.13586
2.648	19.628	-34660	2464.3	-0.28304	-0.94818	0.13664
2.65	19.634	-34669	2464.4	-0.28372	-0.94848	0.13635
2.652	19.618	-34670	2464.4	-0.28441	-0.94877	0.13605
2.654	19.619	-34671	2464.5	-0.28509	-0.94906	0.13576
2.656	19.635	-34668	2464.6	-0.28577	-0.94936	0.13547
2.658	19.645	-34665	2464.6	-0.28646	-0.94965	0.13518
2.66	19.644	-34668	2464.8	-0.28743	-0.95023	0.13537
2.662	19.641	-34670	2464.9	-0.28841	-0.95082	0.13557
2.664	19.634	-34671	2465	-0.28938	-0.9514	0.13576
2.666	19.632	-34672	2465.1	-0.29036	-0.95199	0.13596
2.668	19.631	-34672	2465.3	-0.29134	-0.95258	0.13615
2.67	19.632	-34671	2465.4	-0.29085	-0.95258	0.13576
2.672	19.635	-34674	2465.6	-0.29036	-0.95258	0.13537
2.674	19.634	-34677	2465.7	-0.28987	-0.95258	0.13498
2.676	19.637	-34679	2466	-0.28938	-0.95258	0.13459
2.678	19.636	-34681	2466.2	-0.2889	-0.95258	0.1342
2.68	19.645	-34682	2466.4	-0.2888	-0.95267	0.1343
2.682	19.657	-34683	2466.7	-0.2887	-0.95277	0.1344
2.684	19.658	-34680	2467	-0.2886	-0.95287	0.13449
2.686	19.648	-34678	2467.3	-0.28851	-0.95297	0.13459
2.688	19.64	-34677	2467.6	-0.28841	-0.95306	0.13469
2.69	19.646	-34676	2468	-0.2887	-0.95306	0.13449
2.692	19.66	-34677	2468.5	-0.28899	-0.95306	0.1343
2.694	19.673	-34679	2468.9	-0.28929	-0.95306	0.1341
2.696	19.671	-34681	2469.4	-0.28958	-0.95306	0.13391
2.698	19.663	-34682	2469.9	-0.28987	-0.95306	0.13371
2.7	19.657	-34685	2470.4	-0.28997	-0.95297	0.13342
2.702	19.662	-34688	2470.9	-0.29007	-0.95287	0.13313
2.704	19.668	-34689	2471.4	-0.29016	-0.95277	0.13283
2.706	19.667	-34690	2472	-0.29026	-0.95267	0.13254
2.708	19.668	-34691	2472.5	-0.29036	-0.95258	0.13225
2.71	19.67	-34693	2473	-0.29075	-0.95219	0.13283
2.712	19.676	-34689	2473.5	-0.29114	-0.9518	0.13342
2.714	19.685	-34686	2474.1	-0.29153	-0.9514	0.134
2.716	19.681	-34683	2474.7	-0.29192	-0.95101	0.13459
2.718	19.68	-34679	2475.3	-0.29231	-0.95062	0.13518
2.72	19.683	-34683	2475.8	-0.29339	-0.95004	0.13605
2.722	19.684	-34687	2476.4	-0.29446	-0.94945	0.13693
2.724	19.679	-34686	2476.9	-0.29553	-0.94887	0.13781
2.726	19.678	-34685	2477.4	-0.29661	-0.94828	0.13869
2.728	19.681	-34681	2478	-0.29768	-0.9477	0.13957
2.73	19.695	-34677	2478.4	-0.29534	-0.9474	0.14054
2.732	19.705	-34674	2478.9	-0.293	-0.94711	0.14152
2.734	19.709	-34671	2479.4	-0.29065	-0.94682	0.1425
2.736	19.714	-34669	2479.8	-0.28831	-0.94652	0.14347
2.738	19.697	-34667	2480.3	-0.28597	-0.94623	0.14445
2.74	19.681	-34665	2480.7	-0.28714	-0.94604	0.14376
2.742	19.691	-34663	2481.1	-0.28831	-0.94584	0.14308
2.744	19.706	-34662	2481.5	-0.28948	-0.94565	0.1424
2.746	19.72	-34661	2481.8	-0.29065	-0.94545	0.14172
2.748	19.727	-34660	2482.2	-0.29182	-0.94526	0.14103
2.75	19.726	-34658	2482.4	-0.29163	-0.94545	0.13996
2.752	19.723	-34658	2482.7	-0.29143	-0.94565	0.13888
2.754	19.724	-34657	2482.9	-0.29124	-0.94584	0.13781
2.756	19.723	-34651	2483.1	-0.29104	-0.94604	0.13674
2.758	19.713	-34644	2483.3	-0.29085	-0.94623	0.13566
2.76	19.707	-34645	2483.4	-0.29085	-0.94633	0.13664
2.762	19.707	-34645	2483.5	-0.29085	-0.94643	0.13762
2.764	19.713	-34648	2483.6	-0.29085	-0.94652	0.13859
2.766	19.723	-34650	2483.7	-0.29085	-0.94662	0.13957
2.768	19.736	-34648	2483.8	-0.29085	-0.94672	0.14054
2.77	19.736	-34645	2483.8	-0.29085	-0.94682	0.14015
2.772	19.721	-34640	2483.8	-0.29085	-0.94692	0.13976
2.774	19.715	-34634	2483.9	-0.29085	-0.94701	0.13937
2.776	19.729	-34631	2483.9	-0.29085	-0.94711	0.13898
2.778	19.746	-34627	2483.9	-0.29085	-0.94721	0.13859
2.78	19.747	-34621	2483.9	-0.29134	-0.9475	0.13879
2.782	19.731	-34614	2483.9	-0.29182	-0.94779	0.13898
2.784	19.724	-34608	2483.8	-0.29231	-0.94809	0.13918
2.786	19.726	-34602	2483.7	-0.2928	-0.94838	0.13937
2.788	19.726	-34601	2483.6	-0.29329	-0.94867	0.13957
2.79	19.721	-34600	2483.5	-0.2926	-0.94926	0.13967
2.792	19.718	-34604	2483.4	-0.29192	-0.94984	0.13976
2.794	19.719	-34608	2483.2	-0.29124	-0.95043	0.13986
2.796	19.714	-34609	2483.1	-0.29056	-0.95101	0.13996
2.798	19.706	-34610	2483	-0.28987	-0.9516	0.14006
2.8	19.688	-34604	2482.8	-0.29016	-0.95092	0.13986
2.802	19.678	-34598	2482.6	-0.29046	-0.95023	0.13967
2.804	19.686	-34593	2482.5	-0.29075	-0.94955	0.13947
2.806	19.699	-34588	2482.3	-0.29104	-0.94887	0.13928
2.808	19.691	-34594	2482.1	-0.29134	-0.94818	0.13908
2.81	19.667	-34601	2481.9	-0.29085	-0.94906	0.13781
2.812	19.663	-34592	2481.7	-0.29036	-0.94994	0.13654
2.814	19.653	-34582	2481.5	-0.28987	-0.95082	0.13527
2.816	19.643	-34581	2481.4	-0.28938	-0.9517	0.134
2.818	19.65	-34579	2481.2	-0.2889	-0.95258	0.13274
2.82	19.642	-34580	2481.1	-0.28977	-0.95306	0.13303
2.822	19.651	-34580	2480.9	-0.29065	-0.95355	0.13332
2.824	19.667	-34576	2480.7	-0.29153	-0.95404	0.13361
2.826	19.65	-34572	2480.5	-0.29241	-0.95453	0.13391
2.828	19.631	-34575	2480.3	-0.29329	-0.95502	0.1342
2.83	19.625	-34578	2480.2	-0.29319	-0.95433	0.13469
2.832	19.628	-34572	2480	-0.29309	-0.95365	0.13518
2.834	19.626	-34565	2479.9	-0.293	-0.95297	0.13566
2.836	19.621	-34563	2479.7	-0.2929	-0.95228	0.13615
2.838	19.626	-34562	2479.5	-0.2928	-0.9516	0.13664
2.84	19.632	-34561	2479.4	-0.29417	-0.95062	0.13654
2.842	19.628	-34560	2479.2	-0.29553	-0.94965	0.13644
2.844	19.612	-34559	2479.1	-0.2969	-0.94867	0.13635
2.846	19.598	-34558	2478.9	-0.29827	-0.9477	0.13625
2.848	19.599	-34552	2478.8	-0.29963	-0.94672	0.13615
2.85	19.609	-34546	2478.6	-0.29992	-0.94672	0.13635
2.852	19.615	-34546	2478.5	-0.30022	-0.94672	0.13654
2.854	19.614	-34546	2478.3	-0.30051	-0.94672	0.13674
2.856	19.611	-34545	2478.2	-0.3008	-0.94672	0.13693
2.858	19.607	-34543	2478.1	-0.3011	-0.94672	0.13713
2.86	19.605	-34539	2478	-0.30002	-0.94711	0.13674
2.862	19.602	-34535	2478	-0.29895	-0.9475	0.13635
2.864	19.601	-34534	2477.9	-0.29788	-0.94789	0.13596
2.866	19.598	-34532	2477.8	-0.2968	-0.94828	0.13557
2.868	19.596	-34534	2477.7	-0.29573	-0.94867	0.13518
2.87	19.619	-34535	2477.7	-0.2969	-0.94779	0.13498
2.872	19.633	-34537	2477.7	-0.29807	-0.94692	0.13479
2.874	19.634	-34539	2477.7	-0.29924	-0.94604	0.13459
2.876	19.616	-34536	2477.6	-0.30041	-0.94516	0.1344
2.878	19.601	-34533	2477.6	-0.30158	-0.94428	0.1342
2.88	19.606	-34535	2477.5	-0.30002	-0.94565	0.13557
2.882	19.602	-34537	2477.5	-0.29846	-0.94701	0.13693
2.884	19.595	-34530	2477.4	-0.2969	-0.94838	0.1383
2.886	19.597	-34522	2477.3	-0.29534	-0.94975	0.13967
2.888	19.606	-34520	2477.2	-0.29378	-0.95111	0.14103
2.89	19.624	-34517	2477.1	-0.29495	-0.94955	0.14006
2.892	19.613	-34517	2477.1	-0.29612	-0.94799	0.13908
2.894	19.59	-34516	2477	-0.29729	-0.94643	0.1381
2.896	19.607	-34519	2476.9	-0.29846	-0.94487	0.13713
2.898	19.617	-34522	2476.8	-0.29963	-0.9433	0.13615
2.9	19.614	-34516	2476.7	-0.29641	-0.94272	0.13449
2.902	19.618	-34510	2476.6	-0.29319	-0.94213	0.13283
2.904	19.606	-34505	2476.5	-0.28997	-0.94155	0.13117
2.906	19.597	-34499	2476.4	-0.28675	-0.94096	0.12952
2.908	19.593	-34500	2476.3	-0.28353	-0.94038	0.12786
2.91	19.59	-34501	2476.2	-0.28499	-0.94096	0.12912
2.912	19.603	-34497	2476.1	-0.28646	-0.94155	0.13039
2.914	19.597	-34493	2475.9	-0.28792	-0.94213	0.13166
2.916	19.6	-34491	2475.8	-0.28938	-0.94272	0.13293
2.918	19.621	-34490	2475.6	-0.29085	-0.9433	0.1342
2.92	19.634	-34498	2475.4	-0.29065	-0.94282	0.134
2.922	19.629	-34506	2475.3	-0.29046	-0.94233	0.13381
2.924	19.619	-34506	2475.1	-0.29026	-0.94184	0.13361
2.926	19.619	-34506	2474.9	-0.29007	-0.94135	0.13342
2.928	19.614	-34504	2474.8	-0.28987	-0.94086	0.13322
2.93	19.61	-34502	2474.6	-0.2889	-0.94047	0.13274
2.932	19.61	-34500	2474.5	-0.28792	-0.94008	0.13225
2.934	19.613	-34498	2474.3	-0.28694	-0.93969	0.13176
2.936	19.619	-34492	2474.2	-0.28597	-0.9393	0.13127
2.938	19.624	-34486	2474.1	-0.28499	-0.93891	0.13078
2.94	19.627	-34485	2474.1	-0.28421	-0.94008	0.13049
2.942	19.626	-34484	2474.1	-0.28343	-0.94125	0.1302
2.944	19.625	-34491	2474.1	-0.28265	-0.94243	0.12991
2.946	19.624	-34497	2474.1	-0.28187	-0.9436	0.12961
2.948	19.619	-34488	2474.1	-0.28109	-0.94477	0.12932
2.95	19.618	-34479	2474.1	-0.28167	-0.94428	0.12922
2.952	19.619	-34480	2474.1	-0.28226	-0.94379	0.12912
2.954	19.613	-34482	2474.1	-0.28284	-0.9433	0.12903
2.956	19.612	-34485	2474.2	-0.28343	-0.94282	0.12893
2.958	19.617	-34488	2474.3	-0.28402	-0.94233	0.12883
2.96	19.628	-34485	2474.4	-0.28421	-0.94291	0.12912
2.962	19.64	-34482	2474.5	-0.28441	-0.9435	0.12942
2.964	19.633	-34481	2474.6	-0.2846	-0.94408	0.12971
2.966	19.622	-34480	2474.8	-0.2848	-0.94467	0.13
2.968	19.618	-34475	2474.9	-0.28499	-0.94526	0.1303
2.97	19.616	-34470	2475	-0.28597	-0.94506	0.13
2.972	19.618	-34474	2475.1	-0.28694	-0.94487	0.12971
2.974	19.611	-34479	2475.2	-0.28792	-0.94467	0.12942
2.976	19.62	-34480	2475.3	-0.2889	-0.94448	0.12912
2.978	19.616	-34481	2475.4	-0.28987	-0.94428	0.12883
2.98	19.635	-34478	2475.6	-0.29163	-0.94555	0.1301
2.982	19.64	-34474	2475.7	-0.29339	-0.94682	0.13137
2.984	19.63	-34481	2475.8	-0.29514	-0.94809	0.13264
2.986	19.63	-34489	2475.9	-0.2969	-0.94936	0.13391
2.988	19.625	-34484	2475.9	-0.29866	-0.95062	0.13518
2.99	19.616	-34480	2476	-0.29788	-0.95004	0.13459
2.992	19.623	-34477	2476.1	-0.29709	-0.94945	0.134
2.994	19.621	-34474	2476.2	-0.29631	-0.94887	0.13342
2.996	19.605	-34480	2476.3	-0.29553	-0.94828	0.13283
2.998	19.605	-34486	2476.4	-0.29475	-0.9477	0.13225
3	19.61	-34482	2476.5	-0.29456	-0.94848	0.13264
3.002	19.625	-34478	2476.6	-0.29436	-0.94926	0.13303
3.004	19.626	-34471	2476.6	-0.29417	-0.95004	0.13342
3.006	19.614	-34464	2476.7	-0.29397	-0.95082	0.13381
3.008	19.603	-34469	2476.7	-0.29378	-0.9516	0.1342
3.01	19.616	-34475	2476.7	-0.29407	-0.9515	0.1342
3.012	19.636	-34468	2476.7	-0.29436	-0.9514	0.1342
3.014	19.64	-34460	2476.7	-0.29465	-0.95131	0.1342
3.016	19.626	-34466	2476.6	-0.29495	-0.95121	0.1342
3.018	19.617	-34473	2476.6	-0.29524	-0.95111	0.1342
3.02	19.616	-34471	2476.5	-0.29514	-0.95014	0.1341
3.022	19.614	-34468	2476.4	-0.29504	-0.94916	0.134
3.024	19.616	-34474	2476.3	-0.29495	-0.94818	0.13391
3.026	19.619	-34480	2476.1	-0.29485	-0.94721	0.13381
3.028	19.616	-34467	2476	-0.29475	-0.94623	0.13371
3.03	19.618	-34453	2475.9	-0.29553	-0.94604	0.13469
3.032	19.623	-34459	2475.8	-0.29631	-0.94584	0.13566
3.034	19.619	-34465	2475.7	-0.29709	-0.94565	0.13664
3.036	19.615	-34459	2475.5	-0.29788	-0.94545	0.13762
3.038	19.62	-34453	2475.4	-0.29866	-0.94526	0.13859
3.04	19.62	-34455	2475.4	-0.29748	-0.94633	0.13801
3.042	19.606	-34457	2475.3	-0.29631	-0.9474	0.13742
3.044	19.6	-34458	2475.2	-0.29514	-0.94848	0.13684
3.046	19.611	-34458	2475.1	-0.29397	-0.94955	0.13625
3.048	19.612	-34458	2475	-0.2928	-0.95062	0.13566
3.05	19.612	-34458	2474.9	-0.29368	-0.94906	0.13508
3.052	19.618	-34455	2474.8	-0.29456	-0.9475	0.13449
3.054	19.622	-34453	2474.7	-0.29544	-0.94594	0.13391
3.056	19.617	-34445	2474.5	-0.29631	-0.94438	0.13332
3.058	19.621	-34437	2474.4	-0.29719	-0.94282	0.13274
3.06	19.617	-34442	2474.3	-0.29739	-0.9436	0.13342
3.062	19.614	-34447	2474.1	-0.29758	-0.94438	0.1341
3.064	19.613	-34447	2474	-0.29778	-0.94516	0.13479
3.066	19.602	-34447	2473.9	-0.29797	-0.94594	0.13547
3.068	19.612	-34445	2473.8	-0.29817	-0.94672	0.13615
3.07	19.623	-34443	2473.7	-0.29768	-0.9476	0.13615
3.072	19.618	-34447	2473.6	-0.29719	-0.94848	0.13615
3.074	19.605	-34450	2473.5	-0.2967	-0.94936	0.13615
3.076	19.565	-34447	2473.4	-0.29622	-0.95023	0.13615
3.078	19.57	-34445	2473.3	-0.29573	-0.95111	0.13615
3.08	19.609	-34443	2473.2	-0.29612	-0.95062	0.13644
3.082	19.634	-34441	2473.1	-0.29651	-0.95014	0.13674
3.084	19.646	-34444	2473	-0.2969	-0.94965	0.13703
3.086	19.64	-34447	2473	-0.29729	-0.94916	0.13732
3.088	19.629	-34441	2473	-0.29768	-0.94867	0.13762
3.09	19.623	-34435	2472.9	-0.29797	-0.94828	0.13752
3.092	19.612	-34434	2472.9	-0.29827	-0.94789	0.13742
3.094	19.603	-34434	2472.8	-0.29856	-0.9475	0.13732
3.096	19.602	-34445	2472.7	-0.29885	-0.94711	0.13723
3.098	19.608	-34456	2472.6	-0.29914	-0.94672	0.13713
3.1	19.612	-34445	2472.5	-0.29895	-0.94711	0.13713
3.102	19.612	-34433	2472.4	-0.29875	-0.9475	0.13713
3.104	19.616	-34432	2472.4	-0.29856	-0.94789	0.13713
3.106	19.616	-34430	2472.3	-0.29836	-0.94828	0.13713
3.108	19.602	-34437	2472.3	-0.29817	-0.94867	0.13713
3.11	19.59	-34444	2472.2	-0.29778	-0.94877	0.13742
3.112	19.599	-34437	2472.2	-0.29739	-0.94887	0.13771
3.114	19.611	-34429	2472.1	-0.297	-0.94896	0.13801
3.116	19.616	-34437	2472.1	-0.29661	-0.94906	0.1383
3.118	19.62	-34445	2472.1	-0.29622	-0.94916	0.13859
3.12	19.621	-34445	2472.1	-0.29602	-0.95023	0.1381
3.122	19.619	-34446	2472.2	-0.29583	-0.95131	0.13762
3.124	19.621	-34442	2472.1	-0.29563	-0.95238	0.13713
3.126	19.62	-34438	2472.1	-0.29544	-0.95345	0.13664
3.128	19.62	-34436	2472.1	-0.29524	-0.95453	0.13615
3.13	19.621	-34434	2472	-0.29553	-0.95404	0.13615
3.132	19.624	-34436	2471.9	-0.29583	-0.95355	0.13615
3.134	19.621	-34438	2471.9	-0.29612	-0.95306	0.13615
3.136	19.616	-34438	2471.8	-0.29641	-0.95258	0.13615
3.138	19.612	-34439	2471.7	-0.2967	-0.95209	0.13615
3.14	19.605	-34434	2471.7	-0.29631	-0.9518	0.13684
3.142	19.603	-34429	2471.6	-0.29592	-0.9515	0.13752
3.144	19.596	-34429	2471.6	-0.29553	-0.95121	0.1382
3.146	19.601	-34429	2471.5	-0.29514	-0.95092	0.13888
3.148	19.612	-34431	2471.4	-0.29475	-0.95062	0.13957
3.15	19.612	-34434	2471.4	-0.29553	-0.95053	0.13898
3.152	19.607	-34435	2471.3	-0.29631	-0.95043	0.1384
3.154	19.612	-34436	2471.3	-0.29709	-0.95033	0.13781
3.156	19.611	-34436	2471.3	-0.29788	-0.95023	0.13723
3.158	19.624	-34436	2471.3	-0.29866	-0.95014	0.13664
3.16	19.62	-34431	2471.3	-0.29836	-0.95062	0.13713
3.162	19.621	-34426	2471.3	-0.29807	-0.95111	0.13762
3.164	19.627	-34431	2471.3	-0.29778	-0.9516	0.1381
3.166	19.618	-34435	2471.3	-0.29748	-0.95209	0.13859
3.168	19.611	-34439	2471.3	-0.29719	-0.95258	0.13908
3.17	19.61	-34444	2471.2	-0.29788	-0.95209	0.13928
3.172	19.613	-34442	2471.2	-0.29856	-0.9516	0.13947
3.174	19.617	-34440	2471.2	-0.29924	-0.95111	0.13967
3.176	19.606	-34434	2471.1	-0.29992	-0.95062	0.13986
3.178	19.596	-34428	2471.1	-0.30061	-0.95014	0.14006
3.18	19.6	-34437	2471.1	-0.29983	-0.95072	0.14006
3.182	19.6	-34446	2471.1	-0.29905	-0.95131	0.14006
3.184	19.589	-34446	2471.2	-0.29827	-0.95189	0.14006
3.186	19.595	-34446	2471.2	-0.29748	-0.95248	0.14006
3.188	19.617	-34440	2471.2	-0.2967	-0.95306	0.14006
3.19	19.621	-34434	2471.3	-0.29631	-0.95306	0.14045
3.192	19.612	-34434	2471.3	-0.29592	-0.95306	0.14084
3.194	19.608	-34434	2471.3	-0.29553	-0.95306	0.14123
3.196	19.607	-34442	2471.4	-0.29514	-0.95306	0.14162
3.198	19.606	-34450	2471.4	-0.29475	-0.95306	0.14201
3.2	19.609	-34446	2471.5	-0.29514	-0.95306	0.14113
3.202	19.627	-34442	2471.6	-0.29553	-0.95306	0.14025
3.204	19.646	-34446	2471.7	-0.29592	-0.95306	0.13937
3.206	19.639	-34450	2471.8	-0.29631	-0.95306	0.13849
3.208	19.615	-34443	2471.9	-0.2967	-0.95306	0.13762
3.21	19.602	-34435	2472	-0.29592	-0.95287	0.1382
3.212	19.607	-34441	2472	-0.29514	-0.95267	0.13879
3.214	19.607	-34446	2472.1	-0.29436	-0.95248	0.13937
3.216	19.608	-34441	2472.1	-0.29358	-0.95228	0.13996
3.218	19.602	-34435	2472.1	-0.2928	-0.95209	0.14054
3.22	19.599	-34435	2472.1	-0.29319	-0.95209	0.13967
3.222	19.608	-34434	2472.2	-0.29358	-0.95209	0.13879
3.224	19.613	-34434	2472.2	-0.29397	-0.95209	0.13791
3.226	19.62	-34433	2472.3	-0.29436	-0.95209	0.13703
3.228	19.62	-34441	2472.4	-0.29475	-0.95209	0.13615
3.23	19.609	-34449	2472.4	-0.29485	-0.95189	0.13693
3.232	19.606	-34441	2472.4	-0.29495	-0.9517	0.13771
3.234	19.612	-34433	2472.5	-0.29504	-0.9515	0.13849
3.236	19.611	-34441	2472.6	-0.29514	-0.95131	0.13928
3.238	19.619	-34449	2472.7	-0.29524	-0.95111	0.14006
3.24	19.62	-34445	2472.7	-0.29573	-0.95121	0.13986
3.242	19.597	-34440	2472.8	-0.29622	-0.95131	0.13967
3.244	19.59	-34442	2472.8	-0.2967	-0.9514	0.13947
3.246	19.604	-34444	2472.9	-0.29719	-0.9515	0.13928
3.248	19.623	-34442	2472.9	-0.29768	-0.9516	0.13908
3.25	19.624	-34439	2472.9	-0.29748	-0.9514	0.13937
3.252	19.624	-34443	2473	-0.29729	-0.95121	0.13967
3.254	19.623	-34446	2473	-0.29709	-0.95101	0.13996
3.256	19.62	-34439	2473	-0.2969	-0.95082	0.14025
3.258	19.608	-34433	2472.9	-0.2967	-0.95062	0.14054
3.26	19.598	-34435	2473	-0.29631	-0.95043	0.14054
3.262	19.594	-34437	2473	-0.29592	-0.95023	0.14054
3.264	19.593	-34438	2473	-0.29553	-0.95004	0.14054
3.266	19.598	-34439	2473	-0.29514	-0.94984	0.14054
3.268	19.611	-34437	2473	-0.29475	-0.94965	0.14054
3.27	19.624	-34435	2473	-0.29524	-0.94945	0.14025
3.272	19.633	-34439	2473	-0.29573	-0.94926	0.13996
3.274	19.624	-34444	2473	-0.29622	-0.94906	0.13967
3.276	19.61	-34445	2473	-0.2967	-0.94887	0.13937
3.278	19.597	-34446	2473	-0.29719	-0.94867	0.13908
3.28	19.591	-34442	2473.1	-0.29729	-0.94896	0.13918
3.282	19.6	-34438	2473.1	-0.29739	-0.94926	0.13928
3.284	19.614	-34441	2473.1	-0.29748	-0.94955	0.13937
3.286	19.612	-34445	2473.2	-0.29758	-0.94984	0.13947
3.288	19.598	-34446	2473.2	-0.29768	-0.95014	0.13957
3.29	19.601	-34447	2473.2	-0.29768	-0.95004	0.14015
3.292	19.608	-34445	2473.2	-0.29768	-0.94994	0.14074
3.294	19.605	-34442	2473.2	-0.29768	-0.94984	0.14132
3.296	19.608	-34444	2473.3	-0.29768	-0.94975	0.14191
3.298	19.608	-34446	2473.3	-0.29768	-0.94965	0.1425
3.3	19.59	-34443	2473.3	-0.29817	-0.94945	0.14201
3.302	19.588	-34441	2473.3	-0.29866	-0.94926	0.14152
3.304	19.621	-34440	2473.3	-0.29914	-0.94906	0.14103
3.306	19.646	-34439	2473.3	-0.29963	-0.94887	0.14054
3.308	19.627	-34441	2473.3	-0.30012	-0.94867	0.14006
3.31	19.605	-34443	2473.3	-0.29924	-0.94828	0.13859
3.312	19.599	-34446	2473.3	-0.29836	-0.94789	0.13713
3.314	19.612	-34449	2473.3	-0.29748	-0.9475	0.13566
3.316	19.606	-34452	2473.3	-0.29661	-0.94711	0.1342
3.318	19.596	-34454	2473.2	-0.29573	-0.94672	0.13274
3.32	19.593	-34450	2473.2	-0.2968	-0.94584	0.13274
3.322	19.617	-34445	2473.2	-0.29788	-0.94496	0.13274
3.324	19.627	-34446	2473.2	-0.29895	-0.94408	0.13274
3.326	19.618	-34447	2473.2	-0.30002	-0.94321	0.13274
3.328	19.62	-34448	2473.2	-0.3011	-0.94233	0.13274
3.33	19.616	-34448	2473.2	-0.30061	-0.94223	0.13274
3.332	19.622	-34443	2473.1	-0.30012	-0.94213	0.13274
3.334	19.616	-34438	2473	-0.29963	-0.94204	0.13274
3.336	19.631	-34440	2473	-0.29914	-0.94194	0.13274
3.338	19.636	-34442	2472.9	-0.29866	-0.94184	0.13274
3.34	19.639	-34444	2472.9	-0.29953	-0.94252	0.13361
3.342	19.649	-34447	2472.9	-0.30041	-0.94321	0.13449
3.344	19.655	-34441	2472.8	-0.30129	-0.94389	0.13537
3.346	19.649	-34435	2472.8	-0.30217	-0.94457	0.13625
3.348	19.648	-34438	2472.7	-0.30305	-0.94526	0.13713
3.35	19.658	-34441	2472.6	-0.30197	-0.94477	0.13654
3.352	19.665	-34446	2472.6	-0.3009	-0.94428	0.13596
3.354	19.67	-34450	2472.5	-0.29983	-0.94379	0.13537
3.356	19.673	-34448	2472.5	-0.29875	-0.9433	0.13479
3.358	19.677	-34447	2472.4	-0.29768	-0.94282	0.1342
3.36	19.678	-34446	2472.4	-0.29807	-0.94311	0.1343
3.362	19.676	-34444	2472.3	-0.29846	-0.9434	0.1344
3.364	19.673	-34444	2472.3	-0.29885	-0.94369	0.13449
3.366	19.674	-34444	2472.3	-0.29924	-0.94399	0.13459
3.368	19.675	-34445	2472.3	-0.29963	-0.94428	0.13469
3.37	19.669	-34446	2472.3	-0.29924	-0.94467	0.13449
3.372	19.655	-34446	2472.3	-0.29885	-0.94506	0.1343
3.374	19.642	-34445	2472.3	-0.29846	-0.94545	0.1341
3.376	19.645	-34445	2472.3	-0.29807	-0.94584	0.13391
3.378	19.658	-34445	2472.3	-0.29768	-0.94623	0.13371
3.38	19.659	-34447	2472.3	-0.29827	-0.94623	0.13361
3.382	19.651	-34448	2472.3	-0.29885	-0.94623	0.13352
3.384	19.646	-34450	2472.3	-0.29944	-0.94623	0.13342
3.386	19.648	-34451	2472.3	-0.30002	-0.94623	0.13332
3.388	19.659	-34453	2472.2	-0.30061	-0.94623	0.13322
3.39	19.665	-34455	2472.2	-0.29944	-0.94682	0.13361
3.392	19.658	-34454	2472.2	-0.29827	-0.9474	0.134
3.394	19.655	-34453	2472.2	-0.29709	-0.94799	0.1344
3.396	19.652	-34454	2472.1	-0.29592	-0.94857	0.13479
3.398	19.647	-34454	2472.1	-0.29475	-0.94916	0.13518
3.4	19.633	-34456	2472.1	-0.2967	-0.94809	0.13518
3.402	19.611	-34457	2472.2	-0.29866	-0.94701	0.13518
3.404	19.604	-34461	2472.2	-0.30061	-0.94594	0.13518
3.406	19.607	-34466	2472.2	-0.30256	-0.94487	0.13518
3.408	19.622	-34464	2472.2	-0.30451	-0.94379	0.13518
3.41	19.624	-34463	2472.2	-0.30344	-0.9436	0.13459
3.412	19.602	-34460	2472.2	-0.30236	-0.9434	0.134
3.414	19.604	-34457	2472.2	-0.30129	-0.94321	0.13342
3.416	19.617	-34455	2472.2	-0.30022	-0.94301	0.13283
3.418	19.623	-34454	2472.1	-0.29914	-0.94282	0.13225
3.42	19.604	-34455	2472.1	-0.30032	-0.94321	0.13313
3.422	19.589	-34456	2472.1	-0.30149	-0.9436	0.134
3.424	19.581	-34459	2472.1	-0.30266	-0.94399	0.13488
3.426	19.582	-34461	2472.1	-0.30383	-0.94438	0.13576
3.428	19.58	-34462	2472.1	-0.305	-0.94477	0.13664
3.43	19.586	-34462	2472.1	-0.30559	-0.94594	0.13703
3.432	19.592	-34461	2472	-0.30617	-0.94711	0.13742
3.434	19.607	-34461	2471.9	-0.30676	-0.94828	0.13781
3.436	19.621	-34466	2471.8	-0.30734	-0.94945	0.1382
3.438	19.615	-34471	2471.7	-0.30793	-0.95062	0.13859
3.44	19.603	-34471	2471.6	-0.30715	-0.94965	0.1382
3.442	19.597	-34472	2471.5	-0.30637	-0.94867	0.13781
3.444	19.599	-34469	2471.4	-0.30559	-0.9477	0.13742
3.446	19.598	-34466	2471.3	-0.3048	-0.94672	0.13703
3.448	19.596	-34463	2471.3	-0.30402	-0.94574	0.13664
3.45	19.603	-34461	2471.2	-0.30295	-0.94662	0.13635
3.452	19.623	-34456	2471.2	-0.30188	-0.9475	0.13605
3.454	19.637	-34451	2471.1	-0.3008	-0.94838	0.13576
3.456	19.636	-34455	2471	-0.29973	-0.94926	0.13547
3.458	19.63	-34458	2471	-0.29866	-0.95014	0.13518
3.46	19.62	-34462	2471	-0.29788	-0.94896	0.13381
3.462	19.611	-34466	2471	-0.29709	-0.94779	0.13244
3.464	19.604	-34469	2470.9	-0.29631	-0.94662	0.13108
3.466	19.605	-34472	2470.9	-0.29553	-0.94545	0.12971
3.468	19.611	-34470	2470.8	-0.29475	-0.94428	0.12834
3.47	19.612	-34468	2470.8	-0.29456	-0.94516	0.12912
3.472	19.613	-34471	2470.8	-0.29436	-0.94604	0.12991
3.474	19.623	-34475	2470.7	-0.29417	-0.94692	0.13069
3.476	19.634	-34472	2470.7	-0.29397	-0.94779	0.13147
3.478	19.649	-34470	2470.6	-0.29378	-0.94867	0.13225
3.48	19.669	-34472	2470.6	-0.29329	-0.94789	0.13205
3.482	19.697	-34473	2470.6	-0.2928	-0.94711	0.13186
3.484	19.695	-34472	2470.5	-0.29231	-0.94633	0.13166
3.486	19.672	-34471	2470.5	-0.29182	-0.94555	0.13147
3.488	19.635	-34472	2470.4	-0.29134	-0.94477	0.13127
3.49	19.579	-34473	2470.4	-0.29134	-0.94506	0.13049
3.492	19.518	-34471	2470.4	-0.29134	-0.94535	0.12971
3.494	19.464	-34469	2470.4	-0.29134	-0.94565	0.12893
3.496	19.421	-34471	2470.3	-0.29134	-0.94594	0.12815
3.498	19.379	-34473	2470.2	-0.29134	-0.94623	0.12737
3.5	19.371	-34469	2470.2	-0.29124	-0.94584	0.12747
3.502	19.377	-34465	2470.2	-0.29114	-0.94545	0.12756
3.504	19.383	-34464	2470.1	-0.29104	-0.94506	0.12766
3.506	19.403	-34464	2470.1	-0.29095	-0.94467	0.12776
3.508	19.448	-34470	2470.1	-0.29085	-0.94428	0.12786
3.51	19.482	-34477	2470	-0.29056	-0.94399	0.12805
3.512	19.516	-34475	2470	-0.29026	-0.94369	0.12825
3.514	19.547	-34474	2469.9	-0.28997	-0.9434	0.12844
3.516	19.572	-34471	2469.9	-0.28968	-0.94311	0.12864
3.518	19.586	-34469	2469.8	-0.28938	-0.94282	0.12883
3.52	19.588	-34470	2469.8	-0.2886	-0.94213	0.12854
3.522	19.589	-34470	2469.8	-0.28782	-0.94145	0.12825
3.524	19.586	-34472	2469.8	-0.28704	-0.94077	0.12795
3.526	19.591	-34474	2469.8	-0.28626	-0.94008	0.12766
3.528	19.604	-34473	2469.7	-0.28548	-0.9394	0.12737
3.53	19.612	-34473	2469.7	-0.28675	-0.93979	0.12834
3.532	19.619	-34469	2469.7	-0.28802	-0.94018	0.12932
3.534	19.621	-34466	2469.8	-0.28929	-0.94057	0.1303
3.536	19.624	-34464	2469.9	-0.29056	-0.94096	0.13127
3.538	19.627	-34462	2469.9	-0.29182	-0.94135	0.13225
3.54	19.62	-34466	2469.9	-0.29124	-0.94184	0.13147
3.542	19.624	-34471	2470	-0.29065	-0.94233	0.13069
3.544	19.637	-34476	2470	-0.29007	-0.94282	0.12991
3.546	19.639	-34481	2470	-0.28948	-0.9433	0.12912
3.548	19.635	-34483	2470	-0.2889	-0.94379	0.12834
3.55	19.629	-34486	2470	-0.28851	-0.9434	0.12873
3.552	19.622	-34487	2470	-0.28812	-0.94301	0.12912
3.554	19.618	-34489	2470	-0.28772	-0.94262	0.12952
3.556	19.615	-34483	2470	-0.28733	-0.94223	0.12991
3.558	19.61	-34477	2470.1	-0.28694	-0.94184	0.1303
3.56	19.608	-34482	2470.1	-0.28802	-0.94311	0.13059
3.562	19.616	-34486	2470.1	-0.28909	-0.94438	0.13088
3.564	19.625	-34487	2470.1	-0.29016	-0.94565	0.13117
3.566	19.623	-34488	2470.1	-0.29124	-0.94692	0.13147
3.568	19.614	-34485	2470.1	-0.29231	-0.94818	0.13176
3.57	19.6	-34482	2470.1	-0.29231	-0.94955	0.13147
3.572	19.609	-34484	2470.2	-0.29231	-0.95092	0.13117
3.574	19.623	-34487	2470.1	-0.29231	-0.95228	0.13088
3.576	19.624	-34486	2470.1	-0.29231	-0.95365	0.13059
3.578	19.632	-34485	2470.1	-0.29231	-0.95502	0.1303
3.58	19.636	-34484	2470	-0.29319	-0.95404	0.13156
3.582	19.632	-34483	2469.8	-0.29407	-0.95306	0.13283
3.584	19.627	-34481	2469.8	-0.29495	-0.95209	0.1341
3.586	19.62	-34479	2469.7	-0.29583	-0.95111	0.13537
3.588	19.612	-34484	2469.6	-0.2967	-0.95014	0.13664
3.59	19.611	-34488	2469.5	-0.29778	-0.94926	0.13615
3.592	19.609	-34489	2469.3	-0.29885	-0.94838	0.13566
3.594	19.611	-34490	2469.2	-0.29992	-0.9475	0.13518
3.596	19.61	-34492	2469.1	-0.301	-0.94662	0.13469
3.598	19.611	-34494	2469	-0.30207	-0.94574	0.1342
3.6	19.615	-34496	2468.9	-0.3009	-0.94672	0.1342
3.602	19.618	-34498	2468.8	-0.29973	-0.9477	0.1342
3.604	19.605	-34492	2468.7	-0.29856	-0.94867	0.1342
3.606	19.595	-34486	2468.7	-0.29739	-0.94965	0.1342
3.608	19.596	-34491	2468.7	-0.29622	-0.95062	0.1342
3.61	19.609	-34496	2468.6	-0.2969	-0.94955	0.1342
3.612	19.634	-34493	2468.5	-0.29758	-0.94848	0.1342
3.614	19.644	-34490	2468.4	-0.29827	-0.9474	0.1342
3.616	19.631	-34498	2468.3	-0.29895	-0.94633	0.1342
3.618	19.623	-34505	2468.3	-0.29963	-0.94526	0.1342
3.62	19.626	-34501	2468.2	-0.29797	-0.94565	0.1344
3.622	19.624	-34496	2468.1	-0.29631	-0.94604	0.13459
3.624	19.614	-34495	2468.1	-0.29465	-0.94643	0.13479
3.626	19.613	-34495	2468	-0.293	-0.94682	0.13498
3.628	19.623	-34495	2468	-0.29134	-0.94721	0.13518
3.63	19.618	-34496	2468	-0.29231	-0.94682	0.13527
3.632	19.601	-34494	2468	-0.29329	-0.94643	0.13537
3.634	19.603	-34491	2468	-0.29426	-0.94604	0.13547
3.636	19.612	-34495	2468	-0.29524	-0.94565	0.13557
3.638	19.617	-34498	2468	-0.29622	-0.94526	0.13566
3.64	19.629	-34500	2468	-0.29553	-0.94633	0.13557
3.642	19.625	-34503	2467.9	-0.29485	-0.9474	0.13547
3.644	19.626	-34501	2467.9	-0.29417	-0.94848	0.13537
3.646	19.624	-34500	2467.9	-0.29348	-0.94955	0.13527
3.648	19.63	-34495	2467.9	-0.2928	-0.95062	0.13518
3.65	19.643	-34490	2467.9	-0.2927	-0.94975	0.13498
3.652	19.641	-34503	2468	-0.2926	-0.94887	0.13479
3.654	19.636	-34516	2468	-0.29251	-0.94799	0.13459
3.656	19.633	-34518	2468.1	-0.29241	-0.94711	0.1344
3.658	19.647	-34520	2468.1	-0.29231	-0.94623	0.1342
3.66	19.654	-34515	2468.2	-0.2929	-0.94789	0.1342
3.662	19.654	-34510	2468.3	-0.29348	-0.94955	0.1342
3.664	19.63	-34510	2468.3	-0.29407	-0.95121	0.1342
3.666	19.623	-34509	2468.4	-0.29465	-0.95287	0.1342
3.668	19.644	-34509	2468.5	-0.29524	-0.95453	0.1342
3.67	19.653	-34510	2468.6	-0.29524	-0.95453	0.1344
3.672	19.637	-34512	2468.7	-0.29524	-0.95453	0.13459
3.674	19.643	-34515	2468.9	-0.29524	-0.95453	0.13479
3.676	19.647	-34513	2469	-0.29524	-0.95453	0.13498
3.678	19.646	-34512	2469.2	-0.29524	-0.95453	0.13518
3.68	19.655	-34515	2469.3	-0.29534	-0.95453	0.1344
3.682	19.667	-34518	2469.5	-0.29544	-0.95453	0.13361
3.684	19.663	-34516	2469.7	-0.29553	-0.95453	0.13283
3.686	19.658	-34513	2470	-0.29563	-0.95453	0.13205
3.688	19.669	-34517	2470.2	-0.29573	-0.95453	0.13127
3.69	19.674	-34521	2470.5	-0.29583	-0.95463	0.13137
3.692	19.667	-34519	2470.8	-0.29592	-0.95472	0.13147
3.694	19.663	-34517	2471.2	-0.29602	-0.95482	0.13156
3.696	19.66	-34518	2471.6	-0.29612	-0.95492	0.13166
3.698	19.662	-34519	2472	-0.29622	-0.95502	0.13176
3.7	19.667	-34524	2472.4	-0.29583	-0.95375	0.13225
3.702	19.669	-34528	2472.9	-0.29544	-0.95248	0.13274
3.704	19.672	-34523	2473.4	-0.29504	-0.95121	0.13322
3.706	19.674	-34518	2473.9	-0.29465	-0.94994	0.13371
3.708	19.675	-34520	2474.4	-0.29426	-0.94867	0.1342
3.71	19.683	-34523	2475	-0.29387	-0.94916	0.1342
3.712	19.694	-34523	2475.6	-0.29348	-0.94965	0.1342
3.714	19.694	-34522	2476.2	-0.29309	-0.95014	0.1342
3.716	19.687	-34525	2476.8	-0.2927	-0.95062	0.1342
3.718	19.695	-34528	2477.4	-0.29231	-0.95111	0.1342
3.72	19.712	-34527	2477.9	-0.29329	-0.94984	0.13381
3.722	19.702	-34526	2478.4	-0.29426	-0.94857	0.13342
3.724	19.685	-34524	2479	-0.29524	-0.94731	0.13303
3.726	19.69	-34523	2479.5	-0.29622	-0.94604	0.13264
3.728	19.696	-34527	2480.1	-0.29719	-0.94477	0.13225
3.73	19.714	-34531	2480.6	-0.29729	-0.94487	0.13303
3.732	19.725	-34525	2481.2	-0.29739	-0.94496	0.13381
3.734	19.721	-34518	2481.7	-0.29748	-0.94506	0.13459
3.736	19.696	-34517	2482.1	-0.29758	-0.94516	0.13537
3.738	19.689	-34516	2482.6	-0.29768	-0.94526	0.13615
3.74	19.717	-34511	2483	-0.29856	-0.94448	0.13635
3.742	19.717	-34507	2483.4	-0.29944	-0.94369	0.13654
3.744	19.715	-34507	2483.9	-0.30032	-0.94291	0.13674
3.746	19.731	-34508	2484.3	-0.30119	-0.94213	0.13693
3.748	19.739	-34510	2484.7	-0.30207	-0.94135	0.13713
3.75	19.731	-34511	2485	-0.30149	-0.94145	0.13625
3.752	19.73	-34513	2485.3	-0.3009	-0.94155	0.13537
3.754	19.737	-34515	2485.5	-0.30032	-0.94164	0.13449
3.756	19.74	-34515	2485.7	-0.29973	-0.94174	0.13361
3.758	19.732	-34515	2485.9	-0.29914	-0.94184	0.13274
3.76	19.734	-34512	2486.1	-0.29836	-0.94311	0.1343
3.762	19.742	-34510	2486.2	-0.29758	-0.94438	0.13586
3.764	19.742	-34505	2486.3	-0.2968	-0.94565	0.13742
3.766	19.739	-34500	2486.4	-0.29602	-0.94692	0.13898
3.768	19.73	-34495	2486.4	-0.29524	-0.94818	0.14054
3.77	19.727	-34491	2486.5	-0.29426	-0.94731	0.14064
3.772	19.736	-34491	2486.5	-0.29329	-0.94643	0.14074
3.774	19.744	-34491	2486.5	-0.29231	-0.94555	0.14084
3.776	19.741	-34490	2486.5	-0.29134	-0.94467	0.14093
3.778	19.735	-34488	2486.4	-0.29036	-0.94379	0.14103
3.78	19.733	-34484	2486.4	-0.29192	-0.94418	0.14015
3.782	19.735	-34480	2486.3	-0.29348	-0.94457	0.13928
3.784	19.73	-34479	2486.2	-0.29504	-0.94496	0.1384
3.786	19.725	-34477	2486.1	-0.29661	-0.94535	0.13752
3.788	19.722	-34476	2486	-0.29817	-0.94574	0.13664
3.79	19.724	-34474	2485.9	-0.29827	-0.94584	0.13684
3.792	19.733	-34468	2485.8	-0.29836	-0.94594	0.13703
3.794	19.736	-34462	2485.6	-0.29846	-0.94604	0.13723
3.796	19.725	-34465	2485.5	-0.29856	-0.94613	0.13742
3.798	19.714	-34467	2485.3	-0.29866	-0.94623	0.13762
3.8	19.704	-34461	2485.2	-0.29797	-0.94604	0.13703
3.802	19.693	-34455	2485	-0.29729	-0.94584	0.13644
3.804	19.687	-34450	2484.8	-0.29661	-0.94565	0.13586
3.806	19.68	-34445	2484.7	-0.29592	-0.94545	0.13527
3.808	19.67	-34446	2484.5	-0.29524	-0.94526	0.13469
3.81	19.661	-34448	2484.3	-0.29602	-0.94594	0.13547
3.812	19.667	-34443	2484.1	-0.2968	-0.94662	0.13625
3.814	19.674	-34437	2483.9	-0.29758	-0.94731	0.13703
3.816	19.665	-34435	2483.7	-0.29836	-0.94799	0.13781
3.818	19.653	-34432	2483.5	-0.29914	-0.94867	0.13859
3.82	19.636	-34432	2483.3	-0.29944	-0.94789	0.13791
3.822	19.635	-34431	2483	-0.29973	-0.94711	0.13723
3.824	19.652	-34431	2482.8	-0.30002	-0.94633	0.13654
3.826	19.654	-34430	2482.6	-0.30032	-0.94555	0.13586
3.828	19.647	-34422	2482.4	-0.30061	-0.94477	0.13518
3.83	19.64	-34413	2482.2	-0.29914	-0.94565	0.13518
3.832	19.637	-34408	2481.9	-0.29768	-0.94652	0.13518
3.834	19.625	-34404	2481.7	-0.29622	-0.9474	0.13518
3.836	19.616	-34404	2481.4	-0.29475	-0.94828	0.13518
3.838	19.636	-34404	2481.2	-0.29329	-0.94916	0.13518
3.84	19.621	-34401	2481	-0.29544	-0.94896	0.13596
3.842	19.596	-34398	2480.8	-0.29758	-0.94877	0.13674
3.844	19.609	-34402	2480.6	-0.29973	-0.94857	0.13752
3.846	19.627	-34405	2480.4	-0.30188	-0.94838	0.1383
3.848	19.629	-34405	2480.2	-0.30402	-0.94818	0.13908
3.85	19.623	-34405	2480	-0.30217	-0.94789	0.13781
3.852	19.621	-34399	2479.8	-0.30032	-0.9476	0.13654
3.854	19.605	-34393	2479.7	-0.29846	-0.94731	0.13527
3.856	19.596	-34392	2479.5	-0.29661	-0.94701	0.134
3.858	19.595	-34390	2479.4	-0.29475	-0.94672	0.13274
3.86	19.599	-34391	2479.2	-0.29563	-0.94623	0.13244
3.862	19.613	-34391	2479.1	-0.29651	-0.94574	0.13215
3.864	19.62	-34390	2478.9	-0.29739	-0.94526	0.13186
3.866	19.604	-34390	2478.7	-0.29827	-0.94477	0.13156
3.868	19.588	-34383	2478.5	-0.29914	-0.94428	0.13127
3.87	19.592	-34376	2478.4	-0.29885	-0.94418	0.13176
3.872	19.607	-34377	2478.3	-0.29856	-0.94408	0.13225
3.874	19.616	-34378	2478.1	-0.29827	-0.94399	0.13274
3.876	19.611	-34382	2478	-0.29797	-0.94389	0.13322
3.878	19.602	-34386	2477.8	-0.29768	-0.94379	0.13371
3.88	19.599	-34385	2477.6	-0.2968	-0.94506	0.134
3.882	19.596	-34383	2477.4	-0.29592	-0.94633	0.1343
3.884	19.593	-34376	2477.3	-0.29504	-0.9476	0.13459
3.886	19.591	-34369	2477.2	-0.29417	-0.94887	0.13488
3.888	19.594	-34372	2477.1	-0.29329	-0.95014	0.13518
3.89	19.602	-34375	2477	-0.29378	-0.94984	0.13527
3.892	19.595	-34375	2476.9	-0.29426	-0.94955	0.13537
3.894	19.584	-34375	2476.8	-0.29475	-0.94926	0.13547
3.896	19.584	-34368	2476.8	-0.29524	-0.94896	0.13557
3.898	19.591	-34362	2476.7	-0.29573	-0.94867	0.13566
3.9	19.598	-34360	2476.7	-0.29514	-0.94789	0.13479
3.902	19.61	-34359	2476.6	-0.29456	-0.94711	0.13391
3.904	19.602	-34364	2476.6	-0.29397	-0.94633	0.13303
3.906	19.6	-34368	2476.5	-0.29339	-0.94555	0.13215
3.908	19.602	-34369	2476.5	-0.2928	-0.94477	0.13127
3.91	19.6	-34370	2476.3	-0.29163	-0.94311	0.13166
3.912	19.593	-34366	2476.1	-0.29046	-0.94145	0.13205
3.914	19.581	-34361	2476	-0.28929	-0.93979	0.13244
3.916	19.581	-34357	2475.8	-0.28812	-0.93813	0.13283
3.918	19.593	-34353	2475.6	-0.28694	-0.93647	0.13322
3.92	19.6	-34354	2475.5	-0.28733	-0.93764	0.13313
3.922	19.602	-34354	2475.3	-0.28772	-0.93881	0.13303
3.924	19.611	-34355	2475.2	-0.28812	-0.93999	0.13293
3.926	19.622	-34356	2475.1	-0.28851	-0.94116	0.13283
3.928	19.621	-34355	2475	-0.2889	-0.94233	0.13274
3.93	19.59	-34355	2474.9	-0.28831	-0.94252	0.13196
3.932	19.58	-34349	2474.8	-0.28772	-0.94272	0.13117
3.934	19.603	-34344	2474.7	-0.28714	-0.94291	0.13039
3.936	19.6	-34345	2474.7	-0.28655	-0.94311	0.12961
3.938	19.597	-34346	2474.7	-0.28597	-0.9433	0.12883
3.94	19.609	-34347	2474.7	-0.28538	-0.94399	0.12893
3.942	19.613	-34348	2474.7	-0.2848	-0.94467	0.12903
3.944	19.604	-34348	2474.7	-0.28421	-0.94535	0.12912
3.946	19.603	-34348	2474.7	-0.28363	-0.94604	0.12922
3.948	19.611	-34346	2474.7	-0.28304	-0.94672	0.12932
3.95	19.614	-34345	2474.7	-0.28363	-0.94633	0.12971
3.952	19.608	-34343	2474.6	-0.28421	-0.94594	0.1301
3.954	19.606	-34341	2474.7	-0.2848	-0.94555	0.13049
3.956	19.607	-34345	2474.7	-0.28538	-0.94516	0.13088
3.958	19.609	-34349	2474.7	-0.28597	-0.94477	0.13127
3.96	19.61	-34346	2474.8	-0.28597	-0.94506	0.13078
3.962	19.602	-34343	2474.8	-0.28597	-0.94535	0.1303
3.964	19.597	-34342	2474.9	-0.28597	-0.94565	0.12981
3.966	19.604	-34340	2475	-0.28597	-0.94594	0.12932
3.968	19.609	-34348	2475.1	-0.28597	-0.94623	0.12883
3.97	19.605	-34355	2475.3	-0.28597	-0.94584	0.12932
3.972	19.604	-34351	2475.5	-0.28597	-0.94545	0.12981
3.974	19.607	-34347	2475.7	-0.28597	-0.94506	0.1303
3.976	19.613	-34344	2476	-0.28597	-0.94467	0.13078
3.978	19.607	-34341	2476.2	-0.28597	-0.94428	0.13127
3.98	19.6	-34343	2476.4	-0.28626	-0.94438	0.13078
3.982	19.606	-34346	2476.6	-0.28655	-0.94448	0.1303
3.984	19.614	-34344	2476.8	-0.28685	-0.94457	0.12981
3.986	19.608	-34343	2477	-0.28714	-0.94467	0.12932
3.988	19.604	-34342	2477.1	-0.28743	-0.94477	0.12883
3.99	19.615	-34342	2477.3	-0.28948	-0.94555	0.13069
3.992	19.618	-34340	2477.4	-0.29153	-0.94633	0.13254
3.994	19.603	-34338	2477.6	-0.29358	-0.94711	0.1344
3.996	19.614	-34335	2477.7	-0.29563	-0.94789	0.13625
3.998	19.629	-34333	2477.8	-0.29768	-0.94867	0.1381
4	19.623	-34332	2477.9	-0.29817	-0.94848	0.13752
4.002	19.609	-34331	2478	-0.29866	-0.94828	0.13693
4.004	19.599	-34334	2478.1	-0.29914	-0.94809	0.13635
4.006	19.597	-34336	2478.2	-0.29963	-0.94789	0.13576
4.008	19.594	-34335	2478.3	-0.30012	-0.9477	0.13518
4.01	19.598	-34334	2478.4	-0.30002	-0.94789	0.13576
4.012	19.601	-34332	2478.5	-0.29992	-0.94809	0.13635
4.014	19.614	-34331	2478.5	-0.29983	-0.94828	0.13693
4.016	19.634	-34332	2478.6	-0.29973	-0.94848	0.13752
4.018	19.635	-34332	2478.7	-0.29963	-0.94867	0.1381
4.02	19.635	-34329	2478.8	-0.29856	-0.94887	0.13771
4.022	19.629	-34327	2478.8	-0.29748	-0.94906	0.13732
4.024	19.597	-34327	2478.9	-0.29641	-0.94926	0.13693
4.026	19.587	-34327	2478.9	-0.29534	-0.94945	0.13654
4.028	19.589	-34327	2478.9	-0.29426	-0.94965	0.13615
4.03	19.591	-34327	2478.9	-0.29495	-0.94887	0.13586
4.032	19.608	-34329	2478.9	-0.29563	-0.94809	0.13557
4.034	19.625	-34330	2478.9	-0.29631	-0.94731	0.13527
4.036	19.624	-34331	2478.9	-0.297	-0.94652	0.13498
4.038	19.614	-34331	2478.9	-0.29768	-0.94574	0.13469
4.04	19.613	-34327	2478.9	-0.29827	-0.94555	0.13518
4.042	19.619	-34324	2478.8	-0.29885	-0.94535	0.13566
4.044	19.619	-34323	2478.7	-0.29944	-0.94516	0.13615
4.046	19.611	-34322	2478.7	-0.30002	-0.94496	0.13664
4.048	19.604	-34320	2478.6	-0.30061	-0.94477	0.13713
4.05	19.598	-34318	2478.5	-0.29748	-0.94457	0.13605
4.052	19.597	-34316	2478.4	-0.29436	-0.94438	0.13498
4.054	19.601	-34315	2478.3	-0.29124	-0.94418	0.13391
4.056	19.604	-34314	2478.2	-0.28812	-0.94399	0.13283
4.058	19.603	-34312	2478.1	-0.28499	-0.94379	0.13176
4.06	19.607	-34316	2478.1	-0.28528	-0.94379	0.13127
4.062	19.615	-34319	2478	-0.28558	-0.94379	0.13078
4.064	19.609	-34319	2478	-0.28587	-0.94379	0.1303
4.066	19.597	-34319	2478.1	-0.28616	-0.94379	0.12981
4.068	19.59	-34317	2478.1	-0.28646	-0.94379	0.12932
4.07	19.596	-34315	2478.1	-0.28665	-0.9433	0.12981
4.072	19.607	-34314	2478	-0.28685	-0.94282	0.1303
4.074	19.619	-34313	2478	-0.28704	-0.94233	0.13078
4.076	19.61	-34312	2477.9	-0.28724	-0.94184	0.13127
4.078	19.596	-34311	2477.8	-0.28743	-0.94135	0.13176
4.08	19.603	-34317	2477.7	-0.28958	-0.94174	0.13215
4.082	19.606	-34324	2477.6	-0.29173	-0.94213	0.13254
4.084	19.602	-34317	2477.5	-0.29387	-0.94252	0.13293
4.086	19.608	-34310	2477.3	-0.29602	-0.94291	0.13332
4.088	19.611	-34310	2477.2	-0.29817	-0.9433	0.13371
4.09	19.607	-34310	2477.2	-0.29768	-0.94467	0.1343
4.092	19.606	-34312	2477.1	-0.29719	-0.94604	0.13488
4.094	19.581	-34314	2477.1	-0.2967	-0.9474	0.13547
4.096	19.573	-34306	2477	-0.29622	-0.94877	0.13605
4.098	19.595	-34298	2476.9	-0.29573	-0.95014	0.13664
4.1	19.605	-34303	2476.8	-0.29661	-0.95014	0.13713
4.102	19.601	-34307	2476.7	-0.29748	-0.95014	0.13762
4.104	19.619	-34308	2476.6	-0.29836	-0.95014	0.1381
4.106	19.63	-34309	2476.5	-0.29924	-0.95014	0.13859
4.108	19.607	-34308	2476.4	-0.30012	-0.95014	0.13908
4.11	19.599	-34307	2476.3	-0.29973	-0.94936	0.13898
4.112	19.597	-34309	2476.3	-0.29934	-0.94857	0.13888
4.114	19.596	-34311	2476.2	-0.29895	-0.94779	0.13879
4.116	19.595	-34310	2476	-0.29856	-0.94701	0.13869
4.118	19.595	-34309	2475.9	-0.29817	-0.94623	0.13859
4.12	19.603	-34309	2475.7	-0.29788	-0.9477	0.13791
4.122	19.607	-34309	2475.6	-0.29758	-0.94916	0.13723
4.124	19.606	-34307	2475.5	-0.29729	-0.95062	0.13654
4.126	19.604	-34305	2475.4	-0.297	-0.95209	0.13586
4.128	19.599	-34298	2475.3	-0.2967	-0.95355	0.13518
4.13	19.595	-34291	2475.2	-0.29729	-0.95277	0.13537
4.132	19.594	-34298	2475.1	-0.29788	-0.95199	0.13557
4.134	19.591	-34305	2475	-0.29846	-0.95121	0.13576
4.136	19.594	-34299	2475	-0.29905	-0.95043	0.13596
4.138	19.604	-34293	2474.9	-0.29963	-0.94965	0.13615
4.14	19.606	-34293	2474.8	-0.29983	-0.94906	0.13644
4.142	19.601	-34294	2474.7	-0.30002	-0.94848	0.13674
4.144	19.6	-34293	2474.6	-0.30022	-0.94789	0.13703
4.146	19.597	-34292	2474.6	-0.30041	-0.94731	0.13732
4.148	19.596	-34295	2474.5	-0.30061	-0.94672	0.13762
4.15	19.597	-34297	2474.5	-0.29992	-0.94692	0.13742
4.152	19.587	-34299	2474.4	-0.29924	-0.94711	0.13723
4.154	19.582	-34300	2474.4	-0.29856	-0.94731	0.13703
4.156	19.591	-34298	2474.3	-0.29788	-0.9475	0.13684
4.158	19.588	-34295	2474.2	-0.29719	-0.9477	0.13664
4.16	19.581	-34298	2474.2	-0.29748	-0.94692	0.13615
4.162	19.582	-34301	2474.1	-0.29778	-0.94613	0.13566
4.164	19.585	-34303	2474.1	-0.29807	-0.94535	0.13518
4.166	19.579	-34305	2474	-0.29836	-0.94457	0.13469
4.168	19.582	-34306	2474	-0.29866	-0.94379	0.1342
4.17	19.581	-34307	2474	-0.29895	-0.94428	0.1344
4.172	19.587	-34304	2473.9	-0.29924	-0.94477	0.13459
4.174	19.582	-34302	2473.9	-0.29953	-0.94526	0.13479
4.176	19.574	-34293	2473.9	-0.29983	-0.94574	0.13498
4.178	19.603	-34284	2473.9	-0.30012	-0.94623	0.13518
4.18	19.625	-34294	2473.9	-0.29719	-0.94604	0.1344
4.182	19.601	-34304	2473.9	-0.29426	-0.94584	0.13361
4.184	19.572	-34302	2473.9	-0.29134	-0.94565	0.13283
4.186	19.58	-34300	2473.9	-0.28841	-0.94545	0.13205
4.188	19.592	-34298	2473.9	-0.28548	-0.94526	0.13127
4.19	19.592	-34297	2473.9	-0.28626	-0.94526	0.12991
4.192	19.587	-34297	2473.9	-0.28704	-0.94526	0.12854
4.194	19.592	-34296	2473.8	-0.28782	-0.94526	0.12717
4.196	19.602	-34296	2473.8	-0.2886	-0.94526	0.12581
4.198	19.602	-34295	2473.7	-0.28938	-0.94526	0.12444
4.2	19.595	-34297	2473.7	-0.28841	-0.94457	0.12512
4.202	19.596	-34299	2473.7	-0.28743	-0.94389	0.12581
4.204	19.588	-34296	2473.6	-0.28646	-0.94321	0.12649
4.206	19.58	-34293	2473.6	-0.28548	-0.94252	0.12717
4.208	19.589	-34296	2473.6	-0.2845	-0.94184	0.12786
4.21	19.598	-34299	2473.6	-0.2846	-0.94252	0.12795
4.212	19.602	-34305	2473.5	-0.2847	-0.94321	0.12805
4.214	19.598	-34311	2473.5	-0.2848	-0.94389	0.12815
4.216	19.587	-34309	2473.5	-0.28489	-0.94457	0.12825
4.218	19.587	-34308	2473.4	-0.28499	-0.94526	0.12834
4.22	19.593	-34305	2473.4	-0.28421	-0.94633	0.12844
4.222	19.593	-34301	2473.4	-0.28343	-0.9474	0.12854
4.224	19.592	-34300	2473.4	-0.28265	-0.94848	0.12864
4.226	19.605	-34298	2473.4	-0.28187	-0.94955	0.12873
4.228	19.622	-34299	2473.4	-0.28109	-0.95062	0.12883
4.23	19.612	-34301	2473.4	-0.28206	-0.94955	0.12952
4.232	19.583	-34307	2473.4	-0.28304	-0.94848	0.1302
4.234	19.572	-34314	2473.5	-0.28402	-0.9474	0.13088
4.236	19.583	-34304	2473.5	-0.28499	-0.94633	0.13156
4.238	19.591	-34294	2473.6	-0.28597	-0.94526	0.13225
4.24	19.591	-34295	2473.6	-0.28538	-0.94545	0.13254
4.242	19.586	-34297	2473.6	-0.2848	-0.94565	0.13283
4.244	19.582	-34296	2473.6	-0.28421	-0.94584	0.13313
4.246	19.587	-34295	2473.6	-0.28363	-0.94604	0.13342
4.248	19.592	-34293	2473.6	-0.28304	-0.94623	0.13371
4.25	19.589	-34291	2473.6	-0.28343	-0.94535	0.13254
4.252	19.576	-34289	2473.6	-0.28382	-0.94448	0.13137
4.254	19.571	-34287	2473.6	-0.28421	-0.9436	0.1302
4.256	19.579	-34290	2473.6	-0.2846	-0.94272	0.12903
4.258	19.579	-34293	2473.6	-0.28499	-0.94184	0.12786
4.26	19.59	-34298	2473.6	-0.28587	-0.9433	0.12961
4.262	19.603	-34302	2473.6	-0.28675	-0.94477	0.13137
4.264	19.605	-34302	2473.6	-0.28763	-0.94623	0.13313
4.266	19.599	-34302	2473.5	-0.28851	-0.9477	0.13488
4.268	19.594	-34298	2473.5	-0.28938	-0.94916	0.13664
4.27	19.583	-34294	2473.6	-0.28987	-0.94877	0.13644
4.272	19.59	-34298	2473.6	-0.29036	-0.94838	0.13625
4.274	19.595	-34302	2473.6	-0.29085	-0.94799	0.13605
4.276	19.592	-34298	2473.6	-0.29134	-0.9476	0.13586
4.278	19.589	-34294	2473.6	-0.29182	-0.94721	0.13566
4.28	19.588	-34298	2473.6	-0.293	-0.9474	0.13576
4.282	19.588	-34302	2473.6	-0.29417	-0.9476	0.13586
4.284	19.59	-34300	2473.6	-0.29534	-0.94779	0.13596
4.286	19.593	-34297	2473.6	-0.29651	-0.94799	0.13605
4.288	19.589	-34296	2473.6	-0.29768	-0.94818	0.13615
4.29	19.571	-34295	2473.6	-0.29739	-0.94857	0.13615
4.292	19.564	-34301	2473.6	-0.29709	-0.94896	0.13615
4.294	19.58	-34308	2473.6	-0.2968	-0.94936	0.13615
4.296	19.587	-34302	2473.5	-0.29651	-0.94975	0.13615
4.298	19.588	-34297	2473.5	-0.29622	-0.95014	0.13615
4.3	19.589	-34299	2473.5	-0.29544	-0.95053	0.13547
4.302	19.586	-34302	2473.5	-0.29465	-0.95092	0.13479
4.304	19.578	-34302	2473.5	-0.29387	-0.95131	0.1341
4.306	19.568	-34303	2473.5	-0.29309	-0.9517	0.13342
4.308	19.57	-34296	2473.5	-0.29231	-0.95209	0.13274
4.31	19.576	-34290	2473.5	-0.2929	-0.95209	0.13391
4.312	19.579	-34298	2473.5	-0.29348	-0.95209	0.13508
4.314	19.588	-34306	2473.5	-0.29407	-0.95209	0.13625
4.316	19.598	-34305	2473.5	-0.29465	-0.95209	0.13742
4.318	19.6	-34304	2473.5	-0.29524	-0.95209	0.13859
4.32	19.599	-34308	2473.5	-0.29583	-0.9514	0.13791
4.322	19.595	-34312	2473.5	-0.29641	-0.95072	0.13723
4.324	19.591	-34313	2473.5	-0.297	-0.95004	0.13654
4.326	19.59	-34314	2473.4	-0.29758	-0.94936	0.13586
4.328	19.594	-34310	2473.4	-0.29817	-0.94867	0.13518
4.33	19.588	-34307	2473.4	-0.29797	-0.94867	0.13566
4.332	19.584	-34305	2473.4	-0.29778	-0.94867	0.13615
4.334	19.598	-34303	2473.4	-0.29758	-0.94867	0.13664
4.336	19.612	-34307	2473.3	-0.29739	-0.94867	0.13713
4.338	19.618	-34310	2473.2	-0.29719	-0.94867	0.13762
4.34	19.62	-34307	2473.2	-0.29739	-0.94887	0.1381
4.342	19.611	-34304	2473.1	-0.29758	-0.94906	0.13859
4.344	19.605	-34310	2473	-0.29778	-0.94926	0.13908
4.346	19.609	-34316	2473	-0.29797	-0.94945	0.13957
4.348	19.617	-34311	2472.9	-0.29817	-0.94965	0.14006
4.35	19.62	-34306	2472.8	-0.29758	-0.94955	0.13937
4.352	19.622	-34305	2472.7	-0.297	-0.94945	0.13869
4.354	19.631	-34305	2472.7	-0.29641	-0.94936	0.13801
4.356	19.648	-34301	2472.6	-0.29583	-0.94926	0.13732
4.358	19.644	-34296	2472.5	-0.29524	-0.94916	0.13664
4.36	19.631	-34307	2472.5	-0.29417	-0.94906	0.13625
4.362	19.627	-34319	2472.4	-0.29309	-0.94896	0.13586
4.364	19.627	-34318	2472.3	-0.29202	-0.94887	0.13547
4.366	19.631	-34317	2472.2	-0.29095	-0.94877	0.13508
4.368	19.643	-34314	2472.1	-0.28987	-0.94867	0.13469
4.37	19.644	-34312	2472	-0.28987	-0.94867	0.13479
4.372	19.638	-34314	2471.9	-0.28987	-0.94867	0.13488
4.374	19.636	-34316	2471.8	-0.28987	-0.94867	0.13498
4.376	19.632	-34317	2471.7	-0.28987	-0.94867	0.13508
4.378	19.626	-34318	2471.6	-0.28987	-0.94867	0.13518
4.38	19.634	-34322	2471.5	-0.29163	-0.94877	0.13498
4.382	19.641	-34326	2471.5	-0.29339	-0.94887	0.13479
4.384	19.63	-34325	2471.4	-0.29514	-0.94896	0.13459
4.386	19.622	-34323	2471.2	-0.2969	-0.94906	0.1344
4.388	19.626	-34321	2471.1	-0.29866	-0.94916	0.1342
4.39	19.627	-34318	2471	-0.29748	-0.94936	0.13449
4.392	19.622	-34315	2470.8	-0.29631	-0.94955	0.13479
4.394	19.613	-34312	2470.7	-0.29514	-0.94975	0.13508
4.396	19.607	-34312	2470.6	-0.29397	-0.94994	0.13537
4.398	19.6	-34312	2470.5	-0.2928	-0.95014	0.13566
4.4	19.59	-34317	2470.5	-0.29378	-0.95014	0.13576
4.402	19.584	-34321	2470.5	-0.29475	-0.95014	0.13586
4.404	19.58	-34322	2470.5	-0.29573	-0.95014	0.13596
4.406	19.574	-34323	2470.6	-0.2967	-0.95014	0.13605
4.408	19.573	-34323	2470.6	-0.29768	-0.95014	0.13615
4.41	19.569	-34324	2470.6	-0.29797	-0.94945	0.13615
4.412	19.562	-34326	2470.7	-0.29827	-0.94877	0.13615
4.414	19.571	-34329	2470.7	-0.29856	-0.94809	0.13615
4.416	19.59	-34325	2470.8	-0.29885	-0.9474	0.13615
4.418	19.593	-34321	2470.9	-0.29914	-0.94672	0.13615
4.42	19.593	-34323	2470.9	-0.29836	-0.94652	0.13576
4.422	19.604	-34325	2470.9	-0.29758	-0.94633	0.13537
4.424	19.6	-34328	2470.8	-0.2968	-0.94613	0.13498
4.426	19.593	-34330	2470.8	-0.29602	-0.94594	0.13459
4.428	19.581	-34330	2470.8	-0.29524	-0.94574	0.1342
4.43	19.589	-34330	2470.8	-0.29553	-0.94652	0.13469
4.432	19.601	-34331	2470.8	-0.29583	-0.94731	0.13518
4.434	19.59	-34331	2470.8	-0.29612	-0.94809	0.13566
4.436	19.587	-34329	2470.7	-0.29641	-0.94887	0.13615
4.438	19.59	-34326	2470.7	-0.2967	-0.94965	0.13664
4.44	19.587	-34326	2470.6	-0.2969	-0.94945	0.13615
4.442	19.585	-34326	2470.6	-0.29709	-0.94926	0.13566
4.444	19.582	-34330	2470.6	-0.29729	-0.94906	0.13518
4.446	19.585	-34334	2470.6	-0.29748	-0.94887	0.13469
4.448	19.596	-34335	2470.6	-0.29768	-0.94867	0.1342
4.45	19.601	-34336	2470.6	-0.29827	-0.94828	0.13449
4.452	19.605	-34336	2470.7	-0.29885	-0.94789	0.13479
4.454	19.606	-34335	2470.7	-0.29944	-0.9475	0.13508
4.456	19.612	-34332	2470.7	-0.30002	-0.94711	0.13537
4.458	19.619	-34330	2470.7	-0.30061	-0.94672	0.13566
4.46	19.626	-34331	2470.6	-0.29973	-0.9477	0.13586
4.462	19.631	-34333	2470.6	-0.29885	-0.94867	0.13605
4.464	19.64	-34332	2470.6	-0.29797	-0.94965	0.13625
4.466	19.658	-34330	2470.5	-0.29709	-0.95062	0.13644
4.468	19.677	-34330	2470.5	-0.29622	-0.9516	0.13664
4.47	19.693	-34331	2470.5	-0.29709	-0.95072	0.13732
4.472	19.708	-34334	2470.4	-0.29797	-0.94984	0.13801
4.474	19.719	-34338	2470.4	-0.29885	-0.94896	0.13869
4.476	19.725	-34334	2470.3	-0.29973	-0.94809	0.13937
4.478	19.723	-34330	2470.2	-0.30061	-0.94721	0.14006
4.48	19.71	-34333	2470.2	-0.29983	-0.94643	0.13869
4.482	19.685	-34335	2470.1	-0.29905	-0.94565	0.13732
4.484	19.662	-34337	2470	-0.29827	-0.94487	0.13596
4.486	19.646	-34339	2470	-0.29748	-0.94408	0.13459
4.488	19.62	-34347	2469.9	-0.2967	-0.9433	0.13322
4.49	19.582	-34356	2469.8	-0.29651	-0.94526	0.1341
4.492	19.536	-34349	2469.8	-0.29631	-0.94721	0.13498
4.494	19.513	-34341	2469.7	-0.29612	-0.94916	0.13586
4.496	19.509	-34344	2469.7	-0.29592	-0.95111	0.13674
4.498	19.491	-34346	2469.8	-0.29573	-0.95306	0.13762
4.5	19.487	-34344	2469.7	-0.29583	-0.95287	0.13771
4.502	19.501	-34341	2469.7	-0.29592	-0.95267	0.13781
4.504	19.519	-34341	2469.6	-0.29602	-0.95248	0.13791
4.506	19.547	-34342	2469.6	-0.29612	-0.95228	0.13801
4.508	19.563	-34345	2469.5	-0.29622	-0.95209	0.1381
4.51	19.564	-34349	2469.5	-0.29661	-0.95131	0.13771
4.512	19.565	-34349	2469.4	-0.297	-0.95053	0.13732
4.514	19.58	-34348	2469.4	-0.29739	-0.94975	0.13693
4.516	19.598	-34349	2469.3	-0.29778	-0.94896	0.13654
4.518	19.604	-34351	2469.3	-0.29817	-0.94818	0.13615
4.52	19.601	-34353	2469.2	-0.2968	-0.94857	0.13635
4.522	19.593	-34356	2469.2	-0.29544	-0.94896	0.13654
4.524	19.593	-34355	2469.1	-0.29407	-0.94936	0.13674
4.526	19.611	-34353	2469.1	-0.2927	-0.94975	0.13693
4.528	19.62	-34353	2469	-0.29134	-0.95014	0.13713
4.53	19.624	-34353	2469	-0.29153	-0.94936	0.13732
4.532	19.629	-34358	2468.9	-0.29173	-0.94857	0.13752
4.534	19.62	-34363	2468.9	-0.29192	-0.94779	0.13771
4.536	19.605	-34362	2468.8	-0.29212	-0.94701	0.13791
4.538	19.598	-34360	2468.8	-0.29231	-0.94623	0.1381
4.54	19.593	-34359	2468.8	-0.29251	-0.9476	0.13762
4.542	19.583	-34358	2468.7	-0.2927	-0.94896	0.13713
4.544	19.572	-34358	2468.7	-0.2929	-0.95033	0.13664
4.546	19.573	-34358	2468.7	-0.29309	-0.9517	0.13615
4.548	19.598	-34360	2468.6	-0.29329	-0.95306	0.13566
4.55	19.61	-34361	2468.6	-0.2926	-0.95297	0.13527
4.552	19.596	-34363	2468.6	-0.29192	-0.95287	0.13488
4.554	19.587	-34364	2468.7	-0.29124	-0.95277	0.13449
4.556	19.595	-34359	2468.7	-0.29056	-0.95267	0.1341
4.558	19.606	-34354	2468.8	-0.28987	-0.95258	0.13371
4.56	19.612	-34354	2468.8	-0.28909	-0.95219	0.13283
4.562	19.615	-34354	2468.8	-0.28831	-0.9518	0.13196
4.564	19.612	-34357	2468.8	-0.28753	-0.9514	0.13108
4.566	19.6	-34359	2468.8	-0.28675	-0.95101	0.1302
4.568	19.592	-34364	2468.8	-0.28597	-0.95062	0.12932
4.57	19.59	-34369	2468.8	-0.28665	-0.95111	0.12991
4.572	19.599	-34370	2468.8	-0.28733	-0.9516	0.13049
4.574	19.613	-34370	2468.7	-0.28802	-0.95209	0.13108
4.576	19.609	-34368	2468.7	-0.2887	-0.95258	0.13166
4.578	19.596	-34365	2468.6	-0.28938	-0.95306	0.13225
4.58	19.6	-34365	2468.5	-0.29046	-0.95277	0.13283
4.582	19.606	-34366	2468.4	-0.29153	-0.95248	0.13342
4.584	19.599	-34368	2468.4	-0.2926	-0.95219	0.134
4.586	19.591	-34369	2468.3	-0.29368	-0.95189	0.13459
4.588	19.596	-34368	2468.2	-0.29475	-0.9516	0.13518
4.59	19.606	-34366	2468.1	-0.29426	-0.95189	0.13566
4.592	19.607	-34367	2468	-0.29378	-0.95219	0.13615
4.594	19.6	-34369	2467.9	-0.29329	-0.95248	0.13664
4.596	19.598	-34370	2467.8	-0.2928	-0.95277	0.13713
4.598	19.596	-34371	2467.7	-0.29231	-0.95306	0.13762
