t	ekg	optical	pressure	accel_x	accel_y	accel_z
0	-16.546	-32138	3279.8	-0.63782	-0.5329	-0.56266
0.002	-16.538	-32135	3279.6	-0.63704	-0.5329	-0.56344
0.004	-16.526	-32131	3279.5	-0.63625	-0.5329	-0.56423
0.006	-16.519	-32129	3279.4	-0.63547	-0.5329	-0.56501
0.008	-16.53	-32128	3279.3	-0.63469	-0.5329	-0.56579
0.01	-16.547	-32131	3279.1	-0.63391	-0.5329	-0.56657
0.012	-16.553	-32134	3278.9	-0.63333	-0.53182	-0.5652
0.014	-16.53	-32137	3278.8	-0.63274	-0.53075	-0.56384
0.016	-16.513	-32139	3278.6	-0.63216	-0.52968	-0.56247
0.018	-16.542	-32138	3278.4	-0.63157	-0.5286	-0.5611
0.02	-16.553	-32137	3278.1	-0.63098	-0.52753	-0.55974
0.022	-16.515	-32139	3277.8	-0.63069	-0.52753	-0.56003
0.024	-16.5	-32140	3277.5	-0.6304	-0.52753	-0.56032
0.026	-16.527	-32139	3277.2	-0.63011	-0.52753	-0.56061
0.028	-16.517	-32137	3276.8	-0.62981	-0.52753	-0.56091
0.03	-16.498	-32139	3276.5	-0.62952	-0.52753	-0.5612
0.032	-16.486	-32141	3276.2	-0.62952	-0.52802	-0.5611
0.034	-16.5	-32146	3275.9	-0.62952	-0.5285	-0.561
0.036	-16.51	-32150	3275.7	-0.62952	-0.52899	-0.56091
0.038	-16.509	-32149	3275.4	-0.62952	-0.52948	-0.56081
0.04	-16.491	-32148	3275.1	-0.62952	-0.52997	-0.56071
0.042	-16.479	-32151	3274.8	-0.62854	-0.52948	-0.55993
0.044	-16.466	-32154	3274.5	-0.62757	-0.52899	-0.55915
0.046	-16.49	-32155	3274.2	-0.62659	-0.5285	-0.55837
0.048	-16.502	-32155	3273.8	-0.62562	-0.52802	-0.55759
0.05	-16.473	-32158	3273.5	-0.62464	-0.52753	-0.55681
0.052	-16.477	-32160	3273.1	-0.62513	-0.52724	-0.557
0.054	-16.482	-32156	3272.7	-0.62562	-0.52694	-0.5572
0.056	-16.476	-32153	3272.3	-0.6261	-0.52665	-0.55739
0.058	-16.471	-32160	3271.9	-0.62659	-0.52636	-0.55759
0.06	-16.474	-32167	3271.5	-0.62708	-0.52606	-0.55778
0.062	-16.479	-32165	3271.1	-0.62854	-0.52548	-0.55915
0.064	-16.486	-32163	3270.6	-0.63001	-0.52489	-0.56052
0.066	-16.506	-32166	3270.2	-0.63147	-0.52431	-0.56188
0.068	-16.54	-32169	3269.8	-0.63294	-0.52372	-0.56325
0.07	-16.553	-32173	3269.3	-0.6344	-0.52314	-0.56462
0.072	-16.549	-32178	3268.9	-0.63362	-0.52294	-0.56491
0.074	-16.543	-32177	3268.4	-0.63284	-0.52275	-0.5652
0.076	-16.538	-32177	3268	-0.63206	-0.52255	-0.56549
0.078	-16.538	-32178	3267.5	-0.63128	-0.52236	-0.56579
0.08	-16.546	-32179	3267.1	-0.6305	-0.52216	-0.56608
0.082	-16.556	-32181	3266.5	-0.63059	-0.52284	-0.56452
0.084	-16.564	-32184	3266	-0.63069	-0.52353	-0.56296
0.086	-16.556	-32184	3265.4	-0.63079	-0.52421	-0.5614
0.088	-16.538	-32183	3264.8	-0.63089	-0.52489	-0.55983
0.09	-16.536	-32182	3264.1	-0.63098	-0.52558	-0.55827
0.092	-16.556	-32180	3263.5	-0.6302	-0.52528	-0.55876
0.094	-16.566	-32181	3262.9	-0.62942	-0.52499	-0.55925
0.096	-16.549	-32182	3262.3	-0.62864	-0.5247	-0.55974
0.098	-16.555	-32182	3261.8	-0.62786	-0.5244	-0.56022
0.1	-16.56	-32182	3261.2	-0.62708	-0.52411	-0.56071
0.102	-16.548	-32189	3261	-0.62757	-0.52382	-0.5612
0.104	-16.541	-32196	3260.8	-0.62806	-0.52353	-0.56169
0.106	-16.544	-32196	3260.6	-0.62854	-0.52323	-0.56218
0.108	-16.564	-32196	3260.5	-0.62903	-0.52294	-0.56266
0.11	-16.577	-32197	3260.4	-0.62952	-0.52265	-0.56315
0.112	-16.564	-32199	3260.3	-0.63128	-0.5248	-0.56364
0.114	-16.549	-32198	3260.2	-0.63303	-0.52694	-0.56413
0.116	-16.521	-32198	3260.2	-0.63479	-0.52909	-0.56462
0.118	-16.518	-32198	3260.1	-0.63655	-0.53124	-0.5651
0.12	-16.532	-32197	3260.1	-0.6383	-0.53338	-0.56559
0.122	-16.525	-32200	3260.1	-0.63811	-0.53338	-0.5653
0.124	-16.512	-32202	3260.2	-0.63791	-0.53338	-0.56501
0.126	-16.527	-32207	3260.3	-0.63772	-0.53338	-0.56471
0.128	-16.535	-32212	3260.4	-0.63752	-0.53338	-0.56442
0.13	-16.506	-32208	3260.4	-0.63733	-0.53338	-0.56413
0.132	-16.497	-32203	3260.5	-0.63694	-0.53368	-0.56549
0.134	-16.517	-32210	3260.7	-0.63655	-0.53397	-0.56686
0.136	-16.515	-32216	3260.8	-0.63616	-0.53426	-0.56823
0.138	-16.475	-32209	3260.8	-0.63577	-0.53456	-0.56959
0.14	-16.462	-32203	3260.9	-0.63538	-0.53485	-0.57096
0.142	-16.447	-32210	3261.1	-0.63499	-0.53426	-0.57067
0.144	-16.433	-32216	3261.3	-0.6346	-0.53368	-0.57037
0.146	-16.416	-32211	3261.5	-0.6342	-0.53309	-0.57008
0.148	-16.412	-32207	3261.7	-0.63381	-0.53251	-0.56979
0.15	-16.427	-32214	3262	-0.63342	-0.53192	-0.5695
0.152	-16.429	-32221	3262.2	-0.63372	-0.53251	-0.56959
0.154	-16.443	-32213	3262.5	-0.63401	-0.53309	-0.56969
0.156	-16.493	-32205	3262.7	-0.6343	-0.53368	-0.56979
0.158	-16.551	-32213	3262.9	-0.6346	-0.53426	-0.56989
0.16	-16.59	-32220	3263.1	-0.63489	-0.53485	-0.56998
0.162	-16.629	-32220	3263.2	-0.63479	-0.53397	-0.56979
0.164	-16.674	-32220	3263.4	-0.63469	-0.53309	-0.56959
0.166	-16.709	-32220	3263.5	-0.6346	-0.53221	-0.5694
0.168	-16.721	-32219	3263.6	-0.6345	-0.53133	-0.5692
0.17	-16.713	-32214	3263.7	-0.6344	-0.53046	-0.56901
0.172	-16.692	-32210	3263.8	-0.63489	-0.53114	-0.56872
0.174	-16.653	-32214	3263.9	-0.63538	-0.53182	-0.56842
0.176	-16.624	-32219	3263.9	-0.63586	-0.53251	-0.56813
0.178	-16.61	-32218	3263.9	-0.63635	-0.53319	-0.56784
0.18	-16.591	-32218	3263.9	-0.63684	-0.53387	-0.56754
0.182	-16.573	-32222	3263.9	-0.63645	-0.53309	-0.56696
0.184	-16.552	-32226	3263.9	-0.63606	-0.53231	-0.56637
0.186	-16.546	-32225	3263.9	-0.63567	-0.53153	-0.56579
0.188	-16.55	-32224	3263.9	-0.63528	-0.53075	-0.5652
0.19	-16.545	-32220	3263.8	-0.63489	-0.52997	-0.56462
0.192	-16.545	-32216	3263.8	-0.63245	-0.52987	-0.56344
0.194	-16.535	-32213	3263.8	-0.63001	-0.52977	-0.56227
0.196	-16.522	-32211	3263.8	-0.62757	-0.52968	-0.5611
0.198	-16.526	-32217	3263.9	-0.62513	-0.52958	-0.55993
0.2	-16.532	-32223	3264	-0.62269	-0.52948	-0.55876
0.202	-16.539	-32222	3264	-0.62347	-0.5288	-0.55856
0.204	-16.538	-32221	3264.1	-0.62425	-0.52811	-0.55837
0.206	-16.545	-32221	3264.2	-0.62503	-0.52743	-0.55817
0.208	-16.544	-32221	3264.1	-0.62581	-0.52675	-0.55798
0.21	-16.545	-32227	3264.1	-0.62659	-0.52606	-0.55778
0.212	-16.531	-32233	3264	-0.62601	-0.52645	-0.55769
0.214	-16.531	-32233	3263.9	-0.62542	-0.52684	-0.55759
0.216	-16.539	-32234	3263.8	-0.62484	-0.52724	-0.55749
0.218	-16.531	-32232	3263.7	-0.62425	-0.52763	-0.55739
0.22	-16.521	-32230	3263.7	-0.62366	-0.52802	-0.5573
0.222	-16.507	-32226	3263.6	-0.62386	-0.52909	-0.55847
0.224	-16.518	-32222	3263.6	-0.62405	-0.53016	-0.55964
0.226	-16.54	-32222	3263.6	-0.62425	-0.53124	-0.56081
0.228	-16.565	-32223	3263.6	-0.62444	-0.53231	-0.56198
0.23	-16.531	-32223	3263.6	-0.62464	-0.53338	-0.56315
0.232	-16.518	-32223	3263.6	-0.6262	-0.53192	-0.56325
0.234	-16.535	-32222	3263.6	-0.62776	-0.53046	-0.56335
0.236	-16.532	-32220	3263.6	-0.62932	-0.52899	-0.56344
0.238	-16.548	-32224	3263.6	-0.63089	-0.52753	-0.56354
0.24	-16.567	-32227	3263.6	-0.63245	-0.52606	-0.56364
0.242	-16.543	-32231	3263.7	-0.63167	-0.52733	-0.5651
0.244	-16.534	-32235	3263.9	-0.63089	-0.5286	-0.56657
0.246	-16.547	-32235	3264	-0.63011	-0.52987	-0.56803
0.248	-16.534	-32235	3264	-0.62932	-0.53114	-0.5695
0.25	-16.528	-32232	3264.1	-0.62854	-0.53241	-0.57096
0.252	-16.535	-32229	3264	-0.62981	-0.53212	-0.57028
0.254	-16.534	-32232	3263.9	-0.63108	-0.53182	-0.56959
0.256	-16.54	-32236	3263.7	-0.63235	-0.53153	-0.56891
0.258	-16.546	-32231	3263.4	-0.63362	-0.53124	-0.56823
0.26	-16.541	-32226	3263.2	-0.63489	-0.53094	-0.56754
0.262	-16.535	-32231	3262.8	-0.63489	-0.53124	-0.56696
0.264	-16.524	-32236	3262.4	-0.63489	-0.53153	-0.56637
0.266	-16.52	-32235	3262	-0.63489	-0.53182	-0.56579
0.268	-16.528	-32235	3261.6	-0.63489	-0.53212	-0.5652
0.27	-16.53	-32240	3261.2	-0.63489	-0.53241	-0.56462
0.272	-16.551	-32245	3260.8	-0.63499	-0.53231	-0.56481
0.274	-16.553	-32243	3260.3	-0.63508	-0.53221	-0.56501
0.276	-16.543	-32241	3259.9	-0.63518	-0.53212	-0.5652
0.278	-16.524	-32239	3259.6	-0.63528	-0.53202	-0.5654
0.28	-16.495	-32237	3259.2	-0.63538	-0.53192	-0.56559
0.282	-16.484	-32240	3258.8	-0.6345	-0.53085	-0.56471
0.284	-16.506	-32243	3258.4	-0.63362	-0.52977	-0.56384
0.286	-16.537	-32245	3258	-0.63274	-0.5287	-0.56296
0.288	-16.53	-32246	3257.6	-0.63186	-0.52763	-0.56208
0.29	-16.518	-32243	3257.3	-0.63098	-0.52655	-0.5612
0.292	-16.515	-32240	3256.9	-0.62981	-0.52714	-0.561
0.294	-16.504	-32242	3256.6	-0.62864	-0.52772	-0.56081
0.296	-16.508	-32243	3256.3	-0.62747	-0.52831	-0.56061
0.298	-16.525	-32244	3256.1	-0.6263	-0.52889	-0.56042
0.3	-16.531	-32245	3255.9	-0.62513	-0.52948	-0.56022
0.302	-16.514	-32244	3255.7	-0.62532	-0.53094	-0.56081
0.304	-16.499	-32243	3255.5	-0.62552	-0.53241	-0.5614
0.306	-16.493	-32242	3255.4	-0.62571	-0.53387	-0.56198
0.308	-16.509	-32240	3255.3	-0.62591	-0.53534	-0.56257
0.31	-16.504	-32242	3255.2	-0.6261	-0.5368	-0.56315
0.312	-16.522	-32244	3255.1	-0.62591	-0.53641	-0.56296
0.314	-16.526	-32245	3255	-0.62571	-0.53602	-0.56276
0.316	-16.522	-32245	3254.9	-0.62552	-0.53563	-0.56257
0.318	-16.528	-32243	3254.8	-0.62532	-0.53524	-0.56237
0.32	-16.53	-32241	3254.7	-0.62513	-0.53485	-0.56218
0.322	-16.509	-32239	3254.6	-0.62601	-0.53416	-0.56227
0.324	-16.464	-32236	3254.6	-0.62688	-0.53348	-0.56237
0.326	-16.466	-32236	3254.7	-0.62776	-0.5328	-0.56247
0.328	-16.49	-32236	3254.9	-0.62864	-0.53212	-0.56257
0.33	-16.508	-32235	3255.1	-0.62952	-0.53143	-0.56266
0.332	-16.515	-32235	3255.5	-0.63059	-0.53133	-0.56354
0.334	-16.509	-32239	3256	-0.63167	-0.53124	-0.56442
0.336	-16.498	-32242	3256.6	-0.63274	-0.53114	-0.5653
0.338	-16.482	-32242	3257.3	-0.63381	-0.53104	-0.56618
0.34	-16.482	-32242	3258	-0.63489	-0.53094	-0.56706
0.342	-16.49	-32243	3258.8	-0.63372	-0.53094	-0.56784
0.344	-16.483	-32244	3259.7	-0.63255	-0.53094	-0.56862
0.346	-16.476	-32242	3260.6	-0.63137	-0.53094	-0.5694
0.348	-16.486	-32240	3261.6	-0.6302	-0.53094	-0.57018
0.35	-16.497	-32242	3262.7	-0.62903	-0.53094	-0.57096
0.352	-16.484	-32243	3263.8	-0.63118	-0.53104	-0.56998
0.354	-16.469	-32245	3265	-0.63333	-0.53114	-0.56901
0.356	-16.448	-32248	3266.2	-0.63547	-0.53124	-0.56803
0.358	-16.442	-32249	3267.5	-0.63762	-0.53133	-0.56706
0.36	-16.46	-32250	3268.8	-0.63977	-0.53143	-0.56608
0.362	-16.478	-32252	3270.2	-0.64055	-0.53007	-0.56686
0.364	-16.467	-32255	3271.5	-0.64133	-0.5287	-0.56764
0.366	-16.424	-32254	3272.8	-0.64211	-0.52733	-0.56842
0.368	-16.384	-32253	3274	-0.64289	-0.52597	-0.5692
0.37	-16.412	-32250	3275.3	-0.64367	-0.5246	-0.56998
0.372	-16.47	-32248	3276.6	-0.64396	-0.52519	-0.5692
0.374	-16.462	-32244	3277.8	-0.64426	-0.52577	-0.56842
0.376	-16.44	-32241	3279.1	-0.64455	-0.52636	-0.56764
0.378	-16.423	-32251	3280.5	-0.64484	-0.52694	-0.56686
0.38	-16.43	-32262	3281.9	-0.64514	-0.52753	-0.56608
0.382	-16.43	-32260	3283.3	-0.64445	-0.52724	-0.56579
0.384	-16.419	-32257	3284.7	-0.64377	-0.52694	-0.56549
0.386	-16.402	-32256	3286	-0.64309	-0.52665	-0.5652
0.388	-16.427	-32254	3287.3	-0.6424	-0.52636	-0.56491
0.39	-16.448	-32256	3288.6	-0.64172	-0.52606	-0.56462
0.392	-16.423	-32258	3289.8	-0.64074	-0.52587	-0.56344
0.394	-16.42	-32255	3291	-0.63977	-0.52567	-0.56227
0.396	-16.432	-32253	3292.1	-0.63879	-0.52548	-0.5611
0.398	-16.418	-32257	3293.1	-0.63782	-0.52528	-0.55993
0.4	-16.403	-32261	3294.1	-0.63684	-0.52509	-0.55876
0.402	-16.419	-32254	3294.9	-0.63508	-0.5248	-0.55896
0.404	-16.438	-32246	3295.6	-0.63333	-0.5245	-0.55915
0.406	-16.417	-32247	3296.4	-0.63157	-0.52421	-0.55935
0.408	-16.403	-32249	3297	-0.62981	-0.52392	-0.55954
0.41	-16.398	-32249	3297.6	-0.62806	-0.52362	-0.55974
0.412	-16.403	-32250	3298.1	-0.62747	-0.52353	-0.56032
0.414	-16.42	-32244	3298.6	-0.62688	-0.52343	-0.56091
0.416	-16.449	-32238	3299	-0.6263	-0.52333	-0.56149
0.418	-16.44	-32236	3299.4	-0.62571	-0.52323	-0.56208
0.42	-16.426	-32234	3299.8	-0.62513	-0.52314	-0.56266
0.422	-16.462	-32228	3300.1	-0.62484	-0.5246	-0.56149
0.424	-16.477	-32223	3300.3	-0.62454	-0.52606	-0.56032
0.426	-16.455	-32225	3300.5	-0.62425	-0.52753	-0.55915
0.428	-16.437	-32226	3300.7	-0.62396	-0.52899	-0.55798
0.43	-16.431	-32227	3300.8	-0.62366	-0.53046	-0.55681
0.432	-16.448	-32228	3300.8	-0.6223	-0.52958	-0.55642
0.434	-16.461	-32219	3300.8	-0.62093	-0.5287	-0.55603
0.436	-16.466	-32211	3300.8	-0.61956	-0.52782	-0.55564
0.438	-16.487	-32207	3300.8	-0.6182	-0.52694	-0.55525
0.44	-16.489	-32203	3300.7	-0.61683	-0.52606	-0.55486
0.442	-16.478	-32200	3300.6	-0.61869	-0.52724	-0.55642
0.444	-16.5	-32197	3300.6	-0.62054	-0.52841	-0.55798
0.446	-16.505	-32194	3300.4	-0.6224	-0.52958	-0.55954
0.448	-16.493	-32191	3300.2	-0.62425	-0.53075	-0.5611
0.45	-16.498	-32186	3300	-0.6261	-0.53192	-0.56266
0.452	-16.489	-32182	3299.8	-0.62513	-0.53231	-0.56198
0.454	-16.487	-32177	3299.5	-0.62415	-0.5327	-0.5613
0.456	-16.491	-32172	3299.2	-0.62318	-0.53309	-0.56061
0.458	-16.496	-32168	3298.9	-0.6222	-0.53348	-0.55993
0.46	-16.509	-32165	3298.6	-0.62122	-0.53387	-0.55925
0.462	-16.511	-32160	3298.3	-0.62337	-0.53299	-0.55974
0.464	-16.502	-32155	3298	-0.62552	-0.53212	-0.56022
0.466	-16.533	-32153	3297.7	-0.62767	-0.53124	-0.56071
0.468	-16.535	-32151	3297.4	-0.62981	-0.53036	-0.5612
0.47	-16.51	-32150	3297.1	-0.63196	-0.52948	-0.56169
0.472	-16.503	-32150	3296.7	-0.63128	-0.52958	-0.5611
0.474	-16.502	-32144	3296.3	-0.63059	-0.52968	-0.56052
0.476	-16.494	-32138	3295.9	-0.62991	-0.52977	-0.55993
0.478	-16.514	-32135	3295.5	-0.62923	-0.52987	-0.55935
0.48	-16.535	-32133	3295.1	-0.62854	-0.52997	-0.55876
0.482	-16.518	-32136	3294.8	-0.62845	-0.52948	-0.55944
0.484	-16.528	-32139	3294.4	-0.62835	-0.52899	-0.56013
0.486	-16.496	-32142	3294	-0.62825	-0.5285	-0.56081
0.488	-16.466	-32145	3293.7	-0.62815	-0.52802	-0.56149
0.49	-16.486	-32145	3293.4	-0.62806	-0.52753	-0.56218
0.492	-16.508	-32144	3293.1	-0.62864	-0.5287	-0.56413
0.494	-16.495	-32133	3292.8	-0.62923	-0.52987	-0.56608
0.496	-16.494	-32123	3292.6	-0.62981	-0.53104	-0.56803
0.498	-16.502	-32121	3292.4	-0.6304	-0.53221	-0.56998
0.5	-16.511	-32119	3292.1	-0.63098	-0.53338	-0.57194
0.502	-16.531	-32118	3292	-0.62962	-0.53348	-0.57213
0.504	-16.527	-32118	3291.8	-0.62825	-0.53358	-0.57233
0.506	-16.517	-32118	3291.7	-0.62688	-0.53368	-0.57252
0.508	-16.525	-32118	3291.6	-0.62552	-0.53377	-0.57272
0.51	-16.505	-32120	3291.5	-0.62415	-0.53387	-0.57291
0.512	-16.484	-32122	3291.4	-0.62571	-0.53251	-0.57096
0.514	-16.5	-32122	3291.3	-0.62728	-0.53114	-0.56901
0.516	-16.526	-32122	3291.2	-0.62884	-0.52977	-0.56706
0.518	-16.53	-32116	3291.1	-0.6304	-0.52841	-0.5651
0.52	-16.502	-32110	3291	-0.63196	-0.52704	-0.56315
0.522	-16.496	-32110	3290.6	-0.63186	-0.52655	-0.56296
0.524	-16.515	-32111	3290.3	-0.63176	-0.52606	-0.56276
0.526	-16.512	-32114	3289.9	-0.63167	-0.52558	-0.56257
0.528	-16.503	-32117	3289.5	-0.63157	-0.52509	-0.56237
0.53	-16.496	-32113	3289	-0.63147	-0.5246	-0.56218
0.532	-16.512	-32109	3288.5	-0.63245	-0.52577	-0.56247
0.534	-16.518	-32109	3288	-0.63342	-0.52694	-0.56276
0.536	-16.517	-32110	3287.4	-0.6344	-0.52811	-0.56305
0.538	-16.523	-32112	3286.7	-0.63538	-0.52928	-0.56335
0.54	-16.526	-32113	3286	-0.63635	-0.53046	-0.56364
0.542	-16.518	-32113	3285.3	-0.63664	-0.53114	-0.56403
0.544	-16.506	-32112	3284.6	-0.63694	-0.53182	-0.56442
0.546	-16.493	-32109	3283.9	-0.63723	-0.53251	-0.56481
0.548	-16.501	-32106	3283.2	-0.63752	-0.53319	-0.5652
0.55	-16.513	-32103	3282.5	-0.63782	-0.53387	-0.56559
0.552	-16.504	-32100	3281.9	-0.63664	-0.5328	-0.56501
0.554	-16.513	-32098	3281.2	-0.63547	-0.53172	-0.56442
0.556	-16.536	-32096	3280.6	-0.6343	-0.53065	-0.56384
0.558	-16.532	-32097	3280.1	-0.63313	-0.52958	-0.56325
0.56	-16.547	-32099	3279.6	-0.63196	-0.5285	-0.56266
0.562	-16.533	-32100	3279.1	-0.6305	-0.52919	-0.56227
0.564	-16.463	-32102	3278.7	-0.62903	-0.52987	-0.56188
0.566	-16.482	-32099	3278.3	-0.62757	-0.53055	-0.56149
0.568	-16.547	-32096	3277.9	-0.6261	-0.53124	-0.5611
0.57	-16.535	-32096	3277.5	-0.62464	-0.53192	-0.56071
0.572	-16.5	-32097	3277.2	-0.62552	-0.53143	-0.56081
0.574	-16.521	-32099	3276.9	-0.6264	-0.53094	-0.56091
0.576	-16.528	-32101	3276.6	-0.62728	-0.53046	-0.561
0.578	-16.529	-32096	3276.3	-0.62815	-0.52997	-0.5611
0.58	-16.503	-32092	3276	-0.62903	-0.52948	-0.5612
0.582	-16.467	-32093	3275.8	-0.62913	-0.52968	-0.56198
0.584	-16.491	-32094	3275.5	-0.62923	-0.52987	-0.56276
0.586	-16.53	-32096	3275.4	-0.62932	-0.53007	-0.56354
0.588	-16.525	-32099	3275.3	-0.62942	-0.53026	-0.56432
0.59	-16.509	-32097	3275.2	-0.62952	-0.53046	-0.5651
0.592	-16.517	-32096	3275.3	-0.62825	-0.53104	-0.56403
0.594	-16.525	-32098	3275.3	-0.62698	-0.53163	-0.56296
0.596	-16.507	-32100	3275.4	-0.62571	-0.53221	-0.56188
0.598	-16.497	-32101	3275.6	-0.62444	-0.5328	-0.56081
0.6	-16.506	-32102	3275.7	-0.62318	-0.53338	-0.55974
0.602	-16.505	-32103	3275.9	-0.62503	-0.53221	-0.55983
0.604	-16.498	-32105	3276.1	-0.62688	-0.53104	-0.55993
0.606	-16.503	-32103	3276.2	-0.62874	-0.52987	-0.56003
0.608	-16.508	-32102	3276.3	-0.63059	-0.5287	-0.56013
0.61	-16.512	-32109	3276.4	-0.63245	-0.52753	-0.56022
0.612	-16.522	-32117	3276.5	-0.63342	-0.5285	-0.56179
0.614	-16.519	-32118	3276.7	-0.6344	-0.52948	-0.56335
0.616	-16.513	-32118	3276.9	-0.63538	-0.53046	-0.56491
0.618	-16.51	-32116	3277.1	-0.63635	-0.53143	-0.56647
0.62	-16.5	-32114	3277.3	-0.63733	-0.53241	-0.56803
0.622	-16.503	-32116	3277.5	-0.63577	-0.53221	-0.56881
0.624	-16.511	-32117	3277.8	-0.6342	-0.53202	-0.56959
0.626	-16.511	-32119	3278.1	-0.63264	-0.53182	-0.57037
0.628	-16.502	-32121	3278.4	-0.63108	-0.53163	-0.57116
0.63	-16.513	-32117	3278.7	-0.62952	-0.53143	-0.57194
0.632	-16.511	-32114	3279	-0.6305	-0.53104	-0.57106
0.634	-16.523	-32120	3279.4	-0.63147	-0.53065	-0.57018
0.636	-16.537	-32125	3279.7	-0.63245	-0.53026	-0.5693
0.638	-16.508	-32128	3280.1	-0.63342	-0.52987	-0.56842
0.64	-16.522	-32130	3280.4	-0.6344	-0.52948	-0.56754
0.642	-16.537	-32130	3280.8	-0.63411	-0.52948	-0.56764
0.644	-16.521	-32130	3281.1	-0.63381	-0.52948	-0.56774
0.646	-16.496	-32130	3281.4	-0.63352	-0.52948	-0.56784
0.648	-16.487	-32131	3281.7	-0.63323	-0.52948	-0.56793
0.65	-16.459	-32130	3282.1	-0.63294	-0.52948	-0.56803
0.652	-16.482	-32129	3282.3	-0.63098	-0.52948	-0.56657
0.654	-16.493	-32124	3282.6	-0.62903	-0.52948	-0.5651
0.656	-16.493	-32118	3282.9	-0.62708	-0.52948	-0.56364
0.658	-16.521	-32114	3283.1	-0.62513	-0.52948	-0.56218
0.66	-16.505	-32110	3283.3	-0.62318	-0.52948	-0.56071
0.662	-16.524	-32111	3283.5	-0.62347	-0.52899	-0.56022
0.664	-16.549	-32111	3283.7	-0.62376	-0.5285	-0.55974
0.666	-16.544	-32116	3283.9	-0.62405	-0.52802	-0.55925
0.668	-16.523	-32120	3284.1	-0.62435	-0.52753	-0.55876
0.67	-16.512	-32109	3284.3	-0.62464	-0.52704	-0.55827
0.672	-16.514	-32099	3284.6	-0.62425	-0.52772	-0.55837
0.674	-16.517	-32100	3284.8	-0.62386	-0.52841	-0.55847
0.676	-16.512	-32100	3285.1	-0.62347	-0.52909	-0.55856
0.678	-16.5	-32105	3285.4	-0.62308	-0.52977	-0.55866
0.68	-16.503	-32109	3285.7	-0.62269	-0.53046	-0.55876
0.682	-16.531	-32105	3286.1	-0.62318	-0.53026	-0.55847
0.684	-16.537	-32101	3286.5	-0.62366	-0.53007	-0.55817
0.686	-16.526	-32099	3286.9	-0.62415	-0.52987	-0.55788
0.688	-16.522	-32098	3287.3	-0.62464	-0.52968	-0.55759
0.69	-16.514	-32100	3287.7	-0.62513	-0.52948	-0.5573
0.692	-16.516	-32101	3288	-0.62532	-0.5288	-0.55759
0.694	-16.518	-32094	3288.3	-0.62552	-0.52811	-0.55788
0.696	-16.505	-32087	3288.5	-0.62571	-0.52743	-0.55817
0.698	-16.496	-32092	3288.6	-0.62591	-0.52675	-0.55847
0.7	-16.485	-32096	3288.8	-0.6261	-0.52606	-0.55876
0.702	-16.479	-32094	3288.8	-0.6261	-0.52645	-0.55886
0.704	-16.493	-32093	3288.9	-0.6261	-0.52684	-0.55896
0.706	-16.529	-32094	3288.9	-0.6261	-0.52724	-0.55905
0.708	-16.533	-32095	3288.9	-0.6261	-0.52763	-0.55915
0.71	-16.518	-32096	3288.8	-0.6261	-0.52802	-0.55925
0.712	-16.507	-32096	3288.8	-0.62708	-0.52811	-0.55993
0.714	-16.498	-32101	3288.7	-0.62806	-0.52821	-0.56061
0.716	-16.513	-32106	3288.6	-0.62903	-0.52831	-0.5613
0.718	-16.514	-32100	3288.4	-0.63001	-0.52841	-0.56198
0.72	-16.525	-32095	3288.2	-0.63098	-0.5285	-0.56266
0.722	-16.548	-32092	3288.1	-0.63001	-0.52841	-0.56208
0.724	-16.52	-32088	3288	-0.62903	-0.52831	-0.56149
0.726	-16.496	-32088	3287.9	-0.62806	-0.52821	-0.56091
0.728	-16.522	-32087	3287.8	-0.62708	-0.52811	-0.56032
0.73	-16.506	-32092	3287.8	-0.6261	-0.52802	-0.55974
0.732	-16.5	-32097	3287.8	-0.62679	-0.52811	-0.56032
0.734	-16.504	-32097	3287.7	-0.62747	-0.52821	-0.56091
0.736	-16.508	-32098	3287.7	-0.62815	-0.52831	-0.56149
0.738	-16.526	-32103	3287.6	-0.62884	-0.52841	-0.56208
0.74	-16.537	-32108	3287.6	-0.62952	-0.5285	-0.56266
0.742	-16.515	-32102	3287.6	-0.62952	-0.52802	-0.56208
0.744	-16.473	-32095	3287.6	-0.62952	-0.52753	-0.56149
0.746	-16.506	-32102	3287.7	-0.62952	-0.52704	-0.56091
0.748	-16.526	-32108	3287.7	-0.62952	-0.52655	-0.56032
0.75	-16.543	-32100	3287.8	-0.62952	-0.52606	-0.55974
0.752	-16.536	-32092	3287.7	-0.63069	-0.52792	-0.56169
0.754	-16.502	-32095	3287.7	-0.63186	-0.52977	-0.56364
0.756	-16.497	-32098	3287.8	-0.63303	-0.53163	-0.56559
0.758	-16.515	-32098	3287.8	-0.6342	-0.53348	-0.56754
0.76	-16.516	-32098	3287.9	-0.63538	-0.53534	-0.5695
0.762	-16.516	-32103	3287.9	-0.63508	-0.53436	-0.56793
0.764	-16.513	-32109	3287.9	-0.63479	-0.53338	-0.56637
0.766	-16.501	-32104	3287.9	-0.6345	-0.53241	-0.56481
0.768	-16.502	-32099	3287.8	-0.6342	-0.53143	-0.56325
0.77	-16.508	-32102	3287.8	-0.63391	-0.53046	-0.56169
0.772	-16.518	-32104	3287.7	-0.63352	-0.53075	-0.56305
0.774	-16.519	-32100	3287.7	-0.63313	-0.53104	-0.56442
0.776	-16.489	-32095	3287.5	-0.63274	-0.53133	-0.56579
0.778	-16.481	-32099	3287.4	-0.63235	-0.53163	-0.56715
0.78	-16.485	-32102	3287.3	-0.63196	-0.53192	-0.56852
0.782	-16.49	-32103	3287.1	-0.63264	-0.53182	-0.56832
0.784	-16.51	-32103	3286.9	-0.63333	-0.53172	-0.56813
0.786	-16.496	-32100	3286.7	-0.63401	-0.53163	-0.56793
0.788	-16.482	-32097	3286.5	-0.63469	-0.53153	-0.56774
0.79	-16.479	-32095	3286.4	-0.63538	-0.53143	-0.56754
0.792	-16.499	-32093	3286.3	-0.63479	-0.53065	-0.56637
0.794	-16.497	-32097	3286.3	-0.6342	-0.52987	-0.5652
0.796	-16.477	-32100	3286.3	-0.63362	-0.52909	-0.56403
0.798	-16.502	-32103	3286.2	-0.63303	-0.52831	-0.56286
0.8	-16.488	-32106	3286.1	-0.63245	-0.52753	-0.56169
0.802	-16.456	-32102	3286	-0.63118	-0.52724	-0.56149
0.804	-16.429	-32097	3285.9	-0.62991	-0.52694	-0.5613
0.806	-16.435	-32098	3285.8	-0.62864	-0.52665	-0.5611
0.808	-16.455	-32099	3285.5	-0.62737	-0.52636	-0.56091
0.81	-16.446	-32098	3285.3	-0.6261	-0.52606	-0.56071
0.812	-16.451	-32097	3285	-0.62591	-0.52606	-0.56042
0.814	-16.448	-32094	3284.7	-0.62571	-0.52606	-0.56013
0.816	-16.451	-32092	3284.4	-0.62552	-0.52606	-0.55983
0.818	-16.454	-32098	3284	-0.62532	-0.52606	-0.55954
0.82	-16.452	-32103	3283.6	-0.62513	-0.52606	-0.55925
0.822	-16.423	-32103	3283.1	-0.62649	-0.52636	-0.55964
0.824	-16.428	-32102	3282.6	-0.62786	-0.52665	-0.56003
0.826	-16.456	-32100	3282.2	-0.62923	-0.52694	-0.56042
0.828	-16.47	-32099	3281.7	-0.63059	-0.52724	-0.56081
0.83	-16.475	-32103	3281.2	-0.63196	-0.52753	-0.5612
0.832	-16.463	-32107	3280.7	-0.63313	-0.52831	-0.56247
0.834	-16.46	-32108	3280.3	-0.6343	-0.52909	-0.56374
0.836	-16.465	-32110	3279.8	-0.63547	-0.52987	-0.56501
0.838	-16.447	-32110	3279.3	-0.63664	-0.53065	-0.56628
0.84	-16.437	-32111	3278.8	-0.63782	-0.53143	-0.56754
0.842	-16.44	-32116	3278.4	-0.63772	-0.53172	-0.56715
0.844	-16.435	-32121	3277.9	-0.63762	-0.53202	-0.56676
0.846	-16.423	-32110	3277.5	-0.63752	-0.53231	-0.56637
0.848	-16.437	-32098	3277.2	-0.63743	-0.5326	-0.56598
0.85	-16.469	-32108	3276.8	-0.63733	-0.5329	-0.56559
0.852	-16.5	-32118	3276.4	-0.63664	-0.5328	-0.5652
0.854	-16.532	-32117	3276	-0.63596	-0.5327	-0.56481
0.856	-16.537	-32116	3275.5	-0.63528	-0.5326	-0.56442
0.858	-16.519	-32116	3275.1	-0.6346	-0.53251	-0.56403
0.86	-16.499	-32116	3274.6	-0.63391	-0.53241	-0.56364
0.862	-16.48	-32113	3274.2	-0.63401	-0.5327	-0.56393
0.864	-16.491	-32110	3273.7	-0.63411	-0.53299	-0.56423
0.866	-16.53	-32115	3273.4	-0.6342	-0.53329	-0.56452
0.868	-16.548	-32120	3273.1	-0.6343	-0.53358	-0.56481
0.87	-16.533	-32124	3272.8	-0.6344	-0.53387	-0.5651
0.872	-16.522	-32128	3272.5	-0.63411	-0.53387	-0.56579
0.874	-16.515	-32130	3272.3	-0.63381	-0.53387	-0.56647
0.876	-16.514	-32132	3272.1	-0.63352	-0.53387	-0.56715
0.878	-16.508	-32129	3271.9	-0.63323	-0.53387	-0.56784
0.88	-16.5	-32126	3271.7	-0.63294	-0.53387	-0.56852
0.882	-16.495	-32130	3271.5	-0.63313	-0.53299	-0.56725
0.884	-16.51	-32133	3271.2	-0.63333	-0.53212	-0.56598
0.886	-16.524	-32128	3271	-0.63352	-0.53124	-0.56471
0.888	-16.534	-32123	3270.7	-0.63372	-0.53036	-0.56344
0.89	-16.532	-32126	3270.4	-0.63391	-0.52948	-0.56218
0.892	-16.526	-32128	3270.2	-0.63255	-0.52997	-0.56218
0.894	-16.515	-32123	3269.9	-0.63118	-0.53046	-0.56218
0.896	-16.518	-32119	3269.5	-0.62981	-0.53094	-0.56218
0.898	-16.504	-32121	3269.2	-0.62845	-0.53143	-0.56218
0.9	-16.499	-32122	3268.8	-0.62708	-0.53192	-0.56218
0.902	-16.476	-32132	3268.3	-0.62688	-0.53143	-0.5613
0.904	-16.479	-32142	3267.9	-0.62669	-0.53094	-0.56042
0.906	-16.492	-32141	3267.4	-0.62649	-0.53046	-0.55954
0.908	-16.491	-32139	3266.9	-0.6263	-0.52997	-0.55866
0.91	-16.471	-32142	3266.5	-0.6261	-0.52948	-0.55778
0.912	-16.422	-32145	3266	-0.62776	-0.52997	-0.55983
0.914	-16.478	-32142	3265.6	-0.62942	-0.53046	-0.56188
0.916	-16.528	-32138	3265.3	-0.63108	-0.53094	-0.56393
0.918	-16.531	-32139	3265.2	-0.63274	-0.53143	-0.56598
0.92	-16.533	-32140	3265	-0.6344	-0.53192	-0.56803
0.922	-16.499	-32144	3265.1	-0.63479	-0.53241	-0.56764
0.924	-16.485	-32148	3265.2	-0.63518	-0.5329	-0.56725
0.926	-16.488	-32151	3265.3	-0.63557	-0.53338	-0.56686
0.928	-16.459	-32153	3265.6	-0.63596	-0.53387	-0.56647
0.93	-16.433	-32157	3265.9	-0.63635	-0.53436	-0.56608
0.932	-16.47	-32161	3266.2	-0.63743	-0.53368	-0.56579
0.934	-16.507	-32159	3266.5	-0.6385	-0.53299	-0.56549
0.936	-16.52	-32157	3266.8	-0.63957	-0.53231	-0.5652
0.938	-16.553	-32154	3267.1	-0.64065	-0.53163	-0.56491
0.94	-16.603	-32152	3267.4	-0.64172	-0.53094	-0.56462
0.942	-16.65	-32151	3267.4	-0.6385	-0.53016	-0.56296
0.944	-16.691	-32150	3267.5	-0.63528	-0.52938	-0.5613
0.946	-16.721	-32154	3267.6	-0.63206	-0.5286	-0.55964
0.948	-16.734	-32157	3267.7	-0.62884	-0.52782	-0.55798
0.95	-16.728	-32158	3267.8	-0.62562	-0.52704	-0.55632
0.952	-16.704	-32159	3267.8	-0.62649	-0.52694	-0.55612
0.954	-16.688	-32163	3267.8	-0.62737	-0.52684	-0.55593
0.956	-16.67	-32168	3267.8	-0.62825	-0.52675	-0.55573
0.958	-16.632	-32167	3267.8	-0.62913	-0.52665	-0.55554
0.96	-16.581	-32166	3267.8	-0.63001	-0.52655	-0.55534
0.962	-16.52	-32161	3267.8	-0.62903	-0.52811	-0.55681
0.964	-16.539	-32156	3267.7	-0.62806	-0.52968	-0.55827
0.966	-16.541	-32156	3267.7	-0.62708	-0.53124	-0.55974
0.968	-16.511	-32156	3267.7	-0.6261	-0.5328	-0.5612
0.97	-16.502	-32156	3267.6	-0.62513	-0.53436	-0.56266
0.972	-16.509	-32156	3267.6	-0.62737	-0.53426	-0.56403
0.974	-16.515	-32151	3267.6	-0.62962	-0.53416	-0.5654
0.976	-16.509	-32147	3267.5	-0.63186	-0.53407	-0.56676
0.978	-16.484	-32153	3267.4	-0.63411	-0.53397	-0.56813
0.98	-16.484	-32160	3267.4	-0.63635	-0.53387	-0.5695
0.982	-16.504	-32158	3267.3	-0.63557	-0.53299	-0.56832
0.984	-16.521	-32156	3267.2	-0.63479	-0.53212	-0.56715
0.986	-16.505	-32155	3267.1	-0.63401	-0.53124	-0.56598
0.988	-16.457	-32153	3267	-0.63323	-0.53036	-0.56481
0.99	-16.461	-32157	3266.9	-0.63245	-0.52948	-0.56364
0.992	-16.463	-32161	3267	-0.63245	-0.52958	-0.56354
0.994	-16.497	-32154	3267.1	-0.63245	-0.52968	-0.56344
0.996	-16.488	-32148	3267.2	-0.63245	-0.52977	-0.56335
0.998	-16.493	-32155	3267.3	-0.63245	-0.52987	-0.56325
1	-16.507	-32162	3267.5	-0.63245	-0.52997	-0.56315
1.002	-16.517	-32158	3267.4	-0.63216	-0.52899	-0.56305
1.004	-16.528	-32155	3267.4	-0.63186	-0.52802	-0.56296
1.006	-16.522	-32155	3267.4	-0.63157	-0.52704	-0.56286
1.008	-16.498	-32155	3267.3	-0.63128	-0.52606	-0.56276
1.01	-16.481	-32157	3267.2	-0.63098	-0.52509	-0.56266
1.012	-16.477	-32158	3267.2	-0.63079	-0.52675	-0.56384
1.014	-16.485	-32157	3267.1	-0.63059	-0.52841	-0.56501
1.016	-16.498	-32156	3267.1	-0.6304	-0.53007	-0.56618
1.018	-16.512	-32159	3267.3	-0.6302	-0.53172	-0.56735
1.02	-16.518	-32161	3267.4	-0.63001	-0.53338	-0.56852
1.022	-16.512	-32158	3267.6	-0.63108	-0.5327	-0.56813
1.024	-16.505	-32156	3267.9	-0.63216	-0.53202	-0.56774
1.026	-16.499	-32158	3268.1	-0.63323	-0.53133	-0.56735
1.028	-16.503	-32161	3268.4	-0.6343	-0.53065	-0.56696
1.03	-16.515	-32159	3268.7	-0.63538	-0.52997	-0.56657
1.032	-16.513	-32157	3268.8	-0.63518	-0.53046	-0.56608
1.034	-16.488	-32159	3268.9	-0.63499	-0.53094	-0.56559
1.036	-16.472	-32160	3268.9	-0.63479	-0.53143	-0.5651
1.038	-16.48	-32159	3268.9	-0.6346	-0.53192	-0.56462
1.04	-16.485	-32157	3268.9	-0.6344	-0.53241	-0.56413
1.042	-16.477	-32156	3268.7	-0.6342	-0.5329	-0.56393
1.044	-16.487	-32155	3268.6	-0.63401	-0.53338	-0.56374
1.046	-16.5	-32156	3268.3	-0.63381	-0.53387	-0.56354
1.048	-16.49	-32156	3268.1	-0.63362	-0.53436	-0.56335
1.05	-16.481	-32158	3267.9	-0.63342	-0.53485	-0.56315
1.052	-16.475	-32159	3267.6	-0.63186	-0.53446	-0.56325
1.054	-16.494	-32158	3267.3	-0.6303	-0.53407	-0.56335
1.056	-16.515	-32158	3267.1	-0.62874	-0.53368	-0.56344
1.058	-16.49	-32162	3266.9	-0.62718	-0.53329	-0.56354
1.06	-16.479	-32166	3266.7	-0.62562	-0.5329	-0.56364
1.062	-16.521	-32165	3266.6	-0.62493	-0.53319	-0.56266
1.064	-16.507	-32165	3266.4	-0.62425	-0.53348	-0.56169
1.066	-16.46	-32163	3266.3	-0.62357	-0.53377	-0.56071
1.068	-16.459	-32162	3266.1	-0.62288	-0.53407	-0.55974
1.07	-16.451	-32163	3266	-0.6222	-0.53436	-0.55876
1.072	-16.488	-32165	3265.8	-0.6223	-0.53407	-0.55905
1.074	-16.509	-32163	3265.5	-0.6224	-0.53377	-0.55935
1.076	-16.489	-32161	3265.3	-0.62249	-0.53348	-0.55964
1.078	-16.491	-32165	3265.1	-0.62259	-0.53319	-0.55993
1.08	-16.493	-32170	3264.9	-0.62269	-0.5329	-0.56022
1.082	-16.496	-32167	3264.6	-0.6223	-0.53329	-0.55983
1.084	-16.481	-32164	3264.2	-0.62191	-0.53368	-0.55944
1.086	-16.46	-32161	3264	-0.62152	-0.53407	-0.55905
1.088	-16.468	-32158	3263.7	-0.62113	-0.53446	-0.55866
1.09	-16.47	-32156	3263.5	-0.62074	-0.53485	-0.55827
1.092	-16.459	-32153	3263.3	-0.62279	-0.53514	-0.56013
1.094	-16.466	-32156	3263.1	-0.62484	-0.53543	-0.56198
1.096	-16.467	-32159	3262.9	-0.62688	-0.53573	-0.56384
1.098	-16.439	-32158	3262.6	-0.62893	-0.53602	-0.56569
1.1	-16.415	-32156	3262.3	-0.63098	-0.53631	-0.56754
1.102	-16.41	-32153	3262.1	-0.63001	-0.53592	-0.56901
1.104	-16.405	-32150	3261.8	-0.62903	-0.53553	-0.57047
1.106	-16.435	-32151	3261.7	-0.62806	-0.53514	-0.57194
1.108	-16.475	-32152	3261.7	-0.62708	-0.53475	-0.5734
1.11	-16.483	-32152	3261.7	-0.6261	-0.53436	-0.57486
1.112	-16.477	-32152	3262.1	-0.62669	-0.53563	-0.57399
1.114	-16.468	-32154	3262.4	-0.62728	-0.5369	-0.57311
1.116	-16.463	-32156	3262.9	-0.62786	-0.53817	-0.57223
1.118	-16.471	-32160	3263.4	-0.62845	-0.53944	-0.57135
1.12	-16.472	-32163	3264	-0.62903	-0.5407	-0.57047
1.122	-16.451	-32164	3264.8	-0.63108	-0.53953	-0.56989
1.124	-16.433	-32165	3265.5	-0.63313	-0.53836	-0.5693
1.126	-16.428	-32165	3266.3	-0.63518	-0.53719	-0.56872
1.128	-16.435	-32166	3267.2	-0.63723	-0.53602	-0.56813
1.13	-16.436	-32170	3268.1	-0.63928	-0.53485	-0.56754
1.132	-16.403	-32173	3269.1	-0.6385	-0.53475	-0.56754
1.134	-16.393	-32174	3270.2	-0.63772	-0.53465	-0.56754
1.136	-16.396	-32174	3271.3	-0.63694	-0.53456	-0.56754
1.138	-16.377	-32173	3272.4	-0.63616	-0.53446	-0.56754
1.14	-16.4	-32172	3273.6	-0.63538	-0.53436	-0.56754
1.142	-16.432	-32173	3274.8	-0.63469	-0.53329	-0.56832
1.144	-16.427	-32174	3276	-0.63401	-0.53221	-0.56911
1.146	-16.399	-32177	3277.2	-0.63333	-0.53114	-0.56989
1.148	-16.383	-32180	3278.5	-0.63264	-0.53007	-0.57067
1.15	-16.376	-32185	3279.9	-0.63196	-0.52899	-0.57145
1.152	-16.412	-32189	3281.2	-0.63342	-0.52948	-0.57067
1.154	-16.43	-32188	3282.5	-0.63489	-0.52997	-0.56989
1.156	-16.411	-32188	3283.7	-0.63635	-0.53046	-0.56911
1.158	-16.397	-32185	3285	-0.63782	-0.53094	-0.56832
1.16	-16.377	-32183	3286.2	-0.63928	-0.53143	-0.56754
1.162	-16.383	-32182	3287.4	-0.63948	-0.53036	-0.56725
1.164	-16.376	-32182	3288.6	-0.63967	-0.52928	-0.56696
1.166	-16.371	-32185	3289.7	-0.63987	-0.52821	-0.56667
1.168	-16.38	-32188	3290.7	-0.64006	-0.52714	-0.56637
1.17	-16.378	-32188	3291.7	-0.64026	-0.52606	-0.56608
1.172	-16.371	-32188	3292.6	-0.63791	-0.52645	-0.56462
1.174	-16.37	-32187	3293.4	-0.63557	-0.52684	-0.56315
1.176	-16.356	-32187	3294.3	-0.63323	-0.52724	-0.56169
1.178	-16.346	-32188	3295.1	-0.63089	-0.52763	-0.56022
1.18	-16.354	-32189	3295.9	-0.62854	-0.52802	-0.55876
1.182	-16.367	-32185	3296.7	-0.62737	-0.5285	-0.55856
1.184	-16.392	-32180	3297.5	-0.6262	-0.52899	-0.55837
1.186	-16.387	-32177	3298.3	-0.62503	-0.52948	-0.55817
1.188	-16.374	-32173	3299.1	-0.62386	-0.52997	-0.55798
1.19	-16.379	-32175	3299.9	-0.62269	-0.53046	-0.55778
1.192	-16.379	-32177	3300.6	-0.62376	-0.53036	-0.55905
1.194	-16.367	-32174	3301.3	-0.62484	-0.53026	-0.56032
1.196	-16.379	-32170	3301.9	-0.62591	-0.53016	-0.56159
1.198	-16.396	-32166	3302.5	-0.62698	-0.53007	-0.56286
1.2	-16.382	-32162	3303.1	-0.62806	-0.52997	-0.56413
1.202	-16.381	-32163	3303.6	-0.62649	-0.53036	-0.56218
1.204	-16.397	-32165	3304.1	-0.62493	-0.53075	-0.56022
1.206	-16.391	-32163	3304.4	-0.62337	-0.53114	-0.55827
1.208	-16.392	-32161	3304.7	-0.62181	-0.53153	-0.55632
1.21	-16.427	-32156	3305	-0.62025	-0.53192	-0.55437
1.212	-16.428	-32150	3305.1	-0.6223	-0.53036	-0.55368
1.214	-16.413	-32146	3305.2	-0.62435	-0.5288	-0.553
1.216	-16.402	-32141	3305.3	-0.6264	-0.52724	-0.55232
1.218	-16.41	-32138	3305.2	-0.62845	-0.52567	-0.55164
1.22	-16.418	-32134	3305.2	-0.6305	-0.52411	-0.55095
1.222	-16.425	-32128	3305.1	-0.62825	-0.52577	-0.55251
1.224	-16.42	-32123	3305	-0.62601	-0.52743	-0.55408
1.226	-16.471	-32123	3305	-0.62376	-0.52909	-0.55564
1.228	-16.482	-32124	3305	-0.62152	-0.53075	-0.5572
1.23	-16.474	-32121	3304.9	-0.61927	-0.53241	-0.55876
1.232	-16.459	-32117	3305	-0.62181	-0.53212	-0.56003
1.234	-16.445	-32112	3305	-0.62435	-0.53182	-0.5613
1.236	-16.455	-32107	3305	-0.62688	-0.53153	-0.56257
1.238	-16.458	-32106	3305.1	-0.62942	-0.53124	-0.56384
1.24	-16.463	-32104	3305.2	-0.63196	-0.53094	-0.5651
1.242	-16.448	-32100	3305.3	-0.63176	-0.53114	-0.56501
1.244	-16.468	-32097	3305.5	-0.63157	-0.53133	-0.56491
1.246	-16.476	-32093	3305.6	-0.63137	-0.53153	-0.56481
1.248	-16.493	-32089	3305.8	-0.63118	-0.53172	-0.56471
1.25	-16.514	-32087	3305.9	-0.63098	-0.53192	-0.56462
1.252	-16.503	-32085	3306	-0.63108	-0.53212	-0.56559
1.254	-16.453	-32083	3306.1	-0.63118	-0.53231	-0.56657
1.256	-16.473	-32080	3306.2	-0.63128	-0.53251	-0.56754
1.258	-16.5	-32077	3306.3	-0.63137	-0.5327	-0.56852
1.26	-16.477	-32073	3306.4	-0.63147	-0.5329	-0.5695
1.262	-16.464	-32071	3306.5	-0.63069	-0.53299	-0.57008
1.264	-16.471	-32068	3306.5	-0.62991	-0.53309	-0.57067
1.266	-16.475	-32064	3306.6	-0.62913	-0.53319	-0.57125
1.268	-16.495	-32059	3306.7	-0.62835	-0.53329	-0.57184
1.27	-16.509	-32058	3306.8	-0.62757	-0.53338	-0.57242
1.272	-16.511	-32056	3306.8	-0.62981	-0.53338	-0.57174
1.274	-16.515	-32055	3306.8	-0.63206	-0.53338	-0.57106
1.276	-16.505	-32054	3306.8	-0.6343	-0.53338	-0.57037
1.278	-16.478	-32053	3306.6	-0.63655	-0.53338	-0.56969
1.28	-16.475	-32052	3306.5	-0.63879	-0.53338	-0.56901
1.282	-16.493	-32053	3306.2	-0.63801	-0.5328	-0.56852
1.284	-16.492	-32055	3306	-0.63723	-0.53221	-0.56803
1.286	-16.493	-32056	3305.7	-0.63645	-0.53163	-0.56754
1.288	-16.504	-32057	3305.4	-0.63567	-0.53104	-0.56706
1.29	-16.488	-32050	3305.1	-0.63489	-0.53046	-0.56657
1.292	-16.478	-32043	3304.7	-0.63381	-0.53016	-0.56725
1.294	-16.499	-32045	3304.3	-0.63274	-0.52987	-0.56793
1.296	-16.497	-32048	3303.8	-0.63167	-0.52958	-0.56862
1.298	-16.475	-32045	3303.3	-0.63059	-0.52928	-0.5693
1.3	-16.46	-32042	3302.8	-0.62952	-0.52899	-0.56998
1.302	-16.476	-32039	3302.3	-0.63147	-0.52928	-0.56891
1.304	-16.477	-32035	3301.8	-0.63342	-0.52958	-0.56784
1.306	-16.477	-32040	3301.2	-0.63538	-0.52987	-0.56676
1.308	-16.482	-32045	3300.7	-0.63733	-0.53016	-0.56569
1.31	-16.468	-32038	3300.1	-0.63928	-0.53046	-0.56462
1.312	-16.508	-32031	3299.4	-0.63791	-0.53007	-0.56384
1.314	-16.498	-32026	3298.8	-0.63655	-0.52968	-0.56305
1.316	-16.482	-32022	3298.1	-0.63518	-0.52928	-0.56227
1.318	-16.481	-32023	3297.4	-0.63381	-0.52889	-0.56149
1.32	-16.492	-32024	3296.7	-0.63245	-0.5285	-0.56071
1.322	-16.489	-32022	3296.2	-0.63011	-0.52928	-0.56032
1.324	-16.48	-32021	3295.6	-0.62776	-0.53007	-0.55993
1.326	-16.467	-32012	3295	-0.62542	-0.53085	-0.55954
1.328	-16.493	-32004	3294.3	-0.62308	-0.53163	-0.55915
1.33	-16.523	-32006	3293.7	-0.62074	-0.53241	-0.55876
1.332	-16.513	-32007	3293.1	-0.6221	-0.53182	-0.55837
1.334	-16.502	-32014	3292.4	-0.62347	-0.53124	-0.55798
1.336	-16.497	-32020	3291.8	-0.62484	-0.53065	-0.55759
1.338	-16.495	-32017	3291.2	-0.6262	-0.53007	-0.5572
1.34	-16.477	-32013	3290.6	-0.62757	-0.52948	-0.55681
1.342	-16.491	-32012	3289.9	-0.62688	-0.52899	-0.55632
1.344	-16.498	-32010	3289.2	-0.6262	-0.5285	-0.55583
1.346	-16.472	-32010	3288.5	-0.62552	-0.52802	-0.55534
1.348	-16.458	-32010	3287.8	-0.62484	-0.52753	-0.55486
1.35	-16.463	-32011	3287.1	-0.62415	-0.52704	-0.55437
1.352	-16.482	-32012	3286.4	-0.62444	-0.52821	-0.55622
1.354	-16.486	-32015	3285.8	-0.62474	-0.52938	-0.55808
1.356	-16.477	-32018	3285.2	-0.62503	-0.53055	-0.55993
1.358	-16.474	-32015	3284.6	-0.62532	-0.53172	-0.56179
1.36	-16.489	-32011	3284	-0.62562	-0.5329	-0.56364
1.362	-16.5	-32009	3283.5	-0.62484	-0.53299	-0.56384
1.364	-16.48	-32006	3283	-0.62405	-0.53309	-0.56403
1.366	-16.448	-32007	3282.6	-0.62327	-0.53319	-0.56423
1.368	-16.445	-32008	3282.4	-0.62249	-0.53329	-0.56442
1.37	-16.485	-32008	3282.1	-0.62171	-0.53338	-0.56462
1.372	-16.506	-32009	3282.2	-0.62415	-0.53221	-0.56423
1.374	-16.482	-32009	3282.2	-0.62659	-0.53104	-0.56384
1.376	-16.48	-32009	3282.4	-0.62903	-0.52987	-0.56344
1.378	-16.493	-32011	3282.7	-0.63147	-0.5287	-0.56305
1.38	-16.497	-32013	3283	-0.63391	-0.52753	-0.56266
1.382	-16.497	-32007	3283.3	-0.63372	-0.52772	-0.56364
1.384	-16.51	-32001	3283.6	-0.63352	-0.52792	-0.56462
1.386	-16.518	-31996	3284	-0.63333	-0.52811	-0.56559
1.388	-16.499	-31992	3284.4	-0.63313	-0.52831	-0.56657
1.39	-16.477	-32001	3284.8	-0.63294	-0.5285	-0.56754
1.392	-16.473	-32011	3285.3	-0.63284	-0.52958	-0.56784
1.394	-16.471	-32004	3285.7	-0.63274	-0.53065	-0.56813
1.396	-16.463	-31997	3286.2	-0.63264	-0.53172	-0.56842
1.398	-16.48	-31992	3286.6	-0.63255	-0.5328	-0.56872
1.4	-16.502	-31987	3287	-0.63245	-0.53387	-0.56901
1.402	-16.498	-31991	3287.4	-0.63352	-0.53348	-0.56823
1.404	-16.469	-31994	3287.7	-0.6346	-0.53309	-0.56745
1.406	-16.481	-31992	3288.1	-0.63567	-0.5327	-0.56667
1.408	-16.464	-31991	3288.5	-0.63674	-0.53231	-0.56588
1.41	-16.45	-31990	3288.9	-0.63782	-0.53192	-0.5651
1.412	-16.498	-31990	3289.2	-0.63694	-0.53172	-0.56549
1.414	-16.511	-31988	3289.5	-0.63606	-0.53153	-0.56588
1.416	-16.492	-31986	3289.8	-0.63518	-0.53133	-0.56628
1.418	-16.457	-31991	3290.1	-0.6343	-0.53114	-0.56667
1.42	-16.462	-31996	3290.4	-0.63342	-0.53094	-0.56706
1.422	-16.487	-31999	3290.5	-0.63255	-0.53007	-0.56598
1.424	-16.482	-32002	3290.7	-0.63167	-0.52919	-0.56491
1.426	-16.494	-31993	3290.9	-0.63079	-0.52831	-0.56384
1.428	-16.491	-31985	3291	-0.62991	-0.52743	-0.56276
1.43	-16.495	-31987	3291.1	-0.62903	-0.52655	-0.56169
1.432	-16.497	-31990	3291.1	-0.62884	-0.52655	-0.56169
1.434	-16.491	-31988	3291.2	-0.62864	-0.52655	-0.56169
1.436	-16.485	-31985	3291.2	-0.62845	-0.52655	-0.56169
1.438	-16.496	-31985	3291.2	-0.62825	-0.52655	-0.56169
1.44	-16.488	-31986	3291.3	-0.62806	-0.52655	-0.56169
1.442	-16.486	-31988	3291.3	-0.62913	-0.52636	-0.56208
1.444	-16.486	-31991	3291.4	-0.6302	-0.52616	-0.56247
1.446	-16.474	-31994	3291.4	-0.63128	-0.52597	-0.56286
1.448	-16.477	-31996	3291.5	-0.63235	-0.52577	-0.56325
1.45	-16.488	-31996	3291.5	-0.63342	-0.52558	-0.56364
1.452	-16.488	-31995	3291.6	-0.63186	-0.52519	-0.56315
1.454	-16.486	-31995	3291.7	-0.6303	-0.5248	-0.56266
1.456	-16.481	-31995	3291.7	-0.62874	-0.5244	-0.56218
1.458	-16.477	-31992	3291.8	-0.62718	-0.52401	-0.56169
1.46	-16.478	-31990	3291.8	-0.62562	-0.52362	-0.5612
1.462	-16.484	-31988	3291.8	-0.62503	-0.52509	-0.56081
1.464	-16.503	-31986	3291.9	-0.62444	-0.52655	-0.56042
1.466	-16.501	-31990	3292	-0.62386	-0.52802	-0.56003
1.468	-16.484	-31995	3292.1	-0.62327	-0.52948	-0.55964
1.47	-16.483	-31995	3292.2	-0.62269	-0.53094	-0.55925
1.472	-16.493	-31995	3292.3	-0.62288	-0.53036	-0.55905
1.474	-16.512	-31994	3292.4	-0.62308	-0.52977	-0.55886
1.476	-16.513	-31992	3292.5	-0.62327	-0.52919	-0.55866
1.478	-16.508	-31989	3292.6	-0.62347	-0.5286	-0.55847
1.48	-16.505	-31986	3292.7	-0.62366	-0.52802	-0.55827
1.482	-16.503	-31980	3292.7	-0.62444	-0.52831	-0.55964
1.484	-16.51	-31974	3292.8	-0.62523	-0.5286	-0.561
1.486	-16.503	-31979	3292.8	-0.62601	-0.52889	-0.56237
1.488	-16.483	-31985	3292.7	-0.62679	-0.52919	-0.56374
1.49	-16.472	-31983	3292.7	-0.62757	-0.52948	-0.5651
1.492	-16.479	-31982	3292.5	-0.62903	-0.52899	-0.56432
1.494	-16.489	-31981	3292.3	-0.6305	-0.5285	-0.56354
1.496	-16.496	-31980	3292.1	-0.63196	-0.52802	-0.56276
1.498	-16.488	-31978	3291.8	-0.63342	-0.52753	-0.56198
1.5	-16.48	-31975	3291.5	-0.63489	-0.52704	-0.5612
1.502	-16.497	-31970	3291.1	-0.6345	-0.52684	-0.5613
1.504	-16.477	-31966	3290.7	-0.63411	-0.52665	-0.5614
1.506	-16.483	-31968	3290.4	-0.63372	-0.52645	-0.56149
1.508	-16.467	-31970	3290	-0.63333	-0.52626	-0.56159
1.51	-16.497	-31971	3289.6	-0.63294	-0.52606	-0.56169
1.512	-16.516	-31972	3289.2	-0.63206	-0.52724	-0.56335
1.514	-16.5	-31964	3288.8	-0.63118	-0.52841	-0.56501
1.516	-16.481	-31955	3288.4	-0.6303	-0.52958	-0.56667
1.518	-16.477	-31965	3287.9	-0.62942	-0.53075	-0.56832
1.52	-16.472	-31975	3287.4	-0.62854	-0.53192	-0.56998
1.522	-16.476	-31970	3287	-0.62923	-0.53163	-0.56881
1.524	-16.481	-31964	3286.7	-0.62991	-0.53133	-0.56764
1.526	-16.484	-31966	3286.3	-0.63059	-0.53104	-0.56647
1.528	-16.486	-31969	3286.1	-0.63128	-0.53075	-0.5653
1.53	-16.498	-31968	3285.9	-0.63196	-0.53046	-0.56413
1.532	-16.509	-31967	3285.6	-0.6302	-0.53055	-0.56335
1.534	-16.5	-31968	3285.3	-0.62845	-0.53065	-0.56257
1.536	-16.488	-31969	3285	-0.62669	-0.53075	-0.56179
1.538	-16.482	-31968	3284.6	-0.62493	-0.53085	-0.561
1.54	-16.481	-31968	3284.3	-0.62318	-0.53094	-0.56022
1.542	-16.488	-31960	3284	-0.62503	-0.52987	-0.561
1.544	-16.499	-31953	3283.8	-0.62688	-0.5288	-0.56179
1.546	-16.505	-31956	3283.5	-0.62874	-0.52772	-0.56257
1.548	-16.496	-31959	3283.3	-0.63059	-0.52665	-0.56335
1.55	-16.506	-31960	3283.1	-0.63245	-0.52558	-0.56413
1.552	-16.519	-31960	3283	-0.63196	-0.52626	-0.56315
1.554	-16.513	-31965	3282.8	-0.63147	-0.52694	-0.56218
1.556	-16.504	-31969	3282.7	-0.63098	-0.52763	-0.5612
1.558	-16.503	-31966	3282.5	-0.6305	-0.52831	-0.56022
1.56	-16.496	-31963	3282.3	-0.63001	-0.52899	-0.55925
1.562	-16.487	-31964	3282	-0.62991	-0.5287	-0.55954
1.564	-16.483	-31965	3281.7	-0.62981	-0.52841	-0.55983
1.566	-16.476	-31957	3281.3	-0.62972	-0.52811	-0.56013
1.568	-16.486	-31949	3280.9	-0.62962	-0.52782	-0.56042
1.57	-16.476	-31958	3280.5	-0.62952	-0.52753	-0.56071
1.572	-16.467	-31967	3280	-0.62942	-0.52821	-0.5612
1.574	-16.484	-31964	3279.6	-0.62932	-0.52889	-0.56169
1.576	-16.501	-31961	3279.1	-0.62923	-0.52958	-0.56218
1.578	-16.486	-31959	3278.5	-0.62913	-0.53026	-0.56266
1.58	-16.43	-31957	3277.9	-0.62903	-0.53094	-0.56315
1.582	-16.42	-31960	3277.4	-0.62962	-0.52997	-0.56344
1.584	-16.425	-31963	3277	-0.6302	-0.52899	-0.56374
1.586	-16.411	-31958	3276.6	-0.63079	-0.52802	-0.56403
1.588	-16.445	-31954	3276.4	-0.63137	-0.52704	-0.56432
1.59	-16.497	-31955	3276.2	-0.63196	-0.52606	-0.56462
1.592	-16.446	-31956	3276.1	-0.63274	-0.52811	-0.5651
1.594	-16.414	-31964	3276.1	-0.63352	-0.53016	-0.56559
1.596	-16.4	-31971	3276.1	-0.6343	-0.53221	-0.56608
1.598	-16.4	-31967	3276	-0.63508	-0.53426	-0.56657
1.6	-16.414	-31964	3276	-0.63586	-0.53631	-0.56706
1.602	-16.436	-31967	3276	-0.63664	-0.53553	-0.56686
1.604	-16.449	-31970	3275.9	-0.63743	-0.53475	-0.56667
1.606	-16.445	-31973	3275.8	-0.63821	-0.53397	-0.56647
1.608	-16.438	-31977	3275.8	-0.63899	-0.53319	-0.56628
1.61	-16.434	-31970	3275.7	-0.63977	-0.53241	-0.56608
1.612	-16.432	-31964	3275.5	-0.63938	-0.53251	-0.56588
1.614	-16.424	-31967	3275.3	-0.63899	-0.5326	-0.56569
1.616	-16.423	-31970	3275	-0.6386	-0.5327	-0.56549
1.618	-16.418	-31968	3274.6	-0.63821	-0.5328	-0.5653
1.62	-16.423	-31967	3274.3	-0.63782	-0.5329	-0.5651
1.622	-16.444	-31963	3273.8	-0.63655	-0.53133	-0.56471
1.624	-16.445	-31960	3273.4	-0.63528	-0.52977	-0.56432
1.626	-16.447	-31961	3272.9	-0.63401	-0.52821	-0.56393
1.628	-16.477	-31962	3272.4	-0.63274	-0.52665	-0.56354
1.63	-16.488	-31963	3271.9	-0.63147	-0.52509	-0.56315
1.632	-16.482	-31964	3271.4	-0.63147	-0.52606	-0.56315
1.634	-16.495	-31967	3270.9	-0.63147	-0.52704	-0.56315
1.636	-16.482	-31970	3270.5	-0.63147	-0.52802	-0.56315
1.638	-16.452	-31966	3270.2	-0.63147	-0.52899	-0.56315
1.64	-16.459	-31961	3269.9	-0.63147	-0.52997	-0.56315
1.642	-16.5	-31961	3269.6	-0.63225	-0.53007	-0.56403
1.644	-16.512	-31962	3269.3	-0.63303	-0.53016	-0.56491
1.646	-16.505	-31962	3269.2	-0.63381	-0.53026	-0.56579
1.648	-16.512	-31962	3269.2	-0.6346	-0.53036	-0.56667
1.65	-16.514	-31961	3269.2	-0.63538	-0.53046	-0.56754
1.652	-16.498	-31960	3269.4	-0.63538	-0.53055	-0.56774
1.654	-16.482	-31960	3269.5	-0.63538	-0.53065	-0.56793
1.656	-16.491	-31961	3269.7	-0.63538	-0.53075	-0.56813
1.658	-16.503	-31959	3269.9	-0.63538	-0.53085	-0.56832
1.66	-16.494	-31957	3270.1	-0.63538	-0.53094	-0.56852
1.662	-16.485	-31960	3270.3	-0.63596	-0.53075	-0.56754
1.664	-16.501	-31963	3270.6	-0.63655	-0.53055	-0.56657
1.666	-16.499	-31966	3270.8	-0.63713	-0.53036	-0.56559
1.668	-16.499	-31969	3270.9	-0.63772	-0.53016	-0.56462
1.67	-16.496	-31973	3271	-0.6383	-0.52997	-0.56364
1.672	-16.497	-31977	3271.1	-0.63664	-0.52968	-0.56305
1.674	-16.492	-31980	3271.1	-0.63499	-0.52938	-0.56247
1.676	-16.483	-31984	3271.1	-0.63333	-0.52909	-0.56188
1.678	-16.507	-31975	3271	-0.63167	-0.5288	-0.5613
1.68	-16.51	-31965	3270.9	-0.63001	-0.5285	-0.56071
1.682	-16.496	-31963	3270.7	-0.6304	-0.5286	-0.56159
1.684	-16.486	-31962	3270.5	-0.63079	-0.5287	-0.56247
1.686	-16.477	-31973	3270.3	-0.63118	-0.5288	-0.56335
1.688	-16.47	-31984	3270	-0.63157	-0.52889	-0.56423
1.69	-16.476	-31981	3269.8	-0.63196	-0.52899	-0.5651
1.692	-16.501	-31978	3269.5	-0.63157	-0.52919	-0.56569
1.694	-16.506	-31973	3269.2	-0.63118	-0.52938	-0.56628
1.696	-16.494	-31967	3268.9	-0.63079	-0.52958	-0.56686
1.698	-16.492	-31972	3268.5	-0.6304	-0.52977	-0.56745
1.7	-16.491	-31977	3268.2	-0.63001	-0.52997	-0.56803
1.702	-16.474	-31974	3267.8	-0.6303	-0.52968	-0.56706
1.704	-16.449	-31972	3267.3	-0.63059	-0.52938	-0.56608
1.706	-16.433	-31971	3266.8	-0.63089	-0.52909	-0.5651
1.708	-16.421	-31970	3266.3	-0.63118	-0.5288	-0.56413
1.71	-16.427	-31977	3265.8	-0.63147	-0.5285	-0.56315
1.712	-16.458	-31984	3265.2	-0.63098	-0.52821	-0.56315
1.714	-16.478	-31978	3264.6	-0.6305	-0.52792	-0.56315
1.716	-16.498	-31972	3264	-0.63001	-0.52763	-0.56315
1.718	-16.527	-31976	3263.4	-0.62952	-0.52733	-0.56315
1.72	-16.548	-31980	3262.8	-0.62903	-0.52704	-0.56315
1.722	-16.586	-31979	3262.5	-0.62825	-0.52821	-0.56354
1.724	-16.641	-31978	3262.2	-0.62747	-0.52938	-0.56393
1.726	-16.692	-31975	3262	-0.62669	-0.53055	-0.56432
1.728	-16.699	-31971	3261.9	-0.62591	-0.53172	-0.56471
1.73	-16.675	-31973	3261.7	-0.62513	-0.5329	-0.5651
1.732	-16.671	-31974	3261.7	-0.62728	-0.5327	-0.5653
1.734	-16.624	-31970	3261.7	-0.62942	-0.53251	-0.56549
1.736	-16.635	-31967	3261.8	-0.63157	-0.53231	-0.56569
1.738	-16.6	-31967	3262	-0.63372	-0.53212	-0.56588
1.74	-16.54	-31967	3262.2	-0.63586	-0.53192	-0.56608
1.742	-16.545	-31969	3262.5	-0.63674	-0.53163	-0.56588
1.744	-16.558	-31971	3262.8	-0.63762	-0.53133	-0.56569
1.746	-16.553	-31970	3263.1	-0.6385	-0.53104	-0.56549
1.748	-16.539	-31968	3263.4	-0.63938	-0.53075	-0.5653
1.75	-16.514	-31966	3263.7	-0.64026	-0.53046	-0.5651
1.752	-16.496	-31965	3263.9	-0.64016	-0.52958	-0.56452
1.754	-16.482	-31966	3264.1	-0.64006	-0.5287	-0.56393
1.756	-16.478	-31967	3264.2	-0.63996	-0.52782	-0.56335
1.758	-16.488	-31966	3264.3	-0.63987	-0.52694	-0.56276
1.76	-16.48	-31965	3264.4	-0.63977	-0.52606	-0.56218
1.762	-16.482	-31967	3264.4	-0.6385	-0.52665	-0.56325
1.764	-16.476	-31969	3264.4	-0.63723	-0.52724	-0.56432
1.766	-16.471	-31974	3264.2	-0.63596	-0.52782	-0.5654
1.768	-16.484	-31979	3264	-0.63469	-0.52841	-0.56647
1.77	-16.477	-31978	3263.8	-0.63342	-0.52899	-0.56754
1.772	-16.47	-31977	3263.4	-0.63264	-0.52889	-0.56813
1.774	-16.455	-31979	3263.1	-0.63186	-0.5288	-0.56872
1.776	-16.448	-31981	3262.8	-0.63108	-0.5287	-0.5693
1.778	-16.466	-31977	3262.6	-0.6303	-0.5286	-0.56989
1.78	-16.483	-31972	3262.3	-0.62952	-0.5285	-0.57047
1.782	-16.476	-31975	3262.2	-0.62835	-0.52928	-0.57067
1.784	-16.501	-31978	3262.2	-0.62718	-0.53007	-0.57086
1.786	-16.519	-31978	3262.1	-0.62601	-0.53085	-0.57106
1.788	-16.504	-31979	3262	-0.62484	-0.53163	-0.57125
1.79	-16.514	-31978	3262	-0.62366	-0.53241	-0.57145
1.792	-16.518	-31977	3262	-0.62279	-0.53358	-0.57194
1.794	-16.487	-31973	3262	-0.62191	-0.53475	-0.57242
1.796	-16.467	-31970	3262.1	-0.62103	-0.53592	-0.57291
1.798	-16.459	-31970	3262.2	-0.62015	-0.53709	-0.5734
1.8	-16.469	-31970	3262.3	-0.61927	-0.53826	-0.57389
1.802	-16.503	-31978	3262.4	-0.61956	-0.53846	-0.5734
1.804	-16.504	-31986	3262.5	-0.61986	-0.53865	-0.57291
1.806	-16.493	-31988	3262.6	-0.62015	-0.53885	-0.57242
1.808	-16.505	-31991	3262.7	-0.62044	-0.53904	-0.57194
1.81	-16.512	-31991	3262.8	-0.62074	-0.53924	-0.57145
1.812	-16.48	-31990	3262.8	-0.62327	-0.53817	-0.57086
1.814	-16.459	-31985	3262.8	-0.62581	-0.53709	-0.57028
1.816	-16.489	-31980	3262.7	-0.62835	-0.53602	-0.56969
1.818	-16.535	-31983	3262.7	-0.63089	-0.53495	-0.56911
1.82	-16.529	-31986	3262.6	-0.63342	-0.53387	-0.56852
1.822	-16.485	-31989	3262.4	-0.63381	-0.53329	-0.56754
1.824	-16.468	-31992	3262.3	-0.6342	-0.5327	-0.56657
1.826	-16.483	-31990	3262	-0.6346	-0.53212	-0.56559
1.828	-16.504	-31988	3261.6	-0.63499	-0.53153	-0.56462
1.83	-16.477	-31985	3261.3	-0.63538	-0.53094	-0.56364
1.832	-16.475	-31982	3260.8	-0.63557	-0.53163	-0.56423
1.834	-16.49	-31980	3260.2	-0.63577	-0.53231	-0.56481
1.836	-16.479	-31979	3259.6	-0.63596	-0.53299	-0.5654
1.838	-16.487	-31980	3258.9	-0.63616	-0.53368	-0.56598
1.84	-16.485	-31981	3258.2	-0.63635	-0.53436	-0.56657
1.842	-16.495	-31981	3257.4	-0.63557	-0.53338	-0.56569
1.844	-16.498	-31982	3256.5	-0.63479	-0.53241	-0.56481
1.846	-16.484	-31988	3255.5	-0.63401	-0.53143	-0.56393
1.848	-16.473	-31993	3254.5	-0.63323	-0.53046	-0.56305
1.85	-16.459	-31994	3253.5	-0.63245	-0.52948	-0.56218
1.852	-16.455	-31995	3252.4	-0.63011	-0.53026	-0.56198
1.854	-16.468	-31994	3251.3	-0.62776	-0.53104	-0.56179
1.856	-16.492	-31994	3250.4	-0.62542	-0.53182	-0.56159
1.858	-16.492	-31992	3249.5	-0.62308	-0.5326	-0.5614
1.86	-16.481	-31990	3248.7	-0.62074	-0.53338	-0.5612
1.862	-16.463	-31987	3248.2	-0.62103	-0.53358	-0.56159
1.864	-16.463	-31985	3247.8	-0.62132	-0.53377	-0.56198
1.866	-16.448	-31989	3247.4	-0.62161	-0.53397	-0.56237
1.868	-16.415	-31993	3247.1	-0.62191	-0.53416	-0.56276
1.87	-16.414	-31996	3246.9	-0.6222	-0.53436	-0.56315
1.872	-16.445	-32000	3246.6	-0.62415	-0.53338	-0.56364
1.874	-16.479	-31999	3246.4	-0.6261	-0.53241	-0.56413
1.876	-16.49	-31998	3246.3	-0.62806	-0.53143	-0.56462
1.878	-16.482	-32000	3246.4	-0.63001	-0.53046	-0.5651
1.88	-16.478	-32003	3246.5	-0.63196	-0.52948	-0.56559
1.882	-16.479	-32005	3246.8	-0.63098	-0.53026	-0.56676
1.884	-16.475	-32008	3247.1	-0.63001	-0.53104	-0.56793
1.886	-16.467	-32008	3247.5	-0.62903	-0.53182	-0.56911
1.888	-16.461	-32008	3248.1	-0.62806	-0.5326	-0.57028
1.89	-16.447	-32009	3248.7	-0.62708	-0.53338	-0.57145
1.892	-16.442	-32010	3249.4	-0.62669	-0.53348	-0.57106
1.894	-16.441	-32010	3250	-0.6263	-0.53358	-0.57067
1.896	-16.439	-32010	3250.8	-0.62591	-0.53368	-0.57028
1.898	-16.437	-32010	3251.7	-0.62552	-0.53377	-0.56989
1.9	-16.447	-32010	3252.6	-0.62513	-0.53387	-0.5695
1.902	-16.432	-32011	3253.5	-0.62601	-0.53329	-0.56979
1.904	-16.424	-32012	3254.5	-0.62688	-0.5327	-0.57008
1.906	-16.418	-32014	3255.5	-0.62776	-0.53212	-0.57037
1.908	-16.439	-32017	3256.6	-0.62864	-0.53153	-0.57067
1.91	-16.446	-32017	3257.7	-0.62952	-0.53094	-0.57096
1.912	-16.422	-32018	3259.1	-0.62884	-0.53094	-0.57203
1.914	-16.394	-32018	3260.5	-0.62815	-0.53094	-0.57311
1.916	-16.381	-32019	3262	-0.62747	-0.53094	-0.57418
1.918	-16.403	-32020	3263.6	-0.62679	-0.53094	-0.57525
1.92	-16.411	-32021	3265.2	-0.6261	-0.53094	-0.57633
1.922	-16.394	-32024	3266.9	-0.62688	-0.52928	-0.57613
1.924	-16.396	-32026	3268.6	-0.62767	-0.52763	-0.57594
1.926	-16.41	-32025	3270.4	-0.62845	-0.52597	-0.57574
1.928	-16.416	-32025	3272.1	-0.62923	-0.52431	-0.57555
1.93	-16.402	-32023	3273.8	-0.63001	-0.52265	-0.57535
1.932	-16.423	-32022	3275.4	-0.62962	-0.52196	-0.57496
1.934	-16.45	-32023	3277	-0.62923	-0.52128	-0.57457
1.936	-16.412	-32024	3278.6	-0.62884	-0.5206	-0.57418
1.938	-16.387	-32021	3280.1	-0.62845	-0.51992	-0.57379
1.94	-16.398	-32018	3281.6	-0.62806	-0.51923	-0.5734
1.942	-16.391	-32019	3283	-0.62913	-0.51933	-0.57281
1.944	-16.356	-32019	3284.5	-0.6302	-0.51943	-0.57223
1.946	-16.366	-32020	3285.9	-0.63128	-0.51952	-0.57164
1.948	-16.356	-32020	3287.3	-0.63235	-0.51962	-0.57106
1.95	-16.326	-32020	3288.7	-0.63342	-0.51972	-0.57047
1.952	-16.329	-32019	3290	-0.63255	-0.52001	-0.57086
1.954	-16.377	-32018	3291.3	-0.63167	-0.52031	-0.57125
1.956	-16.417	-32018	3292.5	-0.63079	-0.5206	-0.57164
1.958	-16.417	-32013	3293.7	-0.62991	-0.52089	-0.57203
1.96	-16.405	-32008	3294.9	-0.62903	-0.52118	-0.57242
1.962	-16.389	-32009	3296	-0.62874	-0.52109	-0.57203
1.964	-16.374	-32010	3297.1	-0.62845	-0.52099	-0.57164
1.966	-16.383	-32008	3298.1	-0.62815	-0.52089	-0.57125
1.968	-16.383	-32007	3299.1	-0.62786	-0.52079	-0.57086
1.97	-16.379	-32000	3300.1	-0.62757	-0.5207	-0.57047
1.972	-16.395	-31993	3301	-0.62737	-0.52099	-0.56959
1.974	-16.393	-31991	3301.8	-0.62718	-0.52128	-0.56872
1.976	-16.396	-31989	3302.6	-0.62698	-0.52157	-0.56784
1.978	-16.397	-31986	3303.1	-0.62679	-0.52187	-0.56696
1.98	-16.387	-31983	3303.7	-0.62659	-0.52216	-0.56608
1.982	-16.388	-31981	3304.1	-0.62718	-0.52216	-0.5654
1.984	-16.397	-31980	3304.4	-0.62776	-0.52216	-0.56471
1.986	-16.412	-31982	3304.6	-0.62835	-0.52216	-0.56403
1.988	-16.417	-31984	3304.6	-0.62893	-0.52216	-0.56335
1.99	-16.412	-31978	3304.7	-0.62952	-0.52216	-0.56266
1.992	-16.398	-31973	3304.6	-0.62864	-0.52294	-0.56218
1.994	-16.405	-31970	3304.5	-0.62776	-0.52372	-0.56169
1.996	-16.426	-31968	3304.4	-0.62688	-0.5245	-0.5612
1.998	-16.429	-31969	3304.2	-0.62601	-0.52528	-0.56071
2	-16.425	-31969	3304	-0.62513	-0.52606	-0.56022
2.002	-16.445	-31961	3303.7	-0.62581	-0.52655	-0.561
2.004	-16.394	-31954	3303.4	-0.62649	-0.52704	-0.56179
2.006	-16.368	-31951	3303.1	-0.62718	-0.52753	-0.56257
2.008	-16.433	-31949	3302.8	-0.62786	-0.52802	-0.56335
2.01	-16.491	-31951	3302.5	-0.62854	-0.5285	-0.56413
2.012	-16.457	-31954	3302.3	-0.62688	-0.52948	-0.5653
2.014	-16.428	-31943	3302	-0.62523	-0.53046	-0.56647
2.016	-16.452	-31933	3301.8	-0.62357	-0.53143	-0.56764
2.018	-16.463	-31934	3301.6	-0.62191	-0.53241	-0.56881
2.02	-16.464	-31935	3301.3	-0.62025	-0.53338	-0.56998
2.022	-16.459	-31931	3301	-0.62054	-0.53358	-0.57018
2.024	-16.463	-31928	3300.7	-0.62083	-0.53377	-0.57037
2.026	-16.49	-31928	3300.4	-0.62113	-0.53397	-0.57057
2.028	-16.498	-31928	3300	-0.62142	-0.53416	-0.57076
2.03	-16.47	-31925	3299.6	-0.62171	-0.53436	-0.57096
2.032	-16.449	-31922	3299.2	-0.62279	-0.53416	-0.57018
2.034	-16.462	-31923	3298.7	-0.62386	-0.53397	-0.5694
2.036	-16.482	-31924	3298.3	-0.62493	-0.53377	-0.56862
2.038	-16.475	-31917	3297.8	-0.62601	-0.53358	-0.56784
2.04	-16.458	-31910	3297.4	-0.62708	-0.53338	-0.56706
2.042	-16.456	-31905	3296.9	-0.62923	-0.53368	-0.56754
2.044	-16.447	-31901	3296.3	-0.63137	-0.53397	-0.56803
2.046	-16.438	-31898	3295.8	-0.63352	-0.53426	-0.56852
2.048	-16.43	-31895	3295.3	-0.63567	-0.53456	-0.56901
2.05	-16.444	-31894	3294.8	-0.63782	-0.53485	-0.5695
2.052	-16.482	-31893	3294.4	-0.63625	-0.5327	-0.56969
2.054	-16.5	-31896	3293.9	-0.63469	-0.53055	-0.56989
2.056	-16.506	-31899	3293.6	-0.63313	-0.52841	-0.57008
2.058	-16.491	-31893	3293.4	-0.63157	-0.52626	-0.57028
2.06	-16.475	-31887	3293.2	-0.63001	-0.52411	-0.57047
2.062	-16.491	-31891	3293.1	-0.63176	-0.52509	-0.5693
2.064	-16.481	-31895	3293.1	-0.63352	-0.52606	-0.56813
2.066	-16.48	-31889	3293.1	-0.63528	-0.52704	-0.56696
2.068	-16.519	-31883	3293.1	-0.63704	-0.52802	-0.56579
2.07	-16.499	-31882	3293.2	-0.63879	-0.52899	-0.56462
2.072	-16.495	-31882	3293.2	-0.6384	-0.52968	-0.5652
2.074	-16.486	-31886	3293.2	-0.63801	-0.53036	-0.56579
2.076	-16.468	-31890	3293.2	-0.63762	-0.53104	-0.56637
2.078	-16.468	-31886	3293.1	-0.63723	-0.53172	-0.56696
2.08	-16.471	-31882	3293	-0.63684	-0.53241	-0.56754
2.082	-16.492	-31883	3292.8	-0.63694	-0.53231	-0.56754
2.084	-16.488	-31883	3292.5	-0.63704	-0.53221	-0.56754
2.086	-16.482	-31879	3292.2	-0.63713	-0.53212	-0.56754
2.088	-16.467	-31876	3291.8	-0.63723	-0.53202	-0.56754
2.09	-16.456	-31874	3291.4	-0.63733	-0.53192	-0.56754
2.092	-16.466	-31872	3290.9	-0.63655	-0.53133	-0.56715
2.094	-16.474	-31877	3290.5	-0.63577	-0.53075	-0.56676
2.096	-16.491	-31881	3289.9	-0.63499	-0.53016	-0.56637
2.098	-16.512	-31878	3289.4	-0.6342	-0.52958	-0.56598
2.1	-16.465	-31875	3288.9	-0.63342	-0.52899	-0.56559
2.102	-16.448	-31874	3288.3	-0.63323	-0.52938	-0.56569
2.104	-16.468	-31874	3287.8	-0.63303	-0.52977	-0.56579
2.106	-16.469	-31877	3287.2	-0.63284	-0.53016	-0.56588
2.108	-16.466	-31881	3286.7	-0.63264	-0.53055	-0.56598
2.11	-16.463	-31878	3286.2	-0.63245	-0.53094	-0.56608
2.112	-16.453	-31875	3285.6	-0.63294	-0.53104	-0.56569
2.114	-16.468	-31877	3285.1	-0.63342	-0.53114	-0.5653
2.116	-16.486	-31880	3284.5	-0.63391	-0.53124	-0.56491
2.118	-16.476	-31883	3283.9	-0.6344	-0.53133	-0.56452
2.12	-16.457	-31885	3283.4	-0.63489	-0.53143	-0.56413
2.122	-16.464	-31882	3282.7	-0.63167	-0.53124	-0.56305
2.124	-16.463	-31880	3282.1	-0.62845	-0.53104	-0.56198
2.126	-16.466	-31884	3281.4	-0.62523	-0.53085	-0.56091
2.128	-16.462	-31888	3280.8	-0.622	-0.53065	-0.55983
2.13	-16.454	-31885	3280.2	-0.61878	-0.53046	-0.55876
2.132	-16.468	-31882	3279.6	-0.61908	-0.52997	-0.55896
2.134	-16.474	-31882	3279.1	-0.61937	-0.52948	-0.55915
2.136	-16.474	-31883	3278.6	-0.61966	-0.52899	-0.55935
2.138	-16.468	-31883	3278.1	-0.61996	-0.5285	-0.55954
2.14	-16.464	-31882	3277.7	-0.62025	-0.52802	-0.55974
2.142	-16.481	-31894	3277.3	-0.62171	-0.52811	-0.56022
2.144	-16.479	-31906	3276.9	-0.62318	-0.52821	-0.56071
2.146	-16.484	-31907	3276.6	-0.62464	-0.52831	-0.5612
2.148	-16.491	-31909	3276.3	-0.6261	-0.52841	-0.56169
2.15	-16.478	-31908	3276.1	-0.62757	-0.5285	-0.56218
2.152	-16.468	-31906	3275.9	-0.62903	-0.52919	-0.56296
2.154	-16.474	-31912	3275.6	-0.6305	-0.52987	-0.56374
2.156	-16.486	-31917	3275.4	-0.63196	-0.53055	-0.56452
2.158	-16.484	-31912	3275.1	-0.63342	-0.53124	-0.5653
2.16	-16.48	-31906	3274.9	-0.63489	-0.53192	-0.56608
2.162	-16.486	-31909	3274.6	-0.63469	-0.53143	-0.56608
2.164	-16.469	-31912	3274.4	-0.6345	-0.53094	-0.56608
2.166	-16.438	-31911	3274.2	-0.6343	-0.53046	-0.56608
2.168	-16.442	-31911	3274	-0.63411	-0.52997	-0.56608
2.17	-16.452	-31920	3273.9	-0.63391	-0.52948	-0.56608
2.172	-16.474	-31930	3273.8	-0.63352	-0.5285	-0.56637
2.174	-16.485	-31932	3273.7	-0.63313	-0.52753	-0.56667
2.176	-16.469	-31935	3273.7	-0.63274	-0.52655	-0.56696
2.178	-16.484	-31930	3273.8	-0.63235	-0.52558	-0.56725
2.18	-16.474	-31925	3273.8	-0.63196	-0.5246	-0.56754
2.182	-16.474	-31932	3273.9	-0.63216	-0.5244	-0.56803
2.184	-16.513	-31939	3274	-0.63235	-0.52421	-0.56852
2.186	-16.494	-31939	3274.2	-0.63255	-0.52401	-0.56901
2.188	-16.493	-31940	3274.3	-0.63274	-0.52382	-0.5695
2.19	-16.485	-31940	3274.5	-0.63294	-0.52362	-0.56998
2.192	-16.478	-31940	3274.7	-0.63186	-0.52323	-0.57028
2.194	-16.48	-31942	3274.8	-0.63079	-0.52284	-0.57057
2.196	-16.486	-31944	3275.1	-0.62972	-0.52245	-0.57086
2.198	-16.471	-31937	3275.4	-0.62864	-0.52206	-0.57116
2.2	-16.473	-31930	3275.6	-0.62757	-0.52167	-0.57145
2.202	-16.481	-31937	3276.1	-0.62854	-0.52245	-0.5693
2.204	-16.509	-31943	3276.5	-0.62952	-0.52323	-0.56715
2.206	-16.497	-31943	3276.9	-0.6305	-0.52401	-0.56501
2.208	-16.437	-31944	3277.3	-0.63147	-0.5248	-0.56286
2.21	-16.424	-31948	3277.7	-0.63245	-0.52558	-0.56071
2.212	-16.454	-31953	3278.2	-0.63313	-0.52636	-0.56179
2.214	-16.49	-31956	3278.6	-0.63381	-0.52714	-0.56286
2.216	-16.481	-31959	3279.1	-0.6345	-0.52792	-0.56393
2.218	-16.457	-31954	3279.6	-0.63518	-0.5287	-0.56501
2.22	-16.469	-31949	3280.1	-0.63586	-0.52948	-0.56608
2.222	-16.477	-31949	3280.7	-0.63489	-0.52841	-0.56667
2.224	-16.479	-31950	3281.3	-0.63391	-0.52733	-0.56725
2.226	-16.485	-31955	3281.9	-0.63294	-0.52626	-0.56784
2.228	-16.482	-31961	3282.6	-0.63196	-0.52519	-0.56842
2.23	-16.482	-31956	3283.2	-0.63098	-0.52411	-0.56901
2.232	-16.481	-31951	3283.7	-0.63128	-0.5247	-0.56745
2.234	-16.475	-31952	3284.3	-0.63157	-0.52528	-0.56588
2.236	-16.483	-31952	3284.7	-0.63186	-0.52587	-0.56432
2.238	-16.482	-31949	3285	-0.63216	-0.52645	-0.56276
2.24	-16.468	-31947	3285.4	-0.63245	-0.52704	-0.5612
2.242	-16.465	-31948	3285.6	-0.63294	-0.52665	-0.56169
2.244	-16.481	-31949	3285.8	-0.63342	-0.52626	-0.56218
2.246	-16.492	-31946	3286	-0.63391	-0.52587	-0.56266
2.248	-16.502	-31943	3286	-0.6344	-0.52548	-0.56315
2.25	-16.477	-31944	3286.1	-0.63489	-0.52509	-0.56364
2.252	-16.475	-31946	3286	-0.6346	-0.52538	-0.56393
2.254	-16.472	-31948	3286	-0.6343	-0.52567	-0.56423
2.256	-16.466	-31950	3285.8	-0.63401	-0.52597	-0.56452
2.258	-16.45	-31949	3285.7	-0.63372	-0.52626	-0.56481
2.26	-16.476	-31948	3285.5	-0.63342	-0.52655	-0.5651
2.262	-16.486	-31948	3285.3	-0.63362	-0.52724	-0.56549
2.264	-16.501	-31947	3285.1	-0.63381	-0.52792	-0.56588
2.266	-16.482	-31948	3284.9	-0.63401	-0.5286	-0.56628
2.268	-16.492	-31949	3284.7	-0.6342	-0.52928	-0.56667
2.27	-16.485	-31948	3284.5	-0.6344	-0.52997	-0.56706
2.272	-16.456	-31948	3284.2	-0.63391	-0.52958	-0.56637
2.274	-16.475	-31946	3284	-0.63342	-0.52919	-0.56569
2.276	-16.477	-31944	3283.7	-0.63294	-0.5288	-0.56501
2.278	-16.494	-31949	3283.3	-0.63245	-0.52841	-0.56432
2.28	-16.508	-31954	3283	-0.63196	-0.52802	-0.56364
2.282	-16.501	-31950	3282.6	-0.63235	-0.52763	-0.56325
2.284	-16.489	-31947	3282.2	-0.63274	-0.52724	-0.56286
2.286	-16.47	-31942	3281.8	-0.63313	-0.52684	-0.56247
2.288	-16.478	-31938	3281.3	-0.63352	-0.52645	-0.56208
2.29	-16.474	-31942	3280.9	-0.63391	-0.52606	-0.56169
2.292	-16.469	-31947	3280.5	-0.63372	-0.52558	-0.56208
2.294	-16.467	-31944	3280.1	-0.63352	-0.52509	-0.56247
2.296	-16.465	-31941	3279.6	-0.63333	-0.5246	-0.56286
2.298	-16.477	-31948	3279.1	-0.63313	-0.52411	-0.56325
2.3	-16.485	-31954	3278.6	-0.63294	-0.52362	-0.56364
2.302	-16.477	-31952	3278.1	-0.63323	-0.52431	-0.56384
2.304	-16.467	-31949	3277.7	-0.63352	-0.52499	-0.56403
2.306	-16.448	-31945	3277.3	-0.63381	-0.52567	-0.56423
2.308	-16.437	-31942	3277	-0.63411	-0.52636	-0.56442
2.31	-16.465	-31946	3276.7	-0.6344	-0.52704	-0.56462
2.312	-16.5	-31951	3276.5	-0.63538	-0.52821	-0.56501
2.314	-16.51	-31948	3276.4	-0.63635	-0.52938	-0.5654
2.316	-16.511	-31946	3276.3	-0.63733	-0.53055	-0.56579
2.318	-16.506	-31944	3276.3	-0.6383	-0.53172	-0.56618
2.32	-16.494	-31942	3276.3	-0.63928	-0.5329	-0.56657
2.322	-16.488	-31944	3276.3	-0.6385	-0.53221	-0.56628
2.324	-16.477	-31945	3276.4	-0.63772	-0.53153	-0.56598
2.326	-16.47	-31945	3276.5	-0.63694	-0.53085	-0.56569
2.328	-16.468	-31946	3276.6	-0.63616	-0.53016	-0.5654
2.33	-16.467	-31947	3276.6	-0.63538	-0.52948	-0.5651
2.332	-16.473	-31948	3276.7	-0.63499	-0.52997	-0.56559
2.334	-16.464	-31952	3276.8	-0.6346	-0.53046	-0.56608
2.336	-16.466	-31956	3276.8	-0.6342	-0.53094	-0.56657
2.338	-16.504	-31956	3276.8	-0.63381	-0.53143	-0.56706
2.34	-16.498	-31957	3276.8	-0.63342	-0.53192	-0.56754
2.342	-16.465	-31958	3276.7	-0.63401	-0.53172	-0.56745
2.344	-16.477	-31959	3276.5	-0.6346	-0.53153	-0.56735
2.346	-16.49	-31959	3276.4	-0.63518	-0.53133	-0.56725
2.348	-16.48	-31959	3276.2	-0.63577	-0.53114	-0.56715
2.35	-16.487	-31961	3276	-0.63635	-0.53094	-0.56706
2.352	-16.479	-31963	3275.9	-0.6346	-0.52968	-0.56784
2.354	-16.447	-31961	3275.7	-0.63284	-0.52841	-0.56862
2.356	-16.446	-31959	3275.5	-0.63108	-0.52714	-0.5694
2.358	-16.449	-31966	3275.4	-0.62932	-0.52587	-0.57018
2.36	-16.453	-31973	3275.3	-0.62757	-0.5246	-0.57096
2.362	-16.44	-31969	3275.2	-0.62923	-0.52519	-0.56989
2.364	-16.446	-31966	3275.1	-0.63089	-0.52577	-0.56881
2.366	-16.444	-31968	3275	-0.63255	-0.52636	-0.56774
2.368	-16.436	-31971	3274.8	-0.6342	-0.52694	-0.56667
2.37	-16.436	-31980	3274.7	-0.63586	-0.52753	-0.56559
2.372	-16.439	-31990	3274.5	-0.63567	-0.52763	-0.5653
2.374	-16.418	-31988	3274.3	-0.63547	-0.52772	-0.56501
2.376	-16.406	-31986	3274.1	-0.63528	-0.52782	-0.56471
2.378	-16.419	-31987	3273.9	-0.63508	-0.52792	-0.56442
2.38	-16.41	-31987	3273.7	-0.63489	-0.52802	-0.56413
2.382	-16.414	-31990	3273.5	-0.63469	-0.52889	-0.56491
2.384	-16.434	-31992	3273.3	-0.6345	-0.52977	-0.56569
2.386	-16.419	-31992	3273	-0.6343	-0.53065	-0.56647
2.388	-16.402	-31993	3272.7	-0.63411	-0.53153	-0.56725
2.39	-16.415	-31993	3272.5	-0.63391	-0.53241	-0.56803
2.392	-16.419	-31994	3272.2	-0.63411	-0.53212	-0.56803
2.394	-16.418	-31995	3271.9	-0.6343	-0.53182	-0.56803
2.396	-16.421	-31997	3271.7	-0.6345	-0.53153	-0.56803
2.398	-16.396	-31998	3271.6	-0.63469	-0.53124	-0.56803
2.4	-16.395	-31999	3271.5	-0.63489	-0.53094	-0.56803
2.402	-16.433	-31997	3271.5	-0.6343	-0.53055	-0.56706
2.404	-16.402	-31996	3271.5	-0.63372	-0.53016	-0.56608
2.406	-16.408	-31989	3271.5	-0.63313	-0.52977	-0.5651
2.408	-16.451	-31983	3271.5	-0.63255	-0.52938	-0.56413
2.41	-16.472	-31990	3271.5	-0.63196	-0.52899	-0.56315
2.412	-16.504	-31996	3271.5	-0.63264	-0.5286	-0.56325
2.414	-16.508	-31998	3271.6	-0.63333	-0.52821	-0.56335
2.416	-16.504	-31999	3271.7	-0.63401	-0.52782	-0.56344
2.418	-16.498	-31994	3271.8	-0.63469	-0.52743	-0.56354
2.42	-16.511	-31990	3271.9	-0.63538	-0.52704	-0.56364
2.422	-16.498	-31991	3272	-0.63557	-0.52821	-0.56384
2.424	-16.5	-31992	3272	-0.63577	-0.52938	-0.56403
2.426	-16.494	-31991	3272	-0.63596	-0.53055	-0.56423
2.428	-16.476	-31990	3272	-0.63616	-0.53172	-0.56442
2.43	-16.464	-31990	3272	-0.63635	-0.5329	-0.56462
2.432	-16.467	-31989	3271.8	-0.63538	-0.53143	-0.56423
2.434	-16.48	-31989	3271.7	-0.6344	-0.52997	-0.56384
2.436	-16.483	-31989	3271.5	-0.63342	-0.5285	-0.56344
2.438	-16.492	-31999	3271.2	-0.63245	-0.52704	-0.56305
2.44	-16.473	-32009	3271	-0.63147	-0.52558	-0.56266
2.442	-16.46	-32009	3270.7	-0.63274	-0.52665	-0.56354
2.444	-16.471	-32009	3270.5	-0.63401	-0.52772	-0.56442
2.446	-16.473	-32001	3270.2	-0.63528	-0.5288	-0.5653
2.448	-16.489	-31994	3269.8	-0.63655	-0.52987	-0.56618
2.45	-16.487	-31998	3269.5	-0.63782	-0.53094	-0.56706
2.452	-16.5	-32002	3269.2	-0.63684	-0.53026	-0.56706
2.454	-16.486	-32004	3268.9	-0.63586	-0.52958	-0.56706
2.456	-16.489	-32006	3268.6	-0.63489	-0.52889	-0.56706
2.458	-16.486	-32009	3268.3	-0.63391	-0.52821	-0.56706
2.46	-16.475	-32012	3268.1	-0.63294	-0.52753	-0.56706
2.462	-16.474	-32008	3267.8	-0.63333	-0.52821	-0.56725
2.464	-16.462	-32005	3267.6	-0.63372	-0.52889	-0.56745
2.466	-16.442	-31999	3267.3	-0.63411	-0.52958	-0.56764
2.468	-16.437	-31993	3267	-0.6345	-0.53026	-0.56784
2.47	-16.448	-31997	3266.8	-0.63489	-0.53094	-0.56803
2.472	-16.461	-32001	3266.5	-0.63469	-0.53065	-0.56735
2.474	-16.453	-32007	3266.3	-0.6345	-0.53036	-0.56667
2.476	-16.444	-32012	3266.1	-0.6343	-0.53007	-0.56598
2.478	-16.438	-32011	3265.8	-0.63411	-0.52977	-0.5653
2.48	-16.404	-32010	3265.5	-0.63391	-0.52948	-0.56462
2.482	-16.359	-32011	3265.3	-0.63401	-0.52889	-0.56462
2.484	-16.334	-32011	3265	-0.63411	-0.52831	-0.56462
2.486	-16.333	-32013	3264.8	-0.6342	-0.52772	-0.56462
2.488	-16.338	-32015	3264.6	-0.6343	-0.52714	-0.56462
2.49	-16.351	-32017	3264.4	-0.6344	-0.52655	-0.56462
2.492	-16.365	-32019	3264.1	-0.6345	-0.52733	-0.56491
2.494	-16.392	-32024	3263.9	-0.6346	-0.52811	-0.5652
2.496	-16.428	-32030	3263.6	-0.63469	-0.52889	-0.56549
2.498	-16.469	-32025	3263.2	-0.63479	-0.52968	-0.56579
2.5	-16.506	-32020	3262.9	-0.63489	-0.53046	-0.56608
2.502	-16.535	-32020	3262.6	-0.63479	-0.53036	-0.56608
2.504	-16.556	-32019	3262.3	-0.63469	-0.53026	-0.56608
2.506	-16.57	-32023	3262.1	-0.6346	-0.53016	-0.56608
2.508	-16.611	-32027	3261.9	-0.6345	-0.53007	-0.56608
2.51	-16.597	-32030	3261.7	-0.6344	-0.52997	-0.56608
2.512	-16.572	-32033	3261.5	-0.63479	-0.52977	-0.56549
2.514	-16.553	-32034	3261.3	-0.63518	-0.52958	-0.56491
2.516	-16.545	-32035	3261	-0.63557	-0.52938	-0.56432
2.518	-16.539	-32034	3260.8	-0.63596	-0.52919	-0.56374
2.52	-16.501	-32033	3260.6	-0.63635	-0.52899	-0.56315
2.522	-16.505	-32032	3260.5	-0.63616	-0.52889	-0.56315
2.524	-16.478	-32032	3260.3	-0.63596	-0.5288	-0.56315
2.526	-16.477	-32034	3260.2	-0.63577	-0.5287	-0.56315
2.528	-16.48	-32036	3260.1	-0.63557	-0.5286	-0.56315
2.53	-16.472	-32034	3260.1	-0.63538	-0.5285	-0.56315
2.532	-16.477	-32032	3260	-0.63479	-0.52821	-0.56296
2.534	-16.501	-32030	3259.9	-0.6342	-0.52792	-0.56276
2.536	-16.496	-32028	3259.9	-0.63362	-0.52763	-0.56257
2.538	-16.48	-32030	3259.9	-0.63303	-0.52733	-0.56237
2.54	-16.478	-32033	3259.9	-0.63245	-0.52704	-0.56218
2.542	-16.476	-32033	3259.8	-0.63303	-0.52694	-0.56266
2.544	-16.473	-32032	3259.7	-0.63362	-0.52684	-0.56315
2.546	-16.471	-32027	3259.6	-0.6342	-0.52675	-0.56364
2.548	-16.461	-32022	3259.5	-0.63479	-0.52665	-0.56413
2.55	-16.467	-32024	3259.4	-0.63538	-0.52655	-0.56462
2.552	-16.479	-32026	3259.3	-0.63401	-0.52597	-0.56588
2.554	-16.479	-32028	3259.1	-0.63264	-0.52538	-0.56715
2.556	-16.478	-32030	3258.9	-0.63128	-0.5248	-0.56842
2.558	-16.491	-32028	3258.7	-0.62991	-0.52421	-0.56969
2.56	-16.496	-32027	3258.5	-0.62854	-0.52362	-0.57096
2.562	-16.469	-32029	3258.3	-0.62893	-0.52411	-0.5695
2.564	-16.456	-32031	3258.2	-0.62932	-0.5246	-0.56803
2.566	-16.483	-32035	3258	-0.62972	-0.52509	-0.56657
2.568	-16.495	-32039	3257.9	-0.63011	-0.52558	-0.5651
2.57	-16.49	-32038	3257.8	-0.6305	-0.52606	-0.56364
2.572	-16.496	-32037	3257.8	-0.62981	-0.52675	-0.56471
2.574	-16.502	-32029	3257.7	-0.62913	-0.52743	-0.56579
2.576	-16.491	-32020	3257.7	-0.62845	-0.52811	-0.56686
2.578	-16.505	-32018	3257.7	-0.62776	-0.5288	-0.56793
2.58	-16.501	-32016	3257.7	-0.62708	-0.52948	-0.56901
2.582	-16.493	-32027	3257.7	-0.62659	-0.53036	-0.57067
2.584	-16.493	-32038	3257.7	-0.6261	-0.53124	-0.57233
2.586	-16.492	-32037	3257.7	-0.62562	-0.53212	-0.57399
2.588	-16.486	-32036	3257.7	-0.62513	-0.53299	-0.57564
2.59	-16.481	-32034	3257.7	-0.62464	-0.53387	-0.5773
2.592	-16.489	-32032	3257.7	-0.62591	-0.53309	-0.57457
2.594	-16.482	-32034	3257.8	-0.62718	-0.53231	-0.57184
2.596	-16.478	-32036	3257.8	-0.62845	-0.53153	-0.56911
2.598	-16.464	-32036	3257.7	-0.62972	-0.53075	-0.56637
2.6	-16.464	-32036	3257.6	-0.63098	-0.52997	-0.56364
2.602	-16.452	-32035	3257.5	-0.63274	-0.52987	-0.56384
2.604	-16.495	-32035	3257.4	-0.6345	-0.52977	-0.56403
2.606	-16.482	-32036	3257.3	-0.63625	-0.52968	-0.56423
2.608	-16.479	-32037	3257.1	-0.63801	-0.52958	-0.56442
2.61	-16.486	-32037	3256.9	-0.63977	-0.52948	-0.56462
2.612	-16.476	-32037	3256.6	-0.63938	-0.52928	-0.56501
2.614	-16.454	-32038	3256.2	-0.63899	-0.52909	-0.5654
2.616	-16.47	-32039	3255.9	-0.6386	-0.52889	-0.56579
2.618	-16.481	-32042	3255.5	-0.63821	-0.5287	-0.56618
2.62	-16.469	-32045	3255.1	-0.63782	-0.5285	-0.56657
2.622	-16.464	-32044	3254.7	-0.63655	-0.52889	-0.56559
2.624	-16.473	-32042	3254.2	-0.63528	-0.52928	-0.56462
2.626	-16.476	-32042	3253.8	-0.63401	-0.52968	-0.56364
2.628	-16.474	-32041	3253.3	-0.63274	-0.53007	-0.56266
2.63	-16.477	-32042	3252.9	-0.63147	-0.53046	-0.56169
2.632	-16.481	-32042	3252.3	-0.63108	-0.52928	-0.56227
2.634	-16.47	-32044	3251.8	-0.63069	-0.52811	-0.56286
2.636	-16.46	-32045	3251.2	-0.6303	-0.52694	-0.56344
2.638	-16.475	-32046	3250.7	-0.62991	-0.52577	-0.56403
2.64	-16.484	-32048	3250.2	-0.62952	-0.5246	-0.56462
2.642	-16.481	-32048	3249.7	-0.62845	-0.52616	-0.56413
2.644	-16.487	-32048	3249.2	-0.62737	-0.52772	-0.56364
2.646	-16.483	-32046	3248.7	-0.6263	-0.52928	-0.56315
2.648	-16.465	-32044	3248.3	-0.62523	-0.53085	-0.56266
2.65	-16.454	-32044	3247.8	-0.62415	-0.53241	-0.56218
2.652	-16.456	-32044	3247.4	-0.62288	-0.5329	-0.56393
2.654	-16.473	-32048	3247.1	-0.62161	-0.53338	-0.56569
2.656	-16.48	-32052	3246.9	-0.62035	-0.53387	-0.56745
2.658	-16.469	-32048	3246.8	-0.61908	-0.53436	-0.5692
2.66	-16.457	-32044	3246.6	-0.61781	-0.53485	-0.57096
2.662	-16.449	-32054	3246.7	-0.61771	-0.53514	-0.57203
2.664	-16.452	-32064	3246.8	-0.61761	-0.53543	-0.57311
2.666	-16.434	-32062	3247.1	-0.61752	-0.53573	-0.57418
2.668	-16.422	-32060	3247.4	-0.61742	-0.53602	-0.57525
2.67	-16.454	-32060	3247.7	-0.61732	-0.53631	-0.57633
2.672	-16.474	-32061	3248.4	-0.61712	-0.53524	-0.57584
2.674	-16.467	-32061	3249.1	-0.61693	-0.53416	-0.57535
2.676	-16.459	-32060	3249.9	-0.61673	-0.53309	-0.57486
2.678	-16.45	-32065	3251	-0.61654	-0.53202	-0.57438
2.68	-16.439	-32070	3252	-0.61634	-0.53094	-0.57389
2.682	-16.422	-32068	3253.4	-0.61732	-0.53124	-0.57438
2.684	-16.424	-32065	3254.9	-0.6183	-0.53153	-0.57486
2.686	-16.431	-32069	3256.5	-0.61927	-0.53182	-0.57535
2.688	-16.441	-32072	3258.2	-0.62025	-0.53212	-0.57584
2.69	-16.452	-32069	3259.9	-0.62122	-0.53241	-0.57633
2.692	-16.477	-32066	3261.8	-0.6224	-0.53133	-0.57594
2.694	-16.466	-32069	3263.7	-0.62357	-0.53026	-0.57555
2.696	-16.414	-32072	3265.7	-0.62474	-0.52919	-0.57516
2.698	-16.386	-32072	3267.7	-0.62591	-0.52811	-0.57477
2.7	-16.415	-32073	3269.7	-0.62708	-0.52704	-0.57438
2.702	-16.423	-32070	3271.6	-0.62786	-0.52597	-0.57496
2.704	-16.406	-32068	3273.6	-0.62864	-0.52489	-0.57555
2.706	-16.415	-32069	3275.6	-0.62942	-0.52382	-0.57613
2.708	-16.459	-32070	3277.6	-0.6302	-0.52275	-0.57672
2.71	-16.443	-32071	3279.5	-0.63098	-0.52167	-0.5773
2.712	-16.421	-32071	3281.4	-0.63079	-0.52148	-0.57672
2.714	-16.416	-32072	3283.2	-0.63059	-0.52128	-0.57613
2.716	-16.409	-32073	3285	-0.6304	-0.52109	-0.57555
2.718	-16.388	-32073	3286.7	-0.6302	-0.52089	-0.57496
2.72	-16.391	-32074	3288.4	-0.63001	-0.5207	-0.57438
2.722	-16.404	-32069	3290	-0.63118	-0.5207	-0.57477
2.724	-16.412	-32065	3291.5	-0.63235	-0.5207	-0.57516
2.726	-16.417	-32064	3293	-0.63352	-0.5207	-0.57555
2.728	-16.422	-32063	3294.3	-0.63469	-0.5207	-0.57594
2.73	-16.424	-32061	3295.6	-0.63586	-0.5207	-0.57633
2.732	-16.415	-32060	3296.7	-0.63469	-0.52021	-0.57604
2.734	-16.415	-32063	3297.9	-0.63352	-0.51972	-0.57574
2.736	-16.413	-32067	3298.9	-0.63235	-0.51923	-0.57545
2.738	-16.396	-32060	3299.8	-0.63118	-0.51874	-0.57516
2.74	-16.391	-32054	3300.7	-0.63001	-0.51826	-0.57486
2.742	-16.391	-32053	3301.5	-0.62932	-0.51845	-0.57438
2.744	-16.399	-32053	3302.2	-0.62864	-0.51865	-0.57389
2.746	-16.407	-32045	3302.9	-0.62796	-0.51884	-0.5734
2.748	-16.421	-32037	3303.5	-0.62728	-0.51904	-0.57291
2.75	-16.42	-32038	3304	-0.62659	-0.51923	-0.57242
2.752	-16.423	-32038	3304.4	-0.62767	-0.52031	-0.57096
2.754	-16.42	-32039	3304.8	-0.62874	-0.52138	-0.5695
2.756	-16.412	-32039	3305.1	-0.62981	-0.52245	-0.56803
2.758	-16.426	-32028	3305.4	-0.63089	-0.52353	-0.56657
2.76	-16.41	-32017	3305.6	-0.63196	-0.5246	-0.5651
2.762	-16.412	-32016	3305.7	-0.63118	-0.5244	-0.56452
2.764	-16.414	-32015	3305.8	-0.6304	-0.52421	-0.56393
2.766	-16.41	-32011	3305.9	-0.62962	-0.52401	-0.56335
2.768	-16.409	-32007	3305.8	-0.62884	-0.52382	-0.56276
2.77	-16.429	-32009	3305.8	-0.62806	-0.52362	-0.56218
2.772	-16.434	-32011	3305.6	-0.62786	-0.52382	-0.56208
2.774	-16.428	-32005	3305.4	-0.62767	-0.52401	-0.56198
2.776	-16.442	-31999	3305.1	-0.62747	-0.52421	-0.56188
2.778	-16.45	-31996	3304.9	-0.62728	-0.5244	-0.56179
2.78	-16.415	-31993	3304.6	-0.62708	-0.5246	-0.56169
2.782	-16.423	-31984	3304.4	-0.6263	-0.52665	-0.56227
2.784	-16.433	-31975	3304.1	-0.62552	-0.5287	-0.56286
2.786	-16.446	-31974	3303.9	-0.62474	-0.53075	-0.56344
2.788	-16.456	-31974	3303.7	-0.62396	-0.5328	-0.56403
2.79	-16.449	-31975	3303.5	-0.62318	-0.53485	-0.56462
2.792	-16.443	-31976	3303.2	-0.62376	-0.53397	-0.56403
2.794	-16.435	-31968	3303	-0.62435	-0.53309	-0.56344
2.796	-16.442	-31960	3302.8	-0.62493	-0.53221	-0.56286
2.798	-16.463	-31961	3302.7	-0.62552	-0.53133	-0.56227
2.8	-16.472	-31961	3302.5	-0.6261	-0.53046	-0.56169
2.802	-16.489	-31954	3302.3	-0.62562	-0.53094	-0.56188
2.804	-16.489	-31948	3302.1	-0.62513	-0.53143	-0.56208
2.806	-16.484	-31945	3301.9	-0.62464	-0.53192	-0.56227
2.808	-16.48	-31942	3301.8	-0.62415	-0.53241	-0.56247
2.81	-16.463	-31939	3301.7	-0.62366	-0.5329	-0.56266
2.812	-16.445	-31937	3301.5	-0.62542	-0.53143	-0.56266
2.814	-16.45	-31934	3301.4	-0.62718	-0.52997	-0.56266
2.816	-16.46	-31932	3301.2	-0.62893	-0.5285	-0.56266
2.818	-16.471	-31933	3301	-0.63069	-0.52704	-0.56266
2.82	-16.474	-31933	3300.9	-0.63245	-0.52558	-0.56266
2.822	-16.46	-31927	3300.6	-0.63235	-0.52548	-0.56344
2.824	-16.459	-31921	3300.4	-0.63225	-0.52538	-0.56423
2.826	-16.469	-31918	3300.2	-0.63216	-0.52528	-0.56501
2.828	-16.475	-31914	3299.9	-0.63206	-0.52519	-0.56579
2.83	-16.478	-31908	3299.7	-0.63196	-0.52509	-0.56657
2.832	-16.482	-31903	3299.5	-0.63108	-0.52489	-0.56784
2.834	-16.479	-31907	3299.3	-0.6302	-0.5247	-0.56911
2.836	-16.482	-31911	3299.2	-0.62932	-0.5245	-0.57037
2.838	-16.474	-31907	3299.1	-0.62845	-0.52431	-0.57164
2.84	-16.453	-31902	3299.1	-0.62757	-0.52411	-0.57291
2.842	-16.476	-31897	3299	-0.62708	-0.52519	-0.57262
2.844	-16.486	-31892	3299	-0.62659	-0.52626	-0.57233
2.846	-16.49	-31888	3298.9	-0.6261	-0.52733	-0.57203
2.848	-16.521	-31884	3298.7	-0.62562	-0.52841	-0.57174
2.85	-16.533	-31883	3298.6	-0.62513	-0.52948	-0.57145
2.852	-16.463	-31882	3298.4	-0.62523	-0.52841	-0.57155
2.854	-16.414	-31883	3298.3	-0.62532	-0.52733	-0.57164
2.856	-16.446	-31884	3298.1	-0.62542	-0.52626	-0.57174
2.858	-16.455	-31889	3297.8	-0.62552	-0.52519	-0.57184
2.86	-16.447	-31894	3297.5	-0.62562	-0.52411	-0.57194
2.862	-16.474	-31886	3297.2	-0.62552	-0.52509	-0.57145
2.864	-16.474	-31877	3296.9	-0.62542	-0.52606	-0.57096
2.866	-16.453	-31879	3296.5	-0.62532	-0.52704	-0.57047
2.868	-16.455	-31881	3296	-0.62523	-0.52802	-0.56998
2.87	-16.503	-31884	3295.6	-0.62513	-0.52899	-0.5695
2.872	-16.485	-31888	3295.1	-0.62669	-0.52841	-0.56881
2.874	-16.454	-31881	3294.6	-0.62825	-0.52782	-0.56813
2.876	-16.442	-31874	3294.2	-0.62981	-0.52724	-0.56745
2.878	-16.452	-31879	3293.7	-0.63137	-0.52665	-0.56676
2.88	-16.461	-31883	3293.3	-0.63294	-0.52606	-0.56608
2.882	-16.479	-31884	3292.8	-0.63352	-0.52694	-0.56618
2.884	-16.482	-31884	3292.3	-0.63411	-0.52782	-0.56628
2.886	-16.494	-31880	3291.8	-0.63469	-0.5287	-0.56637
2.888	-16.495	-31876	3291.4	-0.63528	-0.52958	-0.56647
2.89	-16.473	-31874	3290.9	-0.63586	-0.53046	-0.56657
2.892	-16.466	-31871	3290.4	-0.63577	-0.52938	-0.56637
2.894	-16.481	-31871	3289.9	-0.63567	-0.52831	-0.56618
2.896	-16.486	-31872	3289.3	-0.63557	-0.52724	-0.56598
2.898	-16.484	-31875	3288.8	-0.63547	-0.52616	-0.56579
2.9	-16.463	-31879	3288.3	-0.63538	-0.52509	-0.56559
2.902	-16.446	-31871	3287.9	-0.63362	-0.52489	-0.56481
2.904	-16.458	-31863	3287.4	-0.63186	-0.5247	-0.56403
2.906	-16.459	-31862	3286.9	-0.63011	-0.5245	-0.56325
2.908	-16.436	-31861	3286.4	-0.62835	-0.52431	-0.56247
2.91	-16.436	-31861	3285.8	-0.62659	-0.52411	-0.56169
2.912	-16.474	-31860	3285.4	-0.6264	-0.52392	-0.56325
2.914	-16.5	-31855	3284.9	-0.6262	-0.52372	-0.56481
2.916	-16.475	-31850	3284.5	-0.62601	-0.52353	-0.56637
2.918	-16.474	-31854	3284.2	-0.62581	-0.52333	-0.56793
2.92	-16.488	-31858	3283.9	-0.62562	-0.52314	-0.5695
2.922	-16.49	-31861	3283.7	-0.62698	-0.52323	-0.56862
2.924	-16.498	-31863	3283.5	-0.62835	-0.52333	-0.56774
2.926	-16.476	-31858	3283.4	-0.62972	-0.52343	-0.56686
2.928	-16.464	-31852	3283.3	-0.63108	-0.52353	-0.56598
2.93	-16.448	-31852	3283.2	-0.63245	-0.52362	-0.5651
2.932	-16.465	-31853	3283.1	-0.63206	-0.5246	-0.56403
2.934	-16.489	-31852	3283	-0.63167	-0.52558	-0.56296
2.936	-16.481	-31852	3283	-0.63128	-0.52655	-0.56188
2.938	-16.448	-31857	3282.9	-0.63089	-0.52753	-0.56081
2.94	-16.443	-31862	3282.8	-0.6305	-0.5285	-0.55974
2.942	-16.463	-31861	3282.7	-0.63089	-0.52782	-0.5613
2.944	-16.461	-31861	3282.6	-0.63128	-0.52714	-0.56286
2.946	-16.458	-31855	3282.6	-0.63167	-0.52645	-0.56442
2.948	-16.479	-31850	3282.6	-0.63206	-0.52577	-0.56598
2.95	-16.487	-31853	3282.6	-0.63245	-0.52509	-0.56754
2.952	-16.478	-31856	3282.6	-0.63313	-0.52626	-0.56725
2.954	-16.471	-31857	3282.7	-0.63381	-0.52743	-0.56696
2.956	-16.478	-31857	3282.7	-0.6345	-0.5286	-0.56667
2.958	-16.478	-31850	3282.7	-0.63518	-0.52977	-0.56637
2.96	-16.477	-31843	3282.8	-0.63586	-0.53094	-0.56608
2.962	-16.473	-31845	3282.9	-0.63508	-0.53007	-0.56618
2.964	-16.467	-31847	3283	-0.6343	-0.52919	-0.56628
2.966	-16.476	-31848	3283.1	-0.63352	-0.52831	-0.56637
2.968	-16.48	-31849	3283.2	-0.63274	-0.52743	-0.56647
2.97	-16.478	-31851	3283.2	-0.63196	-0.52655	-0.56657
2.972	-16.483	-31852	3283.3	-0.63264	-0.52665	-0.56628
2.974	-16.488	-31849	3283.4	-0.63333	-0.52675	-0.56598
2.976	-16.481	-31846	3283.5	-0.63401	-0.52684	-0.56569
2.978	-16.467	-31842	3283.5	-0.63469	-0.52694	-0.5654
2.98	-16.46	-31839	3283.6	-0.63538	-0.52704	-0.5651
2.982	-16.454	-31847	3283.7	-0.63518	-0.52802	-0.56569
2.984	-16.456	-31855	3283.8	-0.63499	-0.52899	-0.56628
2.986	-16.467	-31851	3283.9	-0.63479	-0.52997	-0.56686
2.988	-16.474	-31846	3284	-0.6346	-0.53094	-0.56745
2.99	-16.467	-31841	3284.1	-0.6344	-0.53192	-0.56803
2.992	-16.444	-31835	3284.2	-0.63411	-0.53046	-0.56754
2.994	-16.448	-31842	3284.3	-0.63381	-0.52899	-0.56706
2.996	-16.484	-31850	3284.4	-0.63352	-0.52753	-0.56657
2.998	-16.489	-31844	3284.5	-0.63323	-0.52606	-0.56608
3	-16.493	-31839	3284.6	-0.63294	-0.5246	-0.56559
3.002	-16.493	-31839	3284.7	-0.63342	-0.52519	-0.5652
3.004	-16.492	-31839	3284.8	-0.63391	-0.52577	-0.56481
3.006	-16.493	-31839	3284.9	-0.6344	-0.52636	-0.56442
3.008	-16.492	-31838	3285	-0.63489	-0.52694	-0.56403
3.01	-16.481	-31841	3285.1	-0.63538	-0.52753	-0.56364
3.012	-16.476	-31843	3285.2	-0.63489	-0.52782	-0.56354
3.014	-16.468	-31847	3285.2	-0.6344	-0.52811	-0.56344
3.016	-16.482	-31852	3285.2	-0.63391	-0.52841	-0.56335
3.018	-16.514	-31846	3285.2	-0.63342	-0.5287	-0.56325
3.02	-16.49	-31840	3285.1	-0.63294	-0.52899	-0.56315
3.022	-16.468	-31841	3285.1	-0.63245	-0.52763	-0.56413
3.024	-16.468	-31842	3285	-0.63196	-0.52626	-0.5651
3.026	-16.464	-31843	3285	-0.63147	-0.52489	-0.56608
3.028	-16.484	-31845	3284.9	-0.63098	-0.52353	-0.56706
3.03	-16.503	-31843	3284.9	-0.6305	-0.52216	-0.56803
3.032	-16.474	-31841	3284.8	-0.63167	-0.52362	-0.56764
3.034	-16.467	-31840	3284.7	-0.63284	-0.52509	-0.56725
3.036	-16.45	-31839	3284.5	-0.63401	-0.52655	-0.56686
3.038	-16.456	-31840	3284.4	-0.63518	-0.52802	-0.56647
3.04	-16.459	-31841	3284.3	-0.63635	-0.52948	-0.56608
3.042	-16.465	-31841	3284.1	-0.63635	-0.52968	-0.56637
3.044	-16.475	-31841	3283.9	-0.63635	-0.52987	-0.56667
3.046	-16.476	-31841	3283.6	-0.63635	-0.53007	-0.56696
3.048	-16.471	-31842	3283.4	-0.63635	-0.53026	-0.56725
3.05	-16.461	-31842	3283.2	-0.63635	-0.53046	-0.56754
3.052	-16.461	-31841	3283	-0.63596	-0.53016	-0.56647
3.054	-16.473	-31843	3282.8	-0.63557	-0.52987	-0.5654
3.056	-16.481	-31844	3282.5	-0.63518	-0.52958	-0.56432
3.058	-16.495	-31842	3282.3	-0.63479	-0.52928	-0.56325
3.06	-16.497	-31839	3282.1	-0.6344	-0.52899	-0.56218
3.062	-16.466	-31836	3281.8	-0.6344	-0.5286	-0.56354
3.064	-16.465	-31834	3281.6	-0.6344	-0.52821	-0.56491
3.066	-16.485	-31834	3281.4	-0.6344	-0.52782	-0.56628
3.068	-16.492	-31834	3281.2	-0.6344	-0.52743	-0.56764
3.07	-16.494	-31830	3281	-0.6344	-0.52704	-0.56901
3.072	-16.485	-31827	3280.7	-0.63381	-0.52675	-0.56881
3.074	-16.473	-31829	3280.5	-0.63323	-0.52645	-0.56862
3.076	-16.482	-31832	3280.3	-0.63264	-0.52616	-0.56842
3.078	-16.497	-31825	3280	-0.63206	-0.52587	-0.56823
3.08	-16.493	-31818	3279.7	-0.63147	-0.52558	-0.56803
3.082	-16.479	-31824	3279.4	-0.63206	-0.52606	-0.56725
3.084	-16.471	-31831	3279.2	-0.63264	-0.52655	-0.56647
3.086	-16.459	-31832	3278.9	-0.63323	-0.52704	-0.56569
3.088	-16.467	-31833	3278.7	-0.63381	-0.52753	-0.56491
3.09	-16.489	-31823	3278.5	-0.6344	-0.52802	-0.56413
3.092	-16.465	-31813	3278.2	-0.6342	-0.52733	-0.56423
3.094	-16.471	-31821	3277.9	-0.63401	-0.52665	-0.56432
3.096	-16.494	-31829	3277.7	-0.63381	-0.52597	-0.56442
3.098	-16.488	-31824	3277.4	-0.63362	-0.52528	-0.56452
3.1	-16.48	-31818	3277.1	-0.63342	-0.5246	-0.56462
3.102	-16.476	-31813	3276.7	-0.63342	-0.52489	-0.56491
3.104	-16.472	-31808	3276.3	-0.63342	-0.52519	-0.5652
3.106	-16.489	-31811	3276	-0.63342	-0.52548	-0.56549
3.108	-16.499	-31815	3275.6	-0.63342	-0.52577	-0.56579
3.11	-16.491	-31821	3275.3	-0.63342	-0.52606	-0.56608
3.112	-16.478	-31826	3275.1	-0.63303	-0.52528	-0.56647
3.114	-16.513	-31826	3275	-0.63264	-0.5245	-0.56686
3.116	-16.51	-31826	3274.7	-0.63225	-0.52372	-0.56725
3.118	-16.488	-31827	3274.5	-0.63186	-0.52294	-0.56764
3.12	-16.449	-31827	3274.3	-0.63147	-0.52216	-0.56803
3.122	-16.441	-31823	3274	-0.63157	-0.52265	-0.56735
3.124	-16.454	-31818	3273.7	-0.63167	-0.52314	-0.56667
3.126	-16.46	-31822	3273.4	-0.63176	-0.52362	-0.56598
3.128	-16.459	-31825	3273.1	-0.63186	-0.52411	-0.5653
3.13	-16.467	-31823	3272.7	-0.63196	-0.5246	-0.56462
3.132	-16.461	-31821	3272.3	-0.63225	-0.52577	-0.5654
3.134	-16.443	-31822	3271.8	-0.63255	-0.52694	-0.56618
3.136	-16.451	-31822	3271.4	-0.63284	-0.52811	-0.56696
3.138	-16.462	-31823	3271	-0.63313	-0.52928	-0.56774
3.14	-16.458	-31825	3270.6	-0.63342	-0.53046	-0.56852
3.142	-16.442	-31822	3270.4	-0.63235	-0.52919	-0.56901
3.144	-16.432	-31819	3270.2	-0.63128	-0.52792	-0.5695
3.146	-16.426	-31822	3270	-0.6302	-0.52665	-0.56998
3.148	-16.433	-31825	3269.9	-0.62913	-0.52538	-0.57047
3.15	-16.432	-31830	3269.8	-0.62806	-0.52411	-0.57096
3.152	-16.417	-31835	3269.5	-0.62962	-0.52392	-0.57008
3.154	-16.423	-31829	3269.2	-0.63118	-0.52372	-0.5692
3.156	-16.431	-31824	3268.9	-0.63274	-0.52353	-0.56832
3.158	-16.429	-31825	3268.5	-0.6343	-0.52333	-0.56745
3.16	-16.442	-31827	3268.2	-0.63586	-0.52314	-0.56657
3.162	-16.446	-31828	3267.8	-0.63499	-0.52362	-0.56588
3.164	-16.436	-31828	3267.4	-0.63411	-0.52411	-0.5652
3.166	-16.434	-31827	3267.1	-0.63323	-0.5246	-0.56452
3.168	-16.429	-31826	3266.7	-0.63235	-0.52509	-0.56384
3.17	-16.431	-31820	3266.4	-0.63147	-0.52558	-0.56315
3.172	-16.419	-31815	3266.1	-0.63294	-0.52606	-0.56354
3.174	-16.404	-31820	3265.8	-0.6344	-0.52655	-0.56393
3.176	-16.414	-31825	3265.5	-0.63586	-0.52704	-0.56432
3.178	-16.435	-31829	3265.1	-0.63733	-0.52753	-0.56471
3.18	-16.459	-31833	3264.8	-0.63879	-0.52802	-0.5651
3.182	-16.444	-31831	3264.5	-0.63801	-0.5285	-0.56462
3.184	-16.45	-31828	3264.1	-0.63723	-0.52899	-0.56413
3.186	-16.464	-31826	3263.9	-0.63645	-0.52948	-0.56364
3.188	-16.458	-31825	3263.6	-0.63567	-0.52997	-0.56315
3.19	-16.483	-31823	3263.3	-0.63489	-0.53046	-0.56266
3.192	-16.501	-31821	3263.1	-0.63577	-0.53075	-0.56247
3.194	-16.501	-31824	3262.9	-0.63664	-0.53104	-0.56227
3.196	-16.498	-31827	3262.7	-0.63752	-0.53133	-0.56208
3.198	-16.494	-31828	3262.5	-0.6384	-0.53163	-0.56188
3.2	-16.519	-31829	3262.3	-0.63928	-0.53192	-0.56169
3.202	-16.522	-31828	3262	-0.63782	-0.53046	-0.56208
3.204	-16.497	-31827	3261.7	-0.63635	-0.52899	-0.56247
3.206	-16.461	-31829	3261.5	-0.63489	-0.52753	-0.56286
3.208	-16.465	-31831	3261.2	-0.63342	-0.52606	-0.56325
3.21	-16.479	-31832	3261	-0.63196	-0.5246	-0.56364
3.212	-16.478	-31832	3260.8	-0.63313	-0.52509	-0.56403
3.214	-16.485	-31831	3260.5	-0.6343	-0.52558	-0.56442
3.216	-16.496	-31830	3260.2	-0.63547	-0.52606	-0.56481
3.218	-16.475	-31830	3259.9	-0.63664	-0.52655	-0.5652
3.22	-16.461	-31829	3259.6	-0.63782	-0.52704	-0.56559
3.222	-16.457	-31829	3259.3	-0.63733	-0.52772	-0.56549
3.224	-16.464	-31828	3259	-0.63684	-0.52841	-0.5654
3.226	-16.467	-31828	3258.8	-0.63635	-0.52909	-0.5653
3.228	-16.469	-31828	3258.5	-0.63586	-0.52977	-0.5652
3.23	-16.477	-31825	3258.3	-0.63538	-0.53046	-0.5651
3.232	-16.472	-31822	3258.1	-0.63499	-0.53007	-0.56598
3.234	-16.465	-31821	3257.9	-0.6346	-0.52968	-0.56686
3.236	-16.467	-31821	3257.7	-0.6342	-0.52928	-0.56774
3.238	-16.459	-31823	3257.5	-0.63381	-0.52889	-0.56862
3.24	-16.45	-31825	3257.4	-0.63342	-0.5285	-0.5695
3.242	-16.458	-31827	3257.2	-0.63323	-0.52802	-0.56881
3.244	-16.473	-31829	3257.1	-0.63303	-0.52753	-0.56813
3.246	-16.474	-31830	3256.9	-0.63284	-0.52704	-0.56745
3.248	-16.435	-31831	3256.9	-0.63264	-0.52655	-0.56676
3.25	-16.376	-31831	3256.9	-0.63245	-0.52606	-0.56608
3.252	-16.367	-31831	3256.9	-0.63245	-0.52636	-0.56608
3.254	-16.384	-31831	3256.9	-0.63245	-0.52665	-0.56608
3.256	-16.362	-31831	3256.9	-0.63245	-0.52694	-0.56608
3.258	-16.334	-31831	3257	-0.63245	-0.52724	-0.56608
3.26	-16.327	-31832	3257	-0.63245	-0.52753	-0.56608
3.262	-16.327	-31831	3257	-0.63245	-0.52743	-0.56559
3.264	-16.33	-31831	3257	-0.63245	-0.52733	-0.5651
3.266	-16.347	-31834	3257	-0.63245	-0.52724	-0.56462
3.268	-16.365	-31837	3256.9	-0.63245	-0.52714	-0.56413
3.27	-16.397	-31838	3256.8	-0.63245	-0.52704	-0.56364
3.272	-16.42	-31838	3256.7	-0.63225	-0.52606	-0.56452
3.274	-16.431	-31837	3256.6	-0.63206	-0.52509	-0.5654
3.276	-16.49	-31837	3256.4	-0.63186	-0.52411	-0.56628
3.278	-16.523	-31836	3256.2	-0.63167	-0.52314	-0.56715
3.28	-16.526	-31835	3256	-0.63147	-0.52216	-0.56803
3.282	-16.569	-31840	3255.8	-0.63186	-0.52304	-0.56676
3.284	-16.581	-31844	3255.5	-0.63225	-0.52392	-0.56549
3.286	-16.56	-31848	3255.3	-0.63264	-0.5248	-0.56423
3.288	-16.526	-31852	3255.2	-0.63303	-0.52567	-0.56296
3.29	-16.52	-31846	3255	-0.63342	-0.52655	-0.56169
3.292	-16.496	-31839	3254.8	-0.63313	-0.52567	-0.56315
3.294	-16.463	-31844	3254.6	-0.63284	-0.5248	-0.56462
3.296	-16.457	-31849	3254.4	-0.63255	-0.52392	-0.56608
3.298	-16.449	-31854	3254.2	-0.63225	-0.52304	-0.56754
3.3	-16.481	-31859	3254	-0.63196	-0.52216	-0.56901
3.302	-16.489	-31851	3253.9	-0.63186	-0.52216	-0.56881
3.304	-16.462	-31843	3253.7	-0.63176	-0.52216	-0.56862
3.306	-16.452	-31847	3253.6	-0.63167	-0.52216	-0.56842
3.308	-16.471	-31850	3253.5	-0.63157	-0.52216	-0.56823
3.31	-16.494	-31852	3253.4	-0.63147	-0.52216	-0.56803
3.312	-16.507	-31854	3253.4	-0.63089	-0.52284	-0.56842
3.314	-16.492	-31853	3253.4	-0.6303	-0.52353	-0.56881
3.316	-16.475	-31852	3253.4	-0.62972	-0.52421	-0.5692
3.318	-16.472	-31853	3253.5	-0.62913	-0.52489	-0.56959
3.32	-16.474	-31854	3253.5	-0.62854	-0.52558	-0.56998
3.322	-16.475	-31851	3253.5	-0.63001	-0.52577	-0.56852
3.324	-16.471	-31848	3253.6	-0.63147	-0.52597	-0.56706
3.326	-16.462	-31848	3253.6	-0.63294	-0.52616	-0.56559
3.328	-16.46	-31848	3253.5	-0.6344	-0.52636	-0.56413
3.33	-16.476	-31847	3253.4	-0.63586	-0.52655	-0.56266
3.332	-16.488	-31846	3253.4	-0.6345	-0.52558	-0.56442
3.334	-16.47	-31846	3253.3	-0.63313	-0.5246	-0.56618
3.336	-16.46	-31845	3253.3	-0.63176	-0.52362	-0.56793
3.338	-16.485	-31845	3253.3	-0.6304	-0.52265	-0.56969
3.34	-16.493	-31846	3253.3	-0.62903	-0.52167	-0.57145
3.342	-16.488	-31845	3253.3	-0.62874	-0.52275	-0.57106
3.344	-16.489	-31844	3253.2	-0.62845	-0.52382	-0.57067
3.346	-16.497	-31844	3253.2	-0.62815	-0.52489	-0.57028
3.348	-16.492	-31845	3253.2	-0.62786	-0.52597	-0.56989
3.35	-16.487	-31844	3253.1	-0.62757	-0.52704	-0.5695
3.352	-16.484	-31843	3253	-0.62815	-0.52665	-0.56911
3.354	-16.477	-31840	3253	-0.62874	-0.52626	-0.56872
3.356	-16.47	-31836	3252.9	-0.62932	-0.52587	-0.56832
3.358	-16.484	-31841	3252.9	-0.62991	-0.52548	-0.56793
3.36	-16.494	-31846	3252.8	-0.6305	-0.52509	-0.56754
3.362	-16.489	-31846	3252.8	-0.63167	-0.52636	-0.56725
3.364	-16.476	-31845	3252.8	-0.63284	-0.52763	-0.56696
3.366	-16.458	-31845	3252.7	-0.63401	-0.52889	-0.56667
3.368	-16.443	-31844	3252.6	-0.63518	-0.53016	-0.56637
3.37	-16.443	-31846	3252.5	-0.63635	-0.53143	-0.56608
3.372	-16.496	-31848	3252.3	-0.63616	-0.53075	-0.56628
3.374	-16.514	-31850	3252.1	-0.63596	-0.53007	-0.56647
3.376	-16.502	-31852	3251.9	-0.63577	-0.52938	-0.56667
3.378	-16.504	-31850	3251.6	-0.63557	-0.5287	-0.56686
3.38	-16.496	-31847	3251.4	-0.63538	-0.52802	-0.56706
3.382	-16.492	-31845	3251.1	-0.63586	-0.52821	-0.56637
3.384	-16.481	-31843	3250.9	-0.63635	-0.52841	-0.56569
3.386	-16.474	-31848	3250.6	-0.63684	-0.5286	-0.56501
3.388	-16.464	-31853	3250.2	-0.63733	-0.5288	-0.56432
3.39	-16.453	-31853	3249.9	-0.63782	-0.52899	-0.56364
3.392	-16.439	-31852	3249.5	-0.63606	-0.52772	-0.56384
3.394	-16.461	-31852	3249.2	-0.6343	-0.52645	-0.56403
3.396	-16.465	-31852	3248.9	-0.63255	-0.52519	-0.56423
3.398	-16.481	-31852	3248.5	-0.63079	-0.52392	-0.56442
3.4	-16.478	-31852	3248.1	-0.62903	-0.52265	-0.56462
3.402	-16.465	-31854	3247.6	-0.62923	-0.52294	-0.56413
3.404	-16.46	-31855	3247.1	-0.62942	-0.52323	-0.56364
3.406	-16.461	-31855	3246.6	-0.62962	-0.52353	-0.56315
3.408	-16.482	-31855	3246.1	-0.62981	-0.52382	-0.56266
3.41	-16.478	-31857	3245.7	-0.63001	-0.52411	-0.56218
3.412	-16.451	-31858	3245.3	-0.62972	-0.5247	-0.56218
3.414	-16.448	-31858	3244.9	-0.62942	-0.52528	-0.56218
3.416	-16.458	-31857	3244.6	-0.62913	-0.52587	-0.56218
3.418	-16.461	-31858	3244.4	-0.62884	-0.52645	-0.56218
3.42	-16.468	-31858	3244.2	-0.62854	-0.52704	-0.56218
3.422	-16.479	-31857	3244.2	-0.62786	-0.52733	-0.56198
3.424	-16.471	-31857	3244.2	-0.62718	-0.52763	-0.56179
3.426	-16.462	-31855	3244.2	-0.62649	-0.52792	-0.56159
3.428	-16.467	-31853	3244.4	-0.62581	-0.52821	-0.5614
3.43	-16.468	-31863	3244.5	-0.62513	-0.5285	-0.5612
3.432	-16.471	-31873	3244.7	-0.62493	-0.52958	-0.56188
3.434	-16.473	-31871	3244.9	-0.62474	-0.53065	-0.56257
3.436	-16.465	-31868	3245.1	-0.62454	-0.53172	-0.56325
3.438	-16.468	-31866	3245.4	-0.62435	-0.5328	-0.56393
3.44	-16.462	-31864	3245.7	-0.62415	-0.53387	-0.56462
3.442	-16.44	-31861	3246.3	-0.62571	-0.5327	-0.56452
3.444	-16.422	-31857	3246.8	-0.62728	-0.53153	-0.56442
3.446	-16.407	-31858	3247.5	-0.62884	-0.53036	-0.56432
3.448	-16.417	-31859	3248.3	-0.6304	-0.52919	-0.56423
3.45	-16.43	-31863	3249.1	-0.63196	-0.52802	-0.56413
3.452	-16.42	-31866	3250	-0.63137	-0.52782	-0.5653
3.454	-16.385	-31865	3251	-0.63079	-0.52763	-0.56647
3.456	-16.428	-31864	3252.2	-0.6302	-0.52743	-0.56764
3.458	-16.485	-31865	3253.4	-0.62962	-0.52724	-0.56881
3.46	-16.467	-31865	3254.7	-0.62903	-0.52704	-0.56998
3.462	-16.45	-31866	3256.3	-0.62806	-0.52782	-0.57067
3.464	-16.443	-31866	3257.8	-0.62708	-0.5286	-0.57135
3.466	-16.432	-31863	3259.4	-0.6261	-0.52938	-0.57203
3.468	-16.426	-31861	3261.1	-0.62513	-0.53016	-0.57272
3.47	-16.417	-31860	3262.7	-0.62415	-0.53094	-0.5734
3.472	-16.416	-31860	3264.4	-0.62474	-0.52997	-0.57291
3.474	-16.423	-31864	3266.1	-0.62532	-0.52899	-0.57242
3.476	-16.437	-31868	3267.9	-0.62591	-0.52802	-0.57194
3.478	-16.426	-31863	3269.6	-0.62649	-0.52704	-0.57145
3.48	-16.377	-31858	3271.4	-0.62708	-0.52606	-0.57096
3.482	-16.385	-31860	3273.1	-0.62845	-0.52548	-0.57145
3.484	-16.405	-31861	3274.9	-0.62981	-0.52489	-0.57194
3.486	-16.401	-31861	3276.7	-0.63118	-0.52431	-0.57242
3.488	-16.42	-31862	3278.4	-0.63255	-0.52372	-0.57291
3.49	-16.438	-31861	3280.1	-0.63391	-0.52314	-0.5734
3.492	-16.418	-31860	3281.7	-0.63323	-0.52275	-0.57389
3.494	-16.398	-31858	3283.3	-0.63255	-0.52236	-0.57438
3.496	-16.404	-31856	3284.9	-0.63186	-0.52196	-0.57486
3.498	-16.414	-31850	3286.3	-0.63118	-0.52157	-0.57535
3.5	-16.412	-31843	3287.8	-0.6305	-0.52118	-0.57584
3.502	-16.402	-31841	3289.1	-0.63098	-0.52167	-0.57467
3.504	-16.397	-31839	3290.4	-0.63147	-0.52216	-0.5735
3.506	-16.405	-31843	3291.6	-0.63196	-0.52265	-0.57233
3.508	-16.414	-31847	3292.7	-0.63245	-0.52314	-0.57116
3.51	-16.413	-31848	3293.8	-0.63294	-0.52362	-0.56998
3.512	-16.409	-31849	3294.7	-0.63264	-0.52343	-0.56979
3.514	-16.399	-31840	3295.6	-0.63235	-0.52323	-0.56959
3.516	-16.403	-31831	3296.3	-0.63206	-0.52304	-0.5694
3.518	-16.406	-31828	3297	-0.63176	-0.52284	-0.5692
3.52	-16.402	-31824	3297.6	-0.63147	-0.52265	-0.56901
3.522	-16.393	-31827	3298.1	-0.63098	-0.52294	-0.56715
3.524	-16.386	-31830	3298.6	-0.6305	-0.52323	-0.5653
3.526	-16.38	-31820	3299.1	-0.63001	-0.52353	-0.56344
3.528	-16.396	-31809	3299.6	-0.62952	-0.52382	-0.56159
3.53	-16.408	-31809	3300	-0.62903	-0.52411	-0.55974
3.532	-16.374	-31810	3300.3	-0.62776	-0.52509	-0.55905
3.534	-16.377	-31810	3300.5	-0.62649	-0.52606	-0.55837
3.536	-16.396	-31811	3300.7	-0.62523	-0.52704	-0.55769
3.538	-16.403	-31803	3300.9	-0.62396	-0.52802	-0.557
3.54	-16.401	-31795	3301	-0.62269	-0.52899	-0.55632
3.542	-16.432	-31793	3300.9	-0.62191	-0.52938	-0.55691
3.544	-16.432	-31792	3300.9	-0.62113	-0.52977	-0.55749
3.546	-16.41	-31785	3300.9	-0.62035	-0.53016	-0.55808
3.548	-16.379	-31778	3300.9	-0.61956	-0.53055	-0.55866
3.55	-16.423	-31772	3301	-0.61878	-0.53094	-0.55925
3.552	-16.462	-31766	3301.2	-0.62044	-0.53016	-0.55964
3.554	-16.449	-31766	3301.3	-0.6221	-0.52938	-0.56003
3.556	-16.434	-31767	3301.5	-0.62376	-0.5286	-0.56042
3.558	-16.455	-31767	3301.6	-0.62542	-0.52782	-0.56081
3.56	-16.448	-31768	3301.8	-0.62708	-0.52704	-0.5612
3.562	-16.431	-31759	3301.8	-0.62591	-0.52772	-0.56032
3.564	-16.43	-31750	3301.9	-0.62474	-0.52841	-0.55944
3.566	-16.44	-31744	3301.8	-0.62357	-0.52909	-0.55856
3.568	-16.443	-31738	3301.7	-0.6224	-0.52977	-0.55769
3.57	-16.458	-31737	3301.5	-0.62122	-0.53046	-0.55681
3.572	-16.458	-31737	3301.2	-0.62122	-0.53055	-0.557
3.574	-16.44	-31726	3300.8	-0.62122	-0.53065	-0.5572
3.576	-16.445	-31715	3300.4	-0.62122	-0.53075	-0.55739
3.578	-16.468	-31723	3300	-0.62122	-0.53085	-0.55759
3.58	-16.468	-31731	3299.6	-0.62122	-0.53094	-0.55778
3.582	-16.45	-31722	3299.1	-0.62298	-0.53016	-0.55915
3.584	-16.452	-31713	3298.6	-0.62474	-0.52938	-0.56052
3.586	-16.465	-31713	3298.2	-0.62649	-0.5286	-0.56188
3.588	-16.467	-31712	3297.8	-0.62825	-0.52782	-0.56325
3.59	-16.475	-31706	3297.3	-0.63001	-0.52704	-0.56462
3.592	-16.481	-31700	3297	-0.6305	-0.52733	-0.5651
3.594	-16.457	-31695	3296.6	-0.63098	-0.52763	-0.56559
3.596	-16.442	-31690	3296.3	-0.63147	-0.52792	-0.56608
3.598	-16.47	-31691	3296.1	-0.63196	-0.52821	-0.56657
3.6	-16.447	-31692	3295.8	-0.63245	-0.5285	-0.56706
3.602	-16.416	-31689	3295.6	-0.63176	-0.52811	-0.56784
3.604	-16.437	-31687	3295.3	-0.63108	-0.52772	-0.56862
3.606	-16.476	-31687	3295.2	-0.6304	-0.52733	-0.5694
3.608	-16.49	-31687	3295.1	-0.62972	-0.52694	-0.57018
3.61	-16.493	-31688	3294.9	-0.62903	-0.52655	-0.57096
3.612	-16.456	-31689	3295	-0.62864	-0.52616	-0.57076
3.614	-16.446	-31683	3295.2	-0.62825	-0.52577	-0.57057
3.616	-16.481	-31678	3295.3	-0.62786	-0.52538	-0.57037
3.618	-16.474	-31678	3295.5	-0.62747	-0.52499	-0.57018
3.62	-16.468	-31679	3295.7	-0.62708	-0.5246	-0.56998
3.622	-16.468	-31669	3295.9	-0.62728	-0.5247	-0.57047
3.624	-16.497	-31659	3296.1	-0.62747	-0.5248	-0.57096
3.626	-16.489	-31660	3296.3	-0.62767	-0.52489	-0.57145
3.628	-16.473	-31662	3296.4	-0.62786	-0.52499	-0.57194
3.63	-16.474	-31668	3296.5	-0.62806	-0.52509	-0.57242
3.632	-16.47	-31675	3296.4	-0.62854	-0.5244	-0.57194
3.634	-16.472	-31670	3296.3	-0.62903	-0.52372	-0.57145
3.636	-16.462	-31665	3296.1	-0.62952	-0.52304	-0.57096
3.638	-16.443	-31664	3295.9	-0.63001	-0.52236	-0.57047
3.64	-16.44	-31664	3295.6	-0.6305	-0.52167	-0.56998
3.642	-16.457	-31659	3295.4	-0.62932	-0.52245	-0.56998
3.644	-16.465	-31654	3295.1	-0.62815	-0.52323	-0.56998
3.646	-16.479	-31653	3294.8	-0.62698	-0.52401	-0.56998
3.648	-16.483	-31651	3294.2	-0.62581	-0.5248	-0.56998
3.65	-16.471	-31650	3293.7	-0.62464	-0.52558	-0.56998
3.652	-16.466	-31649	3293.1	-0.62552	-0.5246	-0.56998
3.654	-16.473	-31652	3292.5	-0.6264	-0.52362	-0.56998
3.656	-16.469	-31654	3292	-0.62728	-0.52265	-0.56998
3.658	-16.468	-31652	3291.5	-0.62815	-0.52167	-0.56998
3.66	-16.467	-31649	3291	-0.62903	-0.5207	-0.56998
3.662	-16.458	-31650	3290.5	-0.62991	-0.52157	-0.56862
3.664	-16.474	-31652	3290.1	-0.63079	-0.52245	-0.56725
3.666	-16.484	-31642	3289.6	-0.63167	-0.52333	-0.56588
3.668	-16.474	-31633	3289.1	-0.63255	-0.52421	-0.56452
3.67	-16.465	-31643	3288.6	-0.63342	-0.52509	-0.56315
3.672	-16.455	-31654	3288.1	-0.63216	-0.52499	-0.56237
3.674	-16.439	-31650	3287.6	-0.63089	-0.52489	-0.56159
3.676	-16.413	-31646	3287.1	-0.62962	-0.5248	-0.56081
3.678	-16.432	-31642	3286.7	-0.62835	-0.5247	-0.56003
3.68	-16.506	-31637	3286.3	-0.62708	-0.5246	-0.55925
3.682	-16.512	-31637	3286	-0.62698	-0.52499	-0.55935
3.684	-16.479	-31637	3285.6	-0.62688	-0.52538	-0.55944
3.686	-16.483	-31640	3285.2	-0.62679	-0.52577	-0.55954
3.688	-16.492	-31643	3284.9	-0.62669	-0.52616	-0.55964
3.69	-16.475	-31643	3284.5	-0.62659	-0.52655	-0.55974
3.692	-16.482	-31643	3284.3	-0.62767	-0.52636	-0.561
3.694	-16.478	-31646	3284	-0.62874	-0.52616	-0.56227
3.696	-16.466	-31648	3283.8	-0.62981	-0.52597	-0.56354
3.698	-16.461	-31653	3283.6	-0.63089	-0.52577	-0.56481
3.7	-16.455	-31658	3283.5	-0.63196	-0.52558	-0.56608
3.702	-16.463	-31652	3283.4	-0.63176	-0.52616	-0.56559
3.704	-16.45	-31647	3283.3	-0.63157	-0.52675	-0.5651
3.706	-16.448	-31649	3283.2	-0.63137	-0.52733	-0.56462
3.708	-16.442	-31651	3283.1	-0.63118	-0.52792	-0.56413
3.71	-16.447	-31651	3283.1	-0.63098	-0.5285	-0.56364
3.712	-16.478	-31651	3283.1	-0.63137	-0.52831	-0.56452
3.714	-16.451	-31649	3283	-0.63176	-0.52811	-0.5654
3.716	-16.45	-31647	3283.1	-0.63216	-0.52792	-0.56628
3.718	-16.486	-31649	3283.1	-0.63255	-0.52772	-0.56715
3.72	-16.468	-31650	3283.1	-0.63294	-0.52753	-0.56803
3.722	-16.463	-31654	3283.2	-0.63323	-0.52802	-0.56784
3.724	-16.481	-31658	3283.3	-0.63352	-0.5285	-0.56764
3.726	-16.469	-31654	3283.4	-0.63381	-0.52899	-0.56745
3.728	-16.47	-31651	3283.5	-0.63411	-0.52948	-0.56725
3.73	-16.468	-31651	3283.6	-0.6344	-0.52997	-0.56706
3.732	-16.462	-31650	3283.7	-0.6345	-0.52968	-0.56657
3.734	-16.459	-31654	3283.8	-0.6346	-0.52938	-0.56608
3.736	-16.478	-31658	3283.9	-0.63469	-0.52909	-0.56559
3.738	-16.494	-31653	3284	-0.63479	-0.5288	-0.5651
3.74	-16.493	-31648	3284.1	-0.63489	-0.5285	-0.56462
3.742	-16.476	-31652	3284.2	-0.6345	-0.52841	-0.56423
3.744	-16.461	-31657	3284.3	-0.63411	-0.52831	-0.56384
3.746	-16.461	-31657	3284.5	-0.63372	-0.52821	-0.56344
3.748	-16.461	-31658	3284.7	-0.63333	-0.52811	-0.56305
3.75	-16.455	-31653	3284.9	-0.63294	-0.52802	-0.56266
3.752	-16.454	-31648	3285.2	-0.63333	-0.52841	-0.56257
3.754	-16.454	-31652	3285.5	-0.63372	-0.5288	-0.56247
3.756	-16.439	-31655	3285.8	-0.63411	-0.52919	-0.56237
3.758	-16.431	-31655	3286.1	-0.6345	-0.52958	-0.56227
3.76	-16.443	-31655	3286.5	-0.63489	-0.52997	-0.56218
3.762	-16.448	-31650	3286.8	-0.63479	-0.52968	-0.56286
3.764	-16.476	-31645	3287.2	-0.63469	-0.52938	-0.56354
3.766	-16.512	-31645	3287.6	-0.6346	-0.52909	-0.56423
3.768	-16.498	-31646	3288	-0.6345	-0.5288	-0.56491
3.77	-16.479	-31643	3288.4	-0.6344	-0.5285	-0.56559
3.772	-16.489	-31639	3288.9	-0.6342	-0.52821	-0.56608
3.774	-16.488	-31646	3289.5	-0.63401	-0.52792	-0.56657
3.776	-16.468	-31653	3290	-0.63381	-0.52763	-0.56706
3.778	-16.487	-31649	3290.4	-0.63362	-0.52733	-0.56754
3.78	-16.49	-31646	3290.8	-0.63342	-0.52704	-0.56803
3.782	-16.467	-31649	3291.3	-0.63362	-0.52684	-0.56696
3.784	-16.452	-31653	3291.7	-0.63381	-0.52665	-0.56588
3.786	-16.483	-31649	3292	-0.63401	-0.52645	-0.56481
3.788	-16.459	-31646	3292.3	-0.6342	-0.52626	-0.56374
3.79	-16.468	-31642	3292.6	-0.6344	-0.52606	-0.56266
3.792	-16.479	-31638	3292.8	-0.63294	-0.52587	-0.56335
3.794	-16.468	-31637	3293	-0.63147	-0.52567	-0.56403
3.796	-16.465	-31636	3293.1	-0.63001	-0.52548	-0.56471
3.798	-16.494	-31636	3293.1	-0.62854	-0.52528	-0.5654
3.8	-16.49	-31637	3293.1	-0.62708	-0.52509	-0.56608
3.802	-16.481	-31635	3293.1	-0.62835	-0.52519	-0.56667
3.804	-16.482	-31633	3293	-0.62962	-0.52528	-0.56725
3.806	-16.474	-31634	3292.9	-0.63089	-0.52538	-0.56784
3.808	-16.476	-31635	3292.7	-0.63216	-0.52548	-0.56842
3.81	-16.478	-31632	3292.5	-0.63342	-0.52558	-0.56901
3.812	-16.46	-31628	3292.2	-0.63372	-0.52655	-0.56823
3.814	-16.456	-31634	3291.9	-0.63401	-0.52753	-0.56745
3.816	-16.451	-31641	3291.5	-0.6343	-0.5285	-0.56667
3.818	-16.458	-31642	3291.1	-0.6346	-0.52948	-0.56588
3.82	-16.479	-31643	3290.7	-0.63489	-0.53046	-0.5651
3.822	-16.493	-31637	3290.2	-0.63352	-0.52948	-0.56432
3.824	-16.511	-31631	3289.6	-0.63216	-0.5285	-0.56354
3.826	-16.501	-31633	3289.1	-0.63079	-0.52753	-0.56276
3.828	-16.486	-31635	3288.6	-0.62942	-0.52655	-0.56198
3.83	-16.468	-31634	3288.1	-0.62806	-0.52558	-0.5612
3.832	-16.478	-31634	3287.7	-0.62874	-0.52577	-0.56179
3.834	-16.486	-31635	3287.2	-0.62942	-0.52597	-0.56237
3.836	-16.453	-31637	3286.8	-0.63011	-0.52616	-0.56296
3.838	-16.426	-31641	3286.5	-0.63079	-0.52636	-0.56354
3.84	-16.441	-31645	3286.2	-0.63147	-0.52655	-0.56413
3.842	-16.47	-31648	3285.9	-0.63245	-0.52753	-0.56462
3.844	-16.485	-31651	3285.6	-0.63342	-0.5285	-0.5651
3.846	-16.482	-31650	3285.4	-0.6344	-0.52948	-0.56559
3.848	-16.484	-31649	3285.2	-0.63538	-0.53046	-0.56608
3.85	-16.503	-31649	3285	-0.63635	-0.53143	-0.56657
3.852	-16.506	-31648	3285	-0.63518	-0.52938	-0.56745
3.854	-16.496	-31648	3284.9	-0.63401	-0.52733	-0.56832
3.856	-16.493	-31648	3284.9	-0.63284	-0.52528	-0.5692
3.858	-16.489	-31651	3284.9	-0.63167	-0.52323	-0.57008
3.86	-16.485	-31655	3285	-0.6305	-0.52118	-0.57096
3.862	-16.479	-31659	3285	-0.62962	-0.52157	-0.57086
3.864	-16.477	-31663	3285	-0.62874	-0.52196	-0.57076
3.866	-16.468	-31654	3284.9	-0.62786	-0.52236	-0.57067
3.868	-16.448	-31646	3284.7	-0.62698	-0.52275	-0.57057
3.87	-16.461	-31647	3284.6	-0.6261	-0.52314	-0.57047
3.872	-16.476	-31649	3284.4	-0.62806	-0.52392	-0.5693
3.874	-16.483	-31651	3284.3	-0.63001	-0.5247	-0.56813
3.876	-16.486	-31654	3284.1	-0.63196	-0.52548	-0.56696
3.878	-16.505	-31651	3283.7	-0.63391	-0.52626	-0.56579
3.88	-16.488	-31647	3283.4	-0.63586	-0.52704	-0.56462
3.882	-16.473	-31646	3283	-0.63518	-0.52684	-0.5653
3.884	-16.462	-31644	3282.6	-0.6345	-0.52665	-0.56598
3.886	-16.474	-31645	3282.2	-0.63381	-0.52645	-0.56667
3.888	-16.489	-31647	3281.7	-0.63313	-0.52626	-0.56735
3.89	-16.491	-31650	3281.3	-0.63245	-0.52606	-0.56803
3.892	-16.481	-31653	3280.8	-0.63235	-0.52616	-0.56725
3.894	-16.476	-31652	3280.3	-0.63225	-0.52626	-0.56647
3.896	-16.482	-31651	3279.9	-0.63216	-0.52636	-0.56569
3.898	-16.503	-31651	3279.5	-0.63206	-0.52645	-0.56491
3.9	-16.491	-31651	3279.1	-0.63196	-0.52655	-0.56413
3.902	-16.463	-31651	3278.8	-0.63206	-0.52645	-0.56423
3.904	-16.452	-31650	3278.5	-0.63216	-0.52636	-0.56432
3.906	-16.463	-31650	3278.2	-0.63225	-0.52626	-0.56442
3.908	-16.479	-31651	3277.8	-0.63235	-0.52616	-0.56452
3.91	-16.46	-31651	3277.5	-0.63245	-0.52606	-0.56462
3.912	-16.449	-31651	3277.2	-0.63264	-0.52626	-0.56393
3.914	-16.458	-31655	3276.9	-0.63284	-0.52645	-0.56325
3.916	-16.434	-31658	3276.6	-0.63303	-0.52665	-0.56257
3.918	-16.426	-31662	3276.3	-0.63323	-0.52684	-0.56188
3.92	-16.445	-31666	3276	-0.63342	-0.52704	-0.5612
3.922	-16.431	-31669	3275.8	-0.63323	-0.52724	-0.5611
3.924	-16.408	-31671	3275.5	-0.63303	-0.52743	-0.561
3.926	-16.412	-31667	3275.2	-0.63284	-0.52763	-0.56091
3.928	-16.429	-31663	3275	-0.63264	-0.52782	-0.56081
3.93	-16.436	-31666	3274.7	-0.63245	-0.52802	-0.56071
3.932	-16.432	-31669	3274.6	-0.63294	-0.52772	-0.56169
3.934	-16.444	-31671	3274.5	-0.63342	-0.52743	-0.56266
3.936	-16.457	-31673	3274.4	-0.63391	-0.52714	-0.56364
3.938	-16.459	-31672	3274.3	-0.6344	-0.52684	-0.56462
3.94	-16.454	-31672	3274.2	-0.63489	-0.52655	-0.56559
3.942	-16.437	-31673	3274.1	-0.63508	-0.52665	-0.56501
3.944	-16.423	-31674	3274	-0.63528	-0.52675	-0.56442
3.946	-16.416	-31676	3273.9	-0.63547	-0.52684	-0.56384
3.948	-16.407	-31677	3273.8	-0.63567	-0.52694	-0.56325
3.95	-16.39	-31685	3273.7	-0.63586	-0.52704	-0.56266
3.952	-16.382	-31693	3273.4	-0.63538	-0.52577	-0.56315
3.954	-16.404	-31693	3273.2	-0.63489	-0.5245	-0.56364
3.956	-16.434	-31694	3272.9	-0.6344	-0.52323	-0.56413
3.958	-16.444	-31694	3272.5	-0.63391	-0.52196	-0.56462
3.96	-16.455	-31694	3272.1	-0.63342	-0.5207	-0.5651
3.962	-16.472	-31702	3271.8	-0.63401	-0.52275	-0.56559
3.964	-16.461	-31709	3271.4	-0.6346	-0.5248	-0.56608
3.966	-16.449	-31707	3271.1	-0.63518	-0.52684	-0.56657
3.968	-16.464	-31705	3270.8	-0.63577	-0.52889	-0.56706
3.97	-16.482	-31702	3270.5	-0.63635	-0.53094	-0.56754
3.972	-16.509	-31698	3270.2	-0.63664	-0.53046	-0.56725
3.974	-16.521	-31706	3269.9	-0.63694	-0.52997	-0.56696
3.976	-16.519	-31714	3269.6	-0.63723	-0.52948	-0.56667
3.978	-16.49	-31715	3269.2	-0.63752	-0.52899	-0.56637
3.98	-16.46	-31716	3268.8	-0.63782	-0.5285	-0.56608
3.982	-16.475	-31716	3268.4	-0.63801	-0.5287	-0.5652
3.984	-16.476	-31716	3268	-0.63821	-0.52889	-0.56432
3.986	-16.48	-31716	3267.6	-0.6384	-0.52909	-0.56344
3.988	-16.497	-31716	3267.1	-0.6386	-0.52928	-0.56257
3.99	-16.49	-31716	3266.6	-0.63879	-0.52948	-0.56169
3.992	-16.478	-31717	3266	-0.6383	-0.52938	-0.56247
3.994	-16.491	-31716	3265.4	-0.63782	-0.52928	-0.56325
3.996	-16.48	-31716	3264.9	-0.63733	-0.52919	-0.56403
3.998	-16.456	-31716	3264.4	-0.63684	-0.52909	-0.56481
4	-16.488	-31716	3263.9	-0.63635	-0.52899	-0.56559
4.002	-16.497	-31725	3263.5	-0.63596	-0.52938	-0.56569
4.004	-16.45	-31733	3263	-0.63557	-0.52977	-0.56579
4.006	-16.434	-31736	3262.7	-0.63518	-0.53016	-0.56588
4.008	-16.472	-31738	3262.3	-0.63479	-0.53055	-0.56598
4.01	-16.492	-31733	3261.9	-0.6344	-0.53094	-0.56608
4.012	-16.477	-31727	3261.6	-0.6345	-0.53055	-0.56579
4.014	-16.457	-31729	3261.3	-0.6346	-0.53016	-0.56549
4.016	-16.433	-31730	3261	-0.63469	-0.52977	-0.5652
4.018	-16.426	-31733	3260.7	-0.63479	-0.52938	-0.56491
4.02	-16.447	-31736	3260.5	-0.63489	-0.52899	-0.56462
4.022	-16.474	-31738	3260.5	-0.63499	-0.52889	-0.5651
4.024	-16.471	-31741	3260.5	-0.63508	-0.5288	-0.56559
4.026	-16.446	-31737	3260.6	-0.63518	-0.5287	-0.56608
4.028	-16.398	-31734	3260.7	-0.63528	-0.5286	-0.56657
4.03	-16.381	-31737	3260.9	-0.63538	-0.5285	-0.56706
4.032	-16.385	-31739	3261.1	-0.63528	-0.5285	-0.56657
4.034	-16.37	-31735	3261.3	-0.63518	-0.5285	-0.56608
4.036	-16.351	-31731	3261.5	-0.63508	-0.5285	-0.56559
4.038	-16.341	-31736	3261.8	-0.63499	-0.5285	-0.5651
4.04	-16.323	-31742	3262.1	-0.63489	-0.5285	-0.56462
4.042	-16.284	-31749	3262.3	-0.63489	-0.52811	-0.56423
4.044	-16.296	-31755	3262.4	-0.63489	-0.52772	-0.56384
4.046	-16.374	-31759	3262.6	-0.63489	-0.52733	-0.56344
4.048	-16.418	-31762	3262.7	-0.63489	-0.52694	-0.56305
4.05	-16.449	-31760	3262.9	-0.63489	-0.52655	-0.56266
4.052	-16.449	-31757	3262.9	-0.6345	-0.52704	-0.56393
4.054	-16.482	-31758	3262.9	-0.63411	-0.52753	-0.5652
4.056	-16.555	-31758	3262.9	-0.63372	-0.52802	-0.56647
4.058	-16.575	-31752	3262.9	-0.63333	-0.5285	-0.56774
4.06	-16.595	-31745	3262.9	-0.63294	-0.52899	-0.56901
4.062	-16.581	-31753	3262.9	-0.63255	-0.5285	-0.56842
4.064	-16.55	-31762	3262.9	-0.63216	-0.52802	-0.56784
4.066	-16.537	-31761	3262.9	-0.63176	-0.52753	-0.56725
4.068	-16.527	-31760	3263	-0.63137	-0.52704	-0.56667
4.07	-16.494	-31761	3263	-0.63098	-0.52655	-0.56608
4.072	-16.499	-31761	3263	-0.63147	-0.52665	-0.56579
4.074	-16.514	-31760	3262.9	-0.63196	-0.52675	-0.56549
4.076	-16.523	-31758	3262.9	-0.63245	-0.52684	-0.5652
4.078	-16.5	-31754	3262.9	-0.63294	-0.52694	-0.56491
4.08	-16.469	-31750	3262.8	-0.63342	-0.52704	-0.56462
4.082	-16.463	-31750	3262.7	-0.63362	-0.52636	-0.56403
4.084	-16.47	-31750	3262.5	-0.63381	-0.52567	-0.56344
4.086	-16.475	-31753	3262.3	-0.63401	-0.52499	-0.56286
4.088	-16.469	-31757	3262	-0.6342	-0.52431	-0.56227
4.09	-16.469	-31756	3261.7	-0.6344	-0.52362	-0.56169
4.092	-16.48	-31755	3261.3	-0.63264	-0.52392	-0.56091
4.094	-16.474	-31761	3260.9	-0.63089	-0.52421	-0.56013
4.096	-16.463	-31767	3260.5	-0.62913	-0.5245	-0.55935
4.098	-16.472	-31765	3260	-0.62737	-0.5248	-0.55856
4.1	-16.474	-31764	3259.5	-0.62562	-0.52509	-0.55778
4.102	-16.449	-31766	3259	-0.6262	-0.52567	-0.55905
4.104	-16.415	-31768	3258.4	-0.62679	-0.52626	-0.56032
4.106	-16.419	-31768	3258	-0.62737	-0.52684	-0.56159
4.108	-16.479	-31768	3257.8	-0.62796	-0.52743	-0.56286
4.11	-16.521	-31769	3257.5	-0.62854	-0.52802	-0.56413
4.112	-16.51	-31769	3257.4	-0.62962	-0.5286	-0.56471
4.114	-16.491	-31769	3257.3	-0.63069	-0.52919	-0.5653
4.116	-16.517	-31769	3257.2	-0.63176	-0.52977	-0.56588
4.118	-16.515	-31773	3257.2	-0.63284	-0.53036	-0.56647
4.12	-16.5	-31777	3257.2	-0.63391	-0.53094	-0.56706
4.122	-16.509	-31773	3257.3	-0.63362	-0.53094	-0.56745
4.124	-16.508	-31770	3257.5	-0.63333	-0.53094	-0.56784
4.126	-16.483	-31768	3257.7	-0.63303	-0.53094	-0.56823
4.128	-16.488	-31765	3257.9	-0.63274	-0.53094	-0.56862
4.13	-16.489	-31768	3258.2	-0.63245	-0.53094	-0.56901
4.132	-16.474	-31771	3258.5	-0.63313	-0.53085	-0.56803
4.134	-16.466	-31766	3258.9	-0.63381	-0.53075	-0.56706
4.136	-16.505	-31761	3259.2	-0.6345	-0.53065	-0.56608
4.138	-16.487	-31772	3259.4	-0.63518	-0.53055	-0.5651
4.14	-16.479	-31782	3259.7	-0.63586	-0.53046	-0.56413
4.142	-16.493	-31775	3259.9	-0.63586	-0.53094	-0.56549
4.144	-16.488	-31767	3260.1	-0.63586	-0.53143	-0.56686
4.146	-16.489	-31769	3260.2	-0.63586	-0.53192	-0.56823
4.148	-16.502	-31771	3260.1	-0.63586	-0.53241	-0.56959
4.15	-16.48	-31771	3260.1	-0.63586	-0.5329	-0.57096
4.152	-16.461	-31771	3260	-0.63557	-0.53212	-0.57018
4.154	-16.468	-31772	3259.8	-0.63528	-0.53133	-0.5694
4.156	-16.477	-31773	3259.6	-0.63499	-0.53055	-0.56862
4.158	-16.489	-31763	3259.4	-0.63469	-0.52977	-0.56784
4.16	-16.475	-31754	3259.1	-0.6344	-0.52899	-0.56706
4.162	-16.455	-31761	3258.7	-0.63469	-0.52899	-0.56706
4.164	-16.452	-31768	3258.3	-0.63499	-0.52899	-0.56706
4.166	-16.472	-31774	3257.9	-0.63528	-0.52899	-0.56706
4.168	-16.482	-31780	3257.5	-0.63557	-0.52899	-0.56706
4.17	-16.472	-31781	3257.1	-0.63586	-0.52899	-0.56706
4.172	-16.483	-31781	3256.6	-0.6343	-0.52802	-0.56598
4.174	-16.5	-31779	3256.1	-0.63274	-0.52704	-0.56491
4.176	-16.502	-31776	3255.7	-0.63118	-0.52606	-0.56384
4.178	-16.471	-31781	3255.2	-0.62962	-0.52509	-0.56276
4.18	-16.44	-31786	3254.8	-0.62806	-0.52411	-0.56169
4.182	-16.459	-31781	3254.3	-0.62923	-0.52421	-0.56218
4.184	-16.497	-31776	3253.8	-0.6304	-0.52431	-0.56266
4.186	-16.507	-31783	3253.3	-0.63157	-0.5244	-0.56315
4.188	-16.488	-31790	3252.7	-0.63274	-0.5245	-0.56364
4.19	-16.473	-31787	3252.2	-0.63391	-0.5246	-0.56413
4.192	-16.462	-31784	3251.6	-0.63303	-0.52421	-0.56481
4.194	-16.451	-31788	3251.1	-0.63216	-0.52382	-0.56549
4.196	-16.464	-31792	3250.6	-0.63128	-0.52343	-0.56618
4.198	-16.467	-31792	3250.2	-0.6304	-0.52304	-0.56686
4.2	-16.453	-31792	3249.7	-0.62952	-0.52265	-0.56754
4.202	-16.439	-31793	3249.4	-0.62932	-0.52362	-0.56657
4.204	-16.463	-31795	3249.2	-0.62913	-0.5246	-0.56559
4.206	-16.462	-31791	3249.1	-0.62893	-0.52558	-0.56462
4.208	-16.472	-31788	3249	-0.62874	-0.52655	-0.56364
4.21	-16.477	-31795	3248.9	-0.62854	-0.52753	-0.56266
4.212	-16.45	-31802	3248.9	-0.62923	-0.52772	-0.56237
4.214	-16.461	-31800	3248.8	-0.62991	-0.52792	-0.56208
4.216	-16.489	-31799	3248.9	-0.63059	-0.52811	-0.56179
4.218	-16.479	-31797	3249.1	-0.63128	-0.52831	-0.56149
4.22	-16.458	-31796	3249.2	-0.63196	-0.5285	-0.5612
4.222	-16.459	-31798	3249.6	-0.63167	-0.52831	-0.56179
4.224	-16.438	-31801	3250	-0.63137	-0.52811	-0.56237
4.226	-16.441	-31802	3250.4	-0.63108	-0.52792	-0.56296
4.228	-16.421	-31804	3251	-0.63079	-0.52772	-0.56354
4.23	-16.422	-31798	3251.5	-0.6305	-0.52753	-0.56413
4.232	-16.415	-31792	3252.3	-0.63001	-0.52684	-0.56579
4.234	-16.441	-31798	3253.2	-0.62952	-0.52616	-0.56745
4.236	-16.42	-31804	3254.2	-0.62903	-0.52548	-0.56911
4.238	-16.412	-31799	3255.3	-0.62854	-0.5248	-0.57076
4.24	-16.431	-31793	3256.5	-0.62806	-0.52411	-0.57242
4.242	-16.433	-31792	3258.1	-0.62796	-0.52528	-0.57262
4.244	-16.421	-31791	3259.6	-0.62786	-0.52645	-0.57281
4.246	-16.426	-31795	3261.2	-0.62776	-0.52763	-0.57301
4.248	-16.433	-31799	3262.9	-0.62767	-0.5288	-0.5732
4.25	-16.402	-31802	3264.5	-0.62757	-0.52997	-0.5734
4.252	-16.399	-31806	3266.2	-0.62815	-0.52831	-0.5732
4.254	-16.413	-31802	3267.9	-0.62874	-0.52665	-0.57301
4.256	-16.412	-31799	3269.6	-0.62932	-0.52499	-0.57281
4.258	-16.416	-31798	3271.2	-0.62991	-0.52333	-0.57262
4.26	-16.431	-31797	3272.8	-0.6305	-0.52167	-0.57242
4.262	-16.444	-31803	3274.3	-0.63098	-0.52167	-0.57291
4.264	-16.434	-31809	3275.9	-0.63147	-0.52167	-0.5734
4.266	-16.398	-31799	3277.4	-0.63196	-0.52167	-0.57389
4.268	-16.37	-31790	3278.9	-0.63245	-0.52167	-0.57438
4.27	-16.388	-31793	3280.4	-0.63294	-0.52167	-0.57486
4.272	-16.426	-31797	3281.9	-0.63264	-0.52196	-0.57447
4.274	-16.414	-31794	3283.4	-0.63235	-0.52226	-0.57408
4.276	-16.373	-31792	3284.8	-0.63206	-0.52255	-0.57369
4.278	-16.377	-31799	3286.2	-0.63176	-0.52284	-0.5733
4.28	-16.402	-31805	3287.5	-0.63147	-0.52314	-0.57291
4.282	-16.404	-31799	3288.8	-0.63186	-0.52323	-0.5734
4.284	-16.396	-31793	3290.1	-0.63225	-0.52333	-0.57389
4.286	-16.414	-31793	3291.4	-0.63264	-0.52343	-0.57438
4.288	-16.397	-31793	3292.6	-0.63303	-0.52353	-0.57486
4.29	-16.392	-31786	3293.8	-0.63342	-0.52362	-0.57535
4.292	-16.418	-31780	3294.9	-0.63352	-0.52323	-0.57477
4.294	-16.416	-31782	3296.1	-0.63362	-0.52284	-0.57418
4.296	-16.401	-31784	3297.1	-0.63372	-0.52245	-0.5736
4.298	-16.388	-31785	3298	-0.63381	-0.52206	-0.57301
4.3	-16.399	-31786	3298.9	-0.63391	-0.52167	-0.57242
4.302	-16.401	-31777	3299.5	-0.63313	-0.52148	-0.57057
4.304	-16.419	-31768	3300.1	-0.63235	-0.52128	-0.56872
4.306	-16.415	-31765	3300.7	-0.63157	-0.52109	-0.56686
4.308	-16.397	-31762	3301.2	-0.63079	-0.52089	-0.56501
4.31	-16.397	-31761	3301.7	-0.63001	-0.5207	-0.56315
4.312	-16.429	-31760	3302	-0.6304	-0.52138	-0.56305
4.314	-16.414	-31757	3302.3	-0.63079	-0.52206	-0.56296
4.316	-16.391	-31754	3302.5	-0.63118	-0.52275	-0.56286
4.318	-16.379	-31747	3302.6	-0.63157	-0.52343	-0.56276
4.32	-16.388	-31740	3302.6	-0.63196	-0.52411	-0.56266
4.322	-16.398	-31738	3302.6	-0.62874	-0.52528	-0.56169
4.324	-16.4	-31735	3302.6	-0.62552	-0.52645	-0.56071
4.326	-16.408	-31735	3302.6	-0.6223	-0.52763	-0.55974
4.328	-16.43	-31735	3302.6	-0.61908	-0.5288	-0.55876
4.33	-16.443	-31726	3302.6	-0.61586	-0.52997	-0.55778
4.332	-16.439	-31717	3302.6	-0.61605	-0.52919	-0.55788
4.334	-16.44	-31721	3302.6	-0.61625	-0.52841	-0.55798
4.336	-16.452	-31725	3302.6	-0.61644	-0.52763	-0.55808
4.338	-16.46	-31716	3302.5	-0.61664	-0.52684	-0.55817
4.34	-16.454	-31706	3302.4	-0.61683	-0.52606	-0.55827
4.342	-16.455	-31703	3302.3	-0.61722	-0.52665	-0.55876
4.344	-16.472	-31699	3302.2	-0.61761	-0.52724	-0.55925
4.346	-16.471	-31700	3302	-0.618	-0.52782	-0.55974
4.348	-16.453	-31701	3301.8	-0.61839	-0.52841	-0.56022
4.35	-16.453	-31695	3301.6	-0.61878	-0.52899	-0.56071
4.352	-16.458	-31689	3301.2	-0.61986	-0.52919	-0.56071
4.354	-16.447	-31687	3300.9	-0.62093	-0.52938	-0.56071
4.356	-16.451	-31685	3300.5	-0.622	-0.52958	-0.56071
4.358	-16.472	-31685	3300	-0.62308	-0.52977	-0.56071
4.36	-16.472	-31685	3299.5	-0.62415	-0.52997	-0.56071
4.362	-16.464	-31683	3298.9	-0.62591	-0.52958	-0.56149
4.364	-16.46	-31681	3298.3	-0.62767	-0.52919	-0.56227
4.366	-16.461	-31681	3297.6	-0.62942	-0.5288	-0.56305
4.368	-16.49	-31680	3296.8	-0.63118	-0.52841	-0.56384
4.37	-16.504	-31677	3296.1	-0.63294	-0.52802	-0.56462
4.372	-16.489	-31674	3295.3	-0.63216	-0.52724	-0.5654
4.374	-16.464	-31675	3294.5	-0.63137	-0.52645	-0.56618
4.376	-16.421	-31676	3293.9	-0.63059	-0.52567	-0.56696
4.378	-16.416	-31672	3293.4	-0.62981	-0.52489	-0.56774
4.38	-16.446	-31667	3292.9	-0.62903	-0.52411	-0.56852
4.382	-16.478	-31661	3292.8	-0.62796	-0.52558	-0.56969
4.384	-16.506	-31654	3292.7	-0.62688	-0.52704	-0.57086
4.386	-16.548	-31661	3292.7	-0.62581	-0.5285	-0.57203
4.388	-16.495	-31668	3292.8	-0.62474	-0.52997	-0.5732
4.39	-16.45	-31662	3292.9	-0.62366	-0.53143	-0.57438
4.392	-16.46	-31655	3293	-0.62659	-0.53085	-0.57281
4.394	-16.489	-31658	3293.2	-0.62952	-0.53026	-0.57125
4.396	-16.487	-31661	3293.4	-0.63245	-0.52968	-0.56969
4.398	-16.495	-31657	3293.6	-0.63538	-0.52909	-0.56813
4.4	-16.479	-31654	3293.9	-0.6383	-0.5285	-0.56657
4.402	-16.461	-31652	3294	-0.6383	-0.52831	-0.56588
4.404	-16.477	-31651	3294.2	-0.6383	-0.52811	-0.5652
4.406	-16.475	-31654	3294.4	-0.6383	-0.52792	-0.56452
4.408	-16.487	-31657	3294.4	-0.6383	-0.52772	-0.56384
4.41	-16.465	-31651	3294.5	-0.6383	-0.52753	-0.56315
4.412	-16.456	-31646	3294.5	-0.6384	-0.52733	-0.56393
4.414	-16.47	-31646	3294.4	-0.6385	-0.52714	-0.56471
4.416	-16.468	-31646	3294.3	-0.6386	-0.52694	-0.56549
4.418	-16.457	-31653	3294	-0.63869	-0.52675	-0.56628
4.42	-16.469	-31660	3293.8	-0.63879	-0.52655	-0.56706
4.422	-16.477	-31658	3293.5	-0.6386	-0.52675	-0.56706
4.424	-16.472	-31657	3293.2	-0.6384	-0.52694	-0.56706
4.426	-16.462	-31655	3292.8	-0.63821	-0.52714	-0.56706
4.428	-16.455	-31654	3292.4	-0.63801	-0.52733	-0.56706
