t	ekg	optical	pressure	accel_x	accel_y	accel_z
0	9.5883	-28857	2237.4	-0.60122	-0.62318	0.50752
0.002	9.5633	-28866	2237.3	-0.60083	-0.62288	0.50742
0.004	9.5036	-28876	2237.2	-0.60044	-0.62259	0.50732
0.006	9.4509	-28877	2237	-0.60004	-0.6223	0.50723
0.008	9.4325	-28877	2236.9	-0.59965	-0.622	0.50713
0.01	9.45	-28870	2236.8	-0.59926	-0.62171	0.50703
0.012	9.4924	-28862	2236.6	-0.59926	-0.62113	0.50703
0.014	9.5461	-28867	2236.4	-0.59926	-0.62054	0.50703
0.016	9.6005	-28873	2236.3	-0.59926	-0.61996	0.50703
0.018	9.6054	-28882	2236.3	-0.59926	-0.61937	0.50703
0.02	9.5432	-28891	2236.2	-0.59926	-0.61878	0.50703
0.022	9.4718	-28886	2236.2	-0.59956	-0.61849	0.50586
0.024	9.4329	-28880	2236.1	-0.59985	-0.6182	0.50469
0.026	9.4532	-28873	2236.1	-0.60014	-0.61791	0.50352
0.028	9.5011	-28866	2236	-0.60044	-0.61761	0.50235
0.03	9.555	-28870	2235.9	-0.60073	-0.61732	0.50118
0.032	9.6016	-28874	2235.9	-0.60083	-0.61732	0.50166
0.034	9.5919	-28878	2235.9	-0.60092	-0.61732	0.50215
0.036	9.5398	-28881	2235.9	-0.60102	-0.61732	0.50264
0.038	9.4786	-28884	2236	-0.60112	-0.61732	0.50313
0.04	9.4519	-28887	2236.1	-0.60122	-0.61732	0.50362
0.042	9.4516	-28882	2236.1	-0.60131	-0.61791	0.50332
0.044	9.4786	-28877	2236.1	-0.60141	-0.61849	0.50303
0.046	9.5274	-28876	2236.1	-0.60151	-0.61908	0.50274
0.048	9.5661	-28874	2236.2	-0.60161	-0.61966	0.50244
0.05	9.5741	-28878	2236.2	-0.6017	-0.62025	0.50215
0.052	9.5452	-28882	2236.2	-0.60024	-0.61966	0.50215
0.054	9.49	-28884	2236.2	-0.59878	-0.61908	0.50215
0.056	9.4512	-28887	2236.3	-0.59731	-0.61849	0.50215
0.058	9.4541	-28888	2236.3	-0.59585	-0.61791	0.50215
0.06	9.4956	-28889	2236.3	-0.59438	-0.61732	0.50215
0.062	9.533	-28893	2236.5	-0.59516	-0.61732	0.50313
0.064	9.5645	-28897	2236.6	-0.59595	-0.61732	0.5041
0.066	9.5896	-28900	2236.8	-0.59673	-0.61732	0.50508
0.068	9.5819	-28904	2237.1	-0.59751	-0.61732	0.50606
0.07	9.5392	-28906	2237.3	-0.59829	-0.61732	0.50703
0.072	9.479	-28908	2237.7	-0.59868	-0.61781	0.50625
0.074	9.434	-28909	2238	-0.59907	-0.6183	0.50547
0.076	9.4426	-28910	2238.4	-0.59946	-0.61878	0.50469
0.078	9.5008	-28910	2238.8	-0.59985	-0.61927	0.50391
0.08	9.5624	-28909	2239.2	-0.60024	-0.61976	0.50313
0.082	9.5963	-28908	2239.7	-0.60004	-0.61986	0.50352
0.084	9.593	-28906	2240.2	-0.59985	-0.61996	0.50391
0.086	9.5556	-28906	2240.8	-0.59965	-0.62005	0.5043
0.088	9.509	-28906	2241.4	-0.59946	-0.62015	0.50469
0.09	9.4675	-28909	2242.1	-0.59926	-0.62025	0.50508
0.092	9.4579	-28912	2242.8	-0.60034	-0.62093	0.50567
0.094	9.4877	-28911	2243.5	-0.60141	-0.62161	0.50625
0.096	9.5402	-28910	2244.2	-0.60248	-0.6223	0.50684
0.098	9.588	-28908	2244.9	-0.60356	-0.62298	0.50742
0.1	9.6177	-28906	2245.5	-0.60463	-0.62366	0.50801
0.102	9.6084	-28905	2246.1	-0.60414	-0.62386	0.50742
0.104	9.56	-28905	2246.8	-0.60366	-0.62405	0.50684
0.106	9.4976	-28908	2247.4	-0.60317	-0.62425	0.50625
0.108	9.4724	-28910	2248	-0.60268	-0.62444	0.50567
0.11	9.4977	-28911	2248.7	-0.60219	-0.62464	0.50508
0.112	9.5492	-28912	2249.3	-0.60248	-0.62513	0.50528
0.114	9.5953	-28907	2250	-0.60278	-0.62562	0.50547
0.116	9.6313	-28901	2250.6	-0.60307	-0.6261	0.50567
0.118	9.6245	-28901	2251.1	-0.60336	-0.62659	0.50586
0.12	9.5764	-28900	2251.7	-0.60366	-0.62708	0.50606
0.122	9.5167	-28901	2252.1	-0.60453	-0.6264	0.50674
0.124	9.4759	-28902	2252.5	-0.60541	-0.62571	0.50742
0.126	9.4949	-28902	2252.9	-0.60629	-0.62503	0.50811
0.128	9.5504	-28901	2253.4	-0.60717	-0.62435	0.50879
0.13	9.6056	-28901	2253.8	-0.60805	-0.62366	0.50947
0.132	9.6434	-28901	2254.1	-0.60561	-0.62279	0.50811
0.134	9.6385	-28898	2254.5	-0.60317	-0.62191	0.50674
0.136	9.6066	-28896	2254.8	-0.60073	-0.62103	0.50537
0.138	9.5574	-28889	2255.2	-0.59829	-0.62015	0.50401
0.14	9.5117	-28881	2255.6	-0.59585	-0.61927	0.50264
0.142	9.5006	-28881	2255.8	-0.59516	-0.62015	0.50323
0.144	9.5332	-28880	2256.1	-0.59448	-0.62103	0.50381
0.146	9.5919	-28876	2256.4	-0.5938	-0.62191	0.5044
0.148	9.645	-28872	2256.6	-0.59312	-0.62279	0.50498
0.15	9.6612	-28864	2256.8	-0.59243	-0.62366	0.50557
0.152	9.6351	-28855	2256.9	-0.59331	-0.62337	0.50528
0.154	9.5897	-28856	2257	-0.59419	-0.62308	0.50498
0.156	9.5414	-28856	2257.2	-0.59507	-0.62279	0.50469
0.158	9.5113	-28854	2257.3	-0.59595	-0.62249	0.5044
0.16	9.5307	-28852	2257.4	-0.59682	-0.6222	0.5041
0.162	9.5884	-28843	2257.5	-0.59653	-0.62259	0.50459
0.164	9.6428	-28835	2257.5	-0.59624	-0.62298	0.50508
0.166	9.6712	-28833	2257.5	-0.59595	-0.62337	0.50557
0.168	9.6599	-28832	2257.6	-0.59565	-0.62376	0.50606
0.17	9.6108	-28830	2257.6	-0.59536	-0.62415	0.50654
0.172	9.5505	-28828	2257.5	-0.59575	-0.62327	0.50557
0.174	9.5044	-28815	2257.4	-0.59614	-0.6224	0.50459
0.176	9.4945	-28802	2257.3	-0.59653	-0.62152	0.50362
0.178	9.5339	-28803	2257.2	-0.59692	-0.62064	0.50264
0.18	9.602	-28803	2257.1	-0.59731	-0.61976	0.50166
0.182	9.6575	-28802	2256.9	-0.59721	-0.61986	0.50293
0.184	9.6679	-28802	2256.8	-0.59712	-0.61996	0.5042
0.186	9.624	-28798	2256.6	-0.59702	-0.62005	0.50547
0.188	9.5723	-28794	2256.5	-0.59692	-0.62015	0.50674
0.19	9.5414	-28792	2256.4	-0.59682	-0.62025	0.50801
0.192	9.5313	-28789	2256.3	-0.59721	-0.61927	0.50713
0.194	9.5564	-28783	2256.1	-0.5976	-0.6183	0.50625
0.196	9.6023	-28777	2256	-0.598	-0.61732	0.50537
0.198	9.6464	-28773	2255.8	-0.59839	-0.61634	0.50449
0.2	9.6633	-28769	2255.6	-0.59878	-0.61537	0.50362
0.202	9.6328	-28766	2255.4	-0.59936	-0.61586	0.50342
0.204	9.5573	-28762	2255.2	-0.59995	-0.61634	0.50323
0.206	9.5023	-28768	2255	-0.60053	-0.61683	0.50303
0.208	9.4734	-28774	2254.9	-0.60112	-0.61732	0.50284
0.21	9.4872	-28765	2254.7	-0.6017	-0.61781	0.50264
0.212	9.5434	-28757	2254.6	-0.60239	-0.6181	0.50235
0.214	9.6055	-28754	2254.4	-0.60307	-0.61839	0.50205
0.216	9.6338	-28751	2254.3	-0.60375	-0.61869	0.50176
0.218	9.6148	-28755	2254.2	-0.60444	-0.61898	0.50147
0.22	9.5605	-28759	2254.1	-0.60512	-0.61927	0.50118
0.222	9.5042	-28757	2253.9	-0.60492	-0.61956	0.50147
0.224	9.4654	-28755	2253.8	-0.60473	-0.61986	0.50176
0.226	9.4627	-28751	2253.6	-0.60453	-0.62015	0.50205
0.228	9.5022	-28747	2253.4	-0.60434	-0.62044	0.50235
0.23	9.5507	-28742	2253.3	-0.60414	-0.62074	0.50264
0.232	9.5927	-28736	2253.2	-0.60346	-0.62035	0.50313
0.234	9.5946	-28735	2253.1	-0.60278	-0.61996	0.50362
0.236	9.5478	-28734	2253	-0.60209	-0.61956	0.5041
0.238	9.4874	-28737	2252.9	-0.60141	-0.61917	0.50459
0.24	9.4458	-28740	2252.8	-0.60073	-0.61878	0.50508
0.242	9.4409	-28736	2252.8	-0.60073	-0.61927	0.50567
0.244	9.467	-28733	2252.7	-0.60073	-0.61976	0.50625
0.246	9.5133	-28732	2252.6	-0.60073	-0.62025	0.50684
0.248	9.5642	-28731	2252.6	-0.60073	-0.62074	0.50742
0.25	9.5833	-28738	2252.5	-0.60073	-0.62122	0.50801
0.252	9.555	-28744	2252.5	-0.60209	-0.6224	0.50615
0.254	9.5051	-28742	2252.4	-0.60346	-0.62357	0.5043
0.256	9.4566	-28739	2252.3	-0.60483	-0.62474	0.50244
0.258	9.4234	-28740	2252.3	-0.60619	-0.62591	0.50059
0.26	9.4366	-28740	2252.3	-0.60756	-0.62708	0.49874
0.262	9.4915	-28742	2252.3	-0.60551	-0.62591	0.5002
0.264	9.5387	-28743	2252.3	-0.60346	-0.62474	0.50166
0.266	9.57	-28737	2252.4	-0.60141	-0.62357	0.50313
0.268	9.5665	-28730	2252.4	-0.59936	-0.6224	0.50459
0.27	9.5205	-28736	2252.4	-0.59731	-0.62122	0.50606
0.272	9.4576	-28742	2252.4	-0.59858	-0.6223	0.50547
0.274	9.4235	-28741	2252.4	-0.59985	-0.62337	0.50488
0.276	9.4191	-28741	2252.4	-0.60112	-0.62444	0.5043
0.278	9.454	-28737	2252.5	-0.60239	-0.62552	0.50371
0.28	9.5173	-28733	2252.5	-0.60366	-0.62659	0.50313
0.282	9.5914	-28730	2252.5	-0.60219	-0.62562	0.50362
0.284	9.5963	-28727	2252.5	-0.60073	-0.62464	0.5041
0.286	9.5447	-28725	2252.5	-0.59926	-0.62366	0.50459
0.288	9.474	-28724	2252.5	-0.5978	-0.62269	0.50508
0.29	9.4316	-28730	2252.6	-0.59634	-0.62171	0.50557
0.292	9.4193	-28736	2252.6	-0.59585	-0.62191	0.50567
0.294	9.448	-28736	2252.5	-0.59536	-0.6221	0.50576
0.296	9.5113	-28736	2252.5	-0.59487	-0.6223	0.50586
0.298	9.5542	-28735	2252.4	-0.59438	-0.62249	0.50596
0.3	9.5706	-28734	2252.3	-0.5939	-0.62269	0.50606
0.302	9.5484	-28727	2252.1	-0.59429	-0.622	0.50547
0.304	9.5082	-28721	2252	-0.59468	-0.62132	0.50488
0.306	9.4634	-28724	2251.8	-0.59507	-0.62064	0.5043
0.308	9.4395	-28726	2251.7	-0.59546	-0.61996	0.50371
0.31	9.4583	-28729	2251.7	-0.59585	-0.61927	0.50313
0.312	9.4977	-28731	2251.6	-0.59565	-0.62015	0.50342
0.314	9.5352	-28732	2251.5	-0.59546	-0.62103	0.50371
0.316	9.5648	-28733	2251.4	-0.59526	-0.62191	0.50401
0.318	9.5526	-28733	2251.4	-0.59507	-0.62279	0.5043
0.32	9.5029	-28733	2251.3	-0.59487	-0.62366	0.50459
0.322	9.4569	-28733	2251.2	-0.59516	-0.62318	0.50459
0.324	9.4292	-28734	2251.1	-0.59546	-0.62269	0.50459
0.326	9.4318	-28732	2251	-0.59575	-0.6222	0.50459
0.328	9.4706	-28730	2250.9	-0.59604	-0.62171	0.50459
0.33	9.5258	-28733	2250.8	-0.59634	-0.62122	0.50459
0.332	9.5658	-28735	2250.7	-0.59741	-0.62064	0.50362
0.334	9.5693	-28738	2250.6	-0.59848	-0.62005	0.50264
0.336	9.5392	-28741	2250.6	-0.59956	-0.61947	0.50166
0.338	9.4914	-28737	2250.6	-0.60063	-0.61888	0.50069
0.34	9.441	-28733	2250.6	-0.6017	-0.6183	0.49971
0.342	9.4204	-28731	2250.6	-0.60083	-0.61849	0.50069
0.344	9.4523	-28729	2250.6	-0.59995	-0.61869	0.50166
0.346	9.5076	-28728	2250.6	-0.59907	-0.61888	0.50264
0.348	9.5625	-28726	2250.6	-0.59819	-0.61908	0.50362
0.35	9.5779	-28716	2250.6	-0.59731	-0.61927	0.50459
0.352	9.5407	-28706	2250.6	-0.59819	-0.61898	0.5042
0.354	9.4837	-28712	2250.6	-0.59907	-0.61869	0.50381
0.356	9.4498	-28718	2250.7	-0.59995	-0.61839	0.50342
0.358	9.4238	-28715	2250.7	-0.60083	-0.6181	0.50303
0.36	9.4409	-28713	2250.6	-0.6017	-0.61781	0.50264
0.362	9.4973	-28718	2250.7	-0.60268	-0.61917	0.50264
0.364	9.5498	-28724	2250.8	-0.60366	-0.62054	0.50264
0.366	9.5709	-28724	2250.8	-0.60463	-0.62191	0.50264
0.368	9.5601	-28725	2250.9	-0.60561	-0.62327	0.50264
0.37	9.5128	-28723	2250.9	-0.60658	-0.62464	0.50264
0.372	9.4602	-28721	2250.9	-0.60678	-0.62454	0.50235
0.374	9.4366	-28721	2250.9	-0.60697	-0.62444	0.50205
0.376	9.432	-28720	2250.9	-0.60717	-0.62435	0.50176
0.378	9.4672	-28721	2250.9	-0.60736	-0.62425	0.50147
0.38	9.5184	-28722	2250.9	-0.60756	-0.62415	0.50118
0.382	9.5685	-28719	2250.8	-0.60688	-0.62435	0.50186
0.384	9.5767	-28716	2250.8	-0.60619	-0.62454	0.50254
0.386	9.5472	-28721	2250.9	-0.60551	-0.62474	0.50323
0.388	9.4973	-28726	2250.9	-0.60483	-0.62493	0.50391
0.39	9.4526	-28729	2251	-0.60414	-0.62513	0.50459
0.392	9.4334	-28732	2251	-0.60395	-0.62542	0.50449
0.394	9.4678	-28731	2251	-0.60375	-0.62571	0.5044
0.396	9.5305	-28730	2251	-0.60356	-0.62601	0.5043
0.398	9.5752	-28727	2251	-0.60336	-0.6263	0.5042
0.4	9.5798	-28724	2251	-0.60317	-0.62659	0.5041
0.402	9.5417	-28726	2251	-0.60307	-0.62601	0.50352
0.404	9.4901	-28729	2250.9	-0.60297	-0.62542	0.50293
0.406	9.4469	-28729	2250.9	-0.60288	-0.62484	0.50235
0.408	9.4217	-28729	2251	-0.60278	-0.62425	0.50176
0.41	9.4326	-28728	2251	-0.60268	-0.62366	0.50118
0.412	9.4806	-28727	2251	-0.60219	-0.62259	0.50079
0.414	9.5358	-28728	2251	-0.6017	-0.62152	0.5004
0.416	9.5678	-28729	2251	-0.60122	-0.62044	0.5
0.418	9.5587	-28732	2250.9	-0.60073	-0.61937	0.49961
0.42	9.5152	-28734	2250.9	-0.60024	-0.6183	0.49922
0.422	9.4642	-28734	2250.8	-0.59995	-0.6181	0.49952
0.424	9.4312	-28734	2250.8	-0.59965	-0.61791	0.49981
0.426	9.4355	-28739	2250.7	-0.59936	-0.61771	0.5001
0.428	9.472	-28745	2250.7	-0.59907	-0.61752	0.5004
0.43	9.5183	-28736	2250.6	-0.59878	-0.61732	0.50069
0.432	9.5517	-28727	2250.6	-0.59848	-0.61781	0.50098
0.434	9.553	-28731	2250.7	-0.59819	-0.6183	0.50127
0.436	9.5247	-28734	2250.7	-0.5979	-0.61878	0.50157
0.438	9.4839	-28730	2250.7	-0.5976	-0.61927	0.50186
0.44	9.4487	-28726	2250.7	-0.59731	-0.61976	0.50215
0.442	9.4262	-28729	2250.8	-0.59673	-0.62025	0.50284
0.444	9.4491	-28733	2250.8	-0.59614	-0.62074	0.50352
0.446	9.5	-28737	2250.8	-0.59556	-0.62122	0.5042
0.448	9.5517	-28740	2250.8	-0.59497	-0.62171	0.50488
0.45	9.5567	-28741	2250.8	-0.59438	-0.6222	0.50557
0.452	9.5349	-28741	2250.8	-0.59634	-0.6222	0.50459
0.454	9.4959	-28737	2250.8	-0.59829	-0.6222	0.50362
0.456	9.4545	-28733	2250.8	-0.60024	-0.6222	0.50264
0.458	9.4136	-28737	2250.8	-0.60219	-0.6222	0.50166
0.46	9.4231	-28742	2250.8	-0.60414	-0.6222	0.50069
0.462	9.4775	-28741	2250.9	-0.60278	-0.62142	0.50088
0.464	9.5204	-28739	2251	-0.60141	-0.62064	0.50108
0.466	9.5537	-28744	2251	-0.60004	-0.61986	0.50127
0.468	9.545	-28749	2251.1	-0.59868	-0.61908	0.50147
0.47	9.4922	-28744	2251.1	-0.59731	-0.6183	0.50166
0.472	9.4424	-28739	2251.2	-0.59936	-0.62015	0.50098
0.474	9.4039	-28741	2251.2	-0.60141	-0.622	0.5003
0.476	9.4217	-28743	2251.2	-0.60346	-0.62386	0.49961
0.478	9.4719	-28739	2251.3	-0.60551	-0.62571	0.49893
0.48	9.5237	-28735	2251.3	-0.60756	-0.62757	0.49825
0.482	9.567	-28740	2251.4	-0.60736	-0.62796	0.49835
0.484	9.5754	-28744	2251.4	-0.60717	-0.62835	0.49844
0.486	9.5412	-28746	2251.4	-0.60697	-0.62874	0.49854
0.488	9.4782	-28748	2251.5	-0.60678	-0.62913	0.49864
0.49	9.4255	-28745	2251.6	-0.60658	-0.62952	0.49874
0.492	9.4089	-28743	2251.6	-0.6059	-0.62874	0.49913
0.494	9.4411	-28742	2251.6	-0.60522	-0.62796	0.49952
0.496	9.499	-28740	2251.6	-0.60453	-0.62718	0.49991
0.498	9.5472	-28740	2251.6	-0.60385	-0.6264	0.5003
0.5	9.5667	-28741	2251.6	-0.60317	-0.62562	0.50069
0.502	9.542	-28742	2251.6	-0.60307	-0.62513	0.50186
0.504	9.4909	-28744	2251.5	-0.60297	-0.62464	0.50303
0.506	9.45	-28745	2251.5	-0.60288	-0.62415	0.5042
0.508	9.4239	-28746	2251.5	-0.60278	-0.62366	0.50537
0.51	9.4266	-28740	2251.5	-0.60268	-0.62318	0.50654
0.512	9.4743	-28734	2251.4	-0.60317	-0.62357	0.50606
0.514	9.5322	-28742	2251.3	-0.60366	-0.62396	0.50557
0.516	9.5632	-28749	2251.2	-0.60414	-0.62435	0.50508
0.518	9.5444	-28750	2251.2	-0.60463	-0.62474	0.50459
0.52	9.4921	-28752	2251.1	-0.60512	-0.62513	0.5041
0.522	9.4453	-28744	2251	-0.60522	-0.62571	0.50352
0.524	9.4146	-28736	2250.8	-0.60532	-0.6263	0.50293
0.526	9.4143	-28738	2250.6	-0.60541	-0.62688	0.50235
0.528	9.4519	-28739	2250.5	-0.60551	-0.62747	0.50176
0.53	9.5069	-28745	2250.3	-0.60561	-0.62806	0.50118
0.532	9.5618	-28750	2250.2	-0.60512	-0.62669	0.50205
0.534	9.57	-28747	2250	-0.60463	-0.62532	0.50293
0.536	9.5211	-28743	2249.9	-0.60414	-0.62396	0.50381
0.538	9.4673	-28749	2249.8	-0.60366	-0.62259	0.50469
0.54	9.4192	-28755	2249.7	-0.60317	-0.62122	0.50557
0.542	9.3999	-28758	2249.7	-0.60278	-0.62083	0.50606
0.544	9.4364	-28761	2249.6	-0.60239	-0.62044	0.50654
0.546	9.4856	-28761	2249.5	-0.602	-0.62005	0.50703
0.548	9.5369	-28761	2249.5	-0.60161	-0.61966	0.50752
0.55	9.5554	-28757	2249.4	-0.60122	-0.61927	0.50801
0.552	9.5257	-28754	2249.3	-0.60141	-0.61927	0.50732
0.554	9.4851	-28758	2249.1	-0.60161	-0.61927	0.50664
0.556	9.4307	-28762	2249	-0.6018	-0.61927	0.50596
0.558	9.3889	-28761	2249	-0.602	-0.61927	0.50528
0.56	9.4154	-28760	2248.9	-0.60219	-0.61927	0.50459
0.562	9.4706	-28772	2248.8	-0.60317	-0.61947	0.50342
0.564	9.5209	-28784	2248.8	-0.60414	-0.61966	0.50225
0.566	9.5408	-28778	2248.7	-0.60512	-0.61986	0.50108
0.568	9.5157	-28771	2248.7	-0.6061	-0.62005	0.49991
0.57	9.4809	-28772	2248.7	-0.60707	-0.62025	0.49874
0.572	9.4394	-28773	2248.6	-0.60805	-0.62103	0.49874
0.574	9.4167	-28767	2248.6	-0.60902	-0.62181	0.49874
0.576	9.4245	-28761	2248.5	-0.61	-0.62259	0.49874
0.578	9.4623	-28765	2248.4	-0.61098	-0.62337	0.49874
0.58	9.5097	-28769	2248.3	-0.61195	-0.62415	0.49874
0.582	9.5403	-28770	2248.3	-0.61068	-0.62464	0.49913
0.584	9.5432	-28771	2248.2	-0.60941	-0.62513	0.49952
0.586	9.5122	-28775	2248.2	-0.60815	-0.62562	0.49991
0.588	9.4569	-28780	2248.2	-0.60688	-0.6261	0.5003
0.59	9.4124	-28777	2248.1	-0.60561	-0.62659	0.50069
0.592	9.4076	-28773	2248.1	-0.60385	-0.62562	0.50166
0.594	9.4395	-28775	2248	-0.60209	-0.62464	0.50264
0.596	9.4899	-28776	2247.9	-0.60034	-0.62366	0.50362
0.598	9.542	-28776	2247.9	-0.59858	-0.62269	0.50459
0.6	9.5632	-28776	2247.8	-0.59682	-0.62171	0.50557
0.602	9.5303	-28774	2247.7	-0.59721	-0.62113	0.50488
0.604	9.4723	-28772	2247.7	-0.5976	-0.62054	0.5042
0.606	9.4242	-28777	2247.6	-0.598	-0.61996	0.50352
0.608	9.4062	-28781	2247.6	-0.59839	-0.61937	0.50284
0.61	9.4176	-28781	2247.6	-0.59878	-0.61878	0.50215
0.612	9.4539	-28781	2247.7	-0.59858	-0.61888	0.50254
0.614	9.5118	-28787	2247.7	-0.59839	-0.61898	0.50293
0.616	9.5505	-28793	2247.8	-0.59819	-0.61908	0.50332
0.618	9.549	-28794	2247.8	-0.598	-0.61917	0.50371
0.62	9.5099	-28795	2247.8	-0.5978	-0.61927	0.5041
0.622	9.4515	-28788	2247.8	-0.59975	-0.62113	0.50274
0.624	9.4158	-28782	2247.8	-0.6017	-0.62298	0.50137
0.626	9.4143	-28788	2247.8	-0.60366	-0.62484	0.5
0.628	9.461	-28794	2247.8	-0.60561	-0.62669	0.49864
0.63	9.5223	-28794	2247.8	-0.60756	-0.62854	0.49727
0.632	9.552	-28794	2247.8	-0.60639	-0.62728	0.49893
0.634	9.5611	-28795	2247.7	-0.60522	-0.62601	0.50059
0.636	9.5268	-28796	2247.7	-0.60405	-0.62474	0.50225
0.638	9.46	-28797	2247.7	-0.60288	-0.62347	0.50391
0.64	9.4237	-28797	2247.7	-0.6017	-0.6222	0.50557
0.642	9.423	-28802	2247.7	-0.6018	-0.6221	0.50528
0.644	9.4423	-28806	2247.7	-0.6019	-0.622	0.50498
0.646	9.4904	-28808	2247.7	-0.602	-0.62191	0.50469
0.648	9.5468	-28810	2247.7	-0.60209	-0.62181	0.5044
0.65	9.5852	-28807	2247.7	-0.60219	-0.62171	0.5041
0.652	9.5674	-28804	2247.7	-0.6017	-0.62083	0.50362
0.654	9.5216	-28809	2247.7	-0.60122	-0.61996	0.50313
0.656	9.4731	-28814	2247.6	-0.60073	-0.61908	0.50264
0.658	9.4406	-28818	2247.6	-0.60024	-0.6182	0.50215
0.66	9.4544	-28821	2247.6	-0.59975	-0.61732	0.50166
0.662	9.5062	-28815	2247.6	-0.59985	-0.61761	0.50166
0.664	9.5584	-28810	2247.6	-0.59995	-0.61791	0.50166
0.666	9.5857	-28815	2247.6	-0.60004	-0.6182	0.50166
0.668	9.567	-28820	2247.6	-0.60014	-0.61849	0.50166
0.67	9.5145	-28823	2247.7	-0.60024	-0.61878	0.50166
0.672	9.4658	-28825	2247.6	-0.59975	-0.61839	0.50157
0.674	9.4429	-28825	2247.6	-0.59926	-0.618	0.50147
0.676	9.4553	-28825	2247.5	-0.59878	-0.61761	0.50137
0.678	9.499	-28823	2247.5	-0.59829	-0.61722	0.50127
0.68	9.5475	-28822	2247.5	-0.5978	-0.61683	0.50118
0.682	9.5776	-28822	2247.4	-0.59926	-0.61849	0.50088
0.684	9.5735	-28822	2247.4	-0.60073	-0.62015	0.50059
0.686	9.529	-28825	2247.4	-0.60219	-0.62181	0.5003
0.688	9.4792	-28829	2247.5	-0.60366	-0.62347	0.5
0.69	9.45	-28828	2247.5	-0.60512	-0.62513	0.49971
0.692	9.4448	-28827	2247.6	-0.60414	-0.62523	0.5003
0.694	9.4639	-28828	2247.6	-0.60317	-0.62532	0.50088
0.696	9.517	-28828	2247.7	-0.60219	-0.62542	0.50147
0.698	9.5813	-28830	2247.6	-0.60122	-0.62552	0.50205
0.7	9.6119	-28832	2247.6	-0.60024	-0.62562	0.50264
0.702	9.5706	-28832	2247.6	-0.59975	-0.62444	0.50303
0.704	9.5069	-28832	2247.6	-0.59926	-0.62327	0.50342
0.706	9.4486	-28836	2247.5	-0.59878	-0.6221	0.50381
0.708	9.4039	-28839	2247.5	-0.59829	-0.62093	0.5042
0.71	9.421	-28840	2247.5	-0.5978	-0.61976	0.50459
0.712	9.4628	-28842	2247.5	-0.5977	-0.61986	0.50508
0.714	9.5159	-28839	2247.6	-0.5976	-0.61996	0.50557
0.716	9.5598	-28836	2247.6	-0.59751	-0.62005	0.50606
0.718	9.5475	-28839	2247.5	-0.59741	-0.62015	0.50654
0.72	9.4887	-28841	2247.5	-0.59731	-0.62025	0.50703
0.722	9.4316	-28843	2247.5	-0.5977	-0.62064	0.50606
0.724	9.389	-28845	2247.5	-0.59809	-0.62103	0.50508
0.726	9.3885	-28844	2247.5	-0.59848	-0.62142	0.5041
0.728	9.4367	-28842	2247.5	-0.59887	-0.62181	0.50313
0.73	9.4928	-28847	2247.5	-0.59926	-0.6222	0.50215
0.732	9.5311	-28852	2247.5	-0.59946	-0.62152	0.50264
0.734	9.5501	-28854	2247.5	-0.59965	-0.62083	0.50313
0.736	9.5228	-28856	2247.5	-0.59985	-0.62015	0.50362
0.738	9.4648	-28851	2247.5	-0.60004	-0.61947	0.5041
0.74	9.421	-28845	2247.6	-0.60024	-0.61878	0.50459
0.742	9.4069	-28847	2247.6	-0.60073	-0.61947	0.50508
0.744	9.433	-28849	2247.6	-0.60122	-0.62015	0.50557
0.746	9.4857	-28853	2247.6	-0.6017	-0.62083	0.50606
0.748	9.5306	-28857	2247.6	-0.60219	-0.62152	0.50654
0.75	9.5479	-28859	2247.7	-0.60268	-0.6222	0.50703
0.752	9.5272	-28861	2247.6	-0.6018	-0.62181	0.50664
0.754	9.4797	-28861	2247.5	-0.60092	-0.62142	0.50625
0.756	9.4281	-28861	2247.4	-0.60004	-0.62103	0.50586
0.758	9.3991	-28862	2247.4	-0.59917	-0.62064	0.50547
0.76	9.4167	-28862	2247.4	-0.59829	-0.62025	0.50508
0.762	9.4654	-28862	2247.4	-0.59839	-0.61956	0.50479
0.764	9.521	-28862	2247.5	-0.59848	-0.61888	0.50449
0.766	9.567	-28860	2247.5	-0.59858	-0.6182	0.5042
0.768	9.5649	-28857	2247.5	-0.59868	-0.61752	0.50391
0.77	9.5147	-28857	2247.5	-0.59878	-0.61683	0.50362
0.772	9.4507	-28857	2247.5	-0.59878	-0.61791	0.5043
0.774	9.3976	-28864	2247.5	-0.59878	-0.61898	0.50498
0.776	9.3908	-28871	2247.5	-0.59878	-0.62005	0.50567
0.778	9.4375	-28874	2247.5	-0.59878	-0.62113	0.50635
0.78	9.4972	-28878	2247.5	-0.59878	-0.6222	0.50703
0.782	9.5275	-28879	2247.4	-0.59819	-0.62181	0.50654
0.784	9.5292	-28880	2247.4	-0.5976	-0.62142	0.50606
0.786	9.5199	-28875	2247.4	-0.59702	-0.62103	0.50557
0.788	9.4934	-28871	2247.5	-0.59643	-0.62064	0.50508
0.79	9.4498	-28873	2247.5	-0.59585	-0.62025	0.50459
0.792	9.4288	-28875	2247.6	-0.59575	-0.62035	0.50498
0.794	9.4742	-28880	2247.6	-0.59565	-0.62044	0.50537
0.796	9.5547	-28885	2247.6	-0.59556	-0.62054	0.50576
0.798	9.6064	-28882	2247.6	-0.59546	-0.62064	0.50615
0.8	9.607	-28878	2247.7	-0.59536	-0.62074	0.50654
0.802	9.5401	-28880	2247.7	-0.59634	-0.62025	0.50537
0.804	9.4454	-28882	2247.7	-0.59731	-0.61976	0.5042
0.806	9.3586	-28889	2247.7	-0.59829	-0.61927	0.50303
0.808	9.2822	-28896	2247.7	-0.59926	-0.61878	0.50186
0.81	9.264	-28891	2247.7	-0.60024	-0.6183	0.50069
0.812	9.2933	-28886	2247.8	-0.59956	-0.61869	0.50147
0.814	9.3215	-28886	2247.9	-0.59887	-0.61908	0.50225
0.816	9.3446	-28887	2248	-0.59819	-0.61947	0.50303
0.818	9.3335	-28889	2248	-0.59751	-0.61986	0.50381
0.82	9.3058	-28892	2248.1	-0.59682	-0.62025	0.50459
0.822	9.2986	-28891	2248.1	-0.59702	-0.61986	0.50449
0.824	9.2982	-28890	2248.2	-0.59721	-0.61947	0.5044
0.826	9.3166	-28890	2248.2	-0.59741	-0.61908	0.5043
0.828	9.3724	-28891	2248.2	-0.5976	-0.61869	0.5042
0.83	9.4386	-28890	2248.2	-0.5978	-0.6183	0.5041
0.832	9.4946	-28890	2248.2	-0.59809	-0.61869	0.50498
0.834	9.5216	-28895	2248.1	-0.59839	-0.61908	0.50586
0.836	9.503	-28901	2248.1	-0.59868	-0.61947	0.50674
0.838	9.4537	-28903	2248.1	-0.59897	-0.61986	0.50762
0.84	9.411	-28905	2248.2	-0.59926	-0.62025	0.5085
0.842	9.4026	-28905	2248.2	-0.59917	-0.62064	0.50752
0.844	9.4423	-28905	2248.3	-0.59907	-0.62103	0.50654
0.846	9.5015	-28908	2248.3	-0.59897	-0.62142	0.50557
0.848	9.5492	-28912	2248.3	-0.59887	-0.62181	0.50459
0.85	9.5793	-28912	2248.3	-0.59878	-0.6222	0.50362
0.852	9.5656	-28912	2248.2	-0.59917	-0.6221	0.50352
0.854	9.5103	-28912	2248.2	-0.59956	-0.622	0.50342
0.856	9.453	-28913	2248.2	-0.59995	-0.62191	0.50332
0.858	9.4183	-28912	2248.2	-0.60034	-0.62181	0.50323
0.86	9.4248	-28912	2248.1	-0.60073	-0.62171	0.50313
0.862	9.4687	-28908	2248.1	-0.60034	-0.62113	0.50284
0.864	9.5176	-28905	2248.1	-0.59995	-0.62054	0.50254
0.866	9.5622	-28909	2248.1	-0.59956	-0.61996	0.50225
0.868	9.5654	-28913	2248.1	-0.59917	-0.61937	0.50196
0.87	9.5114	-28912	2248.2	-0.59878	-0.61878	0.50166
0.872	9.4437	-28910	2248.1	-0.59878	-0.61917	0.50196
0.874	9.4086	-28910	2248.1	-0.59878	-0.61956	0.50225
0.876	9.4023	-28910	2248	-0.59878	-0.61996	0.50254
0.878	9.4344	-28918	2247.9	-0.59878	-0.62035	0.50284
0.88	9.4736	-28926	2247.8	-0.59878	-0.62074	0.50313
0.882	9.5248	-28922	2247.7	-0.59878	-0.62064	0.50332
0.884	9.5517	-28918	2247.6	-0.59878	-0.62054	0.50352
0.886	9.5312	-28922	2247.6	-0.59878	-0.62044	0.50371
0.888	9.4952	-28926	2247.5	-0.59878	-0.62035	0.50391
0.89	9.435	-28926	2247.4	-0.59878	-0.62025	0.5041
0.892	9.4063	-28926	2247.4	-0.59907	-0.61986	0.50362
0.894	9.4353	-28926	2247.3	-0.59936	-0.61947	0.50313
0.896	9.4863	-28925	2247.3	-0.59965	-0.61908	0.50264
0.898	9.5486	-28924	2247.2	-0.59995	-0.61869	0.50215
0.9	9.572	-28923	2247.1	-0.60024	-0.6183	0.50166
0.902	9.5458	-28927	2247	-0.59985	-0.618	0.50186
0.904	9.4943	-28930	2247	-0.59946	-0.61771	0.50205
0.906	9.4426	-28934	2246.9	-0.59907	-0.61742	0.50225
0.908	9.4066	-28937	2246.9	-0.59868	-0.61712	0.50244
0.91	9.4185	-28940	2246.9	-0.59829	-0.61683	0.50264
0.912	9.4766	-28943	2246.9	-0.59839	-0.61752	0.50205
0.914	9.5263	-28940	2246.8	-0.59848	-0.6182	0.50147
0.916	9.5549	-28937	2246.8	-0.59858	-0.61888	0.50088
0.918	9.5455	-28937	2246.8	-0.59868	-0.61956	0.5003
0.92	9.4949	-28937	2246.8	-0.59878	-0.62025	0.49971
0.922	9.4515	-28946	2246.8	-0.59839	-0.62025	0.50079
0.924	9.4251	-28955	2246.8	-0.598	-0.62025	0.50186
0.926	9.4322	-28956	2246.7	-0.5976	-0.62025	0.50293
0.928	9.4813	-28957	2246.7	-0.59721	-0.62025	0.50401
0.93	9.5293	-28958	2246.6	-0.59682	-0.62025	0.50508
0.932	9.5589	-28958	2246.6	-0.59702	-0.61996	0.50498
0.934	9.5682	-28951	2246.6	-0.59721	-0.61966	0.50488
0.936	9.5396	-28944	2246.7	-0.59741	-0.61937	0.50479
0.938	9.4842	-28945	2246.7	-0.5976	-0.61908	0.50469
0.94	9.4318	-28947	2246.8	-0.5978	-0.61878	0.50459
0.942	9.4124	-28947	2247	-0.5977	-0.61898	0.5044
0.944	9.4351	-28948	2247.1	-0.5976	-0.61917	0.5042
0.946	9.4886	-28948	2247.3	-0.59751	-0.61937	0.50401
0.948	9.555	-28948	2247.4	-0.59741	-0.61956	0.50381
0.95	9.5759	-28952	2247.6	-0.59731	-0.61976	0.50362
0.952	9.5458	-28956	2247.9	-0.5977	-0.62044	0.50401
0.954	9.4914	-28955	2248.1	-0.59809	-0.62113	0.5044
0.956	9.4474	-28953	2248.4	-0.59848	-0.62181	0.50479
0.958	9.432	-28957	2248.7	-0.59887	-0.62249	0.50518
0.96	9.4584	-28960	2249	-0.59926	-0.62318	0.50557
0.962	9.4973	-28962	2249.5	-0.59946	-0.62318	0.50557
0.964	9.5439	-28963	2249.9	-0.59965	-0.62318	0.50557
0.966	9.5767	-28965	2250.4	-0.59985	-0.62318	0.50557
0.968	9.5737	-28966	2250.9	-0.60004	-0.62318	0.50557
0.97	9.5344	-28971	2251.4	-0.60024	-0.62318	0.50557
0.972	9.479	-28976	2251.9	-0.60034	-0.62298	0.50557
0.974	9.4492	-28972	2252.4	-0.60044	-0.62279	0.50557
0.976	9.4377	-28969	2252.9	-0.60053	-0.62259	0.50557
0.978	9.4802	-28975	2253.5	-0.60063	-0.6224	0.50557
0.98	9.5349	-28981	2254	-0.60073	-0.6222	0.50557
0.982	9.5848	-28979	2254.5	-0.59956	-0.62191	0.50528
0.984	9.602	-28976	2255.1	-0.59839	-0.62161	0.50498
0.986	9.5682	-28982	2255.6	-0.59721	-0.62132	0.50469
0.988	9.5123	-28988	2256.2	-0.59604	-0.62103	0.5044
0.99	9.4667	-28983	2256.8	-0.59487	-0.62074	0.5041
0.992	9.4565	-28979	2257.4	-0.59468	-0.62132	0.5044
0.994	9.4709	-28979	2257.9	-0.59448	-0.62191	0.50469
0.996	9.5195	-28978	2258.5	-0.59429	-0.62249	0.50498
0.998	9.5826	-28972	2259.1	-0.59409	-0.62308	0.50528
1	9.6242	-28967	2259.7	-0.5939	-0.62366	0.50557
1.002	9.6119	-28971	2260.3	-0.5938	-0.62357	0.50508
1.004	9.5579	-28974	2260.8	-0.5937	-0.62347	0.50459
1.006	9.4998	-28972	2261.4	-0.5936	-0.62337	0.5041
1.008	9.4626	-28969	2262	-0.59351	-0.62327	0.50362
1.01	9.4792	-28964	2262.6	-0.59341	-0.62318	0.50313
1.012	9.5368	-28958	2263.1	-0.59429	-0.62376	0.50235
1.014	9.592	-28959	2263.6	-0.59516	-0.62435	0.50157
1.016	9.6291	-28960	2264.2	-0.59604	-0.62493	0.50079
1.018	9.6271	-28958	2264.7	-0.59692	-0.62552	0.5
1.02	9.5848	-28957	2265.2	-0.5978	-0.6261	0.49922
1.022	9.5315	-28961	2265.6	-0.59741	-0.62552	0.50049
1.024	9.4865	-28964	2266	-0.59702	-0.62493	0.50176
1.026	9.4838	-28957	2266.3	-0.59663	-0.62435	0.50303
1.028	9.5355	-28950	2266.7	-0.59624	-0.62376	0.5043
1.03	9.6032	-28945	2267	-0.59585	-0.62318	0.50557
1.032	9.6364	-28939	2267.2	-0.59614	-0.62298	0.50537
1.034	9.6412	-28937	2267.5	-0.59643	-0.62279	0.50518
1.036	9.6161	-28934	2267.7	-0.59673	-0.62259	0.50498
1.038	9.5749	-28935	2267.9	-0.59702	-0.6224	0.50479
1.04	9.5292	-28936	2268.2	-0.59731	-0.6222	0.50459
1.042	9.4936	-28933	2268.3	-0.59692	-0.62249	0.50469
1.044	9.5113	-28931	2268.4	-0.59653	-0.62279	0.50479
1.046	9.5612	-28925	2268.5	-0.59614	-0.62308	0.50488
1.048	9.62	-28918	2268.6	-0.59575	-0.62337	0.50498
1.05	9.6396	-28916	2268.6	-0.59536	-0.62366	0.50508
1.052	9.6251	-28914	2268.6	-0.59536	-0.62288	0.50498
1.054	9.5788	-28907	2268.6	-0.59536	-0.6221	0.50488
1.056	9.5241	-28900	2268.6	-0.59536	-0.62132	0.50479
1.058	9.4855	-28899	2268.4	-0.59536	-0.62054	0.50469
1.06	9.4995	-28898	2268.3	-0.59536	-0.61976	0.50459
1.062	9.5466	-28896	2268.2	-0.59507	-0.62083	0.50449
1.064	9.589	-28894	2268	-0.59477	-0.62191	0.5044
1.066	9.6241	-28887	2267.9	-0.59448	-0.62298	0.5043
1.068	9.6263	-28881	2267.8	-0.59419	-0.62405	0.5042
1.07	9.5865	-28881	2267.6	-0.5939	-0.62513	0.5041
1.072	9.5425	-28881	2267.4	-0.59468	-0.62425	0.50401
1.074	9.5004	-28879	2267.3	-0.59546	-0.62337	0.50391
1.076	9.4928	-28877	2267.1	-0.59624	-0.62249	0.50381
1.078	9.5267	-28875	2266.9	-0.59702	-0.62161	0.50371
1.08	9.5761	-28872	2266.7	-0.5978	-0.62074	0.50362
1.082	9.6043	-28864	2266.5	-0.59819	-0.62103	0.50303
1.084	9.5992	-28856	2266.3	-0.59858	-0.62132	0.50244
1.086	9.5886	-28854	2266.2	-0.59897	-0.62161	0.50186
1.088	9.5343	-28852	2266	-0.59936	-0.62191	0.50127
1.09	9.4735	-28848	2265.8	-0.59975	-0.6222	0.50069
1.092	9.4505	-28843	2265.6	-0.60112	-0.62318	0.50088
1.094	9.4693	-28842	2265.4	-0.60248	-0.62415	0.50108
1.096	9.5055	-28840	2265.2	-0.60385	-0.62513	0.50127
1.098	9.5373	-28847	2265	-0.60522	-0.6261	0.50147
1.1	9.5565	-28854	2264.8	-0.60658	-0.62708	0.50166
1.102	9.5434	-28847	2264.6	-0.60727	-0.62649	0.50157
1.104	9.5048	-28841	2264.5	-0.60795	-0.62591	0.50147
1.106	9.4714	-28842	2264.3	-0.60863	-0.62532	0.50137
1.108	9.4488	-28842	2264.1	-0.60932	-0.62474	0.50127
1.11	9.4543	-28839	2263.9	-0.61	-0.62415	0.50118
1.112	9.4976	-28836	2263.6	-0.60941	-0.62503	0.50118
1.114	9.5402	-28839	2263.4	-0.60883	-0.62591	0.50118
1.116	9.5623	-28842	2263.2	-0.60824	-0.62679	0.50118
1.118	9.5536	-28836	2263.1	-0.60766	-0.62767	0.50118
1.12	9.5161	-28830	2262.9	-0.60707	-0.62854	0.50118
1.122	9.4602	-28833	2262.8	-0.60668	-0.62786	0.50157
1.124	9.4158	-28836	2262.7	-0.60629	-0.62718	0.50196
1.126	9.4042	-28829	2262.5	-0.6059	-0.62649	0.50235
1.128	9.4358	-28822	2262.4	-0.60551	-0.62581	0.50274
1.13	9.49	-28824	2262.3	-0.60512	-0.62513	0.50313
1.132	9.54	-28827	2262.2	-0.60571	-0.62532	0.50225
1.134	9.5552	-28824	2262.2	-0.60629	-0.62552	0.50137
1.136	9.5157	-28821	2262.1	-0.60688	-0.62571	0.50049
1.138	9.4556	-28824	2262	-0.60746	-0.62591	0.49961
1.14	9.4163	-28826	2261.9	-0.60805	-0.6261	0.49874
1.142	9.4044	-28824	2261.9	-0.6061	-0.62552	0.49942
1.144	9.4254	-28821	2261.9	-0.60414	-0.62493	0.5001
1.146	9.4755	-28821	2261.9	-0.60219	-0.62435	0.50079
1.148	9.5255	-28822	2261.9	-0.60024	-0.62376	0.50147
1.15	9.5638	-28818	2261.9	-0.59829	-0.62318	0.50215
1.152	9.5395	-28814	2261.8	-0.59741	-0.62337	0.50274
1.154	9.4837	-28815	2261.7	-0.59653	-0.62357	0.50332
1.156	9.4322	-28816	2261.6	-0.59565	-0.62376	0.50391
1.158	9.4069	-28821	2261.6	-0.59477	-0.62396	0.50449
1.16	9.425	-28825	2261.5	-0.5939	-0.62415	0.50508
1.162	9.4673	-28818	2261.4	-0.59429	-0.62376	0.5044
1.164	9.5206	-28810	2261.4	-0.59468	-0.62337	0.50371
1.166	9.5419	-28809	2261.3	-0.59507	-0.62298	0.50303
1.168	9.5381	-28808	2261.2	-0.59546	-0.62259	0.50235
1.17	9.5076	-28808	2261.2	-0.59585	-0.6222	0.50166
1.172	9.4554	-28808	2261.1	-0.59585	-0.62288	0.50118
1.174	9.409	-28809	2261.1	-0.59585	-0.62357	0.50069
1.176	9.4055	-28810	2261	-0.59585	-0.62425	0.5002
1.178	9.4459	-28814	2260.9	-0.59585	-0.62493	0.49971
1.18	9.4985	-28818	2260.9	-0.59585	-0.62562	0.49922
1.182	9.5371	-28818	2260.8	-0.59565	-0.62523	0.49971
1.184	9.5463	-28818	2260.8	-0.59546	-0.62484	0.5002
1.186	9.5223	-28813	2260.7	-0.59526	-0.62444	0.50069
1.188	9.4769	-28808	2260.6	-0.59507	-0.62405	0.50118
1.19	9.4303	-28809	2260.5	-0.59487	-0.62366	0.50166
1.192	9.4048	-28809	2260.5	-0.59477	-0.62444	0.50176
1.194	9.422	-28809	2260.4	-0.59468	-0.62523	0.50186
1.196	9.4738	-28809	2260.4	-0.59458	-0.62601	0.50196
1.198	9.5226	-28814	2260.4	-0.59448	-0.62679	0.50205
1.2	9.5521	-28819	2260.4	-0.59438	-0.62757	0.50215
1.202	9.537	-28820	2260.4	-0.59516	-0.62649	0.50254
1.204	9.4848	-28822	2260.4	-0.59595	-0.62542	0.50293
1.206	9.4315	-28818	2260.4	-0.59673	-0.62435	0.50332
1.208	9.4043	-28815	2260.3	-0.59751	-0.62327	0.50371
1.21	9.4214	-28817	2260.3	-0.59829	-0.6222	0.5041
1.212	9.4644	-28819	2260.3	-0.59819	-0.62259	0.50332
1.214	9.4967	-28821	2260.4	-0.59809	-0.62298	0.50254
1.216	9.5381	-28822	2260.4	-0.598	-0.62337	0.50176
1.218	9.5537	-28823	2260.4	-0.5979	-0.62376	0.50098
1.22	9.5078	-28824	2260.5	-0.5978	-0.62415	0.5002
1.222	9.4444	-28819	2260.5	-0.5978	-0.62405	0.50118
1.224	9.4069	-28814	2260.6	-0.5978	-0.62396	0.50215
1.226	9.4142	-28817	2260.6	-0.5978	-0.62386	0.50313
1.228	9.4514	-28821	2260.7	-0.5978	-0.62376	0.5041
1.23	9.4922	-28825	2260.7	-0.5978	-0.62366	0.50508
1.232	9.5528	-28828	2260.7	-0.59995	-0.62415	0.50401
1.234	9.5827	-28822	2260.8	-0.60209	-0.62464	0.50293
1.236	9.5524	-28816	2260.8	-0.60424	-0.62513	0.50186
1.238	9.4836	-28818	2260.8	-0.60639	-0.62562	0.50079
1.24	9.4324	-28821	2260.8	-0.60854	-0.6261	0.49971
1.242	9.3992	-28822	2260.8	-0.60873	-0.62601	0.5
1.244	9.418	-28824	2260.8	-0.60893	-0.62591	0.5003
1.246	9.4816	-28820	2260.8	-0.60912	-0.62581	0.50059
1.248	9.5394	-28816	2260.8	-0.60932	-0.62571	0.50088
1.25	9.5691	-28821	2260.8	-0.60951	-0.62562	0.50118
1.252	9.5527	-28826	2260.7	-0.60912	-0.62532	0.50127
1.254	9.5042	-28828	2260.6	-0.60873	-0.62503	0.50137
1.256	9.446	-28829	2260.6	-0.60834	-0.62474	0.50147
1.258	9.4162	-28829	2260.5	-0.60795	-0.62444	0.50157
1.26	9.4246	-28829	2260.5	-0.60756	-0.62415	0.50166
1.262	9.4698	-28829	2260.5	-0.60746	-0.62425	0.50147
1.264	9.5177	-28829	2260.4	-0.60736	-0.62435	0.50127
1.266	9.5446	-28833	2260.4	-0.60727	-0.62444	0.50108
1.268	9.544	-28836	2260.4	-0.60717	-0.62454	0.50088
1.27	9.5162	-28837	2260.4	-0.60707	-0.62464	0.50069
1.272	9.4679	-28837	2260.4	-0.60766	-0.62435	0.50069
1.274	9.4264	-28838	2260.4	-0.60824	-0.62405	0.50069
1.276	9.4169	-28839	2260.4	-0.60883	-0.62376	0.50069
1.278	9.4396	-28839	2260.4	-0.60941	-0.62347	0.50069
1.28	9.495	-28839	2260.4	-0.61	-0.62318	0.50069
1.282	9.5526	-28843	2260.4	-0.60776	-0.6223	0.50069
1.284	9.5654	-28847	2260.4	-0.60551	-0.62142	0.50069
1.286	9.5272	-28844	2260.4	-0.60327	-0.62054	0.50069
1.288	9.4807	-28842	2260.4	-0.60102	-0.61966	0.50069
1.29	9.4395	-28841	2260.4	-0.59878	-0.61878	0.50069
1.292	9.411	-28841	2260.4	-0.59907	-0.61976	0.50098
1.294	9.4205	-28839	2260.5	-0.59936	-0.62074	0.50127
1.296	9.4638	-28837	2260.5	-0.59965	-0.62171	0.50157
1.298	9.5173	-28835	2260.6	-0.59995	-0.62269	0.50186
1.3	9.553	-28832	2260.7	-0.60024	-0.62366	0.50215
1.302	9.546	-28834	2260.7	-0.59995	-0.62366	0.50166
1.304	9.5006	-28835	2260.7	-0.59965	-0.62366	0.50118
1.306	9.4323	-28839	2260.7	-0.59936	-0.62366	0.50069
1.308	9.3923	-28843	2260.7	-0.59907	-0.62366	0.5002
1.31	9.4017	-28842	2260.7	-0.59878	-0.62366	0.49971
1.312	9.4422	-28842	2260.7	-0.59819	-0.62279	0.5004
1.314	9.5029	-28840	2260.7	-0.5976	-0.62191	0.50108
1.316	9.5418	-28839	2260.7	-0.59702	-0.62103	0.50176
1.318	9.536	-28838	2260.8	-0.59643	-0.62015	0.50244
1.32	9.5188	-28838	2260.9	-0.59585	-0.61927	0.50313
1.322	9.4724	-28837	2261	-0.59614	-0.62005	0.50264
1.324	9.4197	-28836	2261.1	-0.59643	-0.62083	0.50215
1.326	9.4066	-28834	2261.1	-0.59673	-0.62161	0.50166
1.328	9.4432	-28832	2261.2	-0.59702	-0.6224	0.50118
1.33	9.4964	-28833	2261.3	-0.59731	-0.62318	0.50069
1.332	9.5376	-28835	2261.3	-0.59741	-0.62298	0.50069
1.334	9.5579	-28838	2261.3	-0.59751	-0.62279	0.50069
1.336	9.5339	-28840	2261.4	-0.5976	-0.62259	0.50069
1.338	9.4802	-28844	2261.3	-0.5977	-0.6224	0.50069
1.34	9.4336	-28848	2261.3	-0.5978	-0.6222	0.50069
1.342	9.4133	-28848	2261.3	-0.59751	-0.6224	0.50098
1.344	9.4344	-28849	2261.3	-0.59721	-0.62259	0.50127
1.346	9.4875	-28845	2261.3	-0.59692	-0.62279	0.50157
1.348	9.5343	-28842	2261.4	-0.59663	-0.62298	0.50186
1.35	9.5531	-28841	2261.4	-0.59634	-0.62318	0.50215
1.352	9.5283	-28840	2261.4	-0.59712	-0.62327	0.50254
1.354	9.474	-28845	2261.4	-0.5979	-0.62337	0.50293
1.356	9.4246	-28851	2261.5	-0.59868	-0.62347	0.50332
1.358	9.4072	-28852	2261.5	-0.59946	-0.62357	0.50371
1.36	9.4299	-28854	2261.4	-0.60024	-0.62366	0.5041
1.362	9.4731	-28849	2261.4	-0.60248	-0.62366	0.50323
1.364	9.5192	-28843	2261.4	-0.60473	-0.62366	0.50235
1.366	9.5501	-28843	2261.4	-0.60697	-0.62366	0.50147
1.368	9.5438	-28842	2261.3	-0.60922	-0.62366	0.50059
1.37	9.5073	-28843	2261.2	-0.61146	-0.62366	0.49971
1.372	9.4562	-28843	2261.2	-0.61176	-0.62396	0.49952
1.374	9.4112	-28841	2261.1	-0.61205	-0.62425	0.49932
1.376	9.4013	-28840	2261	-0.61234	-0.62454	0.49913
1.378	9.44	-28842	2261	-0.61264	-0.62484	0.49893
1.38	9.4955	-28845	2260.9	-0.61293	-0.62513	0.49874
1.382	9.5325	-28845	2260.8	-0.61332	-0.62523	0.49874
1.384	9.5412	-28845	2260.7	-0.61371	-0.62532	0.49874
1.386	9.5268	-28844	2260.6	-0.6141	-0.62542	0.49874
1.388	9.4884	-28842	2260.5	-0.61449	-0.62552	0.49874
1.39	9.4384	-28843	2260.4	-0.61488	-0.62562	0.49874
1.392	9.4052	-28844	2260.3	-0.61224	-0.62552	0.49903
1.394	9.4249	-28846	2260.3	-0.60961	-0.62542	0.49932
1.396	9.4851	-28847	2260.2	-0.60697	-0.62532	0.49961
1.398	9.5427	-28843	2260.2	-0.60434	-0.62523	0.49991
1.4	9.5836	-28838	2260.2	-0.6017	-0.62513	0.5002
1.402	9.5547	-28839	2260.1	-0.60141	-0.62474	0.50118
1.404	9.4871	-28841	2260	-0.60112	-0.62435	0.50215
1.406	9.4423	-28846	2259.9	-0.60083	-0.62396	0.50313
1.408	9.4088	-28852	2259.7	-0.60053	-0.62357	0.5041
1.41	9.4154	-28852	2259.6	-0.60024	-0.62318	0.50508
1.412	9.4626	-28851	2259.4	-0.60004	-0.6222	0.50449
1.414	9.5091	-28848	2259.3	-0.59985	-0.62122	0.50391
1.416	9.5435	-28845	2259.1	-0.59965	-0.62025	0.50332
1.418	9.5524	-28845	2259	-0.59946	-0.61927	0.50274
1.42	9.5155	-28845	2258.9	-0.59926	-0.6183	0.50215
1.422	9.4573	-28851	2258.8	-0.59965	-0.61908	0.50196
1.424	9.4172	-28857	2258.7	-0.60004	-0.61986	0.50176
1.426	9.4155	-28862	2258.6	-0.60044	-0.62064	0.50157
1.428	9.4461	-28866	2258.6	-0.60083	-0.62142	0.50137
1.43	9.497	-28867	2258.5	-0.60122	-0.6222	0.50118
1.432	9.5416	-28868	2258.4	-0.60288	-0.62298	0.5004
1.434	9.5577	-28867	2258.3	-0.60453	-0.62376	0.49961
1.436	9.5375	-28865	2258.3	-0.60619	-0.62454	0.49883
1.438	9.4767	-28863	2258.2	-0.60785	-0.62532	0.49805
1.44	9.4217	-28862	2258.1	-0.60951	-0.6261	0.49727
1.442	9.4173	-28860	2258	-0.60941	-0.62688	0.49688
1.444	9.4496	-28858	2257.9	-0.60932	-0.62767	0.49649
1.446	9.4921	-28859	2257.8	-0.60922	-0.62845	0.4961
1.448	9.5342	-28861	2257.8	-0.60912	-0.62923	0.49571
1.45	9.5656	-28865	2257.7	-0.60902	-0.63001	0.49532
1.452	9.559	-28869	2257.7	-0.60824	-0.6305	0.4963
1.454	9.5065	-28872	2257.6	-0.60746	-0.63098	0.49727
1.456	9.4435	-28874	2257.6	-0.60668	-0.63147	0.49825
1.458	9.4021	-28874	2257.5	-0.6059	-0.63196	0.49922
1.46	9.3996	-28874	2257.4	-0.60512	-0.63245	0.5002
1.462	9.4506	-28877	2257.4	-0.60551	-0.63255	0.49874
1.464	9.51	-28880	2257.4	-0.6059	-0.63264	0.49727
1.466	9.5538	-28881	2257.3	-0.60629	-0.63274	0.49581
1.468	9.5667	-28883	2257.3	-0.60668	-0.63284	0.49434
1.47	9.5338	-28880	2257.3	-0.60707	-0.63294	0.49288
1.472	9.4814	-28877	2257.3	-0.60707	-0.63206	0.49298
1.474	9.4275	-28877	2257.3	-0.60707	-0.63118	0.49308
1.476	9.409	-28877	2257.3	-0.60707	-0.6303	0.49317
1.478	9.4449	-28878	2257.3	-0.60707	-0.62942	0.49327
1.48	9.501	-28879	2257.3	-0.60707	-0.62854	0.49337
1.482	9.5498	-28882	2257.3	-0.60707	-0.62815	0.49347
1.484	9.5821	-28885	2257.3	-0.60707	-0.62776	0.49356
1.486	9.5556	-28885	2257.3	-0.60707	-0.62737	0.49366
1.488	9.5091	-28884	2257.2	-0.60707	-0.62698	0.49376
1.49	9.4598	-28883	2257.2	-0.60707	-0.62659	0.49386
1.492	9.4284	-28881	2257.2	-0.60727	-0.62679	0.49493
1.494	9.441	-28883	2257.1	-0.60746	-0.62698	0.496
1.496	9.5051	-28885	2257.1	-0.60766	-0.62718	0.49708
1.498	9.5525	-28885	2257.2	-0.60785	-0.62737	0.49815
1.5	9.5845	-28885	2257.2	-0.60805	-0.62757	0.49922
1.502	9.5795	-28891	2257.2	-0.60805	-0.62767	0.49874
1.504	9.5291	-28897	2257.2	-0.60805	-0.62776	0.49825
1.506	9.4798	-28895	2257.2	-0.60805	-0.62786	0.49776
1.508	9.4505	-28894	2257.1	-0.60805	-0.62796	0.49727
1.51	9.4645	-28890	2257.1	-0.60805	-0.62806	0.49678
1.512	9.5099	-28886	2257.1	-0.60776	-0.62728	0.49786
1.514	9.5645	-28895	2257	-0.60746	-0.62649	0.49893
1.516	9.6099	-28904	2257	-0.60717	-0.62571	0.5
1.518	9.6091	-28904	2256.9	-0.60688	-0.62493	0.50108
1.52	9.566	-28905	2256.9	-0.60658	-0.62415	0.50215
1.522	9.5042	-28902	2256.9	-0.60707	-0.62405	0.50147
1.524	9.4599	-28898	2257	-0.60756	-0.62396	0.50079
1.526	9.4574	-28904	2257	-0.60805	-0.62386	0.5001
1.528	9.4861	-28911	2257	-0.60854	-0.62376	0.49942
1.53	9.5324	-28911	2257	-0.60902	-0.62366	0.49874
1.532	9.5826	-28911	2257	-0.60873	-0.62444	0.49864
1.534	9.6015	-28910	2256.9	-0.60844	-0.62523	0.49854
1.536	9.5722	-28910	2256.9	-0.60815	-0.62601	0.49844
1.538	9.5246	-28911	2256.9	-0.60785	-0.62679	0.49835
1.54	9.4798	-28911	2256.8	-0.60756	-0.62757	0.49825
1.542	9.4639	-28915	2256.8	-0.60619	-0.6261	0.49913
1.544	9.494	-28919	2256.8	-0.60483	-0.62464	0.5
1.546	9.543	-28917	2256.8	-0.60346	-0.62318	0.50088
1.548	9.5971	-28914	2256.8	-0.60209	-0.62171	0.50176
1.55	9.6342	-28921	2256.8	-0.60073	-0.62025	0.50264
1.552	9.6052	-28927	2256.8	-0.60044	-0.62113	0.50235
1.554	9.5439	-28925	2256.8	-0.60014	-0.622	0.50205
1.556	9.4825	-28923	2256.8	-0.59985	-0.62288	0.50176
1.558	9.4507	-28925	2256.8	-0.59956	-0.62376	0.50147
1.56	9.466	-28926	2256.8	-0.59926	-0.62464	0.50118
1.562	9.533	-28921	2256.8	-0.59868	-0.62396	0.50196
1.564	9.5726	-28916	2256.8	-0.59809	-0.62327	0.50274
1.566	9.5943	-28922	2256.8	-0.59751	-0.62259	0.50352
1.568	9.5851	-28929	2256.7	-0.59692	-0.62191	0.5043
1.57	9.5406	-28929	2256.7	-0.59634	-0.62122	0.50508
1.572	9.4733	-28929	2256.7	-0.59614	-0.62181	0.50488
1.574	9.4376	-28932	2256.7	-0.59595	-0.6224	0.50469
1.576	9.4379	-28935	2256.7	-0.59575	-0.62298	0.50449
1.578	9.4752	-28933	2256.7	-0.59556	-0.62357	0.5043
1.58	9.5171	-28930	2256.7	-0.59536	-0.62415	0.5041
1.582	9.5629	-28926	2256.7	-0.59556	-0.62396	0.5044
1.584	9.5785	-28921	2256.6	-0.59575	-0.62376	0.50469
1.586	9.5444	-28932	2256.6	-0.59595	-0.62357	0.50498
1.588	9.4773	-28942	2256.6	-0.59614	-0.62337	0.50528
1.59	9.4347	-28944	2256.6	-0.59634	-0.62318	0.50557
1.592	9.4093	-28947	2256.6	-0.5978	-0.62357	0.5043
1.594	9.4214	-28946	2256.5	-0.59926	-0.62396	0.50303
1.596	9.4714	-28945	2256.5	-0.60073	-0.62435	0.50176
1.598	9.5305	-28945	2256.5	-0.60219	-0.62474	0.50049
1.6	9.5662	-28944	2256.5	-0.60366	-0.62513	0.49922
1.602	9.5646	-28946	2256.5	-0.60453	-0.62571	0.49932
1.604	9.5364	-28947	2256.5	-0.60541	-0.6263	0.49942
1.606	9.4838	-28949	2256.5	-0.60629	-0.62688	0.49952
1.608	9.4405	-28951	2256.5	-0.60717	-0.62747	0.49961
1.61	9.4526	-28948	2256.5	-0.60805	-0.62806	0.49971
1.612	9.4976	-28944	2256.5	-0.60854	-0.62679	0.49961
1.614	9.5296	-28946	2256.4	-0.60902	-0.62552	0.49952
1.616	9.5462	-28948	2256.3	-0.60951	-0.62425	0.49942
1.618	9.5488	-28953	2256.3	-0.61	-0.62298	0.49932
1.62	9.5262	-28959	2256.2	-0.61049	-0.62171	0.49922
1.622	9.4858	-28953	2256.2	-0.61039	-0.62249	0.49874
1.624	9.4489	-28947	2256.2	-0.61029	-0.62327	0.49825
1.626	9.4422	-28951	2256.2	-0.6102	-0.62405	0.49776
1.628	9.4742	-28954	2256.2	-0.6101	-0.62484	0.49727
1.63	9.5321	-28951	2256.2	-0.61	-0.62562	0.49678
1.632	9.5805	-28948	2256.2	-0.60912	-0.6261	0.49737
1.634	9.5899	-28955	2256.2	-0.60824	-0.62659	0.49796
1.636	9.5587	-28963	2256.2	-0.60736	-0.62708	0.49854
1.638	9.5039	-28960	2256.2	-0.60649	-0.62757	0.49913
1.64	9.4476	-28957	2256.1	-0.60561	-0.62806	0.49971
1.642	9.4056	-28959	2256.1	-0.60717	-0.62737	0.49922
1.644	9.4397	-28960	2256.1	-0.60873	-0.62669	0.49874
1.646	9.4912	-28963	2256.1	-0.61029	-0.62601	0.49825
1.648	9.5355	-28966	2256.1	-0.61185	-0.62532	0.49776
1.65	9.6007	-28964	2256.2	-0.61342	-0.62464	0.49727
1.652	9.6157	-28962	2256.2	-0.61088	-0.62396	0.49796
1.654	9.5675	-28970	2256.2	-0.60834	-0.62327	0.49864
1.656	9.5171	-28978	2256.2	-0.6058	-0.62259	0.49932
1.658	9.4756	-28974	2256.2	-0.60327	-0.62191	0.5
1.66	9.4576	-28970	2256.3	-0.60073	-0.62122	0.50069
1.662	9.4722	-28970	2256.3	-0.60112	-0.62269	0.49864
1.664	9.5085	-28969	2256.2	-0.60151	-0.62415	0.49659
1.666	9.5131	-28970	2256.2	-0.6019	-0.62562	0.49454
1.668	9.4917	-28971	2256.2	-0.60229	-0.62708	0.49249
1.67	9.4114	-28974	2256.1	-0.60268	-0.62854	0.49044
1.672	9.3199	-28976	2256.2	-0.60346	-0.62854	0.49122
1.674	9.2616	-28973	2256.2	-0.60424	-0.62854	0.492
1.676	9.2453	-28969	2256.3	-0.60502	-0.62854	0.49278
1.678	9.2808	-28982	2256.2	-0.6058	-0.62854	0.49356
1.68	9.3375	-28995	2256.2	-0.60658	-0.62854	0.49434
1.682	9.3851	-28988	2256.2	-0.60727	-0.62854	0.49444
1.684	9.4264	-28981	2256.3	-0.60795	-0.62854	0.49454
1.686	9.4337	-28981	2256.3	-0.60863	-0.62854	0.49464
1.688	9.4136	-28982	2256.2	-0.60932	-0.62854	0.49473
1.69	9.3984	-28982	2256.2	-0.61	-0.62854	0.49483
1.692	9.3943	-28983	2256.2	-0.61	-0.62767	0.496
1.694	9.43	-28980	2256.1	-0.61	-0.62679	0.49717
1.696	9.4936	-28978	2256.1	-0.61	-0.62591	0.49835
1.698	9.5527	-28986	2256.1	-0.61	-0.62503	0.49952
1.7	9.5911	-28995	2256.1	-0.61	-0.62415	0.50069
1.702	9.5822	-28995	2256.1	-0.6099	-0.62503	0.5001
1.704	9.5367	-28994	2256	-0.6098	-0.62591	0.49952
1.706	9.4894	-28999	2256	-0.60971	-0.62679	0.49893
1.708	9.4591	-29004	2256	-0.60961	-0.62767	0.49835
1.71	9.4642	-29001	2256	-0.60951	-0.62854	0.49776
1.712	9.5115	-28998	2256	-0.60854	-0.62884	0.49659
1.714	9.5628	-29001	2255.9	-0.60756	-0.62913	0.49542
1.716	9.598	-29003	2255.8	-0.60658	-0.62942	0.49425
1.718	9.5999	-29002	2255.8	-0.60561	-0.62972	0.49308
1.72	9.5531	-29001	2255.7	-0.60463	-0.63001	0.4919
1.722	9.4979	-29000	2255.7	-0.60414	-0.62932	0.4921
1.724	9.4523	-29000	2255.6	-0.60366	-0.62864	0.49229
1.726	9.4261	-29001	2255.6	-0.60317	-0.62796	0.49249
1.728	9.4556	-29001	2255.6	-0.60268	-0.62728	0.49268
1.73	9.5107	-29001	2255.6	-0.60219	-0.62659	0.49288
1.732	9.5922	-29000	2255.5	-0.60336	-0.62708	0.49308
1.734	9.6246	-29003	2255.5	-0.60453	-0.62757	0.49327
1.736	9.5902	-29005	2255.5	-0.60571	-0.62806	0.49347
1.738	9.5271	-29006	2255.4	-0.60688	-0.62854	0.49366
1.74	9.4664	-29007	2255.4	-0.60805	-0.62903	0.49386
1.742	9.4469	-29014	2255.3	-0.60795	-0.62864	0.49473
1.744	9.4622	-29021	2255.2	-0.60785	-0.62825	0.49561
1.746	9.5113	-29024	2255.1	-0.60776	-0.62786	0.49649
1.748	9.56	-29027	2255	-0.60766	-0.62747	0.49737
1.75	9.6027	-29030	2254.8	-0.60756	-0.62708	0.49825
1.752	9.5892	-29033	2254.8	-0.60746	-0.62718	0.49805
1.754	9.5229	-29030	2254.8	-0.60736	-0.62728	0.49786
1.756	9.4554	-29027	2254.7	-0.60727	-0.62737	0.49766
1.758	9.4298	-29020	2254.6	-0.60717	-0.62747	0.49747
1.76	9.4536	-29014	2254.6	-0.60707	-0.62757	0.49727
1.762	9.5086	-29021	2254.5	-0.60668	-0.62708	0.49815
1.764	9.5501	-29029	2254.4	-0.60629	-0.62659	0.49903
1.766	9.573	-29029	2254.4	-0.6059	-0.6261	0.49991
1.768	9.5636	-29028	2254.3	-0.60551	-0.62562	0.50079
1.77	9.5435	-29029	2254.2	-0.60512	-0.62513	0.50166
1.772	9.5154	-29030	2254.2	-0.60629	-0.62542	0.50059
1.774	9.479	-29031	2254.1	-0.60746	-0.62571	0.49952
1.776	9.4713	-29032	2254.1	-0.60863	-0.62601	0.49844
1.778	9.5095	-29031	2254.1	-0.6098	-0.6263	0.49737
1.78	9.5643	-29030	2254.1	-0.61098	-0.62659	0.4963
1.782	9.6021	-29033	2254.1	-0.61	-0.62737	0.49669
1.784	9.6067	-29036	2254.1	-0.60902	-0.62815	0.49708
1.786	9.5833	-29040	2254.1	-0.60805	-0.62893	0.49747
1.788	9.5432	-29044	2254.1	-0.60707	-0.62972	0.49786
1.79	9.4968	-29046	2254	-0.6061	-0.6305	0.49825
1.792	9.4715	-29049	2254	-0.60678	-0.62972	0.49825
1.794	9.4872	-29050	2254	-0.60746	-0.62893	0.49825
1.796	9.5314	-29050	2254	-0.60815	-0.62815	0.49825
1.798	9.5787	-29052	2254.1	-0.60883	-0.62737	0.49825
1.8	9.6082	-29054	2254.1	-0.60951	-0.62659	0.49825
1.802	9.5964	-29047	2254.2	-0.60932	-0.62747	0.49786
1.804	9.5535	-29040	2254.3	-0.60912	-0.62835	0.49747
1.806	9.5129	-29040	2254.3	-0.60893	-0.62923	0.49708
1.808	9.4799	-29041	2254.5	-0.60873	-0.63011	0.49669
1.81	9.476	-29051	2254.6	-0.60854	-0.63098	0.4963
1.812	9.5	-29062	2254.7	-0.60912	-0.6305	0.49659
1.814	9.5388	-29058	2254.8	-0.60971	-0.63001	0.49688
1.816	9.574	-29054	2254.9	-0.61029	-0.62952	0.49717
1.818	9.5745	-29054	2255.1	-0.61088	-0.62903	0.49747
1.82	9.5637	-29054	2255.3	-0.61146	-0.62854	0.49776
1.822	9.5273	-29052	2255.6	-0.61078	-0.62884	0.49737
1.824	9.4981	-29051	2255.8	-0.6101	-0.62913	0.49698
1.826	9.4819	-29052	2256.2	-0.60941	-0.62942	0.49659
1.828	9.5073	-29053	2256.6	-0.60873	-0.62972	0.4962
1.83	9.5737	-29055	2257	-0.60805	-0.63001	0.49581
1.832	9.6259	-29056	2257.4	-0.60834	-0.62884	0.49698
1.834	9.6325	-29061	2257.9	-0.60863	-0.62767	0.49815
1.836	9.5978	-29066	2258.4	-0.60893	-0.62649	0.49932
1.838	9.5513	-29067	2258.9	-0.60922	-0.62532	0.50049
1.84	9.5182	-29068	2259.3	-0.60951	-0.62415	0.50166
1.842	9.4916	-29067	2259.8	-0.60932	-0.62484	0.5
1.844	9.5185	-29066	2260.3	-0.60912	-0.62552	0.49835
1.846	9.5697	-29066	2260.8	-0.60893	-0.6262	0.49669
1.848	9.6134	-29067	2261.3	-0.60873	-0.62688	0.49503
1.85	9.6432	-29064	2261.7	-0.60854	-0.62757	0.49337
1.852	9.6351	-29060	2262.3	-0.60834	-0.62767	0.49376
1.854	9.596	-29063	2262.8	-0.60815	-0.62776	0.49415
1.856	9.5401	-29065	2263.3	-0.60795	-0.62786	0.49454
1.858	9.5028	-29073	2263.9	-0.60776	-0.62796	0.49493
1.86	9.5143	-29080	2264.4	-0.60756	-0.62806	0.49532
1.862	9.5589	-29075	2264.9	-0.606	-0.62845	0.49464
1.864	9.6077	-29070	2265.5	-0.60444	-0.62884	0.49395
1.866	9.6434	-29071	2266	-0.60288	-0.62923	0.49327
1.868	9.6442	-29071	2266.6	-0.60131	-0.62962	0.49259
1.87	9.5998	-29069	2267.1	-0.59975	-0.63001	0.4919
1.872	9.5378	-29067	2267.6	-0.60034	-0.62903	0.49337
1.874	9.5113	-29066	2268.1	-0.60092	-0.62806	0.49483
1.876	9.5306	-29064	2268.7	-0.60151	-0.62708	0.4963
1.878	9.5639	-29058	2269.2	-0.60209	-0.6261	0.49776
1.88	9.6106	-29051	2269.8	-0.60268	-0.62513	0.49922
1.882	9.6565	-29054	2270.3	-0.60336	-0.62649	0.49844
1.884	9.6776	-29056	2270.8	-0.60405	-0.62786	0.49766
1.886	9.6557	-29057	2271.3	-0.60473	-0.62923	0.49688
1.888	9.605	-29058	2271.7	-0.60541	-0.63059	0.4961
1.89	9.5581	-29049	2272.1	-0.6061	-0.63196	0.49532
1.892	9.531	-29040	2272.5	-0.60658	-0.63167	0.49503
1.894	9.5497	-29034	2272.9	-0.60707	-0.63137	0.49473
1.896	9.6042	-29028	2273.2	-0.60756	-0.63108	0.49444
1.898	9.6534	-29026	2273.4	-0.60805	-0.63079	0.49415
1.9	9.6922	-29024	2273.7	-0.60854	-0.6305	0.49386
1.902	9.6894	-29023	2273.9	-0.60766	-0.6303	0.49366
1.904	9.6327	-29023	2274.1	-0.60678	-0.63011	0.49347
1.906	9.5726	-29022	2274.3	-0.6059	-0.62991	0.49327
1.908	9.5337	-29020	2274.5	-0.60502	-0.62972	0.49308
1.91	9.534	-29019	2274.7	-0.60414	-0.62952	0.49288
1.912	9.5919	-29019	2274.7	-0.60366	-0.62913	0.4922
1.914	9.6417	-29016	2274.8	-0.60317	-0.62874	0.49151
1.916	9.6736	-29013	2274.8	-0.60268	-0.62835	0.49083
1.918	9.6689	-29007	2274.7	-0.60219	-0.62796	0.49015
1.92	9.6403	-29000	2274.6	-0.6017	-0.62757	0.48946
1.922	9.5965	-28997	2274.4	-0.60288	-0.62669	0.49122
1.924	9.5426	-28995	2274.2	-0.60405	-0.62581	0.49298
1.926	9.5435	-28994	2274.1	-0.60522	-0.62493	0.49473
1.928	9.5789	-28994	2273.9	-0.60639	-0.62405	0.49649
1.93	9.6266	-28985	2273.8	-0.60756	-0.62318	0.49825
1.932	9.6751	-28976	2273.7	-0.60688	-0.62376	0.49874
1.934	9.6927	-28973	2273.5	-0.60619	-0.62435	0.49922
1.936	9.6577	-28969	2273.4	-0.60551	-0.62493	0.49971
1.938	9.5981	-28967	2273.3	-0.60483	-0.62552	0.5002
1.94	9.5472	-28964	2273.1	-0.60414	-0.6261	0.50069
1.942	9.5178	-28963	2272.9	-0.60532	-0.62562	0.50049
1.944	9.5312	-28962	2272.7	-0.60649	-0.62513	0.5003
1.946	9.5769	-28962	2272.5	-0.60766	-0.62464	0.5001
1.948	9.623	-28961	2272.3	-0.60883	-0.62415	0.49991
1.95	9.6488	-28959	2272	-0.61	-0.62366	0.49971
1.952	9.6437	-28957	2271.8	-0.61029	-0.62318	0.49991
1.954	9.6015	-28950	2271.6	-0.61059	-0.62269	0.5001
1.956	9.5356	-28942	2271.4	-0.61088	-0.6222	0.5003
1.958	9.4865	-28945	2271.2	-0.61117	-0.62171	0.50049
1.96	9.4873	-28947	2271	-0.61146	-0.62122	0.50069
1.962	9.5261	-28946	2270.9	-0.61107	-0.62191	0.50069
1.964	9.5749	-28944	2270.8	-0.61068	-0.62259	0.50069
1.966	9.6174	-28939	2270.6	-0.61029	-0.62327	0.50069
1.968	9.623	-28934	2270.4	-0.6099	-0.62396	0.50069
1.97	9.5853	-28932	2270.2	-0.60951	-0.62464	0.50069
1.972	9.5275	-28930	2270	-0.61049	-0.62405	0.5002
1.974	9.4805	-28935	2269.8	-0.61146	-0.62347	0.49971
1.976	9.4705	-28940	2269.6	-0.61244	-0.62288	0.49922
1.978	9.4953	-28939	2269.5	-0.61342	-0.6223	0.49874
1.98	9.5433	-28937	2269.3	-0.61439	-0.62171	0.49825
1.982	9.593	-28934	2269.2	-0.61303	-0.62337	0.49844
1.984	9.6192	-28932	2269.2	-0.61166	-0.62503	0.49864
1.986	9.5948	-28933	2269.1	-0.61029	-0.62669	0.49883
1.988	9.5426	-28934	2269	-0.60893	-0.62835	0.49903
1.99	9.4856	-28929	2268.9	-0.60756	-0.63001	0.49922
1.992	9.4577	-28924	2268.8	-0.60795	-0.62893	0.49942
1.994	9.4756	-28922	2268.6	-0.60834	-0.62786	0.49961
1.996	9.5126	-28920	2268.5	-0.60873	-0.62679	0.49981
1.998	9.5471	-28919	2268.4	-0.60912	-0.62571	0.5
2	9.6018	-28918	2268.2	-0.60951	-0.62464	0.5002
2.002	9.5972	-28921	2268.1	-0.60863	-0.6261	0.49991
2.004	9.5476	-28924	2268	-0.60776	-0.62757	0.49961
2.006	9.4874	-28927	2267.9	-0.60688	-0.62903	0.49932
2.008	9.4403	-28929	2267.8	-0.606	-0.6305	0.49903
2.01	9.446	-28926	2267.8	-0.60512	-0.63196	0.49874
2.012	9.4788	-28923	2267.7	-0.60551	-0.63196	0.49864
2.014	9.5302	-28922	2267.5	-0.6059	-0.63196	0.49854
2.016	9.5903	-28921	2267.4	-0.60629	-0.63196	0.49844
2.018	9.6118	-28920	2267.3	-0.60668	-0.63196	0.49835
2.02	9.574	-28918	2267.2	-0.60707	-0.63196	0.49825
2.022	9.5082	-28916	2267	-0.60629	-0.63089	0.49747
2.024	9.4509	-28913	2266.9	-0.60551	-0.62981	0.49669
2.026	9.4414	-28913	2266.7	-0.60473	-0.62874	0.49591
2.028	9.4728	-28914	2266.6	-0.60395	-0.62767	0.49512
2.03	9.5119	-28914	2266.5	-0.60317	-0.62659	0.49434
2.032	9.5579	-28914	2266.5	-0.60258	-0.62601	0.49571
2.034	9.5894	-28915	2266.4	-0.602	-0.62542	0.49708
2.036	9.572	-28917	2266.4	-0.60141	-0.62484	0.49844
2.038	9.5192	-28917	2266.3	-0.60083	-0.62425	0.49981
2.04	9.4661	-28918	2266.3	-0.60024	-0.62366	0.50118
2.042	9.4522	-28915	2266.3	-0.59917	-0.62396	0.50157
2.044	9.488	-28912	2266.2	-0.59809	-0.62425	0.50196
2.046	9.5218	-28911	2266.2	-0.59702	-0.62454	0.50235
2.048	9.54	-28910	2266.1	-0.59595	-0.62484	0.50274
2.05	9.5681	-28911	2266	-0.59487	-0.62513	0.50313
2.052	9.57	-28912	2266	-0.59604	-0.62464	0.50303
2.054	9.5338	-28912	2265.9	-0.59721	-0.62415	0.50293
2.056	9.481	-28912	2265.8	-0.59839	-0.62366	0.50284
2.058	9.4436	-28905	2265.8	-0.59956	-0.62318	0.50274
2.06	9.4506	-28898	2265.7	-0.60073	-0.62269	0.50264
2.062	9.5094	-28899	2265.7	-0.59975	-0.6223	0.50313
2.064	9.5558	-28900	2265.7	-0.59878	-0.62191	0.50362
2.066	9.5867	-28904	2265.6	-0.5978	-0.62152	0.5041
2.068	9.5951	-28908	2265.5	-0.59682	-0.62113	0.50459
2.07	9.5618	-28909	2265.4	-0.59585	-0.62074	0.50508
2.072	9.5198	-28911	2265.4	-0.59926	-0.622	0.50293
2.074	9.4746	-28914	2265.3	-0.60268	-0.62327	0.50079
2.076	9.4537	-28917	2265.2	-0.6061	-0.62454	0.49864
2.078	9.4813	-28919	2265.2	-0.60951	-0.62581	0.49649
2.08	9.527	-28921	2265.1	-0.61293	-0.62708	0.49434
2.082	9.5739	-28919	2265.1	-0.61254	-0.6264	0.49532
2.084	9.5995	-28918	2265.1	-0.61215	-0.62571	0.4963
2.086	9.589	-28918	2265	-0.61176	-0.62503	0.49727
2.088	9.5434	-28918	2265.1	-0.61137	-0.62435	0.49825
2.09	9.4885	-28916	2265.1	-0.61098	-0.62366	0.49922
2.092	9.4554	-28914	2265.1	-0.61176	-0.62357	0.49952
2.094	9.4746	-28916	2265.2	-0.61254	-0.62347	0.49981
2.096	9.536	-28918	2265.2	-0.61332	-0.62337	0.5001
2.098	9.5899	-28917	2265.2	-0.6141	-0.62327	0.5004
2.1	9.6152	-28915	2265.2	-0.61488	-0.62318	0.50069
2.102	9.6008	-28913	2265.2	-0.61478	-0.62279	0.50069
2.104	9.559	-28911	2265.2	-0.61468	-0.6224	0.50069
2.106	9.5122	-28915	2265.2	-0.61459	-0.622	0.50069
2.108	9.4655	-28919	2265.1	-0.61449	-0.62161	0.50069
2.11	9.4667	-28919	2265.1	-0.61439	-0.62122	0.50069
2.112	9.5168	-28918	2265.1	-0.61361	-0.62249	0.49981
2.114	9.5732	-28916	2265.2	-0.61283	-0.62376	0.49893
2.116	9.6096	-28914	2265.2	-0.61205	-0.62503	0.49805
2.118	9.6015	-28916	2265.2	-0.61127	-0.6263	0.49717
2.12	9.5627	-28918	2265.2	-0.61049	-0.62757	0.4963
2.122	9.5204	-28926	2265.1	-0.61117	-0.62698	0.49659
2.124	9.4837	-28933	2265.1	-0.61185	-0.6264	0.49688
2.126	9.4647	-28931	2265	-0.61254	-0.62581	0.49717
2.128	9.4788	-28929	2264.9	-0.61322	-0.62523	0.49747
2.13	9.5326	-28931	2264.9	-0.6139	-0.62464	0.49776
2.132	9.5937	-28933	2264.8	-0.61107	-0.62396	0.49903
2.134	9.6145	-28933	2264.8	-0.60824	-0.62327	0.5003
2.136	9.589	-28933	2264.8	-0.60541	-0.62259	0.50157
2.138	9.5343	-28932	2264.8	-0.60258	-0.62191	0.50284
2.14	9.4871	-28932	2264.8	-0.59975	-0.62122	0.5041
2.142	9.4714	-28932	2264.8	-0.59926	-0.62122	0.50371
2.144	9.4807	-28933	2264.9	-0.59878	-0.62122	0.50332
2.146	9.5206	-28931	2264.9	-0.59829	-0.62122	0.50293
2.148	9.5714	-28929	2264.9	-0.5978	-0.62122	0.50254
2.15	9.6034	-28931	2265	-0.59731	-0.62122	0.50215
2.152	9.5907	-28934	2265	-0.59829	-0.62142	0.50157
2.154	9.5336	-28939	2265	-0.59926	-0.62161	0.50098
2.156	9.4819	-28944	2265	-0.60024	-0.62181	0.5004
2.158	9.4518	-28938	2265.1	-0.60122	-0.622	0.49981
2.16	9.4523	-28932	2265.1	-0.60219	-0.6222	0.49922
2.162	9.496	-28930	2265.2	-0.60053	-0.62279	0.49961
2.164	9.5445	-28928	2265.3	-0.59887	-0.62337	0.5
2.166	9.5865	-28930	2265.3	-0.59721	-0.62396	0.5004
2.168	9.5986	-28932	2265.4	-0.59556	-0.62454	0.50079
2.17	9.5602	-28933	2265.5	-0.5939	-0.62513	0.50118
2.172	9.5039	-28934	2265.5	-0.5938	-0.62474	0.50166
2.174	9.4575	-28930	2265.5	-0.5937	-0.62435	0.50215
2.176	9.4428	-28927	2265.5	-0.5936	-0.62396	0.50264
2.178	9.4682	-28923	2265.5	-0.59351	-0.62357	0.50313
2.18	9.52	-28919	2265.5	-0.59341	-0.62318	0.50362
2.182	9.5709	-28922	2265.5	-0.59419	-0.62337	0.50323
2.184	9.5892	-28925	2265.5	-0.59497	-0.62357	0.50284
2.186	9.5646	-28928	2265.5	-0.59575	-0.62376	0.50244
2.188	9.5251	-28932	2265.5	-0.59653	-0.62396	0.50205
2.19	9.47	-28930	2265.6	-0.59731	-0.62415	0.50166
2.192	9.4346	-28928	2265.6	-0.59897	-0.62484	0.50088
2.194	9.447	-28927	2265.6	-0.60063	-0.62552	0.5001
2.196	9.4898	-28925	2265.7	-0.60229	-0.6262	0.49932
2.198	9.5444	-28930	2265.6	-0.60395	-0.62688	0.49854
2.2	9.5824	-28934	2265.6	-0.60561	-0.62757	0.49776
2.202	9.5776	-28931	2265.6	-0.6061	-0.62776	0.49747
2.204	9.5358	-28929	2265.6	-0.60658	-0.62796	0.49717
2.206	9.48	-28931	2265.6	-0.60707	-0.62815	0.49688
2.208	9.4341	-28933	2265.6	-0.60756	-0.62835	0.49659
2.21	9.4303	-28924	2265.7	-0.60805	-0.62854	0.4963
2.212	9.4777	-28915	2265.7	-0.60844	-0.62835	0.4962
2.214	9.5402	-28920	2265.7	-0.60883	-0.62815	0.4961
2.216	9.5826	-28926	2265.7	-0.60922	-0.62796	0.496
2.218	9.5883	-28934	2265.7	-0.60961	-0.62776	0.49591
2.22	9.5533	-28942	2265.7	-0.61	-0.62757	0.49581
2.222	9.4975	-28937	2265.6	-0.61137	-0.62688	0.4962
2.224	9.4474	-28933	2265.6	-0.61273	-0.6262	0.49659
2.226	9.4324	-28933	2265.5	-0.6141	-0.62552	0.49698
2.228	9.4616	-28933	2265.4	-0.61547	-0.62484	0.49737
2.23	9.5077	-28932	2265.3	-0.61683	-0.62415	0.49776
2.232	9.5567	-28931	2265.2	-0.6141	-0.62405	0.49893
2.234	9.5909	-28936	2265	-0.61137	-0.62396	0.5001
2.236	9.5836	-28941	2264.9	-0.60863	-0.62386	0.50127
2.238	9.5375	-28937	2264.8	-0.6059	-0.62376	0.50244
2.24	9.4671	-28933	2264.6	-0.60317	-0.62366	0.50362
2.242	9.4358	-28932	2264.5	-0.60258	-0.62347	0.50391
2.244	9.4477	-28932	2264.5	-0.602	-0.62327	0.5042
2.246	9.5005	-28932	2264.4	-0.60141	-0.62308	0.50449
2.248	9.5707	-28933	2264.2	-0.60083	-0.62288	0.50479
2.25	9.6205	-28935	2264.1	-0.60024	-0.62269	0.50508
2.252	9.5978	-28938	2264	-0.60151	-0.62298	0.50401
2.254	9.551	-28940	2263.9	-0.60278	-0.62327	0.50293
2.256	9.4897	-28942	2263.7	-0.60405	-0.62357	0.50186
2.258	9.4519	-28944	2263.6	-0.60532	-0.62386	0.50079
2.26	9.452	-28946	2263.5	-0.60658	-0.62415	0.49971
2.262	9.4884	-28940	2263.4	-0.60561	-0.62405	0.5003
2.264	9.5396	-28935	2263.2	-0.60463	-0.62396	0.50088
2.266	9.5826	-28939	2263.1	-0.60366	-0.62386	0.50147
2.268	9.5923	-28942	2263	-0.60268	-0.62376	0.50205
2.27	9.5713	-28942	2262.9	-0.6017	-0.62366	0.50264
2.272	9.5153	-28942	2262.8	-0.60102	-0.62318	0.50323
2.274	9.4654	-28943	2262.7	-0.60034	-0.62269	0.50381
2.276	9.4534	-28943	2262.6	-0.59965	-0.6222	0.5044
2.278	9.4791	-28946	2262.5	-0.59897	-0.62171	0.50498
2.28	9.5253	-28950	2262.4	-0.59829	-0.62122	0.50557
2.282	9.5741	-28951	2262.2	-0.59839	-0.62083	0.50508
2.284	9.5944	-28952	2262	-0.59848	-0.62044	0.50459
2.286	9.5626	-28950	2261.9	-0.59858	-0.62005	0.5041
2.288	9.5022	-28947	2261.8	-0.59868	-0.61966	0.50362
2.29	9.4501	-28948	2261.7	-0.59878	-0.61927	0.50313
2.292	9.4262	-28950	2261.6	-0.59878	-0.61898	0.50303
2.294	9.4453	-28949	2261.5	-0.59878	-0.61869	0.50293
2.296	9.4954	-28948	2261.5	-0.59878	-0.61839	0.50284
2.298	9.5415	-28947	2261.4	-0.59878	-0.6181	0.50274
2.3	9.5682	-28947	2261.4	-0.59878	-0.61781	0.50264
2.302	9.5653	-28951	2261.3	-0.59926	-0.61869	0.50264
2.304	9.5271	-28954	2261.2	-0.59975	-0.61956	0.50264
2.306	9.4739	-28950	2261.1	-0.60024	-0.62044	0.50264
2.308	9.4286	-28945	2261	-0.60073	-0.62132	0.50264
2.31	9.4247	-28948	2260.9	-0.60122	-0.6222	0.50264
2.312	9.4719	-28950	2260.8	-0.59965	-0.62298	0.50274
2.314	9.5287	-28956	2260.7	-0.59809	-0.62376	0.50284
2.316	9.5804	-28961	2260.6	-0.59653	-0.62454	0.50293
2.318	9.5859	-28962	2260.6	-0.59497	-0.62532	0.50303
2.32	9.5355	-28963	2260.5	-0.59341	-0.6261	0.50313
2.322	9.4883	-28964	2260.5	-0.59351	-0.62601	0.50323
2.324	9.4457	-28964	2260.5	-0.5936	-0.62591	0.50332
2.326	9.4259	-28961	2260.5	-0.5937	-0.62581	0.50342
2.328	9.4562	-28958	2260.4	-0.5938	-0.62571	0.50352
2.33	9.5345	-28970	2260.3	-0.5939	-0.62562	0.50362
2.332	9.5793	-28982	2260.2	-0.59614	-0.62532	0.50284
2.334	9.604	-28975	2260.1	-0.59839	-0.62503	0.50205
2.336	9.5899	-28967	2260	-0.60063	-0.62474	0.50127
2.338	9.5364	-28970	2260	-0.60288	-0.62444	0.50049
2.34	9.4764	-28973	2259.9	-0.60512	-0.62415	0.49971
2.342	9.4566	-28970	2259.9	-0.60619	-0.62405	0.49991
2.344	9.4758	-28966	2259.9	-0.60727	-0.62396	0.5001
2.346	9.5263	-28968	2259.9	-0.60834	-0.62386	0.5003
2.348	9.5819	-28970	2259.8	-0.60941	-0.62376	0.50049
2.35	9.6121	-28979	2259.8	-0.61049	-0.62366	0.50069
2.352	9.5996	-28987	2259.7	-0.6101	-0.62464	0.5002
2.354	9.5587	-28986	2259.7	-0.60971	-0.62562	0.49971
2.356	9.5103	-28984	2259.6	-0.60932	-0.62659	0.49922
2.358	9.4676	-28984	2259.5	-0.60893	-0.62757	0.49874
2.36	9.4473	-28985	2259.4	-0.60854	-0.62854	0.49825
2.362	9.4794	-28982	2259.4	-0.60883	-0.62786	0.49815
2.364	9.5408	-28979	2259.3	-0.60912	-0.62718	0.49805
2.366	9.5898	-28983	2259.3	-0.60941	-0.62649	0.49796
2.368	9.6151	-28988	2259.2	-0.60971	-0.62581	0.49786
2.37	9.5947	-28988	2259.2	-0.61	-0.62513	0.49776
2.372	9.5371	-28988	2259.2	-0.60971	-0.62493	0.49844
2.374	9.4813	-28989	2259.2	-0.60941	-0.62474	0.49913
2.376	9.4571	-28991	2259.2	-0.60912	-0.62454	0.49981
2.378	9.4849	-28990	2259.2	-0.60883	-0.62435	0.50049
2.38	9.5403	-28988	2259.2	-0.60854	-0.62415	0.50118
2.382	9.5879	-28990	2259.2	-0.60736	-0.62435	0.50166
2.384	9.6138	-28991	2259.1	-0.60619	-0.62454	0.50215
2.386	9.6002	-28994	2259	-0.60502	-0.62474	0.50264
2.388	9.553	-28996	2258.9	-0.60385	-0.62493	0.50313
2.39	9.499	-28996	2258.8	-0.60268	-0.62513	0.50362
2.392	9.4657	-28997	2258.8	-0.60327	-0.62484	0.50323
2.394	9.4726	-28997	2258.9	-0.60385	-0.62454	0.50284
2.396	9.5143	-28996	2258.8	-0.60444	-0.62425	0.50244
2.398	9.5608	-28999	2258.8	-0.60502	-0.62396	0.50205
2.4	9.5962	-29002	2258.8	-0.60561	-0.62366	0.50166
2.402	9.5874	-29002	2258.7	-0.60629	-0.62386	0.50098
2.404	9.5312	-29003	2258.7	-0.60697	-0.62405	0.5003
2.406	9.4624	-29001	2258.6	-0.60766	-0.62425	0.49961
2.408	9.4164	-28998	2258.5	-0.60834	-0.62444	0.49893
2.41	9.4161	-29002	2258.4	-0.60902	-0.62464	0.49825
2.412	9.4573	-29005	2258.4	-0.60912	-0.62454	0.49835
2.414	9.521	-29007	2258.3	-0.60922	-0.62444	0.49844
2.416	9.565	-29009	2258.3	-0.60932	-0.62435	0.49854
2.418	9.5767	-29010	2258.2	-0.60941	-0.62425	0.49864
2.42	9.5473	-29011	2258.2	-0.60951	-0.62415	0.49874
2.422	9.4872	-29014	2258.2	-0.60893	-0.62396	0.49952
2.424	9.448	-29017	2258.2	-0.60834	-0.62376	0.5003
2.426	9.4188	-29016	2258.2	-0.60776	-0.62357	0.50108
2.428	9.445	-29015	2258.1	-0.60717	-0.62337	0.50186
2.43	9.5057	-29014	2258	-0.60658	-0.62318	0.50264
2.432	9.5521	-29013	2258	-0.60532	-0.6221	0.50284
2.434	9.5759	-29018	2257.9	-0.60405	-0.62103	0.50303
2.436	9.5508	-29022	2257.8	-0.60278	-0.61996	0.50323
2.438	9.4909	-29018	2257.7	-0.60151	-0.61888	0.50342
2.44	9.4348	-29014	2257.6	-0.60024	-0.61781	0.50362
2.442	9.3963	-29015	2257.5	-0.59985	-0.6182	0.50381
2.444	9.4066	-29016	2257.5	-0.59946	-0.61859	0.50401
2.446	9.4517	-29017	2257.5	-0.59907	-0.61898	0.5042
2.448	9.5106	-29017	2257.6	-0.59868	-0.61937	0.5044
2.45	9.5546	-29023	2257.7	-0.59829	-0.61976	0.50459
2.452	9.5583	-29030	2257.7	-0.59917	-0.62025	0.50391
2.454	9.5295	-29029	2257.7	-0.60004	-0.62074	0.50323
2.456	9.4859	-29029	2257.7	-0.60092	-0.62122	0.50254
2.458	9.4463	-29028	2257.7	-0.6018	-0.62171	0.50186
2.46	9.4436	-29026	2257.8	-0.60268	-0.6222	0.50118
2.462	9.4807	-29030	2257.8	-0.60356	-0.62337	0.49961
2.464	9.5281	-29034	2257.7	-0.60444	-0.62454	0.49805
2.466	9.5657	-29031	2257.7	-0.60532	-0.62571	0.49649
2.468	9.5761	-29028	2257.7	-0.60619	-0.62688	0.49493
2.47	9.5394	-29032	2257.8	-0.60707	-0.62806	0.49337
2.472	9.4726	-29035	2257.8	-0.60785	-0.62737	0.49415
2.474	9.4214	-29036	2257.8	-0.60863	-0.62669	0.49493
2.476	9.4113	-29038	2257.8	-0.60941	-0.62601	0.49571
2.478	9.4478	-29034	2257.8	-0.6102	-0.62532	0.49649
2.48	9.5067	-29031	2257.8	-0.61098	-0.62464	0.49727
2.482	9.5581	-29039	2257.8	-0.61068	-0.62523	0.49717
2.484	9.5966	-29046	2257.8	-0.61039	-0.62581	0.49708
2.486	9.5851	-29044	2257.8	-0.6101	-0.6264	0.49698
2.488	9.5338	-29043	2257.8	-0.6098	-0.62698	0.49688
2.49	9.4873	-29036	2257.8	-0.60951	-0.62757	0.49678
2.492	9.4518	-29029	2257.8	-0.60863	-0.62747	0.49708
2.494	9.4418	-29037	2257.8	-0.60776	-0.62737	0.49737
2.496	9.4738	-29045	2257.8	-0.60688	-0.62728	0.49766
2.498	9.482	-29046	2257.9	-0.606	-0.62718	0.49796
2.5	9.4776	-29047	2257.9	-0.60512	-0.62708	0.49825
2.502	9.4439	-29045	2258	-0.60629	-0.62649	0.49835
2.504	9.3726	-29043	2258	-0.60746	-0.62591	0.49844
2.506	9.298	-29044	2258	-0.60863	-0.62532	0.49854
2.508	9.2493	-29046	2258	-0.6098	-0.62474	0.49864
2.51	9.2605	-29044	2257.9	-0.61098	-0.62415	0.49874
2.512	9.3146	-29042	2257.8	-0.61039	-0.62366	0.49961
2.514	9.3707	-29049	2257.8	-0.6098	-0.62318	0.50049
2.516	9.4453	-29056	2257.7	-0.60922	-0.62269	0.50137
2.518	9.4932	-29054	2257.7	-0.60863	-0.6222	0.50225
2.52	9.4877	-29052	2257.7	-0.60805	-0.62171	0.50313
2.522	9.45	-29048	2257.6	-0.60639	-0.62152	0.50381
2.524	9.4087	-29044	2257.6	-0.60473	-0.62132	0.50449
2.526	9.398	-29048	2257.6	-0.60307	-0.62113	0.50518
2.528	9.4412	-29052	2257.6	-0.60141	-0.62093	0.50586
2.53	9.501	-29051	2257.6	-0.59975	-0.62074	0.50654
2.532	9.5333	-29050	2257.6	-0.60014	-0.62064	0.50586
2.534	9.5457	-29052	2257.5	-0.60053	-0.62054	0.50518
2.536	9.5325	-29054	2257.4	-0.60092	-0.62044	0.50449
2.538	9.5043	-29054	2257.2	-0.60131	-0.62035	0.50381
2.54	9.4667	-29054	2257.1	-0.6017	-0.62025	0.50313
2.542	9.4383	-29056	2257	-0.60248	-0.62103	0.50264
2.544	9.4478	-29057	2256.9	-0.60327	-0.62181	0.50215
2.546	9.4865	-29061	2256.8	-0.60405	-0.62259	0.50166
2.548	9.5401	-29065	2256.7	-0.60483	-0.62337	0.50118
2.55	9.5762	-29064	2256.6	-0.60561	-0.62415	0.50069
2.552	9.5657	-29063	2256.6	-0.60668	-0.62503	0.49991
2.554	9.5235	-29070	2256.6	-0.60776	-0.62591	0.49913
2.556	9.4723	-29077	2256.5	-0.60883	-0.62679	0.49835
2.558	9.4286	-29077	2256.5	-0.6099	-0.62767	0.49756
2.56	9.419	-29077	2256.4	-0.61098	-0.62854	0.49678
2.562	9.4599	-29071	2256.3	-0.61107	-0.62728	0.49776
2.564	9.5199	-29066	2256.2	-0.61117	-0.62601	0.49874
2.566	9.5599	-29075	2256.1	-0.61127	-0.62474	0.49971
2.568	9.5561	-29084	2255.9	-0.61137	-0.62347	0.50069
2.57	9.5198	-29082	2255.7	-0.61146	-0.6222	0.50166
2.572	9.4772	-29080	2255.6	-0.61166	-0.62249	0.50108
2.574	9.4348	-29077	2255.5	-0.61185	-0.62279	0.50049
2.576	9.4122	-29075	2255.4	-0.61205	-0.62308	0.49991
2.578	9.4413	-29072	2255.3	-0.61224	-0.62337	0.49932
2.58	9.4911	-29068	2255.1	-0.61244	-0.62366	0.49874
2.582	9.5395	-29069	2255	-0.61215	-0.62347	0.49903
2.584	9.5654	-29071	2254.9	-0.61185	-0.62327	0.49932
2.586	9.5381	-29072	2254.7	-0.61156	-0.62308	0.49961
2.588	9.4812	-29073	2254.6	-0.61127	-0.62288	0.49991
2.59	9.4405	-29074	2254.4	-0.61098	-0.62269	0.5002
2.592	9.4051	-29075	2254.2	-0.60932	-0.6223	0.5003
2.594	9.4189	-29078	2254.1	-0.60766	-0.62191	0.5004
2.596	9.4719	-29081	2254	-0.606	-0.62152	0.50049
2.598	9.5287	-29082	2253.9	-0.60434	-0.62113	0.50059
2.6	9.5683	-29083	2253.8	-0.60268	-0.62074	0.50069
2.602	9.5644	-29085	2253.7	-0.60141	-0.62103	0.50137
2.604	9.526	-29088	2253.7	-0.60014	-0.62132	0.50205
2.606	9.4806	-29088	2253.6	-0.59887	-0.62161	0.50274
2.608	9.4441	-29089	2253.5	-0.5976	-0.62191	0.50342
2.61	9.438	-29087	2253.4	-0.59634	-0.6222	0.5041
2.612	9.4695	-29086	2253.2	-0.59604	-0.62191	0.50488
2.614	9.5151	-29087	2253.1	-0.59575	-0.62161	0.50567
2.616	9.5535	-29088	2253	-0.59546	-0.62132	0.50645
2.618	9.5594	-29087	2252.9	-0.59516	-0.62103	0.50723
2.62	9.5272	-29085	2252.9	-0.59487	-0.62074	0.50801
2.622	9.4714	-29084	2252.8	-0.59477	-0.62054	0.50772
2.624	9.4279	-29084	2252.8	-0.59468	-0.62035	0.50742
2.626	9.4196	-29086	2252.8	-0.59458	-0.62015	0.50713
2.628	9.4494	-29088	2252.9	-0.59448	-0.61996	0.50684
2.63	9.4998	-29092	2253	-0.59438	-0.61976	0.50654
2.632	9.5521	-29095	2253	-0.59585	-0.61996	0.50654
2.634	9.5774	-29098	2253.1	-0.59731	-0.62015	0.50654
2.636	9.5528	-29100	2253.2	-0.59878	-0.62035	0.50654
2.638	9.4973	-29100	2253.3	-0.60024	-0.62054	0.50654
2.64	9.447	-29100	2253.4	-0.6017	-0.62074	0.50654
2.642	9.4256	-29103	2253.6	-0.602	-0.62132	0.50576
2.644	9.4424	-29106	2253.8	-0.60229	-0.62191	0.50498
2.646	9.482	-29107	2254	-0.60258	-0.62249	0.5042
2.648	9.5276	-29108	2254.3	-0.60288	-0.62308	0.50342
2.65	9.5676	-29107	2254.6	-0.60317	-0.62366	0.50264
2.652	9.5677	-29106	2255.1	-0.60492	-0.62405	0.50196
2.654	9.536	-29105	2255.5	-0.60668	-0.62444	0.50127
2.656	9.4876	-29104	2256	-0.60844	-0.62484	0.50059
2.658	9.4396	-29107	2256.5	-0.6102	-0.62523	0.49991
2.66	9.4281	-29110	2257.1	-0.61195	-0.62562	0.49922
2.662	9.4754	-29114	2257.6	-0.61088	-0.62581	0.49942
2.664	9.5221	-29118	2258.1	-0.6098	-0.62601	0.49961
2.666	9.5566	-29119	2258.5	-0.60873	-0.6262	0.49981
2.668	9.574	-29120	2259	-0.60766	-0.6264	0.5
2.67	9.5552	-29118	2259.4	-0.60658	-0.62659	0.5002
2.672	9.5135	-29116	2260	-0.60619	-0.62552	0.50118
2.674	9.4465	-29119	2260.5	-0.6058	-0.62444	0.50215
2.676	9.4069	-29121	2261.1	-0.60541	-0.62337	0.50313
2.678	9.4572	-29121	2261.7	-0.60502	-0.6223	0.5041
2.68	9.531	-29122	2262.3	-0.60463	-0.62122	0.50508
2.682	9.5725	-29117	2262.9	-0.60375	-0.62093	0.50488
2.684	9.6052	-29113	2263.5	-0.60288	-0.62064	0.50469
2.686	9.5946	-29113	2264	-0.602	-0.62035	0.50449
2.688	9.5511	-29114	2264.5	-0.60112	-0.62005	0.5043
2.69	9.4943	-29112	2265.1	-0.60024	-0.61976	0.5041
2.692	9.4629	-29110	2265.6	-0.60024	-0.61956	0.50371
2.694	9.4775	-29106	2266	-0.60024	-0.61937	0.50332
2.696	9.5216	-29102	2266.5	-0.60024	-0.61917	0.50293
2.698	9.571	-29102	2266.9	-0.60024	-0.61898	0.50254
2.7	9.6112	-29103	2267.4	-0.60024	-0.61878	0.50215
2.702	9.6102	-29100	2267.9	-0.59995	-0.61908	0.50284
2.704	9.562	-29097	2268.3	-0.59965	-0.61937	0.50352
2.706	9.5078	-29095	2268.8	-0.59936	-0.61966	0.5042
2.708	9.4707	-29094	2269.3	-0.59907	-0.61996	0.50488
2.71	9.4672	-29095	2269.8	-0.59878	-0.62025	0.50557
2.712	9.5133	-29097	2270.2	-0.59848	-0.62083	0.50469
2.714	9.5751	-29093	2270.7	-0.59819	-0.62142	0.50381
2.716	9.6185	-29090	2271	-0.5979	-0.622	0.50293
2.718	9.6279	-29082	2271.3	-0.5976	-0.62259	0.50205
2.72	9.6023	-29075	2271.6	-0.59731	-0.62318	0.50118
2.722	9.5616	-29075	2271.9	-0.59663	-0.62357	0.50166
2.724	9.5274	-29075	2272.2	-0.59595	-0.62396	0.50215
2.726	9.5063	-29073	2272.4	-0.59526	-0.62435	0.50264
2.728	9.5123	-29071	2272.6	-0.59458	-0.62474	0.50313
2.73	9.5521	-29060	2272.9	-0.5939	-0.62513	0.50362
2.732	9.5963	-29048	2273	-0.59458	-0.62425	0.5044
2.734	9.622	-29045	2273.2	-0.59526	-0.62337	0.50518
2.736	9.6103	-29042	2273.3	-0.59595	-0.62249	0.50596
2.738	9.5711	-29039	2273.4	-0.59663	-0.62161	0.50674
2.74	9.5207	-29037	2273.6	-0.59731	-0.62074	0.50752
2.742	9.4843	-29029	2273.5	-0.59741	-0.62054	0.50684
2.744	9.4855	-29020	2273.5	-0.59751	-0.62035	0.50615
2.746	9.5367	-29014	2273.5	-0.5976	-0.62015	0.50547
2.748	9.5974	-29008	2273.4	-0.5977	-0.61996	0.50479
2.75	9.6214	-29006	2273.3	-0.5978	-0.61976	0.5041
2.752	9.6159	-29004	2273.2	-0.59917	-0.61966	0.50332
2.754	9.5945	-29004	2273	-0.60053	-0.61956	0.50254
2.756	9.544	-29004	2272.9	-0.6019	-0.61947	0.50176
2.758	9.4911	-29004	2272.7	-0.60327	-0.61937	0.50098
2.76	9.4766	-29004	2272.5	-0.60463	-0.61927	0.5002
2.762	9.5252	-28994	2272.3	-0.60473	-0.62005	0.5003
2.764	9.5728	-28985	2272.1	-0.60483	-0.62083	0.5004
2.766	9.6087	-28981	2271.9	-0.60492	-0.62161	0.50049
2.768	9.6099	-28977	2271.7	-0.60502	-0.6224	0.50059
2.77	9.5841	-28976	2271.4	-0.60512	-0.62318	0.50069
2.772	9.5219	-28974	2271.2	-0.60658	-0.62279	0.5004
2.774	9.456	-28976	2270.9	-0.60805	-0.6224	0.5001
2.776	9.4311	-28978	2270.6	-0.60951	-0.622	0.49981
2.778	9.4622	-28974	2270.4	-0.61098	-0.62161	0.49952
2.78	9.5207	-28971	2270.1	-0.61244	-0.62122	0.49922
2.782	9.5778	-28969	2270	-0.61283	-0.62005	0.49835
2.784	9.6012	-28967	2269.8	-0.61322	-0.61888	0.49747
2.786	9.5639	-28954	2269.6	-0.61361	-0.61771	0.49659
2.788	9.5147	-28942	2269.5	-0.614	-0.61654	0.49571
2.79	9.466	-28943	2269.3	-0.61439	-0.61537	0.49483
2.792	9.424	-28944	2269.1	-0.61517	-0.61683	0.49581
2.794	9.4227	-28948	2268.8	-0.61595	-0.6183	0.49678
2.796	9.4619	-28952	2268.6	-0.61673	-0.61976	0.49776
2.798	9.5174	-28946	2268.4	-0.61752	-0.62122	0.49874
2.8	9.5546	-28940	2268.2	-0.6183	-0.62269	0.49971
2.802	9.5467	-28936	2268	-0.61527	-0.62288	0.50079
2.804	9.5035	-28933	2267.8	-0.61224	-0.62308	0.50186
2.806	9.4502	-28936	2267.6	-0.60922	-0.62327	0.50293
2.808	9.4023	-28940	2267.4	-0.60619	-0.62347	0.50401
2.81	9.3861	-28931	2267.2	-0.60317	-0.62366	0.50508
2.812	9.4152	-28922	2267.1	-0.60385	-0.62386	0.50547
2.814	9.4674	-28926	2266.9	-0.60453	-0.62405	0.50586
2.816	9.5212	-28930	2266.8	-0.60522	-0.62425	0.50625
2.818	9.5408	-28927	2266.7	-0.6059	-0.62444	0.50664
2.82	9.5029	-28925	2266.6	-0.60658	-0.62464	0.50703
2.822	9.4494	-28922	2266.5	-0.60639	-0.62435	0.50625
2.824	9.4108	-28920	2266.4	-0.60619	-0.62405	0.50547
2.826	9.3995	-28919	2266.3	-0.606	-0.62376	0.50469
2.828	9.4138	-28918	2266.2	-0.6058	-0.62347	0.50391
2.83	9.4636	-28920	2266.1	-0.60561	-0.62318	0.50313
2.832	9.5222	-28922	2266.1	-0.60434	-0.6224	0.50381
2.834	9.5421	-28920	2266	-0.60307	-0.62161	0.50449
2.836	9.5041	-28918	2266	-0.6018	-0.62083	0.50518
2.838	9.4626	-28918	2266.1	-0.60053	-0.62005	0.50586
2.84	9.4309	-28919	2266.2	-0.59926	-0.61927	0.50654
2.842	9.3952	-28911	2266.2	-0.60053	-0.62054	0.50684
2.844	9.3938	-28904	2266.1	-0.6018	-0.62181	0.50713
2.846	9.4293	-28909	2266	-0.60307	-0.62308	0.50742
2.848	9.4932	-28914	2265.9	-0.60434	-0.62435	0.50772
2.85	9.5353	-28909	2265.8	-0.60561	-0.62562	0.50801
2.852	9.5202	-28905	2265.6	-0.60571	-0.6262	0.50635
2.854	9.4726	-28907	2265.4	-0.6058	-0.62679	0.50469
2.856	9.4166	-28909	2265.3	-0.6059	-0.62737	0.50303
2.858	9.3686	-28905	2265.2	-0.606	-0.62796	0.50137
2.86	9.3744	-28901	2265.1	-0.6061	-0.62854	0.49971
2.862	9.4255	-28897	2265	-0.60629	-0.62825	0.49883
2.864	9.4746	-28892	2264.9	-0.60649	-0.62796	0.49796
2.866	9.5169	-28894	2264.7	-0.60668	-0.62767	0.49708
2.868	9.5345	-28895	2264.6	-0.60688	-0.62737	0.4962
2.87	9.5053	-28894	2264.4	-0.60707	-0.62708	0.49532
2.872	9.4546	-28893	2264.3	-0.60736	-0.62708	0.49532
2.874	9.4107	-28899	2264.2	-0.60766	-0.62708	0.49532
2.876	9.3847	-28905	2264.1	-0.60795	-0.62708	0.49532
2.878	9.3955	-28905	2263.9	-0.60824	-0.62708	0.49532
2.88	9.4426	-28906	2263.8	-0.60854	-0.62708	0.49532
2.882	9.4893	-28895	2263.8	-0.60893	-0.62698	0.49581
2.884	9.5139	-28884	2263.7	-0.60932	-0.62688	0.4963
2.886	9.5032	-28884	2263.7	-0.60971	-0.62679	0.49678
2.888	9.4581	-28885	2263.6	-0.6101	-0.62669	0.49727
2.89	9.4039	-28890	2263.5	-0.61049	-0.62659	0.49776
2.892	9.3706	-28895	2263.4	-0.60854	-0.62571	0.49932
2.894	9.3842	-28893	2263.3	-0.60658	-0.62484	0.50088
2.896	9.4326	-28891	2263.2	-0.60463	-0.62396	0.50244
2.898	9.4818	-28887	2263.1	-0.60268	-0.62308	0.50401
2.9	9.5194	-28883	2263	-0.60073	-0.6222	0.50557
2.902	9.5217	-28883	2263	-0.60063	-0.62152	0.50488
2.904	9.4817	-28883	2262.9	-0.60053	-0.62083	0.5042
2.906	9.4265	-28886	2262.9	-0.60044	-0.62015	0.50352
2.908	9.3773	-28890	2262.8	-0.60034	-0.61947	0.50284
2.91	9.365	-28889	2262.7	-0.60024	-0.61878	0.50215
2.912	9.3894	-28888	2262.6	-0.60161	-0.61986	0.50157
2.914	9.4528	-28880	2262.6	-0.60297	-0.62093	0.50098
2.916	9.5169	-28872	2262.5	-0.60434	-0.622	0.5004
2.918	9.5419	-28877	2262.4	-0.60571	-0.62308	0.49981
2.92	9.5064	-28882	2262.3	-0.60707	-0.62415	0.49922
2.922	9.4509	-28878	2262.2	-0.60815	-0.62337	0.49981
2.924	9.4028	-28874	2262.1	-0.60922	-0.62259	0.5004
2.926	9.3938	-28880	2262	-0.61029	-0.62181	0.50098
2.928	9.4129	-28886	2261.9	-0.61137	-0.62103	0.50157
2.93	9.4592	-28886	2261.8	-0.61244	-0.62025	0.50215
2.932	9.498	-28885	2261.7	-0.61176	-0.62054	0.50205
2.934	9.5348	-28886	2261.6	-0.61107	-0.62083	0.50196
2.936	9.5083	-28887	2261.5	-0.61039	-0.62113	0.50186
2.938	9.4577	-28893	2261.4	-0.60971	-0.62142	0.50176
2.94	9.4093	-28898	2261.3	-0.60902	-0.62171	0.50166
2.942	9.3752	-28889	2261.3	-0.60834	-0.622	0.50186
2.944	9.4029	-28880	2261.3	-0.60766	-0.6223	0.50205
2.946	9.4506	-28878	2261.3	-0.60697	-0.62259	0.50225
2.948	9.492	-28876	2261.3	-0.60629	-0.62288	0.50244
2.95	9.5189	-28877	2261.3	-0.60561	-0.62318	0.50264
2.952	9.5101	-28878	2261.3	-0.60619	-0.62405	0.50225
2.954	9.4698	-28882	2261.3	-0.60678	-0.62493	0.50186
2.956	9.4366	-28885	2261.3	-0.60736	-0.62581	0.50147
2.958	9.398	-28885	2261.3	-0.60795	-0.62669	0.50108
2.96	9.3838	-28886	2261.3	-0.60854	-0.62757	0.50069
2.962	9.4081	-28891	2261.3	-0.60844	-0.62698	0.50127
2.964	9.4518	-28896	2261.3	-0.60834	-0.6264	0.50186
2.966	9.5	-28896	2261.3	-0.60824	-0.62581	0.50244
2.968	9.5221	-28896	2261.3	-0.60815	-0.62523	0.50303
2.97	9.5036	-28891	2261.3	-0.60805	-0.62464	0.50362
2.972	9.4558	-28885	2261.3	-0.60844	-0.62523	0.50264
2.974	9.3995	-28885	2261.3	-0.60883	-0.62581	0.50166
2.976	9.3698	-28885	2261.3	-0.60922	-0.6264	0.50069
2.978	9.3853	-28882	2261.3	-0.60961	-0.62698	0.49971
2.98	9.4287	-28878	2261.3	-0.61	-0.62757	0.49874
2.982	9.4764	-28877	2261.2	-0.61	-0.62669	0.49961
2.984	9.5081	-28876	2261.2	-0.61	-0.62581	0.50049
2.986	9.5021	-28887	2261.2	-0.61	-0.62493	0.50137
2.988	9.4582	-28897	2261.1	-0.61	-0.62405	0.50225
2.99	9.4057	-28886	2261	-0.61	-0.62318	0.50313
2.992	9.3728	-28875	2261	-0.60795	-0.6224	0.50274
2.994	9.3801	-28879	2261	-0.6059	-0.62161	0.50235
2.996	9.4184	-28882	2261	-0.60385	-0.62083	0.50196
2.998	9.4593	-28886	2260.9	-0.6018	-0.62005	0.50157
3	9.5015	-28890	2260.9	-0.59975	-0.61927	0.50118
3.002	9.5052	-28887	2260.9	-0.59965	-0.61888	0.50118
3.004	9.4614	-28884	2260.9	-0.59956	-0.61849	0.50118
3.006	9.4198	-28887	2260.9	-0.59946	-0.6181	0.50118
3.008	9.3866	-28890	2261	-0.59936	-0.61771	0.50118
3.01	9.3792	-28885	2261	-0.59926	-0.61732	0.50118
3.012	9.4164	-28879	2261	-0.59936	-0.61791	0.50176
3.014	9.452	-28883	2261.1	-0.59946	-0.61849	0.50235
3.016	9.5018	-28886	2261.1	-0.59956	-0.61908	0.50293
3.018	9.5055	-28888	2261.1	-0.59965	-0.61966	0.50352
3.02	9.4633	-28889	2261.1	-0.59975	-0.62025	0.5041
3.022	9.4156	-28891	2261.2	-0.60073	-0.62035	0.50284
3.024	9.3667	-28892	2261.2	-0.6017	-0.62044	0.50157
3.026	9.3714	-28889	2261.3	-0.60268	-0.62054	0.5003
3.028	9.4032	-28886	2261.3	-0.60366	-0.62064	0.49903
3.03	9.4335	-28885	2261.3	-0.60463	-0.62074	0.49776
3.032	9.4738	-28883	2261.4	-0.60375	-0.62054	0.49913
3.034	9.4992	-28884	2261.4	-0.60288	-0.62035	0.50049
3.036	9.4902	-28884	2261.4	-0.602	-0.62015	0.50186
3.038	9.4437	-28887	2261.4	-0.60112	-0.61996	0.50323
3.04	9.3954	-28890	2261.4	-0.60024	-0.61976	0.50459
3.042	9.371	-28893	2261.4	-0.60151	-0.61986	0.50362
3.044	9.3746	-28897	2261.4	-0.60278	-0.61996	0.50264
3.046	9.4092	-28895	2261.4	-0.60405	-0.62005	0.50166
3.048	9.4592	-28893	2261.4	-0.60532	-0.62015	0.50069
3.05	9.4988	-28885	2261.4	-0.60658	-0.62025	0.49971
3.052	9.4973	-28877	2261.3	-0.606	-0.62064	0.5
3.054	9.4528	-28877	2261.2	-0.60541	-0.62103	0.5003
3.056	9.4058	-28877	2261.1	-0.60483	-0.62142	0.50059
3.058	9.3755	-28875	2261	-0.60424	-0.62181	0.50088
3.06	9.3694	-28874	2260.9	-0.60366	-0.6222	0.50118
3.062	9.3996	-28877	2260.8	-0.60444	-0.62259	0.50118
3.064	9.4467	-28880	2260.7	-0.60522	-0.62298	0.50118
3.066	9.4852	-28885	2260.6	-0.606	-0.62337	0.50118
3.068	9.5002	-28890	2260.5	-0.60678	-0.62376	0.50118
3.07	9.4776	-28888	2260.4	-0.60756	-0.62415	0.50118
3.072	9.4291	-28887	2260.3	-0.60697	-0.62396	0.50127
3.074	9.3845	-28887	2260.3	-0.60639	-0.62376	0.50137
3.076	9.3675	-28887	2260.2	-0.6058	-0.62357	0.50147
3.078	9.3824	-28886	2260.1	-0.60522	-0.62337	0.50157
3.08	9.4171	-28886	2260.1	-0.60463	-0.62318	0.50166
3.082	9.4664	-28885	2260	-0.60522	-0.62366	0.50196
3.084	9.5144	-28885	2259.9	-0.6058	-0.62415	0.50225
3.086	9.5134	-28885	2259.9	-0.60639	-0.62464	0.50254
3.088	9.4652	-28885	2259.8	-0.60697	-0.62513	0.50284
3.09	9.4054	-28882	2259.8	-0.60756	-0.62562	0.50313
3.092	9.366	-28880	2259.8	-0.60678	-0.62571	0.50254
3.094	9.371	-28886	2259.7	-0.606	-0.62581	0.50196
3.096	9.4177	-28892	2259.7	-0.60522	-0.62591	0.50137
3.098	9.4604	-28886	2259.7	-0.60444	-0.62601	0.50079
3.1	9.4973	-28880	2259.6	-0.60366	-0.6261	0.5002
3.102	9.4948	-28883	2259.5	-0.60551	-0.62552	0.50098
3.104	9.447	-28885	2259.5	-0.60736	-0.62493	0.50176
3.106	9.4089	-28883	2259.4	-0.60922	-0.62435	0.50254
3.108	9.37	-28881	2259.4	-0.61107	-0.62376	0.50332
3.11	9.3525	-28887	2259.3	-0.61293	-0.62318	0.5041
3.112	9.385	-28892	2259.2	-0.61264	-0.62308	0.50264
3.114	9.4392	-28890	2259.2	-0.61234	-0.62298	0.50118
3.116	9.4835	-28887	2259.1	-0.61205	-0.62288	0.49971
3.118	9.5006	-28881	2259	-0.61176	-0.62279	0.49825
3.12	9.4841	-28875	2258.9	-0.61146	-0.62269	0.49678
3.122	9.4273	-28880	2258.8	-0.61049	-0.62337	0.49756
3.124	9.3754	-28885	2258.7	-0.60951	-0.62405	0.49835
3.126	9.3519	-28889	2258.6	-0.60854	-0.62474	0.49913
3.128	9.3643	-28892	2258.5	-0.60756	-0.62542	0.49991
3.13	9.4004	-28894	2258.4	-0.60658	-0.6261	0.50069
3.132	9.4402	-28895	2258.3	-0.6061	-0.62542	0.50147
3.134	9.4802	-28894	2258.3	-0.60561	-0.62474	0.50225
3.136	9.4904	-28893	2258.2	-0.60512	-0.62405	0.50303
3.138	9.4488	-28895	2258.1	-0.60463	-0.62337	0.50381
3.14	9.3797	-28896	2258	-0.60414	-0.62269	0.50459
3.142	9.3455	-28900	2257.9	-0.60424	-0.62191	0.50381
3.144	9.3635	-28904	2257.8	-0.60434	-0.62113	0.50303
3.146	9.4154	-28904	2257.7	-0.60444	-0.62035	0.50225
3.148	9.469	-28903	2257.6	-0.60453	-0.61956	0.50147
3.15	9.4969	-28898	2257.6	-0.60463	-0.61878	0.50069
3.152	9.4903	-28892	2257.5	-0.60405	-0.61917	0.50137
3.154	9.4479	-28899	2257.4	-0.60346	-0.61956	0.50205
3.156	9.3929	-28906	2257.3	-0.60288	-0.61996	0.50274
3.158	9.3532	-28905	2257.3	-0.60229	-0.62035	0.50342
3.16	9.3451	-28904	2257.2	-0.6017	-0.62074	0.5041
3.162	9.377	-28902	2257.1	-0.60288	-0.62142	0.50352
3.164	9.43	-28900	2257.1	-0.60405	-0.6221	0.50293
3.166	9.4721	-28900	2257	-0.60522	-0.62279	0.50235
3.168	9.4885	-28901	2256.9	-0.60639	-0.62347	0.50176
3.17	9.4689	-28901	2256.8	-0.60756	-0.62415	0.50118
3.172	9.4244	-28901	2256.7	-0.60658	-0.62347	0.50157
3.174	9.3728	-28901	2256.6	-0.60561	-0.62279	0.50196
3.176	9.3489	-28902	2256.5	-0.60463	-0.6221	0.50235
3.178	9.3744	-28898	2256.5	-0.60366	-0.62142	0.50274
3.18	9.4205	-28894	2256.4	-0.60268	-0.62074	0.50313
3.182	9.4721	-28898	2256.4	-0.60248	-0.62025	0.50293
3.184	9.5104	-28903	2256.3	-0.60229	-0.61976	0.50274
3.186	9.4962	-28904	2256.3	-0.60209	-0.61927	0.50254
3.188	9.4313	-28905	2256.3	-0.6019	-0.61878	0.50235
3.19	9.3756	-28905	2256.3	-0.6017	-0.6183	0.50215
3.192	9.3496	-28905	2256.2	-0.60151	-0.61869	0.50235
3.194	9.3543	-28908	2256.2	-0.60131	-0.61908	0.50254
3.196	9.4056	-28910	2256.2	-0.60112	-0.61947	0.50274
3.198	9.4635	-28907	2256.2	-0.60092	-0.61986	0.50293
3.2	9.4919	-28904	2256.2	-0.60073	-0.62025	0.50313
3.202	9.4945	-28902	2256.2	-0.60053	-0.62025	0.50293
3.204	9.4714	-28900	2256.2	-0.60034	-0.62025	0.50274
3.206	9.4381	-28900	2256.2	-0.60014	-0.62025	0.50254
3.208	9.3976	-28900	2256.2	-0.59995	-0.62025	0.50235
3.21	9.3779	-28904	2256.1	-0.59975	-0.62025	0.50215
3.212	9.4052	-28907	2256.1	-0.60024	-0.62035	0.50196
3.214	9.4555	-28909	2256	-0.60073	-0.62044	0.50176
3.216	9.4979	-28910	2256	-0.60122	-0.62054	0.50157
3.218	9.5185	-28910	2255.9	-0.6017	-0.62064	0.50137
3.22	9.4984	-28910	2255.9	-0.60219	-0.62074	0.50118
3.222	9.4471	-28910	2255.8	-0.60161	-0.62093	0.50225
3.224	9.3949	-28909	2255.8	-0.60102	-0.62113	0.50332
3.226	9.3751	-28912	2255.7	-0.60044	-0.62132	0.5044
3.228	9.3964	-28914	2255.7	-0.59985	-0.62152	0.50547
3.23	9.4443	-28915	2255.7	-0.59926	-0.62171	0.50654
3.232	9.497	-28915	2255.7	-0.59926	-0.62122	0.50557
3.234	9.5277	-28916	2255.7	-0.59926	-0.62074	0.50459
3.236	9.5232	-28917	2255.7	-0.59926	-0.62025	0.50362
3.238	9.4872	-28918	2255.7	-0.59926	-0.61976	0.50264
3.24	9.4267	-28918	2255.7	-0.59926	-0.61927	0.50166
3.242	9.3694	-28918	2255.7	-0.60112	-0.62044	0.50166
3.244	9.3601	-28918	2255.8	-0.60297	-0.62161	0.50166
3.246	9.4004	-28916	2255.8	-0.60483	-0.62279	0.50166
3.248	9.4536	-28914	2255.9	-0.60668	-0.62396	0.50166
3.25	9.5084	-28915	2255.9	-0.60854	-0.62513	0.50166
3.252	9.5317	-28916	2255.9	-0.60707	-0.62386	0.50166
3.254	9.5051	-28921	2255.9	-0.60561	-0.62259	0.50166
3.256	9.4477	-28925	2255.9	-0.60414	-0.62132	0.50166
3.258	9.3869	-28923	2255.9	-0.60268	-0.62005	0.50166
3.26	9.3623	-28920	2255.9	-0.60122	-0.61878	0.50166
3.262	9.3962	-28919	2256	-0.60151	-0.61996	0.50205
3.264	9.4385	-28918	2256	-0.6018	-0.62113	0.50244
3.266	9.4826	-28918	2256	-0.60209	-0.6223	0.50284
3.268	9.5034	-28918	2256	-0.60239	-0.62347	0.50323
3.27	9.4672	-28922	2256	-0.60268	-0.62464	0.50362
3.272	9.4079	-28926	2256	-0.60297	-0.62435	0.50371
3.274	9.3522	-28924	2256	-0.60327	-0.62405	0.50381
3.276	9.3258	-28922	2255.9	-0.60356	-0.62376	0.50391
3.278	9.3483	-28920	2255.9	-0.60385	-0.62347	0.50401
3.28	9.3963	-28918	2255.9	-0.60414	-0.62318	0.5041
3.282	9.4462	-28921	2255.8	-0.60385	-0.6224	0.50391
3.284	9.4855	-28925	2255.8	-0.60356	-0.62161	0.50371
3.286	9.4726	-28926	2255.7	-0.60327	-0.62083	0.50352
3.288	9.4386	-28927	2255.7	-0.60297	-0.62005	0.50332
3.29	9.3971	-28931	2255.6	-0.60268	-0.61927	0.50313
3.292	9.361	-28934	2255.6	-0.60336	-0.61956	0.50244
3.294	9.3448	-28936	2255.6	-0.60405	-0.61986	0.50176
3.296	9.3693	-28937	2255.6	-0.60473	-0.62015	0.50108
3.298	9.4227	-28935	2255.6	-0.60541	-0.62044	0.5004
3.3	9.4673	-28933	2255.6	-0.6061	-0.62074	0.49971
3.302	9.468	-28933	2255.6	-0.60473	-0.62035	0.5003
3.304	9.4366	-28932	2255.6	-0.60336	-0.61996	0.50088
3.306	9.3836	-28936	2255.6	-0.602	-0.61956	0.50147
3.308	9.3348	-28939	2255.6	-0.60063	-0.61917	0.50205
3.31	9.3455	-28938	2255.7	-0.59926	-0.61878	0.50264
3.312	9.4031	-28937	2255.6	-0.59965	-0.61839	0.50244
3.314	9.4488	-28937	2255.6	-0.60004	-0.618	0.50225
3.316	9.4739	-28938	2255.6	-0.60044	-0.61761	0.50205
3.318	9.4833	-28941	2255.6	-0.60083	-0.61722	0.50186
3.32	9.4625	-28944	2255.7	-0.60122	-0.61683	0.50166
3.322	9.4152	-28944	2255.6	-0.60073	-0.61761	0.50215
3.324	9.3673	-28945	2255.6	-0.60024	-0.61839	0.50264
3.326	9.3475	-28946	2255.5	-0.59975	-0.61917	0.50313
3.328	9.3669	-28948	2255.5	-0.59926	-0.61996	0.50362
3.33	9.4084	-28951	2255.5	-0.59878	-0.62074	0.5041
3.332	9.4498	-28954	2255.5	-0.59897	-0.62064	0.50391
3.334	9.477	-28953	2255.5	-0.59917	-0.62054	0.50371
3.336	9.4703	-28952	2255.5	-0.59936	-0.62044	0.50352
3.338	9.4349	-28952	2255.5	-0.59956	-0.62035	0.50332
3.34	9.3958	-28951	2255.6	-0.59975	-0.62025	0.50313
3.342	9.3874	-28954	2255.5	-0.59946	-0.62015	0.50313
3.344	9.4113	-28957	2255.5	-0.59917	-0.62005	0.50313
3.346	9.4431	-28955	2255.5	-0.59887	-0.61996	0.50313
3.348	9.5061	-28953	2255.5	-0.59858	-0.61986	0.50313
3.35	9.5757	-28953	2255.5	-0.59829	-0.61976	0.50313
3.352	9.5791	-28953	2255.5	-0.59878	-0.62015	0.50342
3.354	9.5204	-28958	2255.5	-0.59926	-0.62054	0.50371
3.356	9.4395	-28963	2255.5	-0.59975	-0.62093	0.50401
3.358	9.377	-28961	2255.5	-0.60024	-0.62132	0.5043
3.36	9.3359	-28958	2255.5	-0.60073	-0.62171	0.50459
3.362	9.3303	-28955	2255.5	-0.60092	-0.62152	0.50488
3.364	9.3506	-28953	2255.5	-0.60112	-0.62132	0.50518
3.366	9.3776	-28954	2255.5	-0.60131	-0.62113	0.50547
3.368	9.3767	-28954	2255.5	-0.60151	-0.62093	0.50576
3.37	9.3323	-28960	2255.5	-0.6017	-0.62074	0.50606
3.372	9.2734	-28966	2255.5	-0.60131	-0.62054	0.50606
3.374	9.2255	-28963	2255.5	-0.60092	-0.62035	0.50606
3.376	9.2295	-28959	2255.5	-0.60053	-0.62015	0.50606
3.378	9.2725	-28963	2255.5	-0.60014	-0.61996	0.50606
3.38	9.3473	-28968	2255.5	-0.59975	-0.61976	0.50606
3.382	9.4186	-28969	2255.5	-0.60112	-0.62005	0.50528
3.384	9.4517	-28971	2255.5	-0.60248	-0.62035	0.50449
3.386	9.4361	-28976	2255.5	-0.60385	-0.62064	0.50371
3.388	9.4013	-28981	2255.4	-0.60522	-0.62093	0.50293
3.39	9.366	-28982	2255.3	-0.60658	-0.62122	0.50215
3.392	9.3431	-28983	2255.3	-0.606	-0.62103	0.50225
3.394	9.342	-28981	2255.2	-0.60541	-0.62083	0.50235
3.396	9.3742	-28979	2255.2	-0.60483	-0.62064	0.50244
3.398	9.4297	-28981	2255.1	-0.60424	-0.62044	0.50254
3.4	9.4783	-28983	2255.1	-0.60366	-0.62025	0.50264
3.402	9.4853	-28985	2255	-0.60395	-0.61986	0.50225
3.404	9.4499	-28988	2255	-0.60424	-0.61947	0.50186
3.406	9.3993	-28986	2255	-0.60453	-0.61908	0.50147
3.408	9.3518	-28984	2255	-0.60483	-0.61869	0.50108
3.41	9.3379	-28987	2255	-0.60512	-0.6183	0.50069
3.412	9.3678	-28991	2255	-0.60649	-0.61927	0.50049
3.414	9.408	-28989	2255.1	-0.60785	-0.62025	0.5003
3.416	9.4452	-28987	2255.1	-0.60922	-0.62122	0.5001
3.418	9.4617	-28989	2255.1	-0.61059	-0.6222	0.49991
3.42	9.4398	-28990	2255.1	-0.61195	-0.62318	0.49971
3.422	9.3872	-28993	2255.1	-0.61078	-0.62327	0.5001
3.424	9.3447	-28995	2255.1	-0.60961	-0.62337	0.50049
3.426	9.3323	-28994	2255.1	-0.60844	-0.62347	0.50088
3.428	9.356	-28992	2255.1	-0.60727	-0.62357	0.50127
3.43	9.414	-28992	2255.1	-0.6061	-0.62366	0.50166
3.432	9.4683	-28992	2255	-0.6058	-0.62444	0.50176
3.434	9.4844	-28994	2255	-0.60551	-0.62523	0.50186
3.436	9.4731	-28997	2255	-0.60522	-0.62601	0.50196
3.438	9.4353	-29000	2255	-0.60492	-0.62679	0.50205
3.44	9.4193	-29003	2254.9	-0.60463	-0.62757	0.50215
3.442	9.3527	-29002	2254.9	-0.60375	-0.6261	0.50274
3.444	9.3238	-29002	2254.8	-0.60288	-0.62464	0.50332
3.446	9.3747	-29002	2254.8	-0.602	-0.62318	0.50391
3.448	9.4344	-29002	2254.8	-0.60112	-0.62171	0.50449
3.45	9.4697	-29002	2254.7	-0.60024	-0.62025	0.50508
3.452	9.4664	-29002	2254.7	-0.60073	-0.62044	0.50469
3.454	9.4335	-28999	2254.7	-0.60122	-0.62064	0.5043
3.456	9.392	-28996	2254.6	-0.6017	-0.62083	0.50391
3.458	9.35	-29001	2254.5	-0.60219	-0.62103	0.50352
3.46	9.3356	-29005	2254.5	-0.60268	-0.62122	0.50313
3.462	9.3721	-29003	2254.5	-0.60219	-0.62035	0.50264
3.464	9.4253	-29000	2254.5	-0.6017	-0.61947	0.50215
3.466	9.4674	-29005	2254.4	-0.60122	-0.61859	0.50166
3.468	9.4869	-29010	2254.3	-0.60073	-0.61771	0.50118
3.47	9.4616	-29011	2254.3	-0.60024	-0.61683	0.50069
3.472	9.4052	-29012	2254.2	-0.59965	-0.61703	0.50118
3.474	9.3568	-29000	2254.2	-0.59907	-0.61722	0.50166
3.476	9.3355	-28989	2254.2	-0.59848	-0.61742	0.50215
3.478	9.3597	-28986	2254.2	-0.5979	-0.61761	0.50264
3.48	9.4071	-28984	2254.3	-0.59731	-0.61781	0.50313
3.482	9.4547	-28985	2254.2	-0.59721	-0.6183	0.50342
3.484	9.4907	-28985	2254.2	-0.59712	-0.61878	0.50371
3.486	9.4879	-28987	2254.2	-0.59702	-0.61927	0.50401
3.488	9.4449	-28989	2254.2	-0.59692	-0.61976	0.5043
3.49	9.3895	-28996	2254.3	-0.59682	-0.62025	0.50459
3.492	9.3458	-29003	2254.3	-0.59712	-0.61986	0.50498
3.494	9.3386	-28997	2254.3	-0.59741	-0.61947	0.50537
3.496	9.3815	-28991	2254.4	-0.5977	-0.61908	0.50576
3.498	9.4459	-28993	2254.5	-0.598	-0.61869	0.50615
3.5	9.4892	-28994	2254.5	-0.59829	-0.6183	0.50654
3.502	9.4904	-28992	2254.8	-0.59907	-0.61947	0.50557
3.504	9.448	-28990	2255	-0.59985	-0.62064	0.50459
3.506	9.3968	-28995	2255.4	-0.60063	-0.62181	0.50362
3.508	9.3479	-29000	2255.7	-0.60141	-0.62298	0.50264
3.51	9.3378	-29001	2256.1	-0.60219	-0.62415	0.50166
3.512	9.3782	-29002	2256.7	-0.60219	-0.62425	0.50215
3.514	9.4158	-29002	2257.2	-0.60219	-0.62435	0.50264
3.516	9.4507	-29003	2257.7	-0.60219	-0.62444	0.50313
3.518	9.4733	-29001	2258.4	-0.60219	-0.62454	0.50362
3.52	9.428	-28998	2259	-0.60219	-0.62464	0.5041
3.522	9.3913	-28998	2259.7	-0.60375	-0.62513	0.50342
3.524	9.3816	-28997	2260.3	-0.60532	-0.62562	0.50274
3.526	9.3768	-29001	2261	-0.60688	-0.6261	0.50205
3.528	9.395	-29004	2261.6	-0.60844	-0.62659	0.50137
3.53	9.4291	-29003	2262.3	-0.61	-0.62708	0.50069
3.532	9.4725	-29001	2262.8	-0.60873	-0.62669	0.50118
3.534	9.5208	-29003	2263.4	-0.60746	-0.6263	0.50166
3.536	9.5133	-29005	2263.9	-0.60619	-0.62591	0.50215
3.538	9.4728	-29000	2264.4	-0.60492	-0.62552	0.50264
3.54	9.4089	-28995	2264.9	-0.60366	-0.62513	0.50313
3.542	9.3755	-28999	2265.5	-0.60346	-0.62396	0.50352
3.544	9.3799	-29002	2266.1	-0.60327	-0.62279	0.50391
3.546	9.4172	-29005	2266.7	-0.60307	-0.62161	0.5043
3.548	9.4749	-29007	2267.3	-0.60288	-0.62044	0.50469
3.55	9.5163	-29003	2267.9	-0.60268	-0.61927	0.50508
3.552	9.5154	-29000	2268.4	-0.60239	-0.61917	0.50459
3.554	9.4937	-28997	2269	-0.60209	-0.61908	0.5041
3.556	9.444	-28994	2269.6	-0.6018	-0.61898	0.50362
3.558	9.392	-28996	2270.1	-0.60151	-0.61888	0.50313
3.56	9.3841	-28999	2270.7	-0.60122	-0.61878	0.50264
3.562	9.4161	-28997	2271.2	-0.60161	-0.61878	0.50254
3.564	9.4629	-28995	2271.7	-0.602	-0.61878	0.50244
3.566	9.5091	-28985	2272.2	-0.60239	-0.61878	0.50235
3.568	9.5226	-28975	2272.7	-0.60278	-0.61878	0.50225
3.57	9.4925	-28969	2273.2	-0.60317	-0.61878	0.50215
3.572	9.4462	-28963	2273.6	-0.60307	-0.61888	0.50137
3.574	9.4055	-28965	2274	-0.60297	-0.61898	0.50059
3.576	9.3878	-28967	2274.4	-0.60288	-0.61908	0.49981
3.578	9.4084	-28969	2274.7	-0.60278	-0.61917	0.49903
3.58	9.4546	-28972	2275	-0.60268	-0.61927	0.49825
3.582	9.5055	-28964	2275.2	-0.60297	-0.61908	0.49854
3.584	9.5455	-28956	2275.5	-0.60327	-0.61888	0.49883
3.586	9.5459	-28954	2275.6	-0.60356	-0.61869	0.49913
3.588	9.5011	-28953	2275.8	-0.60385	-0.61849	0.49942
3.59	9.4468	-28946	2276	-0.60414	-0.6183	0.49971
3.592	9.4058	-28938	2276.1	-0.60336	-0.6183	0.50049
3.594	9.3921	-28932	2276.2	-0.60258	-0.6183	0.50127
3.596	9.4434	-28925	2276.2	-0.6018	-0.6183	0.50205
3.598	9.5005	-28926	2276.3	-0.60102	-0.6183	0.50284
3.6	9.5474	-28928	2276.3	-0.60024	-0.6183	0.50362
3.602	9.5594	-28925	2276.3	-0.59995	-0.6183	0.50323
3.604	9.5211	-28922	2276.3	-0.59965	-0.6183	0.50284
3.606	9.453	-28915	2276.2	-0.59936	-0.6183	0.50244
3.608	9.4023	-28908	2276.1	-0.59907	-0.6183	0.50205
3.61	9.3841	-28910	2276	-0.59878	-0.6183	0.50166
3.612	9.4066	-28911	2276	-0.59868	-0.61869	0.50244
3.614	9.4522	-28902	2275.9	-0.59858	-0.61908	0.50323
3.616	9.4862	-28894	2275.8	-0.59848	-0.61947	0.50401
3.618	9.5092	-28893	2275.7	-0.59839	-0.61986	0.50479
3.62	9.506	-28893	2275.6	-0.59829	-0.62025	0.50557
3.622	9.4731	-28887	2275.4	-0.59819	-0.62054	0.50518
3.624	9.4356	-28880	2275.2	-0.59809	-0.62083	0.50479
3.626	9.4174	-28879	2275.1	-0.598	-0.62113	0.5044
3.628	9.4297	-28877	2274.9	-0.5979	-0.62142	0.50401
3.63	9.4631	-28874	2274.8	-0.5978	-0.62171	0.50362
3.632	9.4948	-28871	2274.6	-0.59839	-0.62122	0.50371
3.634	9.5231	-28865	2274.5	-0.59897	-0.62074	0.50381
3.636	9.5046	-28860	2274.3	-0.59956	-0.62025	0.50391
3.638	9.4681	-28854	2274	-0.60014	-0.61976	0.50401
3.64	9.4178	-28848	2273.8	-0.60073	-0.61927	0.5041
3.642	9.3814	-28847	2273.6	-0.60092	-0.61888	0.5041
3.644	9.378	-28847	2273.4	-0.60112	-0.61849	0.5041
3.646	9.4047	-28850	2273.2	-0.60131	-0.6181	0.5041
3.648	9.4489	-28852	2273	-0.60151	-0.61771	0.5041
3.65	9.4994	-28841	2272.8	-0.6017	-0.61732	0.5041
3.652	9.5063	-28830	2272.5	-0.60209	-0.61849	0.50401
3.654	9.4591	-28826	2272.2	-0.60248	-0.61966	0.50391
3.656	9.3968	-28823	2272	-0.60288	-0.62083	0.50381
3.658	9.352	-28829	2271.7	-0.60327	-0.622	0.50371
3.66	9.3425	-28835	2271.4	-0.60366	-0.62318	0.50362
3.662	9.3679	-28830	2271.1	-0.60336	-0.62249	0.50371
3.664	9.4098	-28824	2270.9	-0.60307	-0.62181	0.50381
3.666	9.4558	-28824	2270.6	-0.60278	-0.62113	0.50391
3.668	9.4866	-28823	2270.4	-0.60248	-0.62044	0.50401
3.67	9.4702	-28815	2270.2	-0.60219	-0.61976	0.5041
3.672	9.4142	-28808	2270	-0.6018	-0.61888	0.50381
3.674	9.3565	-28808	2269.9	-0.60141	-0.618	0.50352
3.676	9.3291	-28807	2269.7	-0.60102	-0.61712	0.50323
3.678	9.3376	-28809	2269.5	-0.60063	-0.61625	0.50293
3.68	9.3815	-28811	2269.4	-0.60024	-0.61537	0.50264
3.682	9.4333	-28813	2269.4	-0.60092	-0.61595	0.50235
3.684	9.4684	-28814	2269.3	-0.60161	-0.61654	0.50205
3.686	9.4601	-28813	2269.3	-0.60229	-0.61712	0.50176
3.688	9.4183	-28812	2269.3	-0.60297	-0.61771	0.50147
3.69	9.362	-28810	2269.4	-0.60366	-0.6183	0.50118
3.692	9.3138	-28809	2269.4	-0.60366	-0.6183	0.50166
3.694	9.3072	-28806	2269.4	-0.60366	-0.6183	0.50215
3.696	9.3504	-28803	2269.5	-0.60366	-0.6183	0.50264
3.698	9.4134	-28801	2269.6	-0.60366	-0.6183	0.50313
3.7	9.4519	-28798	2269.7	-0.60366	-0.6183	0.50362
3.702	9.455	-28796	2269.8	-0.60395	-0.61976	0.50332
3.704	9.4185	-28793	2269.8	-0.60424	-0.62122	0.50303
3.706	9.3693	-28790	2269.9	-0.60453	-0.62269	0.50274
3.708	9.3302	-28787	2269.9	-0.60483	-0.62415	0.50244
3.71	9.3108	-28786	2270	-0.60512	-0.62562	0.50215
3.712	9.335	-28786	2270	-0.60463	-0.62523	0.50254
3.714	9.378	-28784	2270	-0.60414	-0.62484	0.50293
3.716	9.4378	-28783	2270	-0.60366	-0.62444	0.50332
3.718	9.4618	-28779	2270	-0.60317	-0.62405	0.50371
3.72	9.4199	-28776	2270	-0.60268	-0.62366	0.5041
3.722	9.3704	-28778	2270	-0.6019	-0.62288	0.5044
3.724	9.3191	-28781	2270	-0.60112	-0.6221	0.50469
3.726	9.2834	-28782	2270	-0.60034	-0.62132	0.50498
3.728	9.306	-28784	2269.9	-0.59956	-0.62054	0.50528
3.73	9.3799	-28780	2269.9	-0.59878	-0.61976	0.50557
3.732	9.4459	-28777	2269.8	-0.59848	-0.62025	0.50547
3.734	9.4826	-28777	2269.7	-0.59819	-0.62074	0.50537
3.736	9.4699	-28777	2269.6	-0.5979	-0.62122	0.50528
3.738	9.4117	-28771	2269.6	-0.5976	-0.62171	0.50518
3.74	9.3414	-28766	2269.5	-0.59731	-0.6222	0.50508
3.742	9.3007	-28764	2269.4	-0.59731	-0.62152	0.50469
3.744	9.3182	-28762	2269.3	-0.59731	-0.62083	0.5043
3.746	9.3674	-28759	2269.2	-0.59731	-0.62015	0.50391
3.748	9.4138	-28756	2269	-0.59731	-0.61947	0.50352
3.75	9.4546	-28762	2268.8	-0.59731	-0.61878	0.50313
3.752	9.4649	-28768	2268.7	-0.5979	-0.618	0.50264
3.754	9.4273	-28771	2268.5	-0.59848	-0.61722	0.50215
3.756	9.3764	-28773	2268.3	-0.59907	-0.61644	0.50166
3.758	9.3373	-28767	2268.2	-0.59965	-0.61566	0.50118
3.76	9.3218	-28761	2268	-0.60024	-0.61488	0.50069
3.762	9.3494	-28758	2267.9	-0.59985	-0.61508	0.50118
3.764	9.3994	-28755	2267.7	-0.59946	-0.61527	0.50166
3.766	9.436	-28753	2267.6	-0.59907	-0.61547	0.50215
3.768	9.4502	-28752	2267.5	-0.59868	-0.61566	0.50264
3.77	9.4331	-28754	2267.3	-0.59829	-0.61586	0.50313
3.772	9.3875	-28756	2267.2	-0.60004	-0.61673	0.50284
3.774	9.3388	-28753	2267.1	-0.6018	-0.61761	0.50254
3.776	9.3081	-28750	2267	-0.60356	-0.61849	0.50225
3.778	9.333	-28752	2266.9	-0.60532	-0.61937	0.50196
3.78	9.3926	-28754	2266.7	-0.60707	-0.62025	0.50166
3.782	9.4434	-28751	2266.6	-0.60746	-0.62064	0.50088
3.784	9.4646	-28748	2266.5	-0.60785	-0.62103	0.5001
3.786	9.459	-28746	2266.3	-0.60824	-0.62142	0.49932
3.788	9.4127	-28744	2266.2	-0.60863	-0.62181	0.49854
3.79	9.3569	-28751	2266.1	-0.60902	-0.6222	0.49776
3.792	9.3075	-28757	2266	-0.60756	-0.62161	0.49922
3.794	9.31	-28757	2265.9	-0.6061	-0.62103	0.50069
3.796	9.3506	-28756	2265.8	-0.60463	-0.62044	0.50215
3.798	9.4096	-28757	2265.7	-0.60317	-0.61986	0.50362
3.8	9.4532	-28759	2265.7	-0.6017	-0.61927	0.50508
3.802	9.4619	-28760	2265.6	-0.6019	-0.61996	0.50479
3.804	9.4338	-28762	2265.5	-0.60209	-0.62064	0.50449
3.806	9.3796	-28758	2265.4	-0.60229	-0.62132	0.5042
3.808	9.3255	-28753	2265.3	-0.60248	-0.622	0.50391
3.81	9.3083	-28753	2265.2	-0.60268	-0.62269	0.50362
3.812	9.341	-28753	2265.1	-0.60307	-0.62249	0.5043
3.814	9.3941	-28758	2265	-0.60346	-0.6223	0.50498
3.816	9.4406	-28763	2264.9	-0.60385	-0.6221	0.50567
3.818	9.4585	-28757	2264.8	-0.60424	-0.62191	0.50635
3.82	9.4354	-28751	2264.6	-0.60463	-0.62171	0.50703
3.822	9.384	-28754	2264.4	-0.60561	-0.62103	0.50615
3.824	9.3341	-28757	2264.3	-0.60658	-0.62035	0.50528
3.826	9.3123	-28754	2264.1	-0.60756	-0.61966	0.5044
3.828	9.3389	-28751	2264.1	-0.60854	-0.61898	0.50352
3.83	9.3884	-28753	2264	-0.60951	-0.6183	0.50264
3.832	9.4238	-28755	2264	-0.60834	-0.61917	0.50332
3.834	9.4284	-28754	2263.9	-0.60717	-0.62005	0.50401
3.836	9.4029	-28753	2263.9	-0.606	-0.62093	0.50469
3.838	9.378	-28757	2263.9	-0.60483	-0.62181	0.50537
3.84	9.365	-28761	2264	-0.60366	-0.62269	0.50606
3.842	9.3476	-28761	2263.9	-0.60356	-0.62308	0.50547
3.844	9.3355	-28761	2263.9	-0.60346	-0.62347	0.50488
3.846	9.3623	-28761	2263.9	-0.60336	-0.62386	0.5043
3.848	9.4083	-28760	2263.8	-0.60327	-0.62425	0.50371
3.85	9.4459	-28760	2263.8	-0.60317	-0.62464	0.50313
3.852	9.4556	-28761	2263.8	-0.60288	-0.62425	0.50381
3.854	9.4296	-28762	2263.8	-0.60258	-0.62386	0.50449
3.856	9.3786	-28764	2263.8	-0.60229	-0.62347	0.50518
3.858	9.3207	-28764	2263.7	-0.602	-0.62308	0.50586
3.86	9.3003	-28765	2263.7	-0.6017	-0.62269	0.50654
3.862	9.3395	-28761	2263.6	-0.60112	-0.62132	0.50528
3.864	9.3932	-28758	2263.4	-0.60053	-0.61996	0.50401
3.866	9.4401	-28756	2263.4	-0.59995	-0.61859	0.50274
3.868	9.4616	-28753	2263.3	-0.59936	-0.61722	0.50147
3.87	9.439	-28752	2263.3	-0.59878	-0.61586	0.5002
3.872	9.3993	-28750	2263.2	-0.59858	-0.61615	0.50059
3.874	9.3421	-28751	2263.1	-0.59839	-0.61644	0.50098
3.876	9.3062	-28752	2263.1	-0.59819	-0.61673	0.50137
3.878	9.3189	-28752	2263	-0.598	-0.61703	0.50176
3.88	9.3564	-28752	2262.9	-0.5978	-0.61732	0.50215
3.882	9.4005	-28750	2262.9	-0.59907	-0.618	0.50215
3.884	9.443	-28748	2262.9	-0.60034	-0.61869	0.50215
3.886	9.4596	-28749	2262.9	-0.60161	-0.61937	0.50215
3.888	9.4038	-28751	2262.9	-0.60288	-0.62005	0.50215
3.89	9.3397	-28753	2262.9	-0.60414	-0.62074	0.50215
3.892	9.309	-28754	2262.9	-0.60327	-0.61947	0.50166
3.894	9.3049	-28753	2262.9	-0.60239	-0.6182	0.50118
3.896	9.3407	-28752	2262.9	-0.60151	-0.61693	0.50069
3.898	9.3992	-28752	2262.9	-0.60063	-0.61566	0.5002
3.9	9.4414	-28753	2262.9	-0.59975	-0.61439	0.49971
3.902	9.4432	-28755	2262.9	-0.60034	-0.61605	0.50049
3.904	9.4078	-28757	2263	-0.60092	-0.61771	0.50127
3.906	9.3558	-28753	2262.9	-0.60151	-0.61937	0.50205
3.908	9.3151	-28749	2262.9	-0.60209	-0.62103	0.50284
3.91	9.3042	-28748	2262.8	-0.60268	-0.62269	0.50362
3.912	9.3305	-28747	2262.8	-0.60258	-0.62279	0.50391
3.914	9.3827	-28746	2262.7	-0.60248	-0.62288	0.5042
3.916	9.4288	-28746	2262.6	-0.60239	-0.62298	0.50449
3.918	9.4401	-28746	2262.5	-0.60229	-0.62308	0.50479
3.92	9.4124	-28745	2262.4	-0.60219	-0.62318	0.50508
3.922	9.3633	-28745	2262.2	-0.60336	-0.6223	0.5041
3.924	9.3176	-28746	2261.9	-0.60453	-0.62142	0.50313
3.926	9.2932	-28747	2261.7	-0.60571	-0.62054	0.50215
3.928	9.304	-28747	2261.6	-0.60688	-0.61966	0.50118
3.93	9.3572	-28747	2261.4	-0.60805	-0.61878	0.5002
3.932	9.4183	-28746	2261.2	-0.60756	-0.61956	0.50166
3.934	9.4443	-28747	2261	-0.60707	-0.62035	0.50313
3.936	9.4209	-28748	2260.8	-0.60658	-0.62113	0.50459
3.938	9.3693	-28750	2260.7	-0.6061	-0.62191	0.50606
3.94	9.3206	-28752	2260.6	-0.60561	-0.62269	0.50752
3.942	9.2905	-28751	2260.4	-0.60502	-0.6222	0.50684
3.944	9.3059	-28749	2260.2	-0.60444	-0.62171	0.50615
3.946	9.3593	-28751	2260	-0.60385	-0.62122	0.50547
3.948	9.4214	-28752	2259.8	-0.60327	-0.62074	0.50479
3.95	9.4675	-28754	2259.6	-0.60268	-0.62025	0.5041
3.952	9.4726	-28756	2259.4	-0.60366	-0.62025	0.5044
3.954	9.4255	-28752	2259.2	-0.60463	-0.62025	0.50469
3.956	9.359	-28748	2259	-0.60561	-0.62025	0.50498
3.958	9.3029	-28750	2258.8	-0.60658	-0.62025	0.50528
3.96	9.2784	-28752	2258.7	-0.60756	-0.62025	0.50557
3.962	9.3169	-28754	2258.5	-0.60688	-0.62103	0.50498
3.964	9.386	-28755	2258.4	-0.60619	-0.62181	0.5044
3.966	9.4244	-28758	2258.3	-0.60551	-0.62259	0.50381
3.968	9.4416	-28761	2258.1	-0.60483	-0.62337	0.50323
3.97	9.4335	-28761	2258	-0.60414	-0.62415	0.50264
3.972	9.3923	-28762	2257.8	-0.60366	-0.62347	0.50313
3.974	9.3351	-28761	2257.6	-0.60317	-0.62279	0.50362
3.976	9.3002	-28761	2257.5	-0.60268	-0.6221	0.5041
3.978	9.3114	-28759	2257.3	-0.60219	-0.62142	0.50459
3.98	9.3565	-28757	2257.2	-0.6017	-0.62074	0.50508
3.982	9.4006	-28756	2257	-0.60219	-0.62064	0.50537
3.984	9.4327	-28754	2256.9	-0.60268	-0.62054	0.50567
3.986	9.4284	-28757	2256.7	-0.60317	-0.62044	0.50596
3.988	9.3858	-28760	2256.6	-0.60366	-0.62035	0.50625
3.99	9.3375	-28761	2256.5	-0.60414	-0.62025	0.50654
3.992	9.2974	-28763	2256.3	-0.60327	-0.61996	0.50625
3.994	9.2917	-28761	2256.2	-0.60239	-0.61966	0.50596
3.996	9.3244	-28759	2256.1	-0.60151	-0.61937	0.50567
3.998	9.3788	-28759	2256	-0.60063	-0.61908	0.50537
4	9.4368	-28760	2255.9	-0.59975	-0.61878	0.50508
4.002	9.4519	-28758	2255.8	-0.60044	-0.61917	0.50518
4.004	9.415	-28757	2255.8	-0.60112	-0.61956	0.50528
4.006	9.3573	-28758	2255.7	-0.6018	-0.61996	0.50537
4.008	9.3066	-28759	2255.6	-0.60248	-0.62035	0.50547
4.01	9.301	-28762	2255.5	-0.60317	-0.62074	0.50557
4.012	9.3338	-28766	2255.4	-0.60288	-0.62025	0.50469
4.014	9.3762	-28766	2255.3	-0.60258	-0.61976	0.50381
4.016	9.417	-28766	2255.2	-0.60229	-0.61927	0.50293
4.018	9.4393	-28764	2255.1	-0.602	-0.61878	0.50205
4.02	9.4178	-28762	2255	-0.6017	-0.6183	0.50118
4.022	9.3647	-28766	2254.9	-0.6017	-0.61898	0.50196
4.024	9.312	-28769	2254.7	-0.6017	-0.61966	0.50274
4.026	9.2841	-28768	2254.6	-0.6017	-0.62035	0.50352
4.028	9.2977	-28768	2254.5	-0.6017	-0.62103	0.5043
4.03	9.3502	-28770	2254.4	-0.6017	-0.62171	0.50508
4.032	9.4047	-28772	2254.4	-0.6019	-0.62132	0.50488
4.034	9.4372	-28774	2254.4	-0.60209	-0.62093	0.50469
4.036	9.432	-28777	2254.3	-0.60229	-0.62054	0.50449
4.038	9.3876	-28773	2254.2	-0.60248	-0.62015	0.5043
4.04	9.3371	-28770	2254.1	-0.60268	-0.61976	0.5041
4.042	9.2948	-28773	2254	-0.60209	-0.61908	0.50401
4.044	9.2893	-28776	2254	-0.60151	-0.61839	0.50391
4.046	9.3307	-28774	2253.9	-0.60092	-0.61771	0.50381
4.048	9.3848	-28773	2253.9	-0.60034	-0.61703	0.50371
4.05	9.43	-28776	2253.9	-0.59975	-0.61634	0.50362
4.052	9.4449	-28779	2253.8	-0.60053	-0.61791	0.50352
4.054	9.4059	-28772	2253.7	-0.60131	-0.61947	0.50342
4.056	9.3543	-28765	2253.7	-0.60209	-0.62103	0.50332
4.058	9.297	-28774	2253.6	-0.60288	-0.62259	0.50323
4.06	9.2635	-28783	2253.5	-0.60366	-0.62415	0.50313
4.062	9.296	-28785	2253.5	-0.60356	-0.62308	0.50284
4.064	9.3644	-28786	2253.4	-0.60346	-0.622	0.50254
4.066	9.4303	-28784	2253.3	-0.60336	-0.62093	0.50225
4.068	9.4581	-28783	2253.2	-0.60327	-0.61986	0.50196
4.07	9.4288	-28787	2253.1	-0.60317	-0.61878	0.50166
4.072	9.3733	-28790	2253	-0.60317	-0.61947	0.50225
4.074	9.3298	-28788	2253	-0.60317	-0.62015	0.50284
4.076	9.3041	-28786	2252.9	-0.60317	-0.62083	0.50342
4.078	9.3221	-28786	2252.9	-0.60317	-0.62152	0.50401
4.08	9.3687	-28786	2252.9	-0.60317	-0.6222	0.50459
4.082	9.4096	-28794	2252.9	-0.60356	-0.62122	0.5042
4.084	9.4377	-28803	2252.8	-0.60395	-0.62025	0.50381
4.086	9.4352	-28802	2252.8	-0.60434	-0.61927	0.50342
4.088	9.396	-28801	2252.8	-0.60473	-0.6183	0.50303
4.09	9.3438	-28799	2252.9	-0.60512	-0.61732	0.50264
4.092	9.3032	-28797	2252.8	-0.60483	-0.6183	0.50342
4.094	9.3008	-28797	2252.7	-0.60453	-0.61927	0.5042
4.096	9.343	-28797	2252.7	-0.60424	-0.62025	0.50498
4.098	9.3987	-28800	2252.6	-0.60395	-0.62122	0.50576
4.1	9.4456	-28804	2252.6	-0.60366	-0.6222	0.50654
4.102	9.4642	-28805	2252.5	-0.60375	-0.62132	0.50586
4.104	9.4381	-28805	2252.4	-0.60385	-0.62044	0.50518
4.106	9.3968	-28806	2252.3	-0.60395	-0.61956	0.50449
4.108	9.3518	-28806	2252.3	-0.60405	-0.61869	0.50381
4.11	9.3077	-28802	2252.3	-0.60414	-0.61781	0.50313
4.112	9.3149	-28798	2252.3	-0.60483	-0.61849	0.5042
4.114	9.3767	-28802	2252.3	-0.60551	-0.61917	0.50528
4.116	9.4416	-28807	2252.2	-0.60619	-0.61986	0.50635
4.118	9.461	-28811	2252.2	-0.60688	-0.62054	0.50742
4.12	9.4379	-28816	2252.1	-0.60756	-0.62122	0.5085
4.122	9.3969	-28812	2252.1	-0.60658	-0.62093	0.50762
4.124	9.3475	-28808	2252.2	-0.60561	-0.62064	0.50674
4.126	9.3205	-28811	2252.2	-0.60463	-0.62035	0.50586
4.128	9.335	-28813	2252.3	-0.60366	-0.62005	0.50498
4.13	9.3817	-28813	2252.4	-0.60268	-0.61976	0.5041
4.132	9.4216	-28813	2252.4	-0.60317	-0.62025	0.5043
4.134	9.4692	-28812	2252.3	-0.60366	-0.62074	0.50449
4.136	9.4712	-28812	2252.4	-0.60414	-0.62122	0.50469
4.138	9.4101	-28816	2252.4	-0.60463	-0.62171	0.50488
4.14	9.352	-28820	2252.4	-0.60512	-0.6222	0.50508
4.142	9.3228	-28820	2252.4	-0.60483	-0.6222	0.50528
4.144	9.3155	-28820	2252.3	-0.60453	-0.6222	0.50547
4.146	9.3461	-28823	2252.3	-0.60424	-0.6222	0.50567
4.148	9.4023	-28825	2252.3	-0.60395	-0.6222	0.50586
4.15	9.4465	-28829	2252.2	-0.60366	-0.6222	0.50606
4.152	9.4585	-28832	2252.2	-0.60375	-0.6223	0.50586
4.154	9.4277	-28824	2252.2	-0.60385	-0.6224	0.50567
4.156	9.3706	-28817	2252.1	-0.60395	-0.62249	0.50547
4.158	9.3132	-28825	2252	-0.60405	-0.62259	0.50528
4.16	9.2901	-28833	2252	-0.60414	-0.62269	0.50508
4.162	9.3158	-28836	2251.9	-0.60405	-0.62249	0.50547
4.164	9.3635	-28839	2251.8	-0.60395	-0.6223	0.50586
4.166	9.4034	-28835	2251.7	-0.60385	-0.6221	0.50625
4.168	9.4204	-28830	2251.6	-0.60375	-0.62191	0.50664
4.17	9.3993	-28831	2251.5	-0.60366	-0.62171	0.50703
4.172	9.3467	-28832	2251.4	-0.60366	-0.62152	0.50693
4.174	9.2998	-28831	2251.3	-0.60366	-0.62132	0.50684
4.176	9.282	-28830	2251.3	-0.60366	-0.62113	0.50674
4.178	9.2959	-28832	2251.2	-0.60366	-0.62093	0.50664
4.18	9.3396	-28835	2251.1	-0.60366	-0.62074	0.50654
4.182	9.3896	-28836	2251	-0.60327	-0.62054	0.50625
4.184	9.4157	-28838	2250.9	-0.60288	-0.62035	0.50596
4.186	9.4014	-28832	2250.8	-0.60248	-0.62015	0.50567
4.188	9.3506	-28827	2250.8	-0.60209	-0.61996	0.50537
4.19	9.2937	-28838	2250.7	-0.6017	-0.61976	0.50508
4.192	9.2509	-28850	2250.6	-0.60209	-0.61937	0.5042
4.194	9.2462	-28847	2250.6	-0.60248	-0.61898	0.50332
4.196	9.3105	-28844	2250.5	-0.60288	-0.61859	0.50244
4.198	9.3945	-28841	2250.5	-0.60327	-0.6182	0.50157
4.2	9.4431	-28838	2250.5	-0.60366	-0.61781	0.50069
4.202	9.4436	-28839	2250.5	-0.60297	-0.61761	0.50108
4.204	9.3957	-28840	2250.4	-0.60229	-0.61742	0.50147
4.206	9.3403	-28838	2250.4	-0.60161	-0.61722	0.50186
4.208	9.2909	-28835	2250.4	-0.60092	-0.61703	0.50225
4.21	9.2756	-28842	2250.3	-0.60024	-0.61683	0.50264
4.212	9.3074	-28849	2250.2	-0.60131	-0.6181	0.50352
4.214	9.3486	-28855	2250.2	-0.60239	-0.61937	0.5044
4.216	9.4029	-28860	2250.1	-0.60346	-0.62064	0.50528
4.218	9.4348	-28858	2250.1	-0.60453	-0.62191	0.50615
4.22	9.4137	-28855	2250	-0.60561	-0.62318	0.50703
4.222	9.3706	-28855	2249.9	-0.60492	-0.62279	0.50645
4.224	9.3219	-28856	2249.8	-0.60424	-0.6224	0.50586
4.226	9.283	-28854	2249.7	-0.60356	-0.622	0.50528
4.228	9.282	-28852	2249.7	-0.60288	-0.62161	0.50469
4.23	9.3267	-28852	2249.7	-0.60219	-0.62122	0.5041
4.232	9.3843	-28852	2249.7	-0.60209	-0.62152	0.50391
4.234	9.4405	-28856	2249.7	-0.602	-0.62181	0.50371
4.236	9.4365	-28860	2249.7	-0.6019	-0.6221	0.50352
4.238	9.3895	-28863	2249.7	-0.6018	-0.6224	0.50332
4.24	9.3595	-28865	2249.7	-0.6017	-0.62269	0.50313
4.242	9.3384	-28862	2249.7	-0.60268	-0.62152	0.50323
4.244	9.3453	-28859	2249.7	-0.60366	-0.62035	0.50332
4.246	9.4005	-28861	2249.7	-0.60463	-0.61917	0.50342
4.248	9.4617	-28864	2249.7	-0.60561	-0.618	0.50352
4.25	9.4964	-28865	2249.7	-0.60658	-0.61683	0.50362
4.252	9.4938	-28866	2249.7	-0.60551	-0.61664	0.50391
4.254	9.4581	-28863	2249.7	-0.60444	-0.61644	0.5042
4.256	9.3823	-28860	2249.7	-0.60336	-0.61625	0.50449
4.258	9.2859	-28867	2249.7	-0.60229	-0.61605	0.50479
4.26	9.2274	-28874	2249.7	-0.60122	-0.61586	0.50508
4.262	9.2237	-28874	2249.7	-0.60161	-0.61712	0.50508
4.264	9.2508	-28874	2249.7	-0.602	-0.61839	0.50508
4.266	9.2774	-28876	2249.7	-0.60239	-0.61966	0.50508
4.268	9.2856	-28879	2249.7	-0.60278	-0.62093	0.50508
4.27	9.2798	-28873	2249.7	-0.60317	-0.6222	0.50508
4.272	9.2462	-28867	2249.6	-0.60375	-0.62191	0.50557
4.274	9.2006	-28865	2249.6	-0.60434	-0.62161	0.50606
4.276	9.1861	-28864	2249.6	-0.60492	-0.62132	0.50654
4.278	9.2082	-28867	2249.6	-0.60551	-0.62103	0.50703
4.28	9.2684	-28871	2249.5	-0.6061	-0.62074	0.50752
4.282	9.3254	-28872	2249.4	-0.60512	-0.62064	0.50752
4.284	9.3683	-28873	2249.4	-0.60414	-0.62054	0.50752
4.286	9.3717	-28874	2249.3	-0.60317	-0.62044	0.50752
4.288	9.3308	-28875	2249.2	-0.60219	-0.62035	0.50752
4.29	9.2941	-28872	2249.1	-0.60122	-0.62025	0.50752
4.292	9.2648	-28869	2249	-0.60131	-0.62005	0.50674
4.294	9.2563	-28871	2248.9	-0.60141	-0.61986	0.50596
4.296	9.313	-28873	2248.9	-0.60151	-0.61966	0.50518
4.298	9.3846	-28880	2248.8	-0.60161	-0.61947	0.5044
4.3	9.4424	-28886	2248.7	-0.6017	-0.61927	0.50362
4.302	9.4469	-28889	2248.6	-0.60161	-0.61888	0.50332
4.304	9.4045	-28892	2248.5	-0.60151	-0.61849	0.50303
4.306	9.3536	-28887	2248.5	-0.60141	-0.6181	0.50274
4.308	9.2986	-28883	2248.4	-0.60131	-0.61771	0.50244
4.31	9.2785	-28884	2248.4	-0.60122	-0.61732	0.50215
4.312	9.2947	-28885	2248.4	-0.60444	-0.61712	0.50127
4.314	9.3384	-28888	2248.3	-0.60766	-0.61693	0.5004
4.316	9.3921	-28891	2248.2	-0.61088	-0.61673	0.49952
4.318	9.4232	-28889	2248.2	-0.6141	-0.61654	0.49864
4.32	9.4045	-28887	2248.2	-0.61732	-0.61634	0.49776
4.322	9.3518	-28892	2248.1	-0.61488	-0.61771	0.49903
4.324	9.2972	-28898	2248.1	-0.61244	-0.61908	0.5003
4.326	9.2613	-28896	2248	-0.61	-0.62044	0.50157
4.328	9.2689	-28894	2247.8	-0.60756	-0.62181	0.50284
4.33	9.3181	-28890	2247.7	-0.60512	-0.62318	0.5041
4.332	9.3861	-28886	2247.5	-0.60512	-0.62308	0.50449
4.334	9.4251	-28892	2247.4	-0.60512	-0.62298	0.50488
4.336	9.4115	-28897	2247.3	-0.60512	-0.62288	0.50528
4.338	9.3736	-28895	2247.1	-0.60512	-0.62279	0.50567
4.34	9.3278	-28894	2246.9	-0.60512	-0.62269	0.50606
4.342	9.2829	-28900	2246.7	-0.60512	-0.62259	0.50625
4.344	9.2788	-28906	2246.5	-0.60512	-0.62249	0.50645
4.346	9.3231	-28906	2246.3	-0.60512	-0.6224	0.50664
4.348	9.3781	-28906	2246.2	-0.60512	-0.6223	0.50684
4.35	9.4162	-28908	2246	-0.60512	-0.6222	0.50703
4.352	9.4177	-28910	2245.9	-0.60463	-0.62152	0.50615
4.354	9.3829	-28908	2245.7	-0.60414	-0.62083	0.50528
4.356	9.3306	-28907	2245.5	-0.60366	-0.62015	0.5044
4.358	9.2789	-28904	2245.4	-0.60317	-0.61947	0.50352
4.36	9.2534	-28901	2245.2	-0.60268	-0.61878	0.50264
4.362	9.2662	-28905	2245.1	-0.60297	-0.61791	0.50274
4.364	9.3118	-28909	2245	-0.60327	-0.61703	0.50284
4.366	9.3792	-28912	2244.9	-0.60356	-0.61615	0.50293
4.368	9.4243	-28914	2244.8	-0.60385	-0.61527	0.50303
4.37	9.4115	-28916	2244.7	-0.60414	-0.61439	0.50313
4.372	9.3699	-28919	2244.7	-0.60444	-0.61537	0.50352
4.374	9.3167	-28918	2244.7	-0.60473	-0.61634	0.50391
4.376	9.2746	-28917	2244.7	-0.60502	-0.61732	0.5043
4.378	9.2745	-28920	2244.7	-0.60532	-0.6183	0.50469
4.38	9.3254	-28922	2244.7	-0.60561	-0.61927	0.50508
4.382	9.3819	-28919	2244.7	-0.60444	-0.61869	0.50469
4.384	9.4177	-28917	2244.7	-0.60327	-0.6181	0.5043
4.386	9.4275	-28918	2244.7	-0.60209	-0.61752	0.50391
4.388	9.3745	-28920	2244.7	-0.60092	-0.61693	0.50352
4.39	9.3159	-28926	2244.7	-0.59975	-0.61634	0.50313
4.392	9.2872	-28932	2244.7	-0.59965	-0.61576	0.50225
4.394	9.2769	-28931	2244.7	-0.59956	-0.61517	0.50137
4.396	9.304	-28929	2244.8	-0.59946	-0.61459	0.50049
4.398	9.3566	-28929	2245	-0.59936	-0.614	0.49961
4.4	9.409	-28930	2245.2	-0.59926	-0.61342	0.49874
4.402	9.4279	-28933	2245.4	-0.60024	-0.61508	0.49981
4.404	9.395	-28937	2245.7	-0.60122	-0.61673	0.50088
4.406	9.3397	-28936	2246.1	-0.60219	-0.61839	0.50196
4.408	9.286	-28935	2246.5	-0.60317	-0.62005	0.50303
4.41	9.2515	-28932	2246.9	-0.60414	-0.62171	0.5041
4.412	9.2676	-28929	2247.4	-0.60512	-0.62171	0.50401
4.414	9.3326	-28933	2247.9	-0.6061	-0.62171	0.50391
4.416	9.4007	-28936	2248.4	-0.60707	-0.62171	0.50381
4.418	9.44	-28938	2249	-0.60805	-0.62171	0.50371
4.42	9.4243	-28940	2249.6	-0.60902	-0.62171	0.50362
4.422	9.3845	-28939	2250.2	-0.60834	-0.6222	0.50371
4.424	9.3439	-28938	2250.8	-0.60766	-0.62269	0.50381
4.426	9.3069	-28939	2251.5	-0.60697	-0.62318	0.50391
4.428	9.3031	-28940	2252.2	-0.60629	-0.62366	0.50401
4.43	9.3413	-28940	2252.9	-0.60561	-0.62415	0.5041
4.432	9.3972	-28941	2253.5	-0.6059	-0.62425	0.50469
4.434	9.4418	-28943	2254.1	-0.60619	-0.62435	0.50528
4.436	9.4471	-28946	2254.8	-0.60649	-0.62444	0.50586
4.438	9.4123	-28947	2255.4	-0.60678	-0.62454	0.50645
4.44	9.3707	-28947	2256	-0.60707	-0.62464	0.50703
4.442	9.3403	-28945	2256.6	-0.60727	-0.62318	0.50703
4.444	9.3288	-28943	2257.2	-0.60746	-0.62171	0.50703
4.446	9.3577	-28938	2257.7	-0.60766	-0.62025	0.50703
4.448	9.41	-28933	2258.2	-0.60785	-0.61878	0.50703
4.45	9.4509	-28932	2258.8	-0.60805	-0.61732	0.50703
4.452	9.4664	-28932	2259.2	-0.60795	-0.61761	0.50723
4.454	9.4404	-28935	2259.7	-0.60785	-0.61791	0.50742
4.456	9.3934	-28939	2260.2	-0.60776	-0.6182	0.50762
4.458	9.3443	-28931	2260.7	-0.60766	-0.61849	0.50781
4.46	9.3123	-28924	2261.1	-0.60756	-0.61878	0.50801
4.462	9.3404	-28924	2261.5	-0.60707	-0.61908	0.50752
4.464	9.3932	-28925	2261.9	-0.60658	-0.61937	0.50703
4.466	9.4474	-28925	2262.3	-0.6061	-0.61966	0.50654
4.468	9.4903	-28925	2262.6	-0.60561	-0.61996	0.50606
4.47	9.4661	-28919	2263	-0.60512	-0.62025	0.50557
4.472	9.4092	-28913	2263.3	-0.60561	-0.62015	0.50479
4.474	9.3563	-28908	2263.6	-0.6061	-0.62005	0.50401
4.476	9.3282	-28902	2263.8	-0.60658	-0.61996	0.50323
4.478	9.3432	-28901	2264.1	-0.60707	-0.61986	0.50244
4.48	9.3975	-28899	2264.3	-0.60756	-0.61976	0.50166
4.482	9.4528	-28898	2264.5	-0.60697	-0.61996	0.50196
4.484	9.4897	-28897	2264.6	-0.60639	-0.62015	0.50225
4.486	9.4809	-28895	2264.7	-0.6058	-0.62035	0.50254
4.488	9.4403	-28893	2264.9	-0.60522	-0.62054	0.50284
4.49	9.3911	-28887	2265	-0.60463	-0.62074	0.50313
4.492	9.3516	-28882	2265	-0.60453	-0.62103	0.50332
4.494	9.3451	-28876	2265.1	-0.60444	-0.62132	0.50352
4.496	9.3777	-28871	2265	-0.60434	-0.62161	0.50371
4.498	9.4249	-28872	2265	-0.60424	-0.62191	0.50391
4.5	9.464	-28872	2264.9	-0.60414	-0.6222	0.5041
4.502	9.4735	-28869	2264.8	-0.60405	-0.62113	0.50303
4.504	9.4496	-28865	2264.7	-0.60395	-0.62005	0.50196
4.506	9.4118	-28851	2264.6	-0.60385	-0.61898	0.50088
4.508	9.3734	-28836	2264.5	-0.60375	-0.61791	0.49981
4.51	9.3519	-28838	2264.4	-0.60366	-0.61683	0.49874
4.512	9.3634	-28839	2264.2	-0.60346	-0.61703	0.49913
4.514	9.4109	-28839	2264	-0.60327	-0.61722	0.49952
4.516	9.4658	-28839	2263.8	-0.60307	-0.61742	0.49991
4.518	9.4885	-28833	2263.6	-0.60288	-0.61761	0.5003
4.52	9.4766	-28828	2263.4	-0.60268	-0.61781	0.50069
4.522	9.4385	-28823	2263.2	-0.60346	-0.61791	0.50098
4.524	9.3818	-28818	2262.9	-0.60424	-0.618	0.50127
4.526	9.3381	-28816	2262.7	-0.60502	-0.6181	0.50157
4.528	9.3425	-28814	2262.5	-0.6058	-0.6182	0.50186
4.53	9.3865	-28815	2262.3	-0.60658	-0.6183	0.50215
4.532	9.4345	-28815	2262.1	-0.60629	-0.61859	0.50293
4.534	9.4658	-28807	2261.9	-0.606	-0.61888	0.50371
4.536	9.4683	-28799	2261.8	-0.60571	-0.61917	0.50449
4.538	9.4236	-28798	2261.6	-0.60541	-0.61947	0.50528
4.54	9.3728	-28797	2261.4	-0.60512	-0.61976	0.50606
4.542	9.3288	-28791	2261.1	-0.60512	-0.61986	0.50537
4.544	9.293	-28786	2260.9	-0.60512	-0.61996	0.50469
4.546	9.3067	-28788	2260.7	-0.60512	-0.62005	0.50401
4.548	9.3766	-28789	2260.5	-0.60512	-0.62015	0.50332
4.55	9.4422	-28792	2260.3	-0.60512	-0.62025	0.50264
4.552	9.4475	-28794	2260.1	-0.60492	-0.61976	0.50254
4.554	9.4044	-28785	2259.9	-0.60473	-0.61927	0.50244
4.556	9.3475	-28776	2259.7	-0.60453	-0.61878	0.50235
4.558	9.2996	-28775	2259.5	-0.60434	-0.6183	0.50225
4.56	9.2739	-28774	2259.3	-0.60414	-0.61781	0.50215
4.562	9.2877	-28774	2259.2	-0.60688	-0.61703	0.50088
4.564	9.3371	-28773	2259.1	-0.60961	-0.61625	0.49961
4.566	9.392	-28772	2259	-0.61234	-0.61547	0.49835
4.568	9.4343	-28770	2258.9	-0.61508	-0.61468	0.49708
4.57	9.4169	-28769	2258.7	-0.61781	-0.6139	0.49581
4.572	9.3581	-28767	2258.6	-0.61742	-0.61439	0.49639
4.574	9.2974	-28764	2258.5	-0.61703	-0.61488	0.49698
4.576	9.262	-28762	2258.5	-0.61664	-0.61537	0.49756
4.578	9.2671	-28763	2258.4	-0.61625	-0.61586	0.49815
4.58	9.3072	-28764	2258.4	-0.61586	-0.61634	0.49874
4.582	9.3542	-28758	2258.3	-0.61547	-0.61615	0.49903
4.584	9.3862	-28753	2258.3	-0.61508	-0.61595	0.49932
4.586	9.3857	-28748	2258.2	-0.61468	-0.61576	0.49961
4.588	9.3566	-28743	2258.2	-0.61429	-0.61556	0.49991
4.59	9.3072	-28750	2258.1	-0.6139	-0.61537	0.5002
4.592	9.2665	-28757	2258.1	-0.61361	-0.61508	0.5001
4.594	9.2573	-28756	2258.1	-0.61332	-0.61478	0.5
4.596	9.2917	-28756	2258.2	-0.61303	-0.61449	0.49991
4.598	9.3464	-28753	2258.2	-0.61273	-0.6142	0.49981
4.6	9.3876	-28751	2258.2	-0.61244	-0.6139	0.49971
4.602	9.4004	-28746	2258.2	-0.61059	-0.61498	0.50127
