t	ekg	optical	pressure	accel_x	accel_y	accel_z
0	15.865	-37577	2314.4	-0.000488	0.30754	0.94623
0.002	15.863	-37580	2314.4	-0.000488	0.30773	0.94721
0.004	15.803	-37584	2314.3	-0.000488	0.30793	0.94818
0.006	15.752	-37585	2314.2	-0.000488	0.30812	0.94916
0.008	15.757	-37586	2314.2	-0.000488	0.30832	0.95014
0.01	15.826	-37585	2314.1	-0.000488	0.30851	0.95111
0.012	15.903	-37584	2313.9	-0.000488	0.30871	0.95209
0.014	15.965	-37586	2313.8	-0.000488	0.3089	0.95306
0.016	16.014	-37589	2313.7	-0.0005856	0.30881	0.95345
0.018	16.005	-37591	2313.6	-0.0006832	0.30871	0.95384
0.02	15.97	-37593	2313.5	-0.0007808	0.30861	0.95424
0.022	15.965	-37592	2313.4	-0.0008784	0.30851	0.95463
0.024	15.986	-37591	2313.3	-0.000976	0.30842	0.95502
0.026	15.949	-37593	2313.2	-0.0002928	0.30842	0.95404
0.028	15.921	-37596	2313.1	0.0003904	0.30842	0.95306
0.03	15.892	-37594	2313	0.0010736	0.30842	0.95209
0.032	15.881	-37593	2313	0.0017568	0.30842	0.95111
0.034	15.917	-37593	2313	0.00244	0.30842	0.95014
0.036	15.916	-37592	2313	0.001952	0.309	0.95062
0.038	15.893	-37594	2313	0.001464	0.30959	0.95111
0.04	15.945	-37596	2313	0.000976	0.31017	0.9516
0.042	15.936	-37594	2313.1	0.000488	0.31076	0.95209
0.044	15.902	-37592	2313.2	1.1096e-13	0.31134	0.95258
0.046	15.868	-37599	2313.3	0.0005856	0.31047	0.95248
0.048	15.87	-37606	2313.4	0.0011712	0.30959	0.95238
0.05	15.88	-37606	2313.4	0.0017568	0.30871	0.95228
0.052	15.882	-37606	2313.5	0.0023424	0.30783	0.95219
0.054	15.84	-37603	2313.6	0.002928	0.30695	0.95209
0.056	15.816	-37600	2313.7	0.0031232	0.30646	0.95287
0.058	15.944	-37599	2313.7	0.0033184	0.30598	0.95365
0.06	16.03	-37599	2313.8	0.0035136	0.30549	0.95443
0.062	16.033	-37603	2313.8	0.0037088	0.305	0.95521
0.064	16.016	-37607	2313.9	0.003904	0.30451	0.95599
0.066	16.034	-37608	2313.9	0.0049776	0.30646	0.95746
0.068	15.997	-37610	2313.9	0.0060512	0.30842	0.95892
0.07	15.894	-37616	2313.9	0.0071248	0.31037	0.96038
0.072	15.794	-37621	2313.8	0.0081984	0.31232	0.96185
0.074	15.719	-37621	2313.8	0.009272	0.31427	0.96331
0.076	15.71	-37621	2313.7	0.009272	0.31349	0.96224
0.078	15.714	-37621	2313.6	0.009272	0.31271	0.96116
0.08	15.666	-37620	2313.4	0.009272	0.31193	0.96009
0.082	15.689	-37624	2313.3	0.009272	0.31115	0.95902
0.084	15.727	-37628	2313.2	0.009272	0.31037	0.95794
0.086	15.714	-37630	2313	0.0089792	0.31076	0.95843
0.088	15.702	-37633	2312.8	0.0086864	0.31115	0.95892
0.09	15.694	-37628	2312.7	0.0083936	0.31154	0.95941
0.092	15.726	-37624	2312.5	0.0081008	0.31193	0.9599
0.094	15.806	-37623	2312.4	0.007808	0.31232	0.96038
0.096	15.841	-37622	2312.2	0.0081984	0.31212	0.95921
0.098	15.846	-37627	2312.1	0.0085888	0.31193	0.95804
0.1	15.845	-37632	2311.9	0.0089792	0.31173	0.95687
0.102	15.811	-37633	2311.8	0.0093696	0.31154	0.9557
0.104	15.852	-37634	2311.7	0.00976	0.31134	0.95453
0.106	15.959	-37630	2311.5	0.008296	0.31095	0.9557
0.108	16.027	-37627	2311.4	0.006832	0.31056	0.95687
0.11	15.998	-37627	2311.3	0.005368	0.31017	0.95804
0.112	15.962	-37627	2311.2	0.003904	0.30978	0.95921
0.114	15.959	-37632	2311.1	0.00244	0.30939	0.96038
0.116	15.956	-37637	2311.1	0.0037088	0.30998	0.96048
0.118	15.921	-37638	2311.1	0.0049776	0.31056	0.96058
0.12	15.911	-37638	2311.1	0.0062464	0.31115	0.96068
0.122	15.931	-37641	2311.1	0.0075152	0.31173	0.96077
0.124	15.942	-37644	2311.1	0.008784	0.31232	0.96087
0.126	15.938	-37640	2311.1	0.0093696	0.31173	0.96029
0.128	15.917	-37637	2311.1	0.0099552	0.31115	0.9597
0.13	15.901	-37635	2311.1	0.010541	0.31056	0.95912
0.132	15.881	-37632	2311.1	0.011126	0.30998	0.95853
0.134	15.829	-37637	2311	0.011712	0.30939	0.95794
0.136	15.817	-37643	2311	0.011322	0.31027	0.95794
0.138	15.871	-37644	2311	0.010931	0.31115	0.95794
0.14	15.896	-37645	2311	0.010541	0.31203	0.95794
0.142	15.923	-37644	2311	0.01015	0.31291	0.95794
0.144	15.902	-37643	2311	0.00976	0.31378	0.95794
0.146	15.893	-37648	2310.9	0.0093696	0.3131	0.95765
0.148	15.921	-37652	2310.8	0.0089792	0.31242	0.95736
0.15	15.968	-37651	2310.7	0.0085888	0.31173	0.95707
0.152	15.94	-37649	2310.6	0.0081984	0.31105	0.95677
0.154	15.917	-37648	2310.5	0.007808	0.31037	0.95648
0.156	15.968	-37647	2310.3	0.0083936	0.31086	0.95726
0.158	15.97	-37650	2310.1	0.0089792	0.31134	0.95804
0.16	15.97	-37653	2309.9	0.0095648	0.31183	0.95882
0.162	15.968	-37656	2309.7	0.01015	0.31232	0.9596
0.164	15.951	-37659	2309.5	0.010736	0.31281	0.96038
0.166	15.933	-37656	2309.3	0.010638	0.31203	0.95951
0.168	15.91	-37653	2309.1	0.010541	0.31125	0.95863
0.17	15.898	-37650	2308.8	0.010443	0.31047	0.95775
0.172	15.901	-37648	2308.5	0.010346	0.30968	0.95687
0.174	15.907	-37652	2308.2	0.010248	0.3089	0.95599
0.176	15.911	-37655	2308	0.01015	0.30871	0.9555
0.178	15.93	-37666	2307.9	0.010053	0.30851	0.95502
0.18	15.95	-37676	2307.7	0.0099552	0.30832	0.95453
0.182	15.937	-37671	2307.5	0.0098576	0.30812	0.95404
0.184	15.909	-37667	2307.3	0.00976	0.30793	0.95355
0.186	15.892	-37665	2307.1	0.0096624	0.30685	0.95404
0.188	15.91	-37663	2306.9	0.0095648	0.30578	0.95453
0.19	15.94	-37668	2306.8	0.0094672	0.30471	0.95502
0.192	15.937	-37674	2306.6	0.0093696	0.30363	0.9555
0.194	15.948	-37671	2306.4	0.009272	0.30256	0.95599
0.196	15.934	-37668	2306.2	0.0083936	0.30168	0.95658
0.198	15.912	-37667	2306	0.0075152	0.3008	0.95716
0.2	15.89	-37666	2305.8	0.0066368	0.29992	0.95775
0.202	15.872	-37670	2305.5	0.0057584	0.29905	0.95833
0.204	15.874	-37674	2305.3	0.00488	0.29817	0.95892
0.206	15.903	-37677	2305.2	0.0057584	0.29895	0.95882
0.208	15.904	-37679	2305	0.0066368	0.29973	0.95872
0.21	15.853	-37675	2304.9	0.0075152	0.30051	0.95863
0.212	15.82	-37672	2304.8	0.0083936	0.30129	0.95853
0.214	15.83	-37673	2304.7	0.009272	0.30207	0.95843
0.216	15.918	-37673	2304.7	0.0080032	0.30227	0.95668
0.218	15.95	-37680	2304.6	0.0067344	0.30246	0.95492
0.22	15.943	-37687	2304.6	0.0054656	0.30266	0.95316
0.222	15.903	-37689	2304.5	0.0041968	0.30285	0.9514
0.224	15.862	-37690	2304.4	0.002928	0.30305	0.94965
0.226	15.93	-37688	2304.3	0.0032208	0.30188	0.94906
0.228	15.952	-37686	2304.2	0.0035136	0.30071	0.94848
0.23	15.934	-37682	2304.1	0.0038064	0.29953	0.94789
0.232	15.959	-37679	2304.1	0.0040992	0.29836	0.94731
0.234	15.991	-37691	2304	0.004392	0.29719	0.94672
0.236	15.998	-37704	2303.7	0.0040992	0.29875	0.9477
0.238	15.975	-37698	2303.5	0.0038064	0.30032	0.94867
0.24	15.975	-37692	2303.2	0.0035136	0.30188	0.94965
0.242	15.967	-37694	2303.1	0.0032208	0.30344	0.95062
0.244	15.939	-37696	2302.9	0.002928	0.305	0.9516
0.246	15.915	-37701	2302.9	0.001952	0.30559	0.95082
0.248	15.934	-37706	2302.8	0.000976	0.30617	0.95004
0.25	15.967	-37703	2302.9	2.2192e-13	0.30676	0.94926
0.252	15.988	-37699	2302.9	-0.000976	0.30734	0.94848
0.254	15.978	-37701	2303	-0.001952	0.30793	0.9477
0.256	15.931	-37702	2303.1	-0.0016592	0.30842	0.94877
0.258	15.891	-37703	2303.2	-0.0013664	0.3089	0.94984
0.26	15.887	-37704	2303.3	-0.0010736	0.30939	0.95092
0.262	15.904	-37711	2303.4	-0.0007808	0.30988	0.95199
0.264	15.91	-37718	2303.5	-0.000488	0.31037	0.95306
0.266	15.888	-37715	2303.7	0.0002928	0.30851	0.9557
0.268	15.886	-37712	2303.9	0.0010736	0.30666	0.95833
0.27	15.945	-37716	2304.1	0.0018544	0.3048	0.96097
0.272	15.974	-37719	2304.4	0.0026352	0.30295	0.9636
0.274	15.905	-37718	2304.7	0.003416	0.3011	0.96624
0.276	15.86	-37717	2304.9	0.002928	0.30236	0.96351
0.278	15.945	-37718	2305.2	0.00244	0.30363	0.96077
0.28	16.096	-37718	2305.5	0.001952	0.3049	0.95804
0.282	16.126	-37720	2305.8	0.001464	0.30617	0.95531
0.284	16.038	-37722	2306.1	0.000976	0.30744	0.95258
0.286	16.005	-37722	2306.5	0.0012688	0.30637	0.95375
0.288	15.996	-37722	2306.8	0.0015616	0.30529	0.95492
0.29	16.014	-37719	2307.2	0.0018544	0.30422	0.95609
0.292	16.039	-37716	2307.6	0.0021472	0.30315	0.95726
0.294	16.054	-37723	2308	0.00244	0.30207	0.95843
0.296	16.024	-37730	2308.5	0.0030256	0.30256	0.95833
0.298	16.028	-37733	2308.9	0.0036112	0.30305	0.95824
0.3	16.016	-37737	2309.4	0.0041968	0.30354	0.95814
0.302	16.028	-37737	2309.9	0.0047824	0.30402	0.95804
0.304	16.007	-37738	2310.5	0.005368	0.30451	0.95794
0.306	15.986	-37736	2311	0.0044896	0.30461	0.95765
0.308	15.997	-37735	2311.5	0.0036112	0.30471	0.95736
0.31	16.013	-37736	2312	0.0027328	0.3048	0.95707
0.312	15.95	-37736	2312.4	0.0018544	0.3049	0.95677
0.314	15.863	-37736	2312.9	0.000976	0.305	0.95648
0.316	15.811	-37737	2313.3	-9.76e-05	0.30656	0.95746
0.318	15.887	-37733	2313.7	-0.0011712	0.30812	0.95843
0.32	16.049	-37730	2314.1	-0.0022448	0.30968	0.95941
0.322	16.129	-37728	2314.5	-0.0033184	0.31125	0.96038
0.324	16.1	-37727	2314.8	-0.004392	0.31281	0.96136
0.326	16.082	-37728	2315.1	-0.0051728	0.31125	0.96156
0.328	16.059	-37729	2315.4	-0.0059536	0.30968	0.96175
0.33	16.056	-37726	2315.7	-0.0067344	0.30812	0.96195
0.332	16.108	-37723	2316	-0.0075152	0.30656	0.96214
0.334	16.117	-37722	2316.4	-0.008296	0.305	0.96234
0.336	16.074	-37722	2316.6	-0.0085888	0.30617	0.96282
0.338	16.076	-37718	2316.8	-0.0088816	0.30734	0.96331
0.34	16.093	-37714	2316.9	-0.0091744	0.30851	0.9638
0.342	16.091	-37711	2317	-0.0094672	0.30968	0.96429
0.344	16.089	-37708	2317	-0.00976	0.31086	0.96478
0.346	16.062	-37708	2317	-0.0085888	0.31134	0.96526
0.348	16.029	-37707	2317	-0.0074176	0.31183	0.96575
0.35	16.008	-37706	2317	-0.0062464	0.31232	0.96624
0.352	16.012	-37704	2317.1	-0.0050752	0.31281	0.96673
0.354	16.055	-37690	2317.1	-0.003904	0.3133	0.96722
0.356	16.069	-37677	2317.2	-0.0037088	0.31437	0.96731
0.358	16.064	-37677	2317.3	-0.0035136	0.31544	0.96741
0.36	16.065	-37678	2317.3	-0.0033184	0.31652	0.96751
0.362	16.046	-37680	2317.2	-0.0031232	0.31759	0.96761
0.364	16.032	-37682	2317.1	-0.002928	0.31866	0.9677
0.366	15.999	-37677	2317	-0.0037088	0.31847	0.9677
0.368	15.995	-37672	2316.9	-0.0044896	0.31827	0.9677
0.37	16.002	-37668	2316.8	-0.0052704	0.31808	0.9677
0.372	16.047	-37664	2316.7	-0.0060512	0.31788	0.9677
0.374	16.093	-37655	2316.6	-0.006832	0.31769	0.9677
0.376	16.067	-37647	2316.5	-0.0047824	0.31652	0.96878
0.378	16.021	-37642	2316.5	-0.0027328	0.31535	0.96985
0.38	16.016	-37638	2316.4	-0.0006832	0.31417	0.97092
0.382	16	-37637	2316.3	0.0013664	0.313	0.972
0.384	16.01	-37636	2316.2	0.003416	0.31183	0.97307
0.386	16.029	-37634	2316.1	0.002928	0.31183	0.97258
0.388	16.011	-37632	2316	0.00244	0.31183	0.9721
0.39	16.004	-37622	2316	0.001952	0.31183	0.97161
0.392	15.968	-37612	2315.9	0.001464	0.31183	0.97112
0.394	15.942	-37607	2315.9	0.000976	0.31183	0.97063
0.396	15.941	-37602	2315.8	0.0005856	0.31193	0.97044
0.398	15.94	-37601	2315.7	0.0001952	0.31203	0.97024
0.4	15.894	-37600	2315.6	-0.0001952	0.31212	0.97005
0.402	15.864	-37593	2315.5	-0.0005856	0.31222	0.96985
0.404	15.904	-37586	2315.4	-0.000976	0.31232	0.96966
0.406	15.975	-37586	2315.2	-0.0006832	0.31232	0.97005
0.408	15.959	-37585	2315.1	-0.0003904	0.31232	0.97044
0.41	15.94	-37584	2314.9	-9.76e-05	0.31232	0.97083
0.412	15.993	-37583	2314.8	0.0001952	0.31232	0.97122
0.414	15.981	-37571	2314.6	0.000488	0.31232	0.97161
0.416	15.997	-37558	2314.4	0.0005856	0.31271	0.97063
0.418	16.004	-37556	2314.3	0.0006832	0.3131	0.96966
0.42	15.955	-37554	2314.2	0.0007808	0.31349	0.96868
0.422	15.907	-37555	2314	0.0008784	0.31388	0.9677
0.424	15.893	-37555	2313.9	0.000976	0.31427	0.96673
0.426	15.913	-37553	2313.7	0.0017568	0.31359	0.96751
0.428	15.897	-37551	2313.6	0.0025376	0.31291	0.96829
0.43	15.827	-37548	2313.4	0.0033184	0.31222	0.96907
0.432	15.812	-37545	2313.3	0.0040992	0.31154	0.96985
0.434	15.876	-37542	2313.1	0.00488	0.31086	0.97063
0.436	15.933	-37538	2313	0.0041968	0.31076	0.97005
0.438	15.962	-37533	2312.8	0.0035136	0.31066	0.96946
0.44	15.979	-37529	2312.6	0.0028304	0.31056	0.96888
0.442	15.947	-37525	2312.4	0.0021472	0.31047	0.96829
0.444	15.899	-37522	2312.2	0.001464	0.31037	0.9677
0.446	15.935	-37526	2312	0.0007808	0.31086	0.96751
0.448	15.962	-37530	2311.8	9.76e-05	0.31134	0.96731
0.45	15.915	-37529	2311.5	-0.0005856	0.31183	0.96712
0.452	15.88	-37528	2311.3	-0.0012688	0.31232	0.96692
0.454	15.889	-37526	2311.1	-0.001952	0.31281	0.96673
0.456	15.89	-37523	2310.9	-0.0012688	0.31183	0.96546
0.458	15.893	-37516	2310.7	-0.0005856	0.31086	0.96419
0.46	15.885	-37508	2310.6	9.76e-05	0.30988	0.96292
0.462	15.841	-37501	2310.5	0.0007808	0.3089	0.96165
0.464	15.847	-37494	2310.4	0.001464	0.30793	0.96038
0.466	15.939	-37494	2310.4	0.002928	0.30764	0.9596
0.468	16.042	-37495	2310.4	0.004392	0.30734	0.95882
0.47	15.991	-37491	2310.3	0.005856	0.30705	0.95804
0.472	15.892	-37486	2310.3	0.00732	0.30676	0.95726
0.474	15.863	-37480	2310.2	0.008784	0.30646	0.95648
0.476	15.885	-37474	2310.2	0.0081984	0.30598	0.95589
0.478	15.918	-37474	2310.1	0.0076128	0.30549	0.95531
0.48	15.947	-37474	2310.1	0.0070272	0.305	0.95472
0.482	15.931	-37474	2310.1	0.0064416	0.30451	0.95414
0.484	15.88	-37475	2310.1	0.005856	0.30402	0.95355
0.486	15.865	-37471	2310	0.005856	0.30402	0.95355
0.488	15.862	-37468	2309.9	0.005856	0.30402	0.95355
0.49	15.863	-37467	2309.7	0.005856	0.30402	0.95355
0.492	15.909	-37467	2309.6	0.005856	0.30402	0.95355
0.494	15.944	-37462	2309.5	0.005856	0.30402	0.95355
0.496	15.986	-37457	2309.3	0.0042944	0.30451	0.95277
0.498	15.995	-37453	2309.1	0.0027328	0.305	0.95199
0.5	15.964	-37449	2308.9	0.0011712	0.30549	0.95121
0.502	15.937	-37448	2308.8	-0.0003904	0.30598	0.95043
0.504	15.906	-37447	2308.6	-0.001952	0.30646	0.94965
0.506	15.892	-37444	2308.4	-0.0020496	0.30705	0.94926
0.508	15.885	-37442	2308.2	-0.0021472	0.30764	0.94887
0.51	15.9	-37442	2308.1	-0.0022448	0.30822	0.94848
0.512	15.917	-37442	2308	-0.0023424	0.30881	0.94809
0.514	15.855	-37442	2307.8	-0.00244	0.30939	0.9477
0.516	15.767	-37442	2307.8	-0.0008784	0.30881	0.94652
0.518	15.724	-37444	2307.7	0.0006832	0.30822	0.94535
0.52	15.739	-37446	2307.6	0.0022448	0.30764	0.94418
0.522	15.852	-37443	2307.5	0.0038064	0.30705	0.94301
0.524	16.005	-37441	2307.5	0.005368	0.30646	0.94184
0.526	16.08	-37433	2307.5	0.003416	0.30598	0.94321
0.528	16.051	-37425	2307.4	0.001464	0.30549	0.94457
0.53	15.969	-37424	2307.4	-0.000488	0.305	0.94594
0.532	15.935	-37423	2307.4	-0.00244	0.30451	0.94731
0.534	15.976	-37423	2307.4	-0.004392	0.30402	0.94867
0.536	15.984	-37424	2307.5	-0.003416	0.30412	0.94818
0.538	15.969	-37423	2307.5	-0.00244	0.30422	0.9477
0.54	15.94	-37422	2307.5	-0.001464	0.30432	0.94721
0.542	15.913	-37414	2307.6	-0.000488	0.30441	0.94672
0.544	15.914	-37407	2307.7	0.000488	0.30451	0.94623
0.546	15.926	-37407	2307.8	-0.0003904	0.30451	0.94643
0.548	15.861	-37407	2307.9	-0.0012688	0.30451	0.94662
0.55	15.856	-37408	2308	-0.0021472	0.30451	0.94682
0.552	15.91	-37410	2308.1	-0.0030256	0.30451	0.94701
0.554	15.913	-37407	2308.2	-0.003904	0.30451	0.94721
0.556	15.925	-37405	2308.3	-0.0030256	0.30461	0.94692
0.558	15.912	-37406	2308.4	-0.0021472	0.30471	0.94662
0.56	15.903	-37407	2308.6	-0.0012688	0.3048	0.94633
0.562	15.872	-37408	2308.7	-0.0003904	0.3049	0.94604
0.564	15.935	-37408	2308.8	0.000488	0.305	0.94574
0.566	15.969	-37403	2308.9	0.0001952	0.3052	0.94574
0.568	15.903	-37398	2309.1	-9.76e-05	0.30539	0.94574
0.57	15.884	-37398	2309.2	-0.0003904	0.30559	0.94574
0.572	15.896	-37398	2309.2	-0.0006832	0.30578	0.94574
0.574	15.908	-37397	2309.2	-0.000976	0.30598	0.94574
0.576	15.904	-37396	2309.2	-0.0015616	0.30666	0.94633
0.578	15.915	-37397	2309.2	-0.0021472	0.30734	0.94692
0.58	15.859	-37398	2309.2	-0.0027328	0.30803	0.9475
0.582	15.874	-37398	2309.1	-0.0033184	0.30871	0.94809
0.584	15.992	-37399	2309.1	-0.003904	0.30939	0.94867
0.586	16.006	-37396	2309.1	-0.0035136	0.309	0.94818
0.588	15.99	-37394	2309.1	-0.0031232	0.30861	0.9477
0.59	15.957	-37392	2309.1	-0.0027328	0.30822	0.94721
0.592	15.915	-37390	2309.1	-0.0023424	0.30783	0.94672
0.594	15.87	-37390	2309	-0.001952	0.30744	0.94623
0.596	15.813	-37390	2308.9	-0.0011712	0.30685	0.94643
0.598	15.784	-37390	2308.9	-0.0003904	0.30627	0.94662
0.6	15.825	-37390	2308.8	0.0003904	0.30568	0.94682
0.602	15.91	-37387	2308.7	0.0011712	0.3051	0.94701
0.604	15.963	-37383	2308.6	0.001952	0.30451	0.94721
0.606	15.942	-37382	2308.6	0.0006832	0.30529	0.94789
0.608	15.906	-37380	2308.5	-0.0005856	0.30607	0.94857
0.61	15.908	-37381	2308.5	-0.0018544	0.30685	0.94926
0.612	15.926	-37381	2308.5	-0.0031232	0.30764	0.94994
0.614	15.956	-37382	2308.4	-0.004392	0.30842	0.95062
0.616	15.963	-37382	2308.5	-0.0037088	0.30871	0.95082
0.618	15.951	-37377	2308.5	-0.0030256	0.309	0.95101
0.62	15.925	-37371	2308.5	-0.0023424	0.30929	0.95121
0.622	15.879	-37369	2308.5	-0.0016592	0.30959	0.9514
0.624	15.845	-37367	2308.6	-0.000976	0.30988	0.9516
0.626	15.838	-37367	2308.6	-0.0005856	0.30959	0.9515
0.628	15.862	-37368	2308.6	-0.0001952	0.30929	0.9514
0.63	15.943	-37367	2308.6	0.0001952	0.309	0.95131
0.632	15.953	-37367	2308.6	0.0005856	0.30871	0.95121
0.634	15.909	-37364	2308.7	0.000976	0.30842	0.95111
0.636	15.905	-37362	2308.6	0.0007808	0.30851	0.9514
0.638	15.916	-37360	2308.6	0.0005856	0.30861	0.9517
0.64	15.914	-37358	2308.6	0.0003904	0.30871	0.95199
0.642	15.95	-37356	2308.5	0.0001952	0.30881	0.95228
0.644	15.911	-37353	2308.4	0	0.3089	0.95258
0.646	15.865	-37353	2308.3	0.0010736	0.3091	0.95297
0.648	15.891	-37353	2308.2	0.0021472	0.30929	0.95336
0.65	15.941	-37350	2308	0.0032208	0.30949	0.95375
0.652	15.914	-37347	2307.9	0.0042944	0.30968	0.95414
0.654	15.838	-37344	2307.7	0.005368	0.30988	0.95453
0.656	15.779	-37340	2307.6	0.0056608	0.31056	0.9556
0.658	15.799	-37349	2307.4	0.0059536	0.31125	0.95668
0.66	15.867	-37357	2307.2	0.0062464	0.31193	0.95775
0.662	15.92	-37352	2307	0.0065392	0.31261	0.95882
0.664	15.963	-37348	2306.8	0.006832	0.3133	0.9599
0.666	15.959	-37343	2306.7	0.0062464	0.31281	0.9599
0.668	15.942	-37339	2306.5	0.0056608	0.31232	0.9599
0.67	15.928	-37340	2306.4	0.0050752	0.31183	0.9599
0.672	15.956	-37341	2306.2	0.0044896	0.31134	0.9599
0.674	15.97	-37349	2306	0.003904	0.31086	0.9599
0.676	15.962	-37356	2305.8	0.0040016	0.31027	0.95872
0.678	15.922	-37363	2305.6	0.0040992	0.30968	0.95755
0.68	15.877	-37371	2305.4	0.0041968	0.3091	0.95638
0.682	15.86	-37360	2305.3	0.0042944	0.30851	0.95521
0.684	15.866	-37349	2305.1	0.004392	0.30793	0.95404
0.686	15.894	-37350	2304.9	0.0040016	0.30783	0.95472
0.688	15.917	-37350	2304.7	0.0036112	0.30773	0.95541
0.69	15.919	-37354	2304.5	0.0032208	0.30764	0.95609
0.692	15.923	-37359	2304.2	0.0028304	0.30754	0.95677
0.694	15.918	-37361	2304	0.00244	0.30744	0.95746
0.696	15.902	-37362	2303.8	0.0026352	0.30676	0.95814
0.698	15.901	-37358	2303.7	0.0028304	0.30607	0.95882
0.7	15.907	-37354	2303.5	0.0030256	0.30539	0.95951
0.702	15.936	-37358	2303.4	0.0032208	0.30471	0.96019
0.704	15.943	-37361	2303.2	0.003416	0.30402	0.96087
0.706	15.867	-37361	2303.1	0.0010736	0.30539	0.96126
0.708	15.798	-37360	2302.9	-0.0012688	0.30676	0.96165
0.71	15.781	-37361	2302.8	-0.0036112	0.30812	0.96204
0.712	15.765	-37362	2302.7	-0.0059536	0.30949	0.96243
0.714	15.806	-37356	2302.6	-0.008296	0.31086	0.96282
0.716	15.919	-37350	2302.5	-0.0081008	0.31125	0.96302
0.718	15.998	-37355	2302.4	-0.0079056	0.31164	0.96321
0.72	16.033	-37361	2302.3	-0.0077104	0.31203	0.96341
0.722	15.991	-37358	2302.2	-0.0075152	0.31242	0.9636
0.724	15.93	-37355	2302.2	-0.00732	0.31281	0.9638
0.726	15.907	-37355	2302.1	-0.0064416	0.31261	0.9637
0.728	15.869	-37356	2302.1	-0.0055632	0.31242	0.9636
0.73	15.841	-37349	2302	-0.0046848	0.31222	0.96351
0.732	15.885	-37342	2302	-0.0038064	0.31203	0.96341
0.734	15.883	-37346	2301.9	-0.002928	0.31183	0.96331
0.736	15.902	-37351	2301.9	-0.003904	0.31222	0.9638
0.738	15.921	-37352	2301.9	-0.00488	0.31261	0.96429
0.74	15.837	-37354	2301.9	-0.005856	0.313	0.96478
0.742	15.878	-37353	2301.8	-0.006832	0.31339	0.96526
0.744	15.935	-37351	2301.8	-0.007808	0.31378	0.96575
0.746	15.892	-37352	2301.8	-0.0080032	0.31388	0.96526
0.748	15.899	-37353	2301.8	-0.0081984	0.31398	0.96478
0.75	15.932	-37354	2301.7	-0.0083936	0.31408	0.96429
0.752	15.921	-37355	2301.7	-0.0085888	0.31417	0.9638
0.754	15.875	-37357	2301.6	-0.008784	0.31427	0.96331
0.756	15.836	-37360	2301.6	-0.00732	0.31388	0.96282
0.758	15.868	-37360	2301.5	-0.005856	0.31349	0.96234
0.76	15.904	-37359	2301.5	-0.004392	0.3131	0.96185
0.762	15.932	-37357	2301.4	-0.002928	0.31271	0.96136
0.764	15.932	-37355	2301.4	-0.001464	0.31232	0.96087
0.766	15.93	-37355	2301.3	-0.0020496	0.31291	0.96214
0.768	15.906	-37354	2301.2	-0.0026352	0.31349	0.96341
0.77	15.84	-37355	2301.1	-0.0032208	0.31408	0.96468
0.772	15.832	-37356	2301	-0.0038064	0.31466	0.96595
0.774	15.901	-37347	2300.9	-0.004392	0.31525	0.96722
0.776	15.954	-37339	2300.8	-0.0038064	0.31447	0.96673
0.778	15.946	-37343	2300.8	-0.0032208	0.31369	0.96624
0.78	15.898	-37347	2300.7	-0.0026352	0.31291	0.96575
0.782	15.895	-37347	2300.7	-0.0020496	0.31212	0.96526
0.784	15.941	-37346	2300.6	-0.001464	0.31134	0.96478
0.786	15.922	-37346	2300.6	-0.0032208	0.31134	0.96478
0.788	15.866	-37345	2300.6	-0.0049776	0.31134	0.96478
0.79	15.821	-37349	2300.7	-0.0067344	0.31134	0.96478
0.792	15.774	-37354	2300.8	-0.0084912	0.31134	0.96478
0.794	15.784	-37348	2300.8	-0.010248	0.31134	0.96478
0.796	15.835	-37342	2300.8	-0.0095648	0.31164	0.96409
0.798	15.876	-37345	2300.8	-0.0088816	0.31193	0.96341
0.8	15.949	-37348	2300.8	-0.0081984	0.31222	0.96273
0.802	15.98	-37356	2300.9	-0.0075152	0.31252	0.96204
0.804	15.945	-37363	2301	-0.006832	0.31281	0.96136
0.806	15.818	-37359	2300.9	-0.0045872	0.31193	0.96038
0.808	15.794	-37354	2300.9	-0.0023424	0.31105	0.95941
0.81	15.865	-37350	2300.9	-9.76e-05	0.31017	0.95843
0.812	15.957	-37346	2300.9	0.0021472	0.30929	0.95746
0.814	15.98	-37350	2300.9	0.004392	0.30842	0.95648
0.816	15.984	-37355	2300.9	0.003416	0.30881	0.95619
0.818	15.97	-37357	2300.9	0.00244	0.3092	0.95589
0.82	15.965	-37360	2300.9	0.001464	0.30959	0.9556
0.822	15.946	-37359	2301	0.000488	0.30998	0.95531
0.824	15.9	-37358	2301	-0.000488	0.31037	0.95502
0.826	15.865	-37357	2300.9	0.0003904	0.30978	0.95463
0.828	15.868	-37357	2300.9	0.0012688	0.3092	0.95424
0.83	15.855	-37361	2300.9	0.0021472	0.30861	0.95384
0.832	15.856	-37366	2300.9	0.0030256	0.30803	0.95345
0.834	15.886	-37359	2300.9	0.003904	0.30744	0.95306
0.836	15.944	-37351	2300.9	0.004392	0.30803	0.95414
0.838	15.935	-37357	2300.8	0.00488	0.30861	0.95521
0.84	15.888	-37364	2300.8	0.005368	0.3092	0.95628
0.842	15.843	-37364	2300.8	0.005856	0.30978	0.95736
0.844	15.777	-37365	2300.7	0.006344	0.31037	0.95843
0.846	15.782	-37363	2300.6	0.0056608	0.31037	0.95892
0.848	15.874	-37361	2300.6	0.0049776	0.31037	0.95941
0.85	15.938	-37365	2300.6	0.0042944	0.31037	0.9599
0.852	15.928	-37368	2300.5	0.0036112	0.31037	0.96038
0.854	15.915	-37374	2300.5	0.002928	0.31037	0.96087
0.856	15.925	-37380	2300.5	0.002928	0.30998	0.95951
0.858	15.928	-37374	2300.5	0.002928	0.30959	0.95814
0.86	15.932	-37368	2300.4	0.002928	0.3092	0.95677
0.862	15.929	-37369	2300.5	0.002928	0.30881	0.95541
0.864	15.902	-37371	2300.5	0.002928	0.30842	0.95404
0.866	15.867	-37372	2300.5	0.001464	0.3092	0.95345
0.868	15.824	-37373	2300.4	-2.1684e-19	0.30998	0.95287
0.87	15.832	-37377	2300.4	-0.001464	0.31076	0.95228
0.872	15.887	-37380	2300.4	-0.002928	0.31154	0.9517
0.874	15.9	-37381	2300.4	-0.004392	0.31232	0.95111
0.876	15.944	-37382	2300.4	-0.0041968	0.31261	0.95121
0.878	15.997	-37382	2300.4	-0.0040016	0.31291	0.95131
0.88	15.977	-37383	2300.4	-0.0038064	0.3132	0.9514
0.882	15.918	-37387	2300.3	-0.0036112	0.31349	0.9515
0.884	15.852	-37392	2300.2	-0.003416	0.31378	0.9516
0.886	15.832	-37386	2300.2	-0.00244	0.31242	0.95209
0.888	15.851	-37380	2300.1	-0.001464	0.31105	0.95258
0.89	15.901	-37383	2300	-0.000488	0.30968	0.95306
0.892	15.956	-37386	2299.9	0.000488	0.30832	0.95355
0.894	15.995	-37382	2299.8	0.001464	0.30695	0.95404
0.896	16.015	-37379	2299.7	0.0001952	0.30812	0.95384
0.898	16.017	-37380	2299.5	-0.0010736	0.30929	0.95365
0.9	15.997	-37381	2299.4	-0.0023424	0.31047	0.95345
0.902	15.971	-37381	2299.2	-0.0036112	0.31164	0.95326
0.904	15.968	-37381	2299	-0.00488	0.31281	0.95306
0.906	15.974	-37383	2298.8	-0.0045872	0.31271	0.95267
0.908	15.945	-37385	2298.7	-0.0042944	0.31261	0.95228
0.91	15.923	-37385	2298.5	-0.0040016	0.31252	0.95189
0.912	15.903	-37385	2298.4	-0.0037088	0.31242	0.9515
0.914	15.918	-37385	2298.3	-0.003416	0.31232	0.95111
0.916	15.917	-37386	2298.2	-0.0030256	0.31212	0.9516
0.918	15.906	-37387	2298.1	-0.0026352	0.31193	0.95209
0.92	15.881	-37389	2298	-0.0022448	0.31173	0.95258
0.922	15.88	-37393	2297.9	-0.0018544	0.31154	0.95306
0.924	15.885	-37397	2297.8	-0.001464	0.31134	0.95355
0.926	15.906	-37393	2297.7	-0.0015616	0.31095	0.95355
0.928	15.959	-37389	2297.7	-0.0016592	0.31056	0.95355
0.93	15.997	-37394	2297.6	-0.0017568	0.31017	0.95355
0.932	15.999	-37399	2297.5	-0.0018544	0.30978	0.95355
0.934	15.976	-37400	2297.4	-0.001952	0.30939	0.95355
0.936	15.942	-37401	2297.3	-0.0022448	0.31105	0.95453
0.938	15.872	-37404	2297.2	-0.0025376	0.31271	0.9555
0.94	15.828	-37407	2297	-0.0028304	0.31437	0.95648
0.942	15.857	-37403	2296.9	-0.0031232	0.31603	0.95746
0.944	15.928	-37400	2296.7	-0.003416	0.31769	0.95843
0.946	15.951	-37399	2296.6	-0.0038064	0.31769	0.9596
0.948	15.938	-37398	2296.4	-0.0041968	0.31769	0.96077
0.95	15.945	-37398	2296.3	-0.0045872	0.31769	0.96195
0.952	15.914	-37398	2296.1	-0.0049776	0.31769	0.96312
0.954	15.873	-37401	2296	-0.005368	0.31769	0.96429
0.956	15.876	-37404	2295.9	-0.0057584	0.31652	0.9636
0.958	15.904	-37404	2295.8	-0.0061488	0.31535	0.96292
0.96	15.871	-37405	2295.7	-0.0065392	0.31417	0.96224
0.962	15.852	-37403	2295.7	-0.0069296	0.313	0.96156
0.964	15.852	-37402	2295.6	-0.00732	0.31183	0.96087
0.966	15.855	-37409	2295.6	-0.0077104	0.31252	0.96136
0.968	15.864	-37416	2295.5	-0.0081008	0.3132	0.96185
0.97	15.868	-37414	2295.5	-0.0084912	0.31388	0.96234
0.972	15.857	-37412	2295.5	-0.0088816	0.31456	0.96282
0.974	15.853	-37413	2295.5	-0.009272	0.31525	0.96331
0.976	15.849	-37414	2295.5	-0.0075152	0.31466	0.96224
0.978	15.821	-37417	2295.5	-0.0057584	0.31408	0.96116
0.98	15.815	-37419	2295.5	-0.0040016	0.31349	0.96009
0.982	15.865	-37418	2295.4	-0.0022448	0.31291	0.95902
0.984	15.904	-37417	2295.4	-0.000488	0.31232	0.95794
0.986	15.834	-37421	2295.3	-0.0005856	0.31281	0.95716
0.988	15.809	-37426	2295.2	-0.0006832	0.3133	0.95638
0.99	15.862	-37425	2295.1	-0.0007808	0.31378	0.9556
0.992	15.918	-37425	2295.1	-0.0008784	0.31427	0.95482
0.994	15.894	-37428	2295	-0.000976	0.31476	0.95404
0.996	15.874	-37430	2294.9	-0.0010736	0.31496	0.9557
0.998	15.882	-37428	2294.9	-0.0011712	0.31515	0.95736
1	15.832	-37426	2294.8	-0.0012688	0.31535	0.95902
1.002	15.815	-37431	2294.7	-0.0013664	0.31554	0.96068
1.004	15.89	-37435	2294.6	-0.001464	0.31574	0.96234
1.006	15.938	-37438	2294.5	-0.00244	0.31632	0.96243
1.008	15.89	-37440	2294.5	-0.003416	0.31691	0.96253
1.01	15.914	-37439	2294.4	-0.004392	0.31749	0.96263
1.012	15.955	-37437	2294.3	-0.005368	0.31808	0.96273
1.014	15.959	-37439	2294.3	-0.006344	0.31866	0.96282
1.016	15.97	-37441	2294.2	-0.0056608	0.31837	0.96263
1.018	15.974	-37441	2294.1	-0.0049776	0.31808	0.96243
1.02	15.967	-37441	2294	-0.0042944	0.31779	0.96224
1.022	15.958	-37440	2293.9	-0.0036112	0.31749	0.96204
1.024	15.985	-37440	2293.8	-0.002928	0.3172	0.96185
1.026	16.024	-37442	2293.7	-0.0035136	0.31769	0.96175
1.028	16.037	-37445	2293.6	-0.0040992	0.31818	0.96165
1.03	16.022	-37448	2293.5	-0.0046848	0.31866	0.96156
1.032	15.972	-37451	2293.3	-0.0052704	0.31915	0.96146
1.034	15.925	-37453	2293.2	-0.005856	0.31964	0.96136
1.036	15.904	-37454	2293.1	-0.0054656	0.31915	0.96175
1.038	15.866	-37449	2293	-0.0050752	0.31866	0.96214
1.04	15.806	-37445	2292.9	-0.0046848	0.31818	0.96253
1.042	15.774	-37451	2292.9	-0.0042944	0.31769	0.96292
1.044	15.756	-37456	2292.8	-0.003904	0.3172	0.96331
1.046	15.744	-37458	2292.8	-0.002928	0.3171	0.96273
1.048	15.74	-37459	2292.7	-0.001952	0.317	0.96214
1.05	15.71	-37463	2292.7	-0.000976	0.31691	0.96156
1.052	15.648	-37466	2292.6	2.1684e-19	0.31681	0.96097
1.054	15.593	-37466	2292.6	0.000976	0.31671	0.96038
1.056	15.659	-37465	2292.5	0.0008784	0.31691	0.9599
1.058	15.78	-37466	2292.5	0.0007808	0.3171	0.95941
1.06	15.825	-37468	2292.5	0.0006832	0.3173	0.95892
1.062	15.899	-37469	2292.5	0.0005856	0.31749	0.95843
1.064	15.908	-37470	2292.5	0.000488	0.31769	0.95794
1.066	15.871	-37471	2292.5	0.000976	0.31661	0.95814
1.068	15.901	-37471	2292.5	0.001464	0.31554	0.95833
1.07	15.95	-37475	2292.5	0.001952	0.31447	0.95853
1.072	15.932	-37480	2292.5	0.00244	0.31339	0.95872
1.074	15.93	-37479	2292.5	0.002928	0.31232	0.95892
1.076	15.904	-37479	2292.5	0.0010736	0.31388	0.9597
1.078	15.887	-37478	2292.4	-0.0007808	0.31544	0.96048
1.08	15.916	-37476	2292.4	-0.0026352	0.317	0.96126
1.082	15.942	-37478	2292.3	-0.0044896	0.31857	0.96204
1.084	15.874	-37481	2292.3	-0.006344	0.32013	0.96282
1.086	15.807	-37484	2292.2	-0.0041968	0.31837	0.96204
1.088	15.787	-37488	2292.1	-0.0020496	0.31661	0.96126
1.09	15.768	-37490	2292	9.76e-05	0.31486	0.96048
1.092	15.796	-37492	2291.9	0.0022448	0.3131	0.9597
1.094	15.87	-37488	2291.7	0.004392	0.31134	0.95892
1.096	15.943	-37484	2291.6	0.0045872	0.31154	0.95921
1.098	15.932	-37484	2291.5	0.0047824	0.31173	0.95951
1.1	15.89	-37484	2291.4	0.0049776	0.31193	0.9598
1.102	15.896	-37485	2291.2	0.0051728	0.31212	0.96009
1.104	15.912	-37486	2291.1	0.005368	0.31232	0.96038
1.106	15.919	-37488	2290.9	0.0044896	0.31261	0.96038
1.108	15.966	-37490	2290.8	0.0036112	0.31291	0.96038
1.11	15.982	-37492	2290.6	0.0027328	0.3132	0.96038
1.112	15.934	-37495	2290.5	0.0018544	0.31349	0.96038
1.114	15.916	-37495	2290.4	0.000976	0.31378	0.96038
1.116	15.916	-37495	2290.3	0.0012688	0.31291	0.95921
1.118	15.893	-37498	2290.2	0.0015616	0.31203	0.95804
1.12	15.873	-37500	2290.1	0.0018544	0.31115	0.95687
1.122	15.851	-37505	2290.1	0.0021472	0.31027	0.9557
1.124	15.844	-37510	2290	0.00244	0.30939	0.95453
1.126	15.865	-37511	2290	0.001952	0.30968	0.95472
1.128	15.877	-37512	2290	0.001464	0.30998	0.95492
1.13	15.842	-37513	2290	0.000976	0.31027	0.95511
1.132	15.856	-37515	2290	0.000488	0.31056	0.95531
1.134	15.898	-37517	2290	0	0.31086	0.9555
1.136	15.878	-37520	2290	-0.0003904	0.31047	0.95511
1.138	15.872	-37522	2290	-0.0007808	0.31008	0.95472
1.14	15.902	-37525	2290	-0.0011712	0.30968	0.95433
1.142	15.885	-37522	2290	-0.0015616	0.30929	0.95394
1.144	15.804	-37520	2290	-0.001952	0.3089	0.95355
1.146	15.764	-37521	2289.9	-0.0028304	0.30988	0.95541
1.148	15.864	-37523	2289.9	-0.0037088	0.31086	0.95726
1.15	15.974	-37525	2289.8	-0.0045872	0.31183	0.95912
1.152	16.05	-37527	2289.8	-0.0054656	0.31281	0.96097
1.154	16.036	-37526	2289.7	-0.006344	0.31378	0.96282
1.156	15.961	-37526	2289.7	-0.0061488	0.31408	0.96243
1.158	15.903	-37526	2289.6	-0.0059536	0.31437	0.96204
1.16	15.841	-37527	2289.6	-0.0057584	0.31466	0.96165
1.162	15.825	-37527	2289.5	-0.0055632	0.31496	0.96126
1.164	15.833	-37528	2289.4	-0.005368	0.31525	0.96087
1.166	15.858	-37535	2289.3	-0.00488	0.31447	0.95999
1.168	15.901	-37543	2289.3	-0.004392	0.31369	0.95912
1.17	15.931	-37542	2289.2	-0.003904	0.31291	0.95824
1.172	15.961	-37541	2289.2	-0.003416	0.31212	0.95736
1.174	15.946	-37539	2289.1	-0.002928	0.31134	0.95648
1.176	15.895	-37538	2289.1	-0.0038064	0.31115	0.9556
1.178	15.827	-37541	2289	-0.0046848	0.31095	0.95472
1.18	15.82	-37543	2289	-0.0055632	0.31076	0.95384
1.182	15.872	-37544	2288.9	-0.0064416	0.31056	0.95297
1.184	15.903	-37544	2288.8	-0.00732	0.31037	0.95209
1.186	15.92	-37545	2288.7	-0.0066368	0.31066	0.95228
1.188	15.913	-37546	2288.6	-0.0059536	0.31095	0.95248
1.19	15.906	-37551	2288.5	-0.0052704	0.31125	0.95267
1.192	15.888	-37556	2288.3	-0.0045872	0.31154	0.95287
1.194	15.848	-37557	2288.2	-0.003904	0.31183	0.95306
1.196	15.794	-37558	2288	-0.0044896	0.31232	0.95306
1.198	15.792	-37558	2287.9	-0.0050752	0.31281	0.95306
1.2	15.858	-37558	2287.8	-0.0056608	0.3133	0.95306
1.202	15.922	-37560	2287.7	-0.0062464	0.31378	0.95306
1.204	15.944	-37562	2287.7	-0.006832	0.31427	0.95306
1.206	15.93	-37566	2287.7	-0.0066368	0.31408	0.95277
1.208	15.914	-37570	2287.8	-0.0064416	0.31388	0.95248
1.21	15.927	-37573	2287.9	-0.0062464	0.31369	0.95219
1.212	15.952	-37575	2288	-0.0060512	0.31349	0.95189
1.214	15.961	-37572	2288.2	-0.005856	0.3133	0.9516
1.216	15.976	-37569	2288.4	-0.0050752	0.31408	0.9516
1.218	15.961	-37575	2288.7	-0.0042944	0.31486	0.9516
1.22	15.903	-37581	2289	-0.0035136	0.31564	0.9516
1.222	15.866	-37584	2289.4	-0.0027328	0.31642	0.9516
1.224	15.891	-37587	2289.7	-0.001952	0.3172	0.9516
1.226	15.91	-37583	2290.2	-0.0028304	0.3172	0.9518
1.228	15.911	-37579	2290.6	-0.0037088	0.3172	0.95199
1.23	15.903	-37579	2291	-0.0045872	0.3172	0.95219
1.232	15.903	-37579	2291.6	-0.0054656	0.3172	0.95238
1.234	15.879	-37579	2292.1	-0.006344	0.3172	0.95258
1.236	15.88	-37579	2292.6	-0.0045872	0.31554	0.95306
1.238	15.903	-37579	2293.2	-0.0028304	0.31388	0.95355
1.24	15.952	-37580	2293.7	-0.0010736	0.31222	0.95404
1.242	15.954	-37582	2294.3	0.0006832	0.31056	0.95453
1.244	15.959	-37584	2294.8	0.00244	0.3089	0.95502
1.246	15.937	-37590	2295.4	0.0030256	0.30959	0.95502
1.248	15.939	-37596	2295.9	0.0036112	0.31027	0.95502
1.25	15.92	-37594	2296.3	0.0041968	0.31095	0.95502
1.252	15.9	-37593	2296.8	0.0047824	0.31164	0.95502
1.254	15.964	-37588	2297.3	0.005368	0.31232	0.95502
1.256	15.969	-37584	2297.8	0.0054656	0.31222	0.9555
1.258	15.972	-37591	2298.4	0.0055632	0.31212	0.95599
1.26	16.016	-37599	2298.9	0.0056608	0.31203	0.95648
1.262	16.033	-37602	2299.5	0.0057584	0.31193	0.95697
1.264	15.933	-37605	2300	0.005856	0.31183	0.95746
1.266	15.862	-37603	2300.5	0.005368	0.31095	0.95648
1.268	15.871	-37601	2301	0.00488	0.31008	0.9555
1.27	15.877	-37593	2301.5	0.004392	0.3092	0.95453
1.272	15.891	-37585	2302	0.003904	0.30832	0.95355
1.274	15.924	-37585	2302.5	0.003416	0.30744	0.95258
1.276	15.939	-37585	2303	0.002928	0.30793	0.95345
1.278	15.877	-37584	2303.4	0.00244	0.30842	0.95433
1.28	15.89	-37584	2303.9	0.001952	0.3089	0.95521
1.282	16.005	-37579	2304.4	0.001464	0.30939	0.95609
1.284	16.039	-37575	2304.8	0.000976	0.30988	0.95697
1.286	16.014	-37576	2305.2	0.0006832	0.31008	0.95648
1.288	16.021	-37577	2305.6	0.0003904	0.31027	0.95599
1.29	16.031	-37571	2306	9.76e-05	0.31047	0.9555
1.292	16.04	-37565	2306.4	-0.0001952	0.31066	0.95502
1.294	16.05	-37563	2306.7	-0.000488	0.31086	0.95453
1.296	16.035	-37561	2307	9.76e-05	0.31095	0.95541
1.298	15.99	-37555	2307.3	0.0006832	0.31105	0.95628
1.3	15.944	-37550	2307.5	0.0012688	0.31115	0.95716
1.302	15.93	-37542	2307.7	0.0018544	0.31125	0.95804
1.304	15.976	-37533	2307.9	0.00244	0.31134	0.95892
1.306	16	-37527	2308	0.000488	0.31242	0.96009
1.308	16.014	-37520	2308.1	-0.001464	0.31349	0.96126
1.31	16.018	-37515	2308.2	-0.003416	0.31456	0.96243
1.312	15.976	-37510	2308.3	-0.005368	0.31564	0.9636
1.314	15.91	-37512	2308.4	-0.00732	0.31671	0.96478
1.316	15.862	-37514	2308.4	-0.0076128	0.31554	0.96458
1.318	15.845	-37499	2308.4	-0.0079056	0.31437	0.96439
1.32	15.927	-37485	2308.4	-0.0081984	0.3132	0.96419
1.322	16.041	-37481	2308.4	-0.0084912	0.31203	0.964
1.324	16.075	-37476	2308.3	-0.008784	0.31086	0.9638
1.326	16.087	-37475	2308.3	-0.0079056	0.31183	0.96546
1.328	16.084	-37474	2308.2	-0.0070272	0.31281	0.96712
1.33	16.023	-37475	2308.1	-0.0061488	0.31378	0.96878
1.332	15.993	-37476	2308	-0.0052704	0.31476	0.97044
1.334	16.007	-37467	2307.9	-0.004392	0.31574	0.9721
1.336	15.983	-37457	2307.9	-0.005368	0.31466	0.96966
1.338	15.957	-37451	2307.9	-0.006344	0.31359	0.96722
1.34	15.943	-37445	2307.8	-0.00732	0.31252	0.96478
1.342	15.933	-37441	2307.7	-0.008296	0.31144	0.96234
1.344	15.924	-37436	2307.6	-0.009272	0.31037	0.9599
1.346	15.953	-37427	2307.6	-0.0080032	0.31056	0.95951
1.348	15.948	-37417	2307.5	-0.0067344	0.31076	0.95912
1.35	15.875	-37413	2307.4	-0.0054656	0.31095	0.95872
1.352	15.81	-37408	2307.4	-0.0041968	0.31115	0.95833
1.354	15.859	-37403	2307.3	-0.002928	0.31134	0.95794
1.356	15.915	-37397	2307.2	-0.0045872	0.31095	0.95882
1.358	15.885	-37390	2307.1	-0.0062464	0.31056	0.9597
1.36	15.834	-37383	2307	-0.0079056	0.31017	0.96058
1.362	15.851	-37382	2306.9	-0.0095648	0.30978	0.96146
1.364	15.963	-37381	2306.7	-0.011224	0.30939	0.96234
1.366	16.028	-37374	2306.6	-0.010248	0.31076	0.96321
1.368	16.003	-37366	2306.5	-0.009272	0.31212	0.96409
1.37	15.988	-37362	2306.4	-0.008296	0.31349	0.96497
1.372	15.992	-37357	2306.2	-0.00732	0.31486	0.96585
1.374	15.994	-37354	2306.1	-0.006344	0.31622	0.96673
1.376	15.979	-37352	2306	-0.006832	0.31515	0.96585
1.378	15.944	-37347	2305.8	-0.00732	0.31408	0.96497
1.38	15.932	-37342	2305.7	-0.007808	0.313	0.96409
1.382	15.918	-37337	2305.7	-0.008296	0.31193	0.96321
1.384	15.893	-37332	2305.6	-0.008784	0.31086	0.96234
1.386	15.866	-37325	2305.5	-0.0081008	0.31144	0.96312
1.388	15.875	-37317	2305.4	-0.0074176	0.31203	0.9639
1.39	15.9	-37310	2305.4	-0.0067344	0.31261	0.96468
1.392	15.915	-37304	2305.4	-0.0060512	0.3132	0.96546
1.394	15.915	-37302	2305.3	-0.005368	0.31378	0.96624
1.396	15.862	-37301	2305.3	-0.0054656	0.31369	0.96439
1.398	15.754	-37299	2305.4	-0.0055632	0.31359	0.96253
1.4	15.643	-37298	2305.4	-0.0056608	0.31349	0.96068
1.402	15.617	-37289	2305.3	-0.0057584	0.31339	0.95882
1.404	15.789	-37279	2305.3	-0.005856	0.3133	0.95697
1.406	15.897	-37278	2305.3	-0.0041968	0.31212	0.95687
1.408	15.91	-37277	2305.3	-0.0025376	0.31095	0.95677
1.41	15.982	-37280	2305.3	-0.0008784	0.30978	0.95668
1.412	15.954	-37282	2305.2	0.0007808	0.30861	0.95658
1.414	15.98	-37268	2305.2	0.00244	0.30744	0.95648
1.416	16.002	-37255	2305.1	0.0022448	0.30861	0.95707
1.418	15.989	-37252	2305	0.0020496	0.30978	0.95765
1.42	15.908	-37250	2305	0.0018544	0.31095	0.95824
1.422	15.882	-37249	2305	0.0016592	0.31212	0.95882
1.424	15.878	-37248	2305	0.001464	0.3133	0.95941
1.426	15.864	-37249	2305	0.0010736	0.31271	0.95785
1.428	15.892	-37249	2305	0.0006832	0.31212	0.95628
1.43	15.933	-37243	2305	0.0002928	0.31154	0.95472
1.432	15.931	-37237	2305	-9.76e-05	0.31095	0.95316
1.434	15.91	-37229	2305	-0.000488	0.31037	0.9516
1.436	15.885	-37221	2305	-9.76e-05	0.31076	0.95258
1.438	15.871	-37224	2304.9	0.0002928	0.31115	0.95355
1.44	15.849	-37227	2304.9	0.0006832	0.31154	0.95453
1.442	15.817	-37222	2304.9	0.0010736	0.31193	0.9555
1.444	15.795	-37216	2304.8	0.001464	0.31232	0.95648
1.446	15.797	-37208	2304.7	0.001952	0.31183	0.95619
1.448	15.803	-37200	2304.6	0.00244	0.31134	0.95589
1.45	15.811	-37198	2304.5	0.002928	0.31086	0.9556
1.452	15.816	-37197	2304.3	0.003416	0.31037	0.95531
1.454	15.804	-37192	2304.2	0.003904	0.30988	0.95502
1.456	15.809	-37188	2304	0.0031232	0.30978	0.95433
1.458	15.898	-37181	2303.9	0.0023424	0.30968	0.95365
1.46	15.956	-37175	2303.7	0.0015616	0.30959	0.95297
1.462	15.886	-37170	2303.6	0.0007808	0.30949	0.95228
1.464	15.834	-37164	2303.4	0	0.30939	0.9516
1.466	15.847	-37166	2303.2	0.0006832	0.30929	0.95199
1.468	15.877	-37167	2303	0.0013664	0.3092	0.95238
1.47	15.892	-37170	2302.8	0.0020496	0.3091	0.95277
1.472	15.88	-37172	2302.7	0.0027328	0.309	0.95316
1.474	15.923	-37153	2302.5	0.003416	0.3089	0.95355
1.476	15.956	-37134	2302.4	0.0033184	0.30881	0.95443
1.478	15.966	-37134	2302.3	0.0032208	0.30871	0.95531
1.48	15.948	-37134	2302.1	0.0031232	0.30861	0.95619
1.482	15.911	-37140	2302	0.0030256	0.30851	0.95707
1.484	15.888	-37146	2301.8	0.002928	0.30842	0.95794
1.486	15.913	-37144	2301.8	0.0028304	0.30861	0.95707
1.488	15.941	-37141	2301.7	0.0027328	0.30881	0.95619
1.49	15.888	-37135	2301.7	0.0026352	0.309	0.95531
1.492	15.836	-37129	2301.6	0.0025376	0.3092	0.95443
1.494	15.784	-37126	2301.6	0.00244	0.30939	0.95355
1.496	15.766	-37124	2301.5	0.0022448	0.30949	0.95326
1.498	15.804	-37117	2301.4	0.0020496	0.30959	0.95297
1.5	15.789	-37110	2301.3	0.0018544	0.30968	0.95267
1.502	15.749	-37107	2301.3	0.0016592	0.30978	0.95238
1.504	15.816	-37104	2301.3	0.001464	0.30988	0.95209
1.506	15.879	-37099	2301.2	0.0005856	0.31134	0.95287
1.508	15.969	-37095	2301.2	-0.0002928	0.31281	0.95365
1.51	15.995	-37096	2301.2	-0.0011712	0.31427	0.95443
1.512	15.991	-37097	2301.2	-0.0020496	0.31574	0.95521
1.514	15.949	-37099	2301.3	-0.002928	0.3172	0.95599
1.516	15.918	-37102	2301.2	-0.0018544	0.31583	0.9556
1.518	15.907	-37098	2301.2	-0.0007808	0.31447	0.95521
1.52	15.901	-37094	2301.2	0.0002928	0.3131	0.95482
1.522	15.892	-37091	2301.1	0.0013664	0.31173	0.95443
1.524	15.879	-37087	2301.1	0.00244	0.31037	0.95404
1.526	15.887	-37088	2301	0.0020496	0.31086	0.95394
1.528	15.905	-37090	2301	0.0016592	0.31134	0.95384
1.53	15.897	-37080	2300.9	0.0012688	0.31183	0.95375
1.532	15.875	-37071	2300.8	0.0008784	0.31232	0.95365
1.534	15.857	-37078	2300.7	0.000488	0.31281	0.95355
1.536	15.839	-37086	2300.6	-0.0005856	0.31271	0.95248
1.538	15.803	-37078	2300.4	-0.0016592	0.31261	0.9514
1.54	15.768	-37070	2300.3	-0.0027328	0.31252	0.95033
1.542	15.743	-37075	2300.3	-0.0038064	0.31242	0.94926
1.544	15.714	-37080	2300.3	-0.00488	0.31232	0.94818
1.546	15.707	-37082	2300.2	-0.0052704	0.3133	0.94887
1.548	15.73	-37084	2300.2	-0.0056608	0.31427	0.94955
1.55	15.734	-37081	2300.1	-0.0060512	0.31525	0.95023
1.552	15.746	-37078	2300.2	-0.0064416	0.31622	0.95092
1.554	15.842	-37069	2300.2	-0.006832	0.3172	0.9516
1.556	15.933	-37059	2300.3	-0.0054656	0.31691	0.95248
1.558	15.988	-37063	2300.4	-0.0040992	0.31661	0.95336
1.56	16.042	-37067	2300.5	-0.0027328	0.31632	0.95424
1.562	15.996	-37064	2300.6	-0.0013664	0.31603	0.95511
1.564	15.995	-37060	2300.7	0	0.31574	0.95599
1.566	16.017	-37050	2300.8	-0.0008784	0.31544	0.95521
1.568	15.965	-37040	2300.8	-0.0017568	0.31515	0.95443
1.57	15.895	-37042	2300.9	-0.0026352	0.31486	0.95365
1.572	15.88	-37045	2300.9	-0.0035136	0.31456	0.95287
1.574	15.91	-37048	2300.9	-0.004392	0.31427	0.95209
1.576	15.911	-37052	2300.8	-0.0035136	0.31369	0.95306
1.578	15.924	-37044	2300.8	-0.0026352	0.3131	0.95404
1.58	15.914	-37035	2300.6	-0.0017568	0.31252	0.95502
1.582	15.884	-37034	2300.5	-0.0008784	0.31193	0.95599
1.584	15.858	-37032	2300.4	0	0.31134	0.95697
1.586	15.868	-37030	2300.2	-0.0001952	0.31154	0.95677
1.588	15.856	-37029	2300	-0.0003904	0.31173	0.95658
1.59	15.846	-37025	2299.8	-0.0005856	0.31193	0.95638
1.592	15.827	-37021	2299.6	-0.0007808	0.31212	0.95619
1.594	15.8	-37019	2299.4	-0.000976	0.31232	0.95599
1.596	15.742	-37018	2299.2	-0.0015616	0.31242	0.95589
1.598	15.727	-37021	2298.9	-0.0021472	0.31252	0.9558
1.6	15.765	-37025	2298.8	-0.0027328	0.31261	0.9557
1.602	15.824	-37026	2298.6	-0.0033184	0.31271	0.9556
1.604	15.915	-37026	2298.5	-0.003904	0.31281	0.9555
1.606	15.978	-37022	2298.5	-0.0040016	0.31417	0.95648
1.608	15.927	-37018	2298.6	-0.0040992	0.31554	0.95746
1.61	15.786	-37015	2298.6	-0.0041968	0.31691	0.95843
1.612	15.774	-37013	2298.5	-0.0042944	0.31827	0.95941
1.614	15.838	-37006	2298.5	-0.004392	0.31964	0.96038
1.616	15.944	-37000	2298.5	-0.0056608	0.31769	0.96077
1.618	16.011	-37000	2298.4	-0.0069296	0.31574	0.96116
1.62	15.983	-37000	2298.5	-0.0081984	0.31378	0.96156
1.622	15.928	-37001	2298.5	-0.0094672	0.31183	0.96195
1.624	15.878	-37003	2298.6	-0.010736	0.30988	0.96234
1.626	15.858	-37002	2298.5	-0.010443	0.31037	0.96312
1.628	15.873	-37001	2298.5	-0.01015	0.31086	0.9639
1.63	15.875	-36997	2298.4	-0.0098576	0.31134	0.96468
1.632	15.848	-36992	2298.4	-0.0095648	0.31183	0.96546
1.634	15.818	-36994	2298.4	-0.009272	0.31232	0.96624
1.636	15.831	-36995	2298.5	-0.0093696	0.31252	0.96585
1.638	15.836	-36996	2298.5	-0.0094672	0.31271	0.96546
1.64	15.79	-36996	2298.5	-0.0095648	0.31291	0.96507
1.642	15.812	-36994	2298.4	-0.0096624	0.3131	0.96468
1.644	15.879	-36992	2298.3	-0.00976	0.3133	0.96429
1.646	15.867	-36986	2298.2	-0.0095648	0.3133	0.96419
1.648	15.896	-36980	2298.1	-0.0093696	0.3133	0.96409
1.65	15.92	-36980	2298	-0.0091744	0.3133	0.964
1.652	15.894	-36979	2297.9	-0.0089792	0.3133	0.9639
1.654	15.855	-36979	2297.8	-0.008784	0.3133	0.9638
1.656	15.841	-36978	2297.7	-0.0076128	0.31398	0.96497
1.658	15.815	-36981	2297.6	-0.0064416	0.31466	0.96614
1.66	15.802	-36984	2297.4	-0.0052704	0.31535	0.96731
1.662	15.862	-36986	2297.3	-0.0040992	0.31603	0.96848
1.664	15.888	-36988	2297.2	-0.002928	0.31671	0.96966
1.666	15.837	-36982	2297.2	-0.0037088	0.31603	0.96897
1.668	15.884	-36976	2297.1	-0.0044896	0.31535	0.96829
1.67	15.86	-36983	2297	-0.0052704	0.31466	0.96761
1.672	15.808	-36990	2296.9	-0.0060512	0.31398	0.96692
1.674	15.783	-36984	2296.8	-0.006832	0.3133	0.96624
1.676	15.78	-36979	2296.6	-0.0069296	0.3132	0.96585
1.678	15.855	-36977	2296.5	-0.0070272	0.3131	0.96546
1.68	15.85	-36975	2296.4	-0.0071248	0.313	0.96507
1.682	15.785	-36969	2296.3	-0.0072224	0.31291	0.96468
1.684	15.816	-36963	2296.2	-0.00732	0.31281	0.96429
1.686	15.857	-36966	2296.2	-0.0076128	0.3132	0.96429
1.688	15.848	-36969	2296.1	-0.0079056	0.31359	0.96429
1.69	15.843	-36972	2296.1	-0.0081984	0.31398	0.96429
1.692	15.904	-36976	2296.1	-0.0084912	0.31437	0.96429
1.694	15.925	-36973	2296.1	-0.008784	0.31476	0.96429
1.696	15.897	-36970	2296	-0.0081984	0.31388	0.9637
1.698	15.923	-36969	2296	-0.0076128	0.313	0.96312
1.7	15.926	-36969	2296	-0.0070272	0.31212	0.96253
1.702	15.911	-36971	2296	-0.0064416	0.31125	0.96195
1.704	15.899	-36974	2296	-0.005856	0.31037	0.96136
1.706	15.868	-36972	2296.1	-0.0067344	0.31095	0.96273
1.708	15.838	-36970	2296.2	-0.0076128	0.31154	0.96409
1.71	15.823	-36971	2296.2	-0.0084912	0.31212	0.96546
1.712	15.821	-36972	2296.3	-0.0093696	0.31271	0.96683
1.714	15.829	-36972	2296.3	-0.010248	0.3133	0.96819
1.716	15.828	-36972	2296.4	-0.0099552	0.31252	0.96702
1.718	15.82	-36970	2296.5	-0.0096624	0.31173	0.96585
1.72	15.848	-36969	2296.5	-0.0093696	0.31095	0.96468
1.722	15.894	-36972	2296.5	-0.0090768	0.31017	0.96351
1.724	15.883	-36975	2296.6	-0.008784	0.30939	0.96234
1.726	15.857	-36974	2296.6	-0.0081984	0.31066	0.96321
1.728	15.882	-36973	2296.5	-0.0076128	0.31193	0.96409
1.73	15.903	-36965	2296.5	-0.0070272	0.3132	0.96497
1.732	15.896	-36957	2296.5	-0.0064416	0.31447	0.96585
1.734	15.881	-36960	2296.5	-0.005856	0.31574	0.96673
1.736	15.866	-36963	2296.5	-0.0067344	0.31466	0.96604
1.738	15.836	-36966	2296.4	-0.0076128	0.31359	0.96536
1.74	15.836	-36969	2296.3	-0.0084912	0.31252	0.96468
1.742	15.862	-36966	2296.3	-0.0093696	0.31144	0.964
1.744	15.854	-36963	2296.2	-0.010248	0.31037	0.96331
1.746	15.844	-36963	2296.2	-0.0095648	0.31164	0.96341
1.748	15.803	-36962	2296.1	-0.0088816	0.31291	0.96351
1.75	15.784	-36962	2296.1	-0.0081984	0.31417	0.9636
1.752	15.844	-36963	2296	-0.0075152	0.31544	0.9637
1.754	15.87	-36965	2295.9	-0.006832	0.31671	0.9638
1.756	15.823	-36967	2295.9	-0.0061488	0.31583	0.96263
1.758	15.838	-36965	2295.8	-0.0054656	0.31496	0.96146
1.76	15.842	-36964	2295.7	-0.0047824	0.31408	0.96029
1.762	15.829	-36964	2295.6	-0.0040992	0.3132	0.95912
1.764	15.807	-36963	2295.5	-0.003416	0.31232	0.95794
1.766	15.818	-36965	2295.5	-0.0026352	0.31232	0.95765
1.768	15.843	-36967	2295.4	-0.0018544	0.31232	0.95736
1.77	15.859	-36967	2295.3	-0.0010736	0.31232	0.95707
1.772	15.838	-36968	2295.2	-0.0002928	0.31232	0.95677
1.774	15.851	-36967	2295.2	0.000488	0.31232	0.95648
1.776	15.877	-36967	2295.1	0.0003904	0.31242	0.95619
1.778	15.875	-36966	2295	0.0002928	0.31252	0.95589
1.78	15.921	-36965	2295	0.0001952	0.31261	0.9556
1.782	15.959	-36963	2294.9	9.76e-05	0.31271	0.95531
1.784	15.914	-36961	2294.8	0	0.31281	0.95502
1.786	15.838	-36959	2294.8	9.76e-05	0.31222	0.95482
1.788	15.791	-36957	2294.7	0.0001952	0.31164	0.95463
1.79	15.775	-36962	2294.7	0.0002928	0.31105	0.95443
1.792	15.816	-36967	2294.8	0.0003904	0.31047	0.95424
1.794	15.851	-36974	2294.8	0.000488	0.30988	0.95404
1.796	15.852	-36980	2294.9	-0.0015616	0.31027	0.95365
1.798	15.88	-36978	2294.9	-0.0036112	0.31066	0.95326
1.8	15.913	-36977	2294.9	-0.0056608	0.31105	0.95287
1.802	15.889	-36970	2295	-0.0077104	0.31144	0.95248
1.804	15.832	-36964	2295	-0.00976	0.31183	0.95209
1.806	15.864	-36965	2295	-0.0081008	0.31193	0.95326
1.808	15.945	-36965	2294.9	-0.0064416	0.31203	0.95443
1.81	15.925	-36965	2294.9	-0.0047824	0.31212	0.9556
1.812	15.869	-36964	2295	-0.0031232	0.31222	0.95677
1.814	15.843	-36965	2295	-0.001464	0.31232	0.95794
1.816	15.832	-36966	2294.9	-0.0018544	0.31281	0.95775
1.818	15.828	-36969	2294.8	-0.0022448	0.3133	0.95755
1.82	15.843	-36972	2294.8	-0.0026352	0.31378	0.95736
1.822	15.857	-36974	2294.8	-0.0030256	0.31427	0.95716
1.824	15.803	-36975	2294.8	-0.003416	0.31476	0.95697
1.826	15.783	-36977	2294.8	-0.0040992	0.31388	0.9557
1.828	15.811	-36978	2294.7	-0.0047824	0.313	0.95443
1.83	15.829	-36976	2294.7	-0.0054656	0.31212	0.95316
1.832	15.843	-36974	2294.6	-0.0061488	0.31125	0.95189
1.834	15.875	-36972	2294.6	-0.006832	0.31037	0.95062
1.836	15.915	-36970	2294.6	-0.007808	0.30949	0.95072
1.838	15.924	-36970	2294.6	-0.008784	0.30861	0.95082
1.84	15.875	-36971	2294.5	-0.00976	0.30773	0.95092
1.842	15.818	-36975	2294.5	-0.010736	0.30685	0.95101
1.844	15.846	-36978	2294.4	-0.011712	0.30598	0.95111
1.846	15.841	-36982	2294.3	-0.010736	0.30705	0.94994
1.848	15.823	-36986	2294.3	-0.00976	0.30812	0.94877
1.85	15.796	-36984	2294.2	-0.008784	0.3092	0.9476
1.852	15.849	-36982	2294.1	-0.007808	0.31027	0.94643
1.854	15.903	-36979	2294	-0.006832	0.31134	0.94526
1.856	15.947	-36976	2293.9	-0.0074176	0.31144	0.94555
1.858	15.929	-36980	2293.8	-0.0080032	0.31154	0.94584
1.86	15.876	-36984	2293.7	-0.0085888	0.31164	0.94613
1.862	15.841	-36984	2293.6	-0.0091744	0.31173	0.94643
1.864	15.823	-36984	2293.5	-0.00976	0.31183	0.94672
1.866	15.834	-36978	2293.4	-0.010346	0.31125	0.94721
1.868	15.846	-36972	2293.3	-0.010931	0.31066	0.9477
1.87	15.889	-36982	2293.1	-0.011517	0.31008	0.94818
1.872	15.919	-36992	2293	-0.012102	0.30949	0.94867
1.874	15.882	-36993	2292.9	-0.012688	0.3089	0.94916
1.876	15.864	-36994	2292.8	-0.012395	0.30929	0.94906
1.878	15.89	-36993	2292.6	-0.012102	0.30968	0.94896
1.88	15.917	-36992	2292.5	-0.01181	0.31008	0.94887
1.882	15.933	-36992	2292.4	-0.011517	0.31047	0.94877
1.884	15.914	-36992	2292.3	-0.011224	0.31086	0.94867
1.886	15.882	-36990	2292.2	-0.0096624	0.31173	0.95023
1.888	15.871	-36987	2292.1	-0.0081008	0.31261	0.9518
1.89	15.862	-36987	2292.1	-0.0065392	0.31349	0.95336
1.892	15.876	-36987	2292	-0.0049776	0.31437	0.95492
1.894	15.904	-36993	2291.9	-0.003416	0.31525	0.95648
1.896	15.865	-36999	2291.8	-0.0040992	0.31564	0.95775
1.898	15.832	-36998	2291.7	-0.0047824	0.31603	0.95902
1.9	15.898	-36997	2291.7	-0.0054656	0.31642	0.96029
1.902	15.956	-36992	2291.6	-0.0061488	0.31681	0.96156
1.904	15.97	-36986	2291.6	-0.006832	0.3172	0.96282
1.906	15.952	-36990	2291.5	-0.0051728	0.31574	0.96126
1.908	15.923	-36995	2291.5	-0.0035136	0.31427	0.9597
1.91	15.922	-36997	2291.5	-0.0018544	0.31281	0.95814
1.912	15.933	-36999	2291.5	-0.0001952	0.31134	0.95658
1.914	15.908	-36999	2291.4	0.001464	0.30988	0.95502
1.916	15.877	-36999	2291.4	0.0011712	0.31076	0.95609
1.918	15.856	-37004	2291.4	0.0008784	0.31164	0.95716
1.92	15.838	-37009	2291.3	0.0005856	0.31252	0.95824
1.922	15.816	-37004	2291.3	0.0002928	0.31339	0.95931
1.924	15.863	-37000	2291.3	0	0.31427	0.96038
1.926	15.874	-37002	2291.2	9.76e-05	0.3132	0.95872
1.928	15.859	-37005	2291.2	0.0001952	0.31212	0.95707
1.93	15.893	-37003	2291.1	0.0002928	0.31105	0.95541
1.932	15.856	-37002	2291.1	0.0003904	0.30998	0.95375
1.934	15.858	-37007	2291	0.000488	0.3089	0.95209
1.936	15.892	-37012	2291	-0.0001952	0.30968	0.95336
1.938	15.862	-37011	2290.9	-0.0008784	0.31047	0.95463
1.94	15.825	-37009	2290.9	-0.0015616	0.31125	0.95589
1.942	15.794	-37008	2290.8	-0.0022448	0.31203	0.95716
1.944	15.779	-37006	2290.7	-0.002928	0.31281	0.95843
1.946	15.782	-37014	2290.6	-0.002928	0.3132	0.95872
1.948	15.809	-37022	2290.5	-0.002928	0.31359	0.95902
1.95	15.834	-37022	2290.4	-0.002928	0.31398	0.95931
1.952	15.872	-37022	2290.2	-0.002928	0.31437	0.9596
1.954	15.919	-37019	2290.1	-0.002928	0.31476	0.9599
1.956	15.917	-37017	2290.1	-0.001952	0.31339	0.95843
1.958	15.878	-37016	2290	-0.000976	0.31203	0.95697
1.96	15.842	-37015	2289.9	-1.3315e-13	0.31066	0.9555
1.962	15.821	-37018	2289.8	0.000976	0.30929	0.95404
1.964	15.82	-37022	2289.8	0.001952	0.30793	0.95258
1.966	15.836	-37024	2289.7	0.0015616	0.30832	0.95316
1.968	15.856	-37025	2289.6	0.0011712	0.30871	0.95375
1.97	15.849	-37025	2289.5	0.0007808	0.3091	0.95433
1.972	15.789	-37024	2289.3	0.0003904	0.30949	0.95492
1.974	15.708	-37022	2289.2	0	0.30988	0.9555
1.976	15.662	-37020	2289.1	-0.0006832	0.31154	0.95668
1.978	15.675	-37023	2288.9	-0.0013664	0.3132	0.95785
1.98	15.801	-37026	2288.8	-0.0020496	0.31486	0.95902
1.982	15.983	-37031	2288.7	-0.0027328	0.31652	0.96019
1.984	16.01	-37035	2288.6	-0.003416	0.31818	0.96136
1.986	15.944	-37036	2288.6	-0.0051728	0.3172	0.96214
1.988	15.882	-37036	2288.6	-0.0069296	0.31622	0.96292
1.99	15.883	-37034	2288.6	-0.0086864	0.31525	0.9637
1.992	15.909	-37032	2288.5	-0.010443	0.31427	0.96448
1.994	15.899	-37035	2288.5	-0.0122	0.3133	0.96526
1.996	15.842	-37039	2288.4	-0.012883	0.31359	0.96526
1.998	15.837	-37040	2288.4	-0.013566	0.31388	0.96526
2	15.868	-37041	2288.3	-0.01425	0.31417	0.96526
2.002	15.878	-37044	2288.3	-0.014933	0.31447	0.96526
2.004	15.912	-37046	2288.2	-0.015616	0.31476	0.96526
2.006	15.94	-37041	2288.1	-0.013957	0.31417	0.9639
2.008	15.95	-37036	2288.1	-0.012298	0.31359	0.96253
2.01	15.976	-37041	2288	-0.010638	0.313	0.96116
2.012	15.95	-37047	2287.8	-0.0089792	0.31242	0.9598
2.014	15.937	-37046	2287.7	-0.00732	0.31183	0.95843
2.016	15.941	-37046	2287.6	-0.0071248	0.3131	0.95872
2.018	15.953	-37050	2287.5	-0.0069296	0.31437	0.95902
2.02	15.938	-37054	2287.4	-0.0067344	0.31564	0.95931
2.022	15.886	-37052	2287.3	-0.0065392	0.31691	0.9596
2.024	15.851	-37049	2287.2	-0.006344	0.31818	0.9599
2.026	15.843	-37056	2287.1	-0.0071248	0.3173	0.96058
2.028	15.862	-37064	2287	-0.0079056	0.31642	0.96126
2.03	15.824	-37062	2286.9	-0.0086864	0.31554	0.96195
2.032	15.824	-37060	2286.8	-0.0094672	0.31466	0.96263
2.034	15.789	-37062	2286.8	-0.010248	0.31378	0.96331
2.036	15.721	-37063	2286.7	-0.009272	0.31476	0.96214
2.038	15.695	-37061	2286.6	-0.008296	0.31574	0.96097
2.04	15.695	-37058	2286.6	-0.00732	0.31671	0.9598
2.042	15.726	-37059	2286.5	-0.006344	0.31769	0.95863
2.044	15.772	-37061	2286.5	-0.005368	0.31866	0.95746
2.046	15.817	-37069	2286.4	-0.0054656	0.31808	0.95853
2.048	15.828	-37077	2286.4	-0.0055632	0.31749	0.9596
2.05	15.803	-37077	2286.4	-0.0056608	0.31691	0.96068
2.052	15.79	-37076	2286.3	-0.0057584	0.31632	0.96175
2.054	15.785	-37078	2286.3	-0.005856	0.31574	0.96282
2.056	15.756	-37081	2286.3	-0.0080032	0.31535	0.96292
2.058	15.748	-37076	2286.2	-0.01015	0.31496	0.96302
2.06	15.759	-37071	2286.2	-0.012298	0.31456	0.96312
2.062	15.802	-37077	2286.2	-0.014445	0.31417	0.96321
2.064	15.939	-37083	2286.3	-0.016592	0.31378	0.96331
2.066	16.008	-37085	2286.3	-0.016982	0.31486	0.96351
2.068	15.966	-37087	2286.3	-0.017373	0.31593	0.9637
2.07	15.932	-37086	2286.3	-0.017763	0.317	0.9639
2.072	15.88	-37085	2286.3	-0.018154	0.31808	0.96409
2.074	15.845	-37089	2286.3	-0.018544	0.31915	0.96429
2.076	15.838	-37093	2286.3	-0.018642	0.31896	0.96448
2.078	15.827	-37097	2286.3	-0.018739	0.31876	0.96468
2.08	15.824	-37101	2286.3	-0.018837	0.31857	0.96487
2.082	15.858	-37098	2286.3	-0.018934	0.31837	0.96507
2.084	15.87	-37096	2286.3	-0.019032	0.31818	0.96526
2.086	15.844	-37092	2286.3	-0.018739	0.31749	0.96507
2.088	15.84	-37087	2286.2	-0.018446	0.31681	0.96487
2.09	15.836	-37095	2286.2	-0.018154	0.31613	0.96468
2.092	15.811	-37103	2286.2	-0.017861	0.31544	0.96448
2.094	15.823	-37103	2286.1	-0.017568	0.31476	0.96429
2.096	15.852	-37103	2286.1	-0.01747	0.31515	0.96429
2.098	15.827	-37107	2286	-0.017373	0.31554	0.96429
2.1	15.751	-37111	2285.9	-0.017275	0.31593	0.96429
2.102	15.663	-37109	2285.9	-0.017178	0.31632	0.96429
2.104	15.587	-37106	2285.8	-0.01708	0.31671	0.96429
2.106	15.596	-37108	2285.6	-0.015128	0.31564	0.96351
2.108	15.742	-37109	2285.5	-0.013176	0.31456	0.96273
2.11	15.779	-37113	2285.3	-0.011224	0.31349	0.96195
2.112	15.862	-37117	2285.2	-0.009272	0.31242	0.96116
2.114	16.064	-37119	2285.1	-0.00732	0.31134	0.96038
2.116	16.086	-37122	2284.9	-0.0091744	0.31144	0.96097
2.118	15.968	-37119	2284.7	-0.011029	0.31154	0.96156
2.12	15.903	-37117	2284.6	-0.012883	0.31164	0.96214
2.122	15.958	-37124	2284.4	-0.014738	0.31173	0.96273
2.124	15.985	-37130	2284.2	-0.016592	0.31183	0.96331
2.126	15.903	-37126	2284.2	-0.016787	0.31242	0.9638
2.128	15.866	-37121	2284.1	-0.016982	0.313	0.96429
2.13	15.867	-37124	2284.1	-0.017178	0.31359	0.96478
2.132	15.86	-37128	2284	-0.017373	0.31417	0.96526
2.134	15.845	-37130	2284	-0.017568	0.31476	0.96575
2.136	15.838	-37132	2283.9	-0.015323	0.31447	0.96429
2.138	15.838	-37131	2283.8	-0.013078	0.31417	0.96282
2.14	15.847	-37129	2283.8	-0.010834	0.31388	0.96136
2.142	15.864	-37132	2283.7	-0.0085888	0.31359	0.9599
2.144	15.858	-37135	2283.7	-0.006344	0.3133	0.95843
2.146	15.822	-37137	2283.7	-0.0057584	0.3131	0.95863
2.148	15.772	-37139	2283.7	-0.0051728	0.31291	0.95882
2.15	15.738	-37138	2283.7	-0.0045872	0.31271	0.95902
2.152	15.743	-37137	2283.7	-0.0040016	0.31252	0.95921
2.154	15.776	-37142	2283.7	-0.003416	0.31232	0.95941
2.156	15.804	-37146	2283.6	-0.003904	0.31252	0.95999
2.158	15.805	-37145	2283.6	-0.004392	0.31271	0.96058
2.16	15.778	-37144	2283.6	-0.00488	0.31291	0.96116
2.162	15.801	-37144	2283.6	-0.005368	0.3131	0.96175
2.164	15.834	-37145	2283.6	-0.005856	0.3133	0.96234
2.166	15.838	-37154	2283.6	-0.0062464	0.31349	0.96292
2.168	15.753	-37163	2283.6	-0.0066368	0.31369	0.96351
2.17	15.764	-37163	2283.6	-0.0070272	0.31388	0.96409
2.172	15.927	-37163	2283.6	-0.0074176	0.31408	0.96468
2.174	16.037	-37167	2283.6	-0.007808	0.31427	0.96526
2.176	15.996	-37170	2283.6	-0.0083936	0.31339	0.96526
2.178	15.983	-37171	2283.5	-0.0089792	0.31252	0.96526
2.18	15.959	-37171	2283.5	-0.0095648	0.31164	0.96526
2.182	15.894	-37174	2283.5	-0.01015	0.31076	0.96526
2.184	15.852	-37176	2283.5	-0.010736	0.30988	0.96526
2.186	15.819	-37175	2283.5	-0.007808	0.30978	0.96351
2.188	15.839	-37173	2283.6	-0.00488	0.30968	0.96175
2.19	15.81	-37178	2283.6	-0.001952	0.30959	0.95999
2.192	15.83	-37183	2283.7	0.000976	0.30949	0.95824
2.194	15.84	-37179	2283.8	0.003904	0.30939	0.95648
2.196	15.88	-37174	2284	0.0030256	0.31056	0.95638
2.198	15.903	-37177	2284.1	0.0021472	0.31173	0.95628
2.2	15.874	-37180	2284.3	0.0012688	0.31291	0.95619
2.202	15.843	-37182	2284.6	0.0003904	0.31408	0.95609
2.204	15.837	-37184	2284.9	-0.000488	0.31525	0.95599
2.206	15.835	-37189	2285.3	-0.0005856	0.31554	0.95609
2.208	15.858	-37194	2285.6	-0.0006832	0.31583	0.95619
2.21	15.87	-37194	2286	-0.0007808	0.31613	0.95628
2.212	15.833	-37195	2286.5	-0.0008784	0.31642	0.95638
2.214	15.826	-37196	2286.9	-0.000976	0.31671	0.95648
2.216	15.87	-37197	2287.5	-0.0010736	0.317	0.95755
2.218	15.922	-37197	2288.1	-0.0011712	0.3173	0.95863
2.22	15.94	-37197	2288.7	-0.0012688	0.31759	0.9597
2.222	15.896	-37196	2289.3	-0.0013664	0.31788	0.96077
2.224	15.854	-37195	2289.9	-0.001464	0.31818	0.96185
2.226	15.865	-37200	2290.5	-0.0031232	0.31759	0.96273
2.228	15.886	-37205	2291.2	-0.0047824	0.317	0.9636
2.23	15.908	-37205	2291.8	-0.0064416	0.31642	0.96448
2.232	15.948	-37205	2292.4	-0.0081008	0.31583	0.96536
2.234	15.962	-37202	2292.9	-0.00976	0.31525	0.96624
2.236	15.927	-37199	2293.6	-0.0091744	0.31525	0.96546
2.238	15.861	-37200	2294.2	-0.0085888	0.31525	0.96468
2.24	15.753	-37201	2294.8	-0.0080032	0.31525	0.9639
2.242	15.694	-37197	2295.3	-0.0074176	0.31525	0.96312
2.244	15.79	-37194	2295.9	-0.006832	0.31525	0.96234
2.246	15.888	-37193	2296.4	-0.0064416	0.31613	0.96165
2.248	15.942	-37193	2296.9	-0.0060512	0.317	0.96097
2.25	15.96	-37197	2297.4	-0.0056608	0.31788	0.96029
2.252	15.895	-37200	2298	-0.0052704	0.31876	0.9596
2.254	15.824	-37196	2298.5	-0.00488	0.31964	0.95892
2.256	15.861	-37192	2299	-0.0045872	0.31827	0.95921
2.258	15.916	-37187	2299.6	-0.0042944	0.31691	0.95951
2.26	15.928	-37181	2300.1	-0.0040016	0.31554	0.9598
2.262	15.998	-37182	2300.6	-0.0037088	0.31417	0.96009
2.264	16.01	-37183	2301.1	-0.003416	0.31281	0.96038
2.266	15.937	-37180	2301.6	-0.0031232	0.31281	0.9598
2.268	15.934	-37177	2302.1	-0.0028304	0.31281	0.95921
2.27	15.946	-37174	2302.5	-0.0025376	0.31281	0.95863
2.272	15.949	-37171	2303	-0.0022448	0.31281	0.95804
2.274	15.923	-37163	2303.4	-0.001952	0.31281	0.95746
2.276	15.921	-37156	2303.7	-0.0031232	0.31173	0.9558
2.278	15.909	-37156	2304.1	-0.0042944	0.31066	0.95414
2.28	15.867	-37155	2304.4	-0.0054656	0.30959	0.95248
2.282	15.85	-37147	2304.6	-0.0066368	0.30851	0.95082
2.284	15.828	-37139	2304.9	-0.007808	0.30744	0.94916
2.286	15.795	-37137	2305	-0.0094672	0.30715	0.94936
2.288	15.815	-37135	2305.2	-0.011126	0.30685	0.94955
2.29	15.799	-37130	2305.3	-0.012786	0.30656	0.94975
2.292	15.761	-37125	2305.4	-0.014445	0.30627	0.94994
2.294	15.827	-37117	2305.4	-0.016104	0.30598	0.95014
2.296	15.955	-37108	2305.4	-0.014445	0.30676	0.9517
2.298	16.065	-37097	2305.4	-0.012786	0.30754	0.95326
2.3	16.104	-37085	2305.4	-0.011126	0.30832	0.95482
2.302	16.068	-37086	2305.4	-0.0094672	0.3091	0.95638
2.304	16.024	-37086	2305.4	-0.007808	0.30988	0.95794
2.306	15.999	-37081	2305.3	-0.0085888	0.30939	0.95765
2.308	15.96	-37076	2305.3	-0.0093696	0.3089	0.95736
2.31	15.963	-37072	2305.2	-0.01015	0.30842	0.95707
2.312	15.991	-37067	2305.1	-0.010931	0.30793	0.95677
2.314	15.942	-37061	2305.1	-0.011712	0.30744	0.95648
2.316	15.869	-37054	2304.9	-0.012688	0.30822	0.95531
2.318	15.872	-37045	2304.8	-0.013664	0.309	0.95414
2.32	15.929	-37035	2304.7	-0.01464	0.30978	0.95297
2.322	15.956	-37033	2304.6	-0.015616	0.31056	0.9518
2.324	15.938	-37031	2304.6	-0.016592	0.31134	0.95062
2.326	15.941	-37029	2304.5	-0.016299	0.31066	0.95033
2.328	15.935	-37026	2304.4	-0.016006	0.30998	0.95004
2.33	15.887	-37015	2304.3	-0.015714	0.30929	0.94975
2.332	15.883	-37004	2304.2	-0.015421	0.30861	0.94945
2.334	15.89	-36995	2304.1	-0.015128	0.30793	0.94916
2.336	15.855	-36986	2304	-0.015128	0.30881	0.95092
2.338	15.842	-36982	2303.9	-0.015128	0.30968	0.95267
2.34	15.897	-36979	2303.8	-0.015128	0.31056	0.95443
2.342	15.916	-36973	2303.7	-0.015128	0.31144	0.95619
2.344	15.905	-36968	2303.6	-0.015128	0.31232	0.95794
2.346	15.892	-36966	2303.5	-0.01425	0.31125	0.95785
2.348	15.892	-36964	2303.5	-0.013371	0.31017	0.95775
2.35	15.898	-36962	2303.4	-0.012493	0.3091	0.95765
2.352	15.88	-36961	2303.2	-0.011614	0.30803	0.95755
2.354	15.811	-36945	2303.1	-0.010736	0.30695	0.95746
2.356	15.741	-36929	2303.1	-0.011419	0.30695	0.95824
2.358	15.821	-36924	2303	-0.012102	0.30695	0.95902
2.36	15.923	-36919	2302.9	-0.012786	0.30695	0.9598
2.362	15.932	-36917	2302.9	-0.013469	0.30695	0.96058
2.364	15.874	-36915	2302.8	-0.014152	0.30695	0.96136
2.366	15.845	-36909	2302.7	-0.014542	0.30861	0.96312
2.368	15.84	-36904	2302.7	-0.014933	0.31027	0.96487
2.37	15.877	-36899	2302.6	-0.015323	0.31193	0.96663
2.372	15.885	-36894	2302.6	-0.015714	0.31359	0.96839
2.374	15.868	-36891	2302.5	-0.016104	0.31525	0.97014
2.376	15.849	-36888	2302.6	-0.016202	0.31554	0.96927
2.378	15.849	-36882	2302.6	-0.016299	0.31583	0.96839
2.38	15.882	-36875	2302.6	-0.016397	0.31613	0.96751
2.382	15.926	-36873	2302.5	-0.016494	0.31642	0.96663
2.384	15.912	-36871	2302.5	-0.016592	0.31671	0.96575
2.386	15.868	-36867	2302.5	-0.016787	0.31691	0.96565
2.388	15.845	-36863	2302.5	-0.016982	0.3171	0.96556
2.39	15.856	-36846	2302.6	-0.017178	0.3173	0.96546
2.392	15.861	-36829	2302.6	-0.017373	0.31749	0.96536
2.394	15.838	-36827	2302.6	-0.017568	0.31769	0.96526
2.396	15.83	-36825	2302.6	-0.016006	0.3171	0.96468
2.398	15.839	-36824	2302.7	-0.014445	0.31652	0.96409
2.4	15.833	-36822	2302.7	-0.012883	0.31593	0.96351
2.402	15.82	-36816	2302.8	-0.011322	0.31535	0.96292
2.404	15.804	-36811	2302.9	-0.00976	0.31476	0.96234
2.406	15.796	-36806	2303	-0.0088816	0.31554	0.96165
2.408	15.842	-36801	2303.1	-0.0080032	0.31632	0.96097
2.41	15.872	-36797	2303.2	-0.0071248	0.3171	0.96029
2.412	15.868	-36793	2303.3	-0.0062464	0.31788	0.9596
2.414	15.866	-36790	2303.4	-0.005368	0.31866	0.95892
2.416	15.845	-36786	2303.5	-0.005368	0.31837	0.96019
2.418	15.873	-36781	2303.5	-0.005368	0.31808	0.96146
2.42	15.852	-36777	2303.5	-0.005368	0.31779	0.96273
2.422	15.831	-36773	2303.5	-0.005368	0.31749	0.964
2.424	15.789	-36769	2303.5	-0.005368	0.3172	0.96526
2.426	15.795	-36761	2303.4	-0.006344	0.31652	0.96517
2.428	15.835	-36753	2303.4	-0.00732	0.31583	0.96507
2.43	15.847	-36751	2303.3	-0.008296	0.31515	0.96497
2.432	15.937	-36748	2303.3	-0.009272	0.31447	0.96487
2.434	15.908	-36747	2303.2	-0.010248	0.31378	0.96478
2.436	15.877	-36745	2303.1	-0.010248	0.31369	0.96497
2.438	15.847	-36738	2303.1	-0.010248	0.31359	0.96517
2.44	15.849	-36732	2303	-0.010248	0.31349	0.96536
2.442	15.84	-36726	2302.9	-0.010248	0.31339	0.96556
2.444	15.841	-36721	2302.8	-0.010248	0.3133	0.96575
2.446	15.837	-36712	2302.8	-0.0099552	0.3131	0.96526
2.448	15.816	-36704	2302.7	-0.0096624	0.31291	0.96478
2.45	15.772	-36702	2302.6	-0.0093696	0.31271	0.96429
2.452	15.771	-36701	2302.5	-0.0090768	0.31252	0.9638
2.454	15.903	-36701	2302.4	-0.008784	0.31232	0.96331
2.456	15.911	-36701	2302.4	-0.0079056	0.31398	0.96224
2.458	15.872	-36699	2302.4	-0.0070272	0.31564	0.96116
2.46	15.913	-36697	2302.3	-0.0061488	0.3173	0.96009
2.462	15.937	-36687	2302.2	-0.0052704	0.31896	0.95902
2.464	15.891	-36678	2302.1	-0.004392	0.32062	0.95794
2.466	15.852	-36677	2301.9	-0.003904	0.31935	0.95746
2.468	15.825	-36677	2301.8	-0.003416	0.31808	0.95697
2.47	15.81	-36676	2301.6	-0.002928	0.31681	0.95648
2.472	15.799	-36675	2301.4	-0.00244	0.31554	0.95599
2.474	15.798	-36669	2301.2	-0.001952	0.31427	0.9555
2.476	15.826	-36662	2301	-0.0018544	0.31398	0.95589
2.478	15.837	-36662	2300.9	-0.0017568	0.31369	0.95628
2.48	15.819	-36662	2300.7	-0.0016592	0.31339	0.95668
2.482	15.828	-36663	2300.5	-0.0015616	0.3131	0.95707
2.484	15.865	-36664	2300.3	-0.001464	0.31281	0.95746
2.486	15.878	-36658	2300.1	-0.0023424	0.31388	0.95804
2.488	15.847	-36651	2300	-0.0032208	0.31496	0.95863
2.49	15.791	-36647	2299.8	-0.0040992	0.31603	0.95921
2.492	15.772	-36644	2299.7	-0.0049776	0.3171	0.9598
2.494	15.817	-36639	2299.6	-0.005856	0.31818	0.96038
2.496	15.844	-36634	2299.5	-0.0049776	0.31759	0.96009
2.498	15.896	-36629	2299.4	-0.0040992	0.317	0.9598
2.5	15.924	-36624	2299.2	-0.0032208	0.31642	0.95951
2.502	15.899	-36620	2299.2	-0.0023424	0.31583	0.95921
2.504	15.871	-36615	2299.1	-0.001464	0.31525	0.95892
2.506	15.851	-36619	2299	-0.0013664	0.31408	0.95746
2.508	15.848	-36624	2299	-0.0012688	0.31291	0.95599
2.51	15.804	-36621	2299	-0.0011712	0.31173	0.95453
2.512	15.802	-36618	2299	-0.0010736	0.31056	0.95306
2.514	15.801	-36619	2299	-0.000976	0.30939	0.9516
2.516	15.806	-36620	2299	-0.0027328	0.31105	0.9514
2.518	15.878	-36619	2299	-0.0044896	0.31271	0.95121
2.52	15.879	-36619	2299	-0.0062464	0.31437	0.95101
2.522	15.813	-36615	2299.1	-0.0080032	0.31603	0.95082
2.524	15.775	-36611	2299.1	-0.00976	0.31769	0.95062
2.526	15.814	-36612	2299.1	-0.0088816	0.31749	0.9516
2.528	15.9	-36613	2299.1	-0.0080032	0.3173	0.95258
2.53	15.94	-36611	2299.1	-0.0071248	0.3171	0.95355
2.532	15.881	-36610	2299.1	-0.0062464	0.31691	0.95453
2.534	15.829	-36605	2299.1	-0.005368	0.31671	0.9555
2.536	15.864	-36600	2299.1	-0.0055632	0.31691	0.95521
2.538	15.906	-36601	2299.1	-0.0057584	0.3171	0.95492
2.54	15.942	-36601	2299.1	-0.0059536	0.3173	0.95463
2.542	15.886	-36596	2299.1	-0.0061488	0.31749	0.95433
2.544	15.873	-36591	2299.1	-0.006344	0.31769	0.95404
2.546	15.89	-36587	2299.1	-0.0060512	0.3171	0.95414
2.548	15.901	-36583	2299.1	-0.0057584	0.31652	0.95424
2.55	15.884	-36585	2299.1	-0.0054656	0.31593	0.95433
2.552	15.869	-36588	2299.2	-0.0051728	0.31535	0.95443
2.554	15.847	-36586	2299.2	-0.00488	0.31476	0.95453
2.556	15.808	-36583	2299.2	-0.0055632	0.31476	0.95472
2.558	15.748	-36584	2299.1	-0.0062464	0.31476	0.95492
2.56	15.685	-36584	2299.1	-0.0069296	0.31476	0.95511
2.562	15.633	-36581	2299.1	-0.0076128	0.31476	0.95531
2.564	15.635	-36577	2299.1	-0.008296	0.31476	0.9555
2.566	15.756	-36572	2299.1	-0.010053	0.31456	0.95482
2.568	15.904	-36568	2299.1	-0.01181	0.31437	0.95414
2.57	15.957	-36565	2299.1	-0.013566	0.31417	0.95345
2.572	15.966	-36562	2299	-0.015323	0.31398	0.95277
2.574	15.939	-36561	2299	-0.01708	0.31378	0.95209
2.576	15.891	-36560	2298.9	-0.015226	0.31359	0.95248
2.578	15.93	-36556	2298.9	-0.013371	0.31339	0.95287
2.58	15.952	-36553	2298.8	-0.011517	0.3132	0.95326
2.582	15.937	-36549	2298.7	-0.0096624	0.313	0.95365
2.584	15.907	-36546	2298.6	-0.007808	0.31281	0.95404
2.586	15.857	-36544	2298.5	-0.0075152	0.31339	0.95424
2.588	15.845	-36542	2298.5	-0.0072224	0.31398	0.95443
2.59	15.859	-36540	2298.4	-0.0069296	0.31456	0.95463
2.592	15.864	-36539	2298.3	-0.0066368	0.31515	0.95482
2.594	15.856	-36537	2298.3	-0.006344	0.31574	0.95502
2.596	15.834	-36535	2298.2	-0.0076128	0.31417	0.95316
2.598	15.82	-36543	2298.1	-0.0088816	0.31261	0.95131
2.6	15.787	-36551	2298.1	-0.01015	0.31105	0.94945
2.602	15.748	-36547	2298	-0.011419	0.30949	0.9476
2.604	15.733	-36542	2298	-0.012688	0.30793	0.94574
2.606	15.714	-36537	2297.9	-0.011907	0.30871	0.94662
2.608	15.779	-36532	2297.8	-0.011126	0.30949	0.9475
2.61	15.82	-36531	2297.7	-0.010346	0.31027	0.94838
2.612	15.789	-36530	2297.6	-0.0095648	0.31105	0.94926
2.614	15.775	-36530	2297.5	-0.008784	0.31183	0.95014
2.616	15.74	-36530	2297.5	-0.0088816	0.31183	0.95053
2.618	15.774	-36523	2297.5	-0.0089792	0.31183	0.95092
2.62	15.779	-36516	2297.5	-0.0090768	0.31183	0.95131
2.622	15.901	-36513	2297.5	-0.0091744	0.31183	0.9517
2.624	16.008	-36511	2297.4	-0.009272	0.31183	0.95209
2.626	15.979	-36516	2297.5	-0.0089792	0.31222	0.95355
2.628	15.95	-36522	2297.6	-0.0086864	0.31261	0.95502
2.63	15.934	-36521	2297.7	-0.0083936	0.313	0.95648
2.632	15.941	-36520	2297.7	-0.0081008	0.31339	0.95794
2.634	15.919	-36513	2297.7	-0.007808	0.31378	0.95941
2.636	15.897	-36507	2297.6	-0.0077104	0.31417	0.96029
2.638	15.883	-36511	2297.4	-0.0076128	0.31456	0.96116
2.64	15.872	-36515	2297.3	-0.0075152	0.31496	0.96204
2.642	15.865	-36507	2297.1	-0.0074176	0.31535	0.96292
2.644	15.854	-36498	2297	-0.00732	0.31574	0.9638
2.646	15.837	-36507	2296.7	-0.0069296	0.31505	0.96273
2.648	15.834	-36516	2296.5	-0.0065392	0.31437	0.96165
2.65	15.852	-36511	2296.2	-0.0061488	0.31369	0.96058
2.652	15.862	-36506	2296	-0.0057584	0.313	0.95951
2.654	15.821	-36506	2295.7	-0.005368	0.31232	0.95843
2.656	15.737	-36506	2295.5	-0.0061488	0.31183	0.95882
2.658	15.674	-36506	2295.3	-0.0069296	0.31134	0.95921
2.66	15.641	-36505	2295.1	-0.0077104	0.31086	0.9596
2.662	15.596	-36505	2295	-0.0084912	0.31037	0.95999
2.664	15.608	-36505	2294.8	-0.009272	0.30988	0.96038
2.666	15.753	-36505	2294.7	-0.0095648	0.31076	0.96146
2.668	15.874	-36505	2294.6	-0.0098576	0.31164	0.96253
2.67	15.938	-36507	2294.6	-0.01015	0.31252	0.9636
2.672	15.937	-36509	2294.6	-0.010443	0.31339	0.96468
2.674	15.98	-36504	2294.6	-0.010736	0.31427	0.96575
2.676	16.024	-36498	2294.6	-0.0094672	0.31505	0.96653
2.678	15.994	-36496	2294.6	-0.0081984	0.31583	0.96731
2.68	15.947	-36494	2294.6	-0.0069296	0.31661	0.96809
2.682	15.926	-36498	2294.6	-0.0056608	0.3174	0.96888
2.684	15.924	-36502	2294.6	-0.004392	0.31818	0.96966
2.686	15.906	-36499	2294.7	-0.0047824	0.31818	0.96946
2.688	15.898	-36496	2294.8	-0.0051728	0.31818	0.96927
2.69	15.885	-36498	2294.8	-0.0055632	0.31818	0.96907
2.692	15.86	-36501	2294.8	-0.0059536	0.31818	0.96888
2.694	15.839	-36498	2294.8	-0.006344	0.31818	0.96868
2.696	15.85	-36494	2294.8	-0.0049776	0.31691	0.96878
2.698	15.853	-36497	2294.7	-0.0036112	0.31564	0.96888
2.7	15.835	-36500	2294.7	-0.0022448	0.31437	0.96897
2.702	15.831	-36493	2294.7	-0.0008784	0.3131	0.96907
2.704	15.824	-36486	2294.6	0.000488	0.31183	0.96917
2.706	15.826	-36492	2294.6	-0.0007808	0.31291	0.96897
2.708	15.83	-36498	2294.6	-0.0020496	0.31398	0.96878
2.71	15.817	-36500	2294.6	-0.0033184	0.31505	0.96858
2.712	15.808	-36501	2294.6	-0.0045872	0.31613	0.96839
2.714	15.807	-36496	2294.5	-0.005856	0.3172	0.96819
2.716	15.767	-36490	2294.5	-0.0055632	0.31583	0.96604
2.718	15.652	-36491	2294.5	-0.0052704	0.31447	0.9639
2.72	15.658	-36493	2294.5	-0.0049776	0.3131	0.96175
2.722	15.774	-36497	2294.5	-0.0046848	0.31173	0.9596
2.724	15.812	-36502	2294.5	-0.004392	0.31037	0.95746
2.726	15.817	-36499	2294.4	-0.0036112	0.31037	0.95668
2.728	15.814	-36496	2294.4	-0.0028304	0.31037	0.95589
2.73	15.856	-36497	2294.3	-0.0020496	0.31037	0.95511
2.732	15.948	-36498	2294.2	-0.0012688	0.31037	0.95433
2.734	15.944	-36500	2294.2	-0.000488	0.31037	0.95355
2.736	15.885	-36502	2294.1	9.76e-05	0.30978	0.95463
2.738	15.905	-36499	2294	0.0006832	0.3092	0.9557
2.74	15.941	-36495	2293.9	0.0012688	0.30861	0.95677
2.742	15.923	-36494	2293.8	0.0018544	0.30803	0.95785
2.744	15.877	-36493	2293.7	0.00244	0.30744	0.95892
2.746	15.838	-36492	2293.7	0.0011712	0.3092	0.96146
2.748	15.816	-36491	2293.6	-9.76e-05	0.31095	0.964
2.75	15.764	-36492	2293.6	-0.0013664	0.31271	0.96653
2.752	15.696	-36492	2293.6	-0.0026352	0.31447	0.96907
2.754	15.692	-36496	2293.5	-0.003904	0.31622	0.97161
2.756	15.784	-36500	2293.5	-0.0046848	0.31544	0.97092
2.758	15.888	-36505	2293.5	-0.0054656	0.31466	0.97024
2.76	15.96	-36510	2293.5	-0.0062464	0.31388	0.96956
2.762	15.928	-36501	2293.6	-0.0070272	0.3131	0.96888
2.764	15.899	-36491	2293.6	-0.007808	0.31232	0.96819
2.766	15.869	-36496	2293.6	-0.0086864	0.31203	0.96712
2.768	15.858	-36502	2293.6	-0.0095648	0.31173	0.96604
2.77	15.864	-36503	2293.6	-0.010443	0.31144	0.96497
2.772	15.849	-36504	2293.5	-0.011322	0.31115	0.9639
2.774	15.817	-36504	2293.5	-0.0122	0.31086	0.96282
2.776	15.79	-36505	2293.4	-0.010248	0.31134	0.96195
2.778	15.744	-36508	2293.3	-0.008296	0.31183	0.96107
2.78	15.799	-36511	2293.3	-0.006344	0.31232	0.96019
2.782	15.932	-36509	2293.2	-0.004392	0.31281	0.95931
2.784	15.892	-36507	2293.1	-0.00244	0.3133	0.95843
2.786	15.83	-36508	2293	-0.0033184	0.31359	0.95951
2.788	15.82	-36509	2292.9	-0.0041968	0.31388	0.96058
2.79	15.832	-36511	2292.8	-0.0050752	0.31417	0.96165
2.792	15.837	-36514	2292.8	-0.0059536	0.31447	0.96273
2.794	15.837	-36514	2292.7	-0.006832	0.31476	0.9638
2.796	15.78	-36513	2292.6	-0.0067344	0.31447	0.96321
2.798	15.731	-36509	2292.6	-0.0066368	0.31417	0.96263
2.8	15.806	-36505	2292.5	-0.0065392	0.31388	0.96204
2.802	15.854	-36512	2292.5	-0.0064416	0.31359	0.96146
2.804	15.87	-36518	2292.6	-0.006344	0.3133	0.96087
2.806	15.887	-36517	2292.6	-0.0071248	0.31291	0.96048
2.808	15.886	-36517	2292.5	-0.0079056	0.31252	0.96009
2.81	15.838	-36520	2292.5	-0.0086864	0.31212	0.9597
2.812	15.804	-36523	2292.5	-0.0094672	0.31173	0.95931
2.814	15.852	-36523	2292.5	-0.010248	0.31134	0.95892
2.816	15.9	-36524	2292.5	-0.0088816	0.31222	0.95912
2.818	15.886	-36521	2292.5	-0.0075152	0.3131	0.95931
2.82	15.847	-36519	2292.6	-0.0061488	0.31398	0.95951
2.822	15.835	-36519	2292.6	-0.0047824	0.31486	0.9597
2.824	15.839	-36519	2292.7	-0.003416	0.31574	0.9599
2.826	15.818	-36519	2292.7	-0.0037088	0.31564	0.96009
2.828	15.81	-36518	2292.8	-0.0040016	0.31554	0.96029
2.83	15.856	-36515	2292.9	-0.0042944	0.31544	0.96048
2.832	15.887	-36512	2293	-0.0045872	0.31535	0.96068
2.834	15.871	-36514	2293.1	-0.00488	0.31525	0.96087
2.836	15.868	-36515	2293.2	-0.0046848	0.31476	0.95902
2.838	15.868	-36515	2293.3	-0.0044896	0.31427	0.95716
2.84	15.857	-36514	2293.4	-0.0042944	0.31378	0.95531
2.842	15.824	-36518	2293.5	-0.0040992	0.3133	0.95345
2.844	15.77	-36522	2293.6	-0.003904	0.31281	0.9516
2.846	15.759	-36521	2293.7	-0.0052704	0.31193	0.95131
2.848	15.806	-36520	2293.8	-0.0066368	0.31105	0.95101
2.85	15.839	-36522	2293.9	-0.0080032	0.31017	0.95072
2.852	15.857	-36525	2293.9	-0.0093696	0.30929	0.95043
2.854	15.874	-36524	2294	-0.010736	0.30842	0.95014
2.856	15.801	-36522	2294	-0.011517	0.30783	0.94975
2.858	15.756	-36522	2294.1	-0.012298	0.30724	0.94936
2.86	15.776	-36522	2294.1	-0.013078	0.30666	0.94896
2.862	15.785	-36521	2294.1	-0.013859	0.30607	0.94857
2.864	15.765	-36521	2294.1	-0.01464	0.30549	0.94818
2.866	15.805	-36522	2294.1	-0.015323	0.30685	0.94867
2.868	15.817	-36523	2294	-0.016006	0.30822	0.94916
2.87	15.784	-36527	2294	-0.01669	0.30959	0.94965
2.872	15.809	-36530	2293.9	-0.017373	0.31095	0.95014
2.874	15.814	-36530	2293.8	-0.018056	0.31232	0.95062
2.876	15.9	-36530	2293.7	-0.016592	0.31095	0.94965
2.878	16.01	-36529	2293.7	-0.015128	0.30959	0.94867
2.88	15.973	-36528	2293.5	-0.013664	0.30822	0.9477
2.882	15.924	-36530	2293.4	-0.0122	0.30685	0.94672
2.884	15.876	-36533	2293.3	-0.010736	0.30549	0.94574
2.886	15.875	-36539	2293.1	-0.011224	0.30568	0.94574
2.888	15.858	-36544	2293	-0.011712	0.30588	0.94574
2.89	15.857	-36545	2292.8	-0.0122	0.30607	0.94574
2.892	15.893	-36546	2292.7	-0.012688	0.30627	0.94574
2.894	15.905	-36543	2292.5	-0.013176	0.30646	0.94574
2.896	15.89	-36539	2292.4	-0.012883	0.30656	0.94604
2.898	15.877	-36539	2292.2	-0.01259	0.30666	0.94633
2.9	15.885	-36539	2292.1	-0.012298	0.30676	0.94662
2.902	15.89	-36538	2292	-0.012005	0.30685	0.94692
2.904	15.885	-36536	2291.9	-0.011712	0.30695	0.94721
2.906	15.918	-36542	2291.8	-0.011614	0.30724	0.94652
2.908	15.968	-36548	2291.6	-0.011517	0.30754	0.94584
2.91	15.944	-36545	2291.5	-0.011419	0.30783	0.94516
2.912	15.87	-36542	2291.5	-0.011322	0.30812	0.94448
2.914	15.814	-36547	2291.4	-0.011224	0.30842	0.94379
2.916	15.771	-36552	2291.3	-0.011029	0.30803	0.94438
2.918	15.794	-36553	2291.2	-0.010834	0.30764	0.94496
2.92	15.887	-36554	2291.1	-0.010638	0.30724	0.94555
2.922	15.94	-36557	2291.1	-0.010443	0.30685	0.94613
2.924	15.959	-36561	2291	-0.010248	0.30646	0.94672
2.926	15.917	-36560	2291	-0.011029	0.30646	0.94682
2.928	15.885	-36558	2291	-0.01181	0.30646	0.94692
2.93	15.857	-36566	2290.9	-0.01259	0.30646	0.94701
2.932	15.847	-36575	2290.9	-0.013371	0.30646	0.94711
2.934	15.836	-36573	2290.9	-0.014152	0.30646	0.94721
2.936	15.804	-36572	2290.8	-0.014152	0.30695	0.9476
2.938	15.898	-36567	2290.8	-0.014152	0.30744	0.94799
2.94	15.935	-36563	2290.8	-0.014152	0.30793	0.94838
2.942	15.87	-36566	2290.7	-0.014152	0.30842	0.94877
2.944	15.856	-36570	2290.7	-0.014152	0.3089	0.94916
2.946	15.86	-36571	2290.7	-0.013176	0.30832	0.94896
2.948	15.835	-36572	2290.7	-0.0122	0.30773	0.94877
2.95	15.808	-36574	2290.6	-0.011224	0.30715	0.94857
2.952	15.804	-36575	2290.6	-0.010248	0.30656	0.94838
2.954	15.837	-36579	2290.5	-0.009272	0.30598	0.94818
2.956	15.832	-36584	2290.5	-0.00976	0.30588	0.94818
2.958	15.791	-36583	2290.5	-0.010248	0.30578	0.94818
2.96	15.783	-36582	2290.5	-0.010736	0.30568	0.94818
2.962	15.796	-36580	2290.4	-0.011224	0.30559	0.94818
2.964	15.779	-36579	2290.4	-0.011712	0.30549	0.94818
2.966	15.775	-36583	2290.3	-0.012102	0.30568	0.94848
2.968	15.729	-36587	2290.2	-0.012493	0.30588	0.94877
2.97	15.779	-36593	2290.1	-0.012883	0.30607	0.94906
2.972	15.866	-36598	2290.1	-0.013274	0.30627	0.94936
2.974	15.837	-36599	2290.1	-0.013664	0.30646	0.94965
2.976	15.778	-36600	2290	-0.012786	0.30646	0.95014
2.978	15.766	-36598	2290	-0.011907	0.30646	0.95062
2.98	15.845	-36596	2289.9	-0.011029	0.30646	0.95111
2.982	15.91	-36598	2289.8	-0.01015	0.30646	0.9516
2.984	15.886	-36600	2289.7	-0.009272	0.30646	0.95209
2.986	15.838	-36602	2289.6	-0.008784	0.30773	0.95365
2.988	15.833	-36604	2289.5	-0.008296	0.309	0.95521
2.99	15.824	-36603	2289.4	-0.007808	0.31027	0.95677
2.992	15.79	-36602	2289.3	-0.00732	0.31154	0.95833
2.994	15.771	-36605	2289.2	-0.006832	0.31281	0.9599
2.996	15.756	-36608	2289	-0.0071248	0.31359	0.96077
2.998	15.763	-36609	2288.8	-0.0074176	0.31437	0.96165
3	15.821	-36609	2288.7	-0.0077104	0.31515	0.96253
3.002	15.882	-36610	2288.5	-0.0080032	0.31593	0.96341
3.004	15.887	-36610	2288.4	-0.008296	0.31671	0.96429
3.006	15.816	-36611	2288.2	-0.0077104	0.31593	0.9638
3.008	15.794	-36612	2288.1	-0.0071248	0.31515	0.96331
3.01	15.847	-36613	2287.9	-0.0065392	0.31437	0.96282
3.012	15.89	-36614	2287.7	-0.0059536	0.31359	0.96234
3.014	15.912	-36615	2287.6	-0.005368	0.31281	0.96185
3.016	15.928	-36617	2287.5	-0.005856	0.313	0.96204
3.018	15.94	-36615	2287.3	-0.006344	0.3132	0.96224
3.02	15.971	-36613	2287.2	-0.006832	0.31339	0.96243
3.022	15.97	-36614	2287.1	-0.00732	0.31359	0.96263
3.024	15.941	-36615	2287.1	-0.007808	0.31378	0.96282
3.026	15.966	-36629	2286.9	-0.008784	0.31252	0.96234
3.028	15.953	-36642	2286.8	-0.00976	0.31125	0.96185
3.03	15.993	-36644	2286.7	-0.010736	0.30998	0.96136
3.032	16.018	-36646	2286.6	-0.011712	0.30871	0.96087
3.034	15.99	-36645	2286.6	-0.012688	0.30744	0.96038
3.036	15.86	-36644	2286.5	-0.0122	0.30822	0.96048
3.038	15.795	-36648	2286.4	-0.011712	0.309	0.96058
3.04	15.787	-36651	2286.4	-0.011224	0.30978	0.96068
3.042	15.769	-36656	2286.4	-0.010736	0.31056	0.96077
3.044	15.7	-36662	2286.4	-0.010248	0.31134	0.96087
3.046	15.666	-36663	2286.4	-0.010053	0.31115	0.96097
3.048	15.688	-36664	2286.3	-0.0098576	0.31095	0.96107
3.05	15.688	-36659	2286.3	-0.0096624	0.31076	0.96116
3.052	15.668	-36654	2286.4	-0.0094672	0.31056	0.96126
3.054	15.739	-36656	2286.4	-0.009272	0.31037	0.96136
3.056	15.796	-36658	2286.3	-0.010053	0.31066	0.96175
3.058	15.767	-36664	2286.3	-0.010834	0.31095	0.96214
3.06	15.745	-36669	2286.4	-0.011614	0.31125	0.96253
3.062	15.787	-36672	2286.4	-0.012395	0.31154	0.96292
3.064	15.826	-36674	2286.4	-0.013176	0.31183	0.96331
3.066	15.807	-36674	2286.5	-0.014054	0.31291	0.9638
3.068	15.779	-36673	2286.5	-0.014933	0.31398	0.96429
3.07	15.816	-36674	2286.5	-0.015811	0.31505	0.96478
3.072	15.871	-36674	2286.5	-0.01669	0.31613	0.96526
3.074	15.867	-36680	2286.5	-0.017568	0.3172	0.96575
3.076	15.826	-36686	2286.5	-0.017568	0.3173	0.96575
3.078	15.836	-36688	2286.5	-0.017568	0.3174	0.96575
3.08	15.86	-36689	2286.5	-0.017568	0.31749	0.96575
3.082	15.816	-36689	2286.5	-0.017568	0.31759	0.96575
3.084	15.769	-36688	2286.5	-0.017568	0.31769	0.96575
3.086	15.758	-36691	2286.5	-0.017568	0.31818	0.96536
3.088	15.763	-36694	2286.4	-0.017568	0.31866	0.96497
3.09	15.835	-36695	2286.4	-0.017568	0.31915	0.96458
3.092	15.923	-36697	2286.4	-0.017568	0.31964	0.96419
3.094	15.924	-36702	2286.4	-0.017568	0.32013	0.9638
3.096	15.913	-36708	2286.4	-0.017275	0.31857	0.9639
3.098	15.857	-36710	2286.4	-0.016982	0.317	0.964
3.1	15.769	-36711	2286.3	-0.01669	0.31544	0.96409
3.102	15.701	-36708	2286.3	-0.016397	0.31388	0.96419
3.104	15.761	-36704	2286.2	-0.016104	0.31232	0.96429
3.106	15.898	-36708	2286.1	-0.016299	0.3131	0.9639
3.108	15.925	-36711	2286.1	-0.016494	0.31388	0.96351
3.11	15.889	-36715	2286	-0.01669	0.31466	0.96312
3.112	15.851	-36719	2285.9	-0.016885	0.31544	0.96273
3.114	15.844	-36723	2285.8	-0.01708	0.31622	0.96234
3.116	15.817	-36727	2285.8	-0.017178	0.31613	0.96282
3.118	15.826	-36720	2285.7	-0.017275	0.31603	0.96331
3.12	15.789	-36713	2285.7	-0.017373	0.31593	0.9638
3.122	15.792	-36716	2285.6	-0.01747	0.31583	0.96429
3.124	15.809	-36720	2285.5	-0.017568	0.31574	0.96478
3.126	15.782	-36715	2285.4	-0.017666	0.31574	0.96517
3.128	15.778	-36710	2285.3	-0.017763	0.31574	0.96556
3.13	15.782	-36720	2285.2	-0.017861	0.31574	0.96595
3.132	15.8	-36731	2285.1	-0.017958	0.31574	0.96634
3.134	15.809	-36730	2285	-0.018056	0.31574	0.96673
3.136	15.813	-36729	2284.9	-0.01708	0.3132	0.96575
3.138	15.858	-36727	2284.8	-0.016104	0.31066	0.96478
3.14	15.875	-36726	2284.7	-0.015128	0.30812	0.9638
3.142	15.857	-36730	2284.6	-0.014152	0.30559	0.96282
3.144	15.829	-36734	2284.5	-0.013176	0.30305	0.96185
3.146	15.805	-36737	2284.4	-0.01181	0.30402	0.96048
3.148	15.8	-36739	2284.3	-0.010443	0.305	0.95912
3.15	15.834	-36739	2284.3	-0.0090768	0.30598	0.95775
3.152	15.854	-36738	2284.2	-0.0077104	0.30695	0.95638
3.154	15.826	-36747	2284.1	-0.006344	0.30793	0.95502
3.156	15.791	-36755	2284	-0.0065392	0.30842	0.9555
3.158	15.787	-36756	2284	-0.0067344	0.3089	0.95599
3.16	15.817	-36758	2283.9	-0.0069296	0.30939	0.95648
3.162	15.856	-36756	2283.9	-0.0071248	0.30988	0.95697
3.164	15.856	-36755	2283.9	-0.00732	0.31037	0.95746
3.166	15.831	-36754	2283.8	-0.0079056	0.30968	0.95638
3.168	15.818	-36753	2283.8	-0.0084912	0.309	0.95531
3.17	15.826	-36755	2283.7	-0.0090768	0.30832	0.95424
3.172	15.854	-36758	2283.7	-0.0096624	0.30764	0.95316
3.174	15.839	-36758	2283.6	-0.010248	0.30695	0.95209
3.176	15.787	-36758	2283.6	-0.0099552	0.30617	0.95277
3.178	15.785	-36768	2283.6	-0.0096624	0.30539	0.95345
3.18	15.861	-36779	2283.5	-0.0093696	0.30461	0.95414
3.182	15.884	-36777	2283.5	-0.0090768	0.30383	0.95482
3.184	15.821	-36775	2283.4	-0.008784	0.30305	0.9555
3.186	15.8	-36780	2283.4	-0.0090768	0.30402	0.95394
3.188	15.824	-36785	2283.3	-0.0093696	0.305	0.95238
3.19	15.829	-36782	2283.3	-0.0096624	0.30598	0.95082
3.192	15.834	-36778	2283.3	-0.0099552	0.30695	0.94926
3.194	15.836	-36781	2283.3	-0.010248	0.30793	0.9477
3.196	15.838	-36784	2283.3	-0.011224	0.30715	0.94848
3.198	15.827	-36794	2283.3	-0.0122	0.30637	0.94926
3.2	15.827	-36804	2283.3	-0.013176	0.30559	0.95004
3.202	15.768	-36802	2283.2	-0.014152	0.3048	0.95082
3.204	15.776	-36801	2283.2	-0.015128	0.30402	0.9516
3.206	15.799	-36798	2283.2	-0.01503	0.30441	0.95092
3.208	15.81	-36795	2283.2	-0.014933	0.3048	0.95023
3.21	15.798	-36795	2283.2	-0.014835	0.3052	0.94955
3.212	15.836	-36795	2283.2	-0.014738	0.30559	0.94887
3.214	15.914	-36802	2283.3	-0.01464	0.30598	0.94818
3.216	15.881	-36809	2283.4	-0.01503	0.30676	0.94857
3.218	15.827	-36813	2283.5	-0.015421	0.30754	0.94896
3.22	15.844	-36818	2283.6	-0.015811	0.30832	0.94936
3.222	15.825	-36819	2283.8	-0.016202	0.3091	0.94975
3.224	15.882	-36820	2284	-0.016592	0.30988	0.95014
3.226	15.914	-36815	2284.3	-0.016397	0.30978	0.94965
3.228	15.859	-36811	2284.5	-0.016202	0.30968	0.94916
3.23	15.819	-36815	2284.9	-0.016006	0.30959	0.94867
3.232	15.851	-36819	2285.2	-0.015811	0.30949	0.94818
3.234	15.901	-36819	2285.5	-0.015616	0.30939	0.9477
3.236	15.887	-36819	2285.9	-0.015518	0.30861	0.94848
3.238	15.853	-36826	2286.3	-0.015421	0.30783	0.94926
3.24	15.825	-36834	2286.7	-0.015323	0.30705	0.95004
3.242	15.798	-36831	2287.2	-0.015226	0.30627	0.95082
3.244	15.801	-36828	2287.7	-0.015128	0.30549	0.9516
3.246	15.804	-36830	2288.2	-0.014933	0.30598	0.9518
3.248	15.794	-36832	2288.6	-0.014738	0.30646	0.95199
3.25	15.811	-36830	2289.1	-0.014542	0.30695	0.95219
3.252	15.904	-36828	2289.6	-0.014347	0.30744	0.95238
3.254	15.976	-36825	2290	-0.014152	0.30793	0.95258
3.256	15.933	-36822	2290.5	-0.013762	0.30783	0.95297
3.258	15.91	-36829	2291	-0.013371	0.30773	0.95336
3.26	15.912	-36836	2291.5	-0.012981	0.30764	0.95375
3.262	15.889	-36837	2292.1	-0.01259	0.30754	0.95414
3.264	15.813	-36838	2292.7	-0.0122	0.30744	0.95453
3.266	15.76	-36836	2293.3	-0.011322	0.30832	0.95482
3.268	15.813	-36833	2293.9	-0.010443	0.3092	0.95511
3.27	15.913	-36834	2294.5	-0.0095648	0.31008	0.95541
3.272	15.909	-36835	2295.1	-0.0086864	0.31095	0.9557
3.274	15.838	-36829	2295.7	-0.007808	0.31183	0.95599
3.276	15.828	-36822	2296.3	-0.007808	0.31183	0.95628
3.278	15.869	-36825	2296.9	-0.007808	0.31183	0.95658
3.28	15.916	-36828	2297.5	-0.007808	0.31183	0.95687
3.282	15.897	-36821	2298	-0.007808	0.31183	0.95716
3.284	15.909	-36815	2298.5	-0.007808	0.31183	0.95746
3.286	15.951	-36817	2299	-0.0081984	0.31154	0.95726
3.288	15.914	-36819	2299.5	-0.0085888	0.31125	0.95707
3.29	15.919	-36816	2299.9	-0.0089792	0.31095	0.95687
3.292	15.903	-36813	2300.2	-0.0093696	0.31066	0.95668
3.294	15.854	-36813	2300.6	-0.00976	0.31037	0.95648
3.296	15.858	-36813	2300.9	-0.0095648	0.31047	0.95628
3.298	15.85	-36805	2301.2	-0.0093696	0.31056	0.95609
3.3	15.84	-36797	2301.4	-0.0091744	0.31066	0.95589
3.302	15.944	-36788	2301.7	-0.0089792	0.31076	0.9557
3.304	15.993	-36778	2301.9	-0.008784	0.31086	0.9555
3.306	15.943	-36776	2302.1	-0.01015	0.31095	0.95687
3.308	15.914	-36774	2302.2	-0.011517	0.31105	0.95824
3.31	15.865	-36767	2302.4	-0.012883	0.31115	0.9596
3.312	15.84	-36760	2302.5	-0.01425	0.31125	0.96097
3.314	15.885	-36766	2302.6	-0.015616	0.31134	0.96234
3.316	15.939	-36772	2302.7	-0.016494	0.31222	0.96302
3.318	15.92	-36766	2302.7	-0.017373	0.3131	0.9637
3.32	15.863	-36760	2302.7	-0.018251	0.31398	0.96439
3.322	15.866	-36752	2302.6	-0.01913	0.31486	0.96507
3.324	15.903	-36744	2302.6	-0.020008	0.31574	0.96575
3.326	15.929	-36742	2302.5	-0.019813	0.31535	0.96624
3.328	15.959	-36740	2302.4	-0.019618	0.31496	0.96673
3.33	15.97	-36734	2302.3	-0.019422	0.31456	0.96722
3.332	15.937	-36728	2302.2	-0.019227	0.31417	0.9677
3.334	15.931	-36717	2302.1	-0.019032	0.31378	0.96819
3.336	15.938	-36707	2301.9	-0.01913	0.31369	0.96809
3.338	15.897	-36702	2301.8	-0.019227	0.31359	0.968
3.34	15.87	-36697	2301.6	-0.019325	0.31349	0.9679
3.342	15.867	-36700	2301.5	-0.019422	0.31339	0.9678
3.344	15.861	-36702	2301.4	-0.01952	0.3133	0.9677
3.346	15.854	-36690	2301.3	-0.019032	0.31281	0.96751
3.348	15.829	-36678	2301.2	-0.018544	0.31232	0.96731
3.35	15.81	-36678	2301.1	-0.018056	0.31183	0.96712
3.352	15.843	-36679	2301	-0.017568	0.31134	0.96692
3.354	15.85	-36665	2300.9	-0.01708	0.31086	0.96673
3.356	15.831	-36652	2300.8	-0.017763	0.31095	0.96683
3.358	15.842	-36649	2300.7	-0.018446	0.31105	0.96692
3.36	15.852	-36645	2300.6	-0.01913	0.31115	0.96702
3.362	15.856	-36645	2300.6	-0.019813	0.31125	0.96712
3.364	15.919	-36645	2300.5	-0.020496	0.31134	0.96722
3.366	15.921	-36635	2300.5	-0.01991	0.31125	0.96604
3.368	15.884	-36625	2300.5	-0.019325	0.31115	0.96487
3.37	15.836	-36618	2300.4	-0.018739	0.31105	0.9637
3.372	15.772	-36612	2300.4	-0.018154	0.31095	0.96253
3.374	15.782	-36610	2300.3	-0.017568	0.31086	0.96136
3.376	15.804	-36608	2300.4	-0.016202	0.31027	0.96116
3.378	15.874	-36599	2300.4	-0.014835	0.30968	0.96097
3.38	15.84	-36589	2300.4	-0.013469	0.3091	0.96077
3.382	15.775	-36592	2300.3	-0.012102	0.30851	0.96058
3.384	15.75	-36594	2300.3	-0.010736	0.30793	0.96038
3.386	15.83	-36592	2300.3	-0.0099552	0.3091	0.96087
3.388	15.816	-36591	2300.3	-0.0091744	0.31027	0.96136
3.39	15.84	-36576	2300.3	-0.0083936	0.31144	0.96185
3.392	15.868	-36561	2300.2	-0.0076128	0.31261	0.96234
3.394	15.911	-36560	2300.2	-0.006832	0.31378	0.96282
3.396	15.85	-36559	2300.2	-0.009272	0.31408	0.9636
3.398	15.77	-36556	2300.2	-0.011712	0.31437	0.96439
3.4	15.757	-36554	2300.2	-0.014152	0.31466	0.96517
3.402	15.792	-36540	2300.2	-0.016592	0.31496	0.96595
3.404	15.809	-36527	2300.2	-0.019032	0.31525	0.96673
3.406	15.849	-36526	2300.2	-0.017861	0.31398	0.96673
3.408	15.872	-36525	2300.2	-0.01669	0.31271	0.96673
3.41	15.855	-36520	2300.1	-0.015518	0.31144	0.96673
3.412	15.856	-36516	2300.1	-0.014347	0.31017	0.96673
3.414	15.843	-36512	2300.1	-0.013176	0.3089	0.96673
3.416	15.8	-36508	2300.1	-0.012981	0.30832	0.96526
3.418	15.76	-36506	2300.1	-0.012786	0.30773	0.9638
3.42	15.741	-36503	2300.2	-0.01259	0.30715	0.96234
3.422	15.755	-36501	2300.2	-0.012395	0.30656	0.96087
3.424	15.795	-36499	2300.2	-0.0122	0.30598	0.95941
3.426	15.841	-36488	2300.2	-0.01181	0.30598	0.95912
3.428	15.864	-36477	2300.2	-0.011419	0.30598	0.95882
3.43	15.869	-36477	2300.3	-0.011029	0.30598	0.95853
3.432	15.844	-36478	2300.3	-0.010638	0.30598	0.95824
3.434	15.793	-36471	2300.3	-0.010248	0.30598	0.95794
3.436	15.779	-36465	2300.4	-0.0099552	0.30637	0.95726
3.438	15.793	-36462	2300.4	-0.0096624	0.30676	0.95658
3.44	15.788	-36460	2300.4	-0.0093696	0.30715	0.95589
3.442	15.806	-36455	2300.4	-0.0090768	0.30754	0.95521
3.444	15.813	-36450	2300.4	-0.008784	0.30793	0.95453
3.446	15.848	-36449	2300.4	-0.0091744	0.30842	0.9555
3.448	15.906	-36448	2300.4	-0.0095648	0.3089	0.95648
3.45	15.852	-36446	2300.4	-0.0099552	0.30939	0.95746
3.452	15.751	-36444	2300.5	-0.010346	0.30988	0.95843
3.454	15.74	-36440	2300.5	-0.010736	0.31037	0.95941
3.456	15.819	-36435	2300.4	-0.010638	0.31047	0.95941
3.458	15.8	-36429	2300.3	-0.010541	0.31056	0.95941
3.46	15.842	-36422	2300.2	-0.010443	0.31066	0.95941
3.462	15.818	-36421	2300.1	-0.010346	0.31076	0.95941
3.464	15.831	-36420	2300	-0.010248	0.31086	0.95941
3.466	15.852	-36416	2299.9	-0.00976	0.31144	0.95951
3.468	15.835	-36412	2299.8	-0.009272	0.31203	0.9596
3.47	15.843	-36409	2299.7	-0.008784	0.31261	0.9597
3.472	15.84	-36405	2299.6	-0.008296	0.3132	0.9598
3.474	15.827	-36405	2299.4	-0.007808	0.31378	0.9599
3.476	15.803	-36405	2299.3	-0.0091744	0.31271	0.95843
3.478	15.785	-36408	2299.2	-0.010541	0.31164	0.95697
3.48	15.766	-36410	2299	-0.011907	0.31056	0.9555
3.482	15.72	-36403	2298.9	-0.013274	0.30949	0.95404
3.484	15.729	-36396	2298.8	-0.01464	0.30842	0.95258
3.486	15.754	-36393	2298.7	-0.015226	0.3089	0.95316
3.488	15.738	-36390	2298.6	-0.015811	0.30939	0.95375
3.49	15.766	-36389	2298.5	-0.016397	0.30988	0.95433
3.492	15.828	-36388	2298.4	-0.016982	0.31037	0.95492
3.494	15.873	-36387	2298.3	-0.017568	0.31086	0.9555
3.496	15.91	-36386	2298.3	-0.017666	0.31047	0.95453
3.498	15.9	-36384	2298.2	-0.017763	0.31008	0.95355
3.5	15.859	-36381	2298.1	-0.017861	0.30968	0.95258
3.502	15.824	-36382	2298	-0.017958	0.30929	0.9516
3.504	15.796	-36382	2297.9	-0.018056	0.3089	0.95062
3.506	15.788	-36383	2297.7	-0.018642	0.30929	0.95053
3.508	15.783	-36383	2297.6	-0.019227	0.30968	0.95043
3.51	15.739	-36376	2297.5	-0.019813	0.31008	0.95033
3.512	15.673	-36369	2297.4	-0.020398	0.31047	0.95023
3.514	15.66	-36371	2297.3	-0.020984	0.31086	0.95014
3.516	15.707	-36373	2297.1	-0.020301	0.31125	0.95053
3.518	15.773	-36373	2296.9	-0.019618	0.31164	0.95092
3.52	15.834	-36372	2296.8	-0.018934	0.31203	0.95131
3.522	15.873	-36369	2296.8	-0.018251	0.31242	0.9517
3.524	15.856	-36366	2296.7	-0.017568	0.31281	0.95209
3.526	15.869	-36362	2296.7	-0.016592	0.31164	0.9514
3.528	15.897	-36358	2296.7	-0.015616	0.31047	0.95072
3.53	15.889	-36359	2296.6	-0.01464	0.30929	0.95004
3.532	15.862	-36359	2296.6	-0.013664	0.30812	0.94936
3.534	15.852	-36361	2296.6	-0.012688	0.30695	0.94867
3.536	15.814	-36362	2296.6	-0.013469	0.30705	0.94936
3.538	15.793	-36361	2296.6	-0.01425	0.30715	0.95004
3.54	15.774	-36360	2296.7	-0.01503	0.30724	0.95072
3.542	15.739	-36357	2296.7	-0.015811	0.30734	0.9514
3.544	15.761	-36355	2296.8	-0.016592	0.30744	0.95209
3.546	15.781	-36360	2296.8	-0.016104	0.30734	0.95209
3.548	15.769	-36364	2296.9	-0.015616	0.30724	0.95209
3.55	15.823	-36365	2296.9	-0.015128	0.30715	0.95209
3.552	15.784	-36366	2297	-0.01464	0.30705	0.95209
3.554	15.781	-36365	2297.2	-0.014152	0.30695	0.95209
3.556	15.811	-36364	2297.2	-0.01464	0.30734	0.95199
3.558	15.818	-36361	2297.3	-0.015128	0.30773	0.95189
3.56	15.834	-36358	2297.4	-0.015616	0.30812	0.9518
3.562	15.813	-36354	2297.5	-0.016104	0.30851	0.9517
3.564	15.779	-36350	2297.6	-0.016592	0.3089	0.9516
3.566	15.796	-36349	2297.6	-0.016202	0.30861	0.95072
3.568	15.849	-36348	2297.7	-0.015811	0.30832	0.94984
3.57	15.864	-36351	2297.8	-0.015421	0.30803	0.94896
3.572	15.825	-36354	2297.8	-0.01503	0.30773	0.94809
3.574	15.78	-36355	2297.8	-0.01464	0.30744	0.94721
3.576	15.781	-36355	2297.8	-0.015226	0.30724	0.9476
3.578	15.797	-36352	2297.8	-0.015811	0.30705	0.94799
3.58	15.816	-36350	2297.8	-0.016397	0.30685	0.94838
3.582	15.838	-36349	2297.8	-0.016982	0.30666	0.94877
3.584	15.852	-36349	2297.7	-0.017568	0.30646	0.94916
3.586	15.825	-36342	2297.7	-0.016982	0.30724	0.94994
3.588	15.802	-36335	2297.7	-0.016397	0.30803	0.95072
3.59	15.797	-36338	2297.6	-0.015811	0.30881	0.9515
3.592	15.774	-36341	2297.5	-0.015226	0.30959	0.95228
3.594	15.797	-36340	2297.4	-0.01464	0.31037	0.95306
3.596	15.838	-36339	2297.3	-0.012395	0.31047	0.95424
3.598	15.81	-36336	2297.2	-0.01015	0.31056	0.95541
3.6	15.769	-36333	2297.1	-0.0079056	0.31066	0.95658
3.602	15.772	-36334	2297.1	-0.0056608	0.31076	0.95775
3.604	15.837	-36336	2297	-0.003416	0.31086	0.95892
3.606	15.863	-36336	2297	-0.0035136	0.31134	0.95912
3.608	15.837	-36337	2296.9	-0.0036112	0.31183	0.95931
3.61	15.785	-36337	2296.8	-0.0037088	0.31232	0.95951
3.612	15.767	-36338	2296.8	-0.0038064	0.31281	0.9597
3.614	15.8	-36335	2296.7	-0.003904	0.3133	0.9599
3.616	15.773	-36332	2296.7	-0.0041968	0.3132	0.95941
3.618	15.739	-36333	2296.7	-0.0044896	0.3131	0.95892
3.62	15.761	-36333	2296.6	-0.0047824	0.313	0.95843
3.622	15.795	-36334	2296.5	-0.0050752	0.31291	0.95794
3.624	15.816	-36334	2296.5	-0.005368	0.31281	0.95746
3.626	15.81	-36329	2296.4	-0.0062464	0.31173	0.95707
3.628	15.836	-36324	2296.4	-0.0071248	0.31066	0.95668
3.63	15.817	-36324	2296.4	-0.0080032	0.30959	0.95628
3.632	15.806	-36323	2296.4	-0.0088816	0.30851	0.95589
3.634	15.775	-36324	2296.4	-0.00976	0.30744	0.9555
3.636	15.735	-36324	2296.3	-0.010053	0.30705	0.9556
3.638	15.692	-36323	2296.3	-0.010346	0.30666	0.9557
3.64	15.71	-36321	2296.2	-0.010638	0.30627	0.9558
3.642	15.749	-36322	2296.1	-0.010931	0.30588	0.95589
3.644	15.829	-36323	2296	-0.011224	0.30549	0.95599
3.646	15.813	-36325	2295.9	-0.010248	0.30627	0.95599
3.648	15.819	-36326	2295.9	-0.009272	0.30705	0.95599
3.65	15.846	-36321	2295.8	-0.008296	0.30783	0.95599
3.652	15.846	-36315	2295.7	-0.00732	0.30861	0.95599
3.654	15.826	-36314	2295.6	-0.006344	0.30939	0.95599
3.656	15.84	-36314	2295.6	-0.0072224	0.30871	0.95687
3.658	15.854	-36318	2295.6	-0.0081008	0.30803	0.95775
3.66	15.826	-36322	2295.5	-0.0089792	0.30734	0.95863
3.662	15.747	-36320	2295.5	-0.0098576	0.30666	0.95951
3.664	15.717	-36319	2295.5	-0.010736	0.30598	0.96038
3.666	15.727	-36319	2295.5	-0.0099552	0.30637	0.95951
3.668	15.775	-36319	2295.5	-0.0091744	0.30676	0.95863
3.67	15.886	-36320	2295.4	-0.0083936	0.30715	0.95775
3.672	15.923	-36321	2295.4	-0.0076128	0.30754	0.95687
3.674	15.84	-36319	2295.3	-0.006832	0.30793	0.95599
3.676	15.759	-36317	2295.4	-0.0071248	0.30764	0.95599
3.678	15.772	-36316	2295.4	-0.0074176	0.30734	0.95599
3.68	15.834	-36315	2295.4	-0.0077104	0.30705	0.95599
3.682	15.844	-36314	2295.3	-0.0080032	0.30676	0.95599
3.684	15.839	-36312	2295.2	-0.008296	0.30646	0.95599
3.686	15.826	-36323	2295.3	-0.0076128	0.30754	0.95609
3.688	15.792	-36334	2295.3	-0.0069296	0.30861	0.95619
3.69	15.775	-36335	2295.3	-0.0062464	0.30968	0.95628
3.692	15.767	-36335	2295.3	-0.0055632	0.31076	0.95638
3.694	15.72	-36334	2295.3	-0.00488	0.31183	0.95648
3.696	15.691	-36333	2295.2	-0.0050752	0.31144	0.95628
3.698	15.714	-36335	2295.2	-0.0052704	0.31105	0.95609
3.7	15.774	-36338	2295.1	-0.0054656	0.31066	0.95589
3.702	15.839	-36339	2295.1	-0.0056608	0.31027	0.9557
3.704	15.842	-36340	2295.1	-0.005856	0.30988	0.9555
3.706	15.789	-36333	2295	-0.0055632	0.30939	0.95541
3.708	15.729	-36326	2295	-0.0052704	0.3089	0.95531
3.71	15.7	-36335	2294.9	-0.0049776	0.30842	0.95521
3.712	15.73	-36344	2294.9	-0.0046848	0.30793	0.95511
3.714	15.808	-36344	2294.8	-0.004392	0.30744	0.95502
3.716	15.796	-36343	2294.8	-0.0040992	0.30803	0.95541
3.718	15.796	-36344	2294.7	-0.0038064	0.30861	0.9558
3.72	15.846	-36345	2294.7	-0.0035136	0.3092	0.95619
3.722	15.829	-36343	2294.7	-0.0032208	0.30978	0.95658
3.724	15.795	-36342	2294.8	-0.002928	0.31037	0.95697
3.726	15.785	-36339	2294.7	-0.0027328	0.31066	0.95736
3.728	15.776	-36337	2294.7	-0.0025376	0.31095	0.95775
3.73	15.726	-36340	2294.7	-0.0023424	0.31125	0.95814
3.732	15.706	-36343	2294.7	-0.0021472	0.31154	0.95853
3.734	15.723	-36343	2294.7	-0.001952	0.31183	0.95892
3.736	15.766	-36343	2294.6	-0.0037088	0.31164	0.9599
3.738	15.808	-36344	2294.6	-0.0054656	0.31144	0.96087
3.74	15.789	-36346	2294.6	-0.0072224	0.31125	0.96185
3.742	15.775	-36348	2294.6	-0.0089792	0.31105	0.96282
3.744	15.833	-36351	2294.7	-0.010736	0.31086	0.9638
3.746	15.889	-36355	2294.7	-0.0091744	0.31037	0.96253
3.748	15.844	-36360	2294.8	-0.0076128	0.30988	0.96126
3.75	15.791	-36360	2294.8	-0.0060512	0.30939	0.95999
3.752	15.778	-36361	2294.8	-0.0044896	0.3089	0.95872
3.754	15.806	-36355	2294.8	-0.002928	0.30842	0.95746
3.756	15.821	-36349	2294.8	-0.0032208	0.3089	0.95687
3.758	15.793	-36351	2294.8	-0.0035136	0.30939	0.95628
3.76	15.795	-36353	2294.8	-0.0038064	0.30988	0.9557
3.762	15.812	-36349	2294.9	-0.0040992	0.31037	0.95511
3.764	15.812	-36346	2294.9	-0.004392	0.31086	0.95453
3.766	15.817	-36354	2294.9	-0.0041968	0.31095	0.95482
3.768	15.795	-36361	2294.8	-0.0040016	0.31105	0.95511
3.77	15.775	-36356	2294.8	-0.0038064	0.31115	0.95541
3.772	15.766	-36350	2294.8	-0.0036112	0.31125	0.9557
3.774	15.701	-36358	2294.8	-0.003416	0.31134	0.95599
3.776	15.688	-36366	2294.8	-0.0041968	0.31115	0.95609
3.778	15.731	-36367	2294.7	-0.0049776	0.31095	0.95619
3.78	15.733	-36367	2294.7	-0.0057584	0.31076	0.95628
3.782	15.769	-36367	2294.6	-0.0065392	0.31056	0.95638
3.784	15.881	-36366	2294.6	-0.00732	0.31037	0.95648
3.786	15.875	-36362	2294.5	-0.0074176	0.31066	0.95687
3.788	15.816	-36359	2294.4	-0.0075152	0.31095	0.95726
3.79	15.76	-36363	2294.3	-0.0076128	0.31125	0.95765
3.792	15.722	-36366	2294.3	-0.0077104	0.31154	0.95804
3.794	15.726	-36369	2294.2	-0.007808	0.31183	0.95843
3.796	15.786	-36371	2294.1	-0.0072224	0.31212	0.95843
3.798	15.807	-36376	2294	-0.0066368	0.31242	0.95843
3.8	15.789	-36381	2293.9	-0.0060512	0.31271	0.95843
3.802	15.834	-36375	2293.9	-0.0054656	0.313	0.95843
3.804	15.836	-36369	2293.8	-0.00488	0.3133	0.95843
3.806	15.777	-36375	2293.8	-0.005856	0.31281	0.95775
3.808	15.746	-36380	2293.7	-0.006832	0.31232	0.95707
3.81	15.74	-36380	2293.7	-0.007808	0.31183	0.95638
3.812	15.789	-36381	2293.6	-0.008784	0.31134	0.9557
3.814	15.82	-36387	2293.5	-0.00976	0.31086	0.95502
3.816	15.779	-36393	2293.5	-0.009272	0.3091	0.95531
3.818	15.741	-36393	2293.4	-0.008784	0.30734	0.9556
3.82	15.72	-36393	2293.3	-0.008296	0.30559	0.95589
3.822	15.752	-36390	2293.3	-0.007808	0.30383	0.95619
3.824	15.844	-36387	2293.2	-0.00732	0.30207	0.95648
3.826	15.868	-36395	2293.1	-0.0079056	0.30315	0.95677
3.828	15.828	-36404	2293	-0.0084912	0.30422	0.95707
3.83	15.819	-36405	2293	-0.0090768	0.30529	0.95736
3.832	15.832	-36407	2292.9	-0.0096624	0.30637	0.95765
3.834	15.808	-36408	2292.9	-0.010248	0.30744	0.95794
3.836	15.75	-36408	2292.8	-0.0096624	0.30871	0.95765
3.838	15.743	-36404	2292.8	-0.0090768	0.30998	0.95736
3.84	15.775	-36399	2292.8	-0.0084912	0.31125	0.95707
3.842	15.736	-36405	2292.8	-0.0079056	0.31252	0.95677
3.844	15.685	-36410	2292.8	-0.00732	0.31378	0.95648
3.846	15.74	-36414	2292.8	-0.0077104	0.31242	0.95638
3.848	15.814	-36417	2292.8	-0.0081008	0.31105	0.95628
3.85	15.833	-36417	2292.8	-0.0084912	0.30968	0.95619
3.852	15.845	-36417	2292.8	-0.0088816	0.30832	0.95609
3.854	15.85	-36416	2292.8	-0.009272	0.30695	0.95599
3.856	15.853	-36415	2292.7	-0.010834	0.30705	0.95482
3.858	15.832	-36413	2292.7	-0.012395	0.30715	0.95365
3.86	15.791	-36412	2292.6	-0.013957	0.30724	0.95248
3.862	15.786	-36420	2292.5	-0.015518	0.30734	0.95131
3.864	15.779	-36427	2292.4	-0.01708	0.30744	0.95014
3.866	15.775	-36429	2292.3	-0.01669	0.30783	0.95092
3.868	15.799	-36430	2292.3	-0.016299	0.30822	0.9517
3.87	15.769	-36425	2292.2	-0.015909	0.30861	0.95248
3.872	15.7	-36421	2292.1	-0.015518	0.309	0.95326
3.874	15.693	-36423	2292	-0.015128	0.30939	0.95404
3.876	15.781	-36424	2292	-0.013762	0.30871	0.95414
3.878	15.82	-36428	2291.9	-0.012395	0.30803	0.95424
3.88	15.831	-36432	2291.9	-0.011029	0.30734	0.95433
3.882	15.803	-36437	2291.8	-0.0096624	0.30666	0.95443
3.884	15.782	-36443	2291.8	-0.008296	0.30598	0.95453
3.886	15.807	-36440	2291.7	-0.010053	0.30627	0.95404
3.888	15.776	-36437	2291.7	-0.01181	0.30656	0.95355
3.89	15.802	-36439	2291.7	-0.013566	0.30685	0.95306
3.892	15.797	-36441	2291.6	-0.015323	0.30715	0.95258
3.894	15.805	-36447	2291.6	-0.01708	0.30744	0.95209
3.896	15.772	-36453	2291.5	-0.017178	0.30783	0.95189
3.898	15.738	-36449	2291.5	-0.017275	0.30822	0.9517
3.9	15.665	-36444	2291.4	-0.017373	0.30861	0.9515
3.902	15.646	-36451	2291.3	-0.01747	0.309	0.95131
3.904	15.694	-36458	2291.2	-0.017568	0.30939	0.95111
3.906	15.765	-36457	2291.1	-0.015811	0.30929	0.95238
3.908	15.898	-36456	2291	-0.014054	0.3092	0.95365
3.91	15.903	-36455	2290.9	-0.012298	0.3091	0.95492
3.912	15.815	-36454	2290.8	-0.010541	0.309	0.95619
3.914	15.774	-36455	2290.7	-0.008784	0.3089	0.95746
3.916	15.773	-36457	2290.7	-0.009272	0.30812	0.95765
3.918	15.789	-36457	2290.6	-0.00976	0.30734	0.95785
3.92	15.818	-36458	2290.6	-0.010248	0.30656	0.95804
3.922	15.804	-36462	2290.5	-0.010736	0.30578	0.95824
3.924	15.79	-36466	2290.5	-0.011224	0.305	0.95843
3.926	15.826	-36470	2290.4	-0.011224	0.30549	0.95785
3.928	15.886	-36474	2290.4	-0.011224	0.30598	0.95726
3.93	15.907	-36475	2290.4	-0.011224	0.30646	0.95668
3.932	15.836	-36476	2290.4	-0.011224	0.30695	0.95609
3.934	15.773	-36476	2290.4	-0.011224	0.30744	0.9555
3.936	15.805	-36476	2290.4	-0.01181	0.30744	0.95424
3.938	15.827	-36475	2290.4	-0.012395	0.30744	0.95297
3.94	15.8	-36474	2290.5	-0.012981	0.30744	0.9517
3.942	15.787	-36477	2290.5	-0.013566	0.30744	0.95043
3.944	15.767	-36480	2290.6	-0.014152	0.30744	0.94916
3.946	15.777	-36490	2290.6	-0.013859	0.30783	0.95062
3.948	15.82	-36500	2290.6	-0.013566	0.30822	0.95209
3.95	15.858	-36497	2290.6	-0.013274	0.30861	0.95355
3.952	15.845	-36493	2290.6	-0.012981	0.309	0.95502
3.954	15.777	-36490	2290.5	-0.012688	0.30939	0.95648
3.956	15.755	-36488	2290.4	-0.01181	0.30842	0.95638
3.958	15.851	-36486	2290.3	-0.010931	0.30744	0.95628
3.96	15.935	-36483	2290.2	-0.010053	0.30646	0.95619
3.962	15.915	-36493	2290.2	-0.0091744	0.30549	0.95609
3.964	15.882	-36503	2290.1	-0.008296	0.30451	0.95599
3.966	15.878	-36509	2290	-0.0079056	0.30529	0.95638
3.968	15.85	-36514	2289.9	-0.0075152	0.30607	0.95677
3.97	15.848	-36518	2289.8	-0.0071248	0.30685	0.95716
3.972	15.873	-36523	2289.7	-0.0067344	0.30764	0.95755
3.974	15.794	-36522	2289.5	-0.006344	0.30842	0.95794
3.976	15.732	-36520	2289.4	-0.0059536	0.30881	0.95814
3.978	15.758	-36527	2289.3	-0.0055632	0.3092	0.95833
3.98	15.803	-36534	2289.2	-0.0051728	0.30959	0.95853
3.982	15.806	-36532	2289.1	-0.0047824	0.30998	0.95872
3.984	15.776	-36529	2289	-0.004392	0.31037	0.95892
3.986	15.746	-36530	2288.9	-0.0054656	0.30959	0.95814
3.988	15.729	-36532	2288.9	-0.0065392	0.30881	0.95736
3.99	15.756	-36538	2288.8	-0.0076128	0.30803	0.95658
3.992	15.765	-36545	2288.8	-0.0086864	0.30724	0.9558
3.994	15.77	-36544	2288.8	-0.00976	0.30646	0.95502
3.996	15.741	-36543	2288.7	-0.0098576	0.30627	0.95424
3.998	15.781	-36542	2288.7	-0.0099552	0.30607	0.95345
4	15.809	-36542	2288.7	-0.010053	0.30588	0.95267
4.002	15.829	-36551	2288.7	-0.01015	0.30568	0.95189
4.004	15.809	-36560	2288.6	-0.010248	0.30549	0.95111
4.006	15.761	-36558	2288.6	-0.0098576	0.30529	0.95228
4.008	15.752	-36555	2288.6	-0.0094672	0.3051	0.95345
4.01	15.758	-36555	2288.6	-0.0090768	0.3049	0.95463
4.012	15.74	-36555	2288.6	-0.0086864	0.30471	0.9558
4.014	15.735	-36558	2288.6	-0.008296	0.30451	0.95697
4.016	15.786	-36561	2288.6	-0.0071248	0.30578	0.95687
4.018	15.842	-36564	2288.6	-0.0059536	0.30705	0.95677
4.02	15.822	-36568	2288.6	-0.0047824	0.30832	0.95668
4.022	15.761	-36568	2288.6	-0.0036112	0.30959	0.95658
4.024	15.71	-36569	2288.6	-0.00244	0.31086	0.95648
4.026	15.676	-36575	2288.5	-0.0033184	0.31095	0.95765
4.028	15.72	-36580	2288.5	-0.0041968	0.31105	0.95882
4.03	15.794	-36582	2288.4	-0.0050752	0.31115	0.95999
4.032	15.788	-36583	2288.4	-0.0059536	0.31125	0.96116
4.034	15.758	-36582	2288.4	-0.006832	0.31134	0.96234
4.036	15.767	-36580	2288.3	-0.006344	0.31076	0.96146
4.038	15.814	-36578	2288.3	-0.005856	0.31017	0.96058
4.04	15.819	-36577	2288.3	-0.005368	0.30959	0.9597
4.042	15.782	-36582	2288.2	-0.00488	0.309	0.95882
4.044	15.73	-36588	2288.2	-0.004392	0.30842	0.95794
4.046	15.727	-36593	2288.2	-0.0041968	0.30861	0.95814
4.048	15.733	-36598	2288.2	-0.0040016	0.30881	0.95833
4.05	15.774	-36600	2288.2	-0.0038064	0.309	0.95853
4.052	15.842	-36602	2288.1	-0.0036112	0.3092	0.95872
4.054	15.844	-36602	2288.1	-0.003416	0.30939	0.95892
4.056	15.803	-36601	2288	-0.0040016	0.30939	0.95794
4.058	15.813	-36604	2288	-0.0045872	0.30939	0.95697
4.06	15.85	-36608	2288	-0.0051728	0.30939	0.95599
4.062	15.869	-36608	2287.9	-0.0057584	0.30939	0.95502
4.064	15.87	-36608	2287.8	-0.006344	0.30939	0.95404
4.066	15.908	-36610	2287.7	-0.0061488	0.30988	0.95394
4.068	15.963	-36612	2287.6	-0.0059536	0.31037	0.95384
4.07	15.961	-36618	2287.5	-0.0057584	0.31086	0.95375
4.072	15.897	-36624	2287.5	-0.0055632	0.31134	0.95365
4.074	15.88	-36625	2287.4	-0.005368	0.31183	0.95355
4.076	15.814	-36626	2287.3	-0.0052704	0.31105	0.95326
4.078	15.79	-36624	2287.2	-0.0051728	0.31027	0.95297
4.08	15.748	-36622	2287.2	-0.0050752	0.30949	0.95267
4.082	15.688	-36628	2287.2	-0.0049776	0.30871	0.95238
4.084	15.677	-36634	2287.2	-0.00488	0.30793	0.95209
4.086	15.62	-36636	2287.1	-0.0059536	0.30676	0.95219
4.088	15.587	-36638	2287.1	-0.0070272	0.30559	0.95228
4.09	15.626	-36640	2287	-0.0081008	0.30441	0.95238
4.092	15.651	-36642	2286.9	-0.0091744	0.30324	0.95248
4.094	15.637	-36641	2286.9	-0.010248	0.30207	0.95258
4.096	15.649	-36641	2286.8	-0.01015	0.30285	0.95287
4.098	15.67	-36645	2286.7	-0.010053	0.30363	0.95316
4.1	15.689	-36649	2286.6	-0.0099552	0.30441	0.95345
4.102	15.713	-36652	2286.4	-0.0098576	0.3052	0.95375
4.104	15.716	-36655	2286.3	-0.00976	0.30598	0.95404
4.106	15.687	-36657	2286.2	-0.0089792	0.30724	0.9557
4.108	15.668	-36659	2286.1	-0.0081984	0.30851	0.95736
4.11	15.742	-36663	2286	-0.0074176	0.30978	0.95902
4.112	15.819	-36668	2285.9	-0.0066368	0.31105	0.96068
4.114	15.792	-36672	2285.8	-0.005856	0.31232	0.96234
4.116	15.791	-36676	2285.6	-0.00732	0.31037	0.96273
4.118	15.801	-36672	2285.5	-0.008784	0.30842	0.96312
4.12	15.826	-36668	2285.4	-0.010248	0.30646	0.96351
4.122	15.883	-36667	2285.2	-0.011712	0.30451	0.9639
4.124	15.848	-36665	2285.1	-0.013176	0.30256	0.96429
4.126	15.772	-36671	2284.9	-0.013762	0.30383	0.9637
4.128	15.721	-36677	2284.7	-0.014347	0.3051	0.96312
4.13	15.713	-36676	2284.6	-0.014933	0.30637	0.96253
4.132	15.779	-36675	2284.5	-0.015518	0.30764	0.96195
4.134	15.812	-36681	2284.4	-0.016104	0.3089	0.96136
4.136	15.852	-36687	2284.4	-0.014445	0.30881	0.96029
4.138	15.811	-36686	2284.4	-0.012786	0.30871	0.95921
4.14	15.672	-36684	2284.4	-0.011126	0.30861	0.95814
4.142	15.607	-36691	2284.4	-0.0094672	0.30851	0.95707
4.144	15.661	-36698	2284.5	-0.007808	0.30842	0.95599
4.146	15.701	-36708	2284.4	-0.0089792	0.3091	0.95531
4.148	15.836	-36719	2284.4	-0.01015	0.30978	0.95463
4.15	15.867	-36718	2284.4	-0.011322	0.31047	0.95394
4.152	15.81	-36718	2284.4	-0.012493	0.31115	0.95326
4.154	15.764	-36717	2284.5	-0.013664	0.31183	0.95258
4.156	15.769	-36716	2284.5	-0.014152	0.31164	0.95277
4.158	15.773	-36723	2284.5	-0.01464	0.31144	0.95297
4.16	15.776	-36729	2284.5	-0.015128	0.31125	0.95316
4.162	15.804	-36723	2284.5	-0.015616	0.31105	0.95336
4.164	15.8	-36717	2284.4	-0.016104	0.31086	0.95355
4.166	15.745	-36720	2284.4	-0.015421	0.31076	0.9557
4.168	15.714	-36723	2284.3	-0.014738	0.31066	0.95785
4.17	15.729	-36718	2284.2	-0.014054	0.31056	0.95999
4.172	15.738	-36714	2284.2	-0.013371	0.31047	0.96214
4.174	15.721	-36719	2284.2	-0.012688	0.31037	0.96429
4.176	15.723	-36725	2284.1	-0.013566	0.31027	0.96419
4.178	15.748	-36732	2284.1	-0.014445	0.31017	0.96409
4.18	15.791	-36739	2284	-0.015323	0.31008	0.964
4.182	15.828	-36744	2284	-0.016202	0.30998	0.9639
4.184	15.83	-36749	2283.9	-0.01708	0.30988	0.9638
4.186	15.842	-36749	2283.8	-0.016397	0.30871	0.96448
4.188	15.865	-36749	2283.7	-0.015714	0.30754	0.96517
4.19	15.812	-36753	2283.6	-0.01503	0.30637	0.96585
4.192	15.713	-36758	2283.5	-0.014347	0.3052	0.96653
4.194	15.667	-36757	2283.4	-0.013664	0.30402	0.96722
4.196	15.712	-36756	2283.3	-0.014445	0.3051	0.96692
4.198	15.819	-36754	2283.2	-0.015226	0.30617	0.96663
4.2	15.865	-36752	2283	-0.016006	0.30724	0.96634
4.202	15.804	-36758	2282.9	-0.016787	0.30832	0.96604
4.204	15.758	-36764	2282.8	-0.017568	0.30939	0.96575
4.206	15.736	-36766	2282.8	-0.015616	0.30842	0.96439
4.208	15.699	-36768	2282.7	-0.013664	0.30744	0.96302
4.21	15.698	-36773	2282.7	-0.011712	0.30646	0.96165
4.212	15.749	-36778	2282.6	-0.00976	0.30549	0.96029
4.214	15.818	-36782	2282.6	-0.007808	0.30451	0.95892
4.216	15.825	-36787	2282.5	-0.00732	0.30549	0.95833
4.218	15.849	-36787	2282.5	-0.006832	0.30646	0.95775
4.22	15.781	-36788	2282.5	-0.006344	0.30744	0.95716
4.222	15.713	-36789	2282.5	-0.005856	0.30842	0.95658
4.224	15.706	-36791	2282.5	-0.005368	0.30939	0.95599
4.226	15.727	-36794	2282.5	-0.005368	0.30998	0.95668
4.228	15.784	-36797	2282.5	-0.005368	0.31056	0.95736
4.23	15.797	-36798	2282.6	-0.005368	0.31115	0.95804
4.232	15.739	-36798	2282.6	-0.005368	0.31173	0.95872
4.234	15.764	-36802	2282.7	-0.005368	0.31232	0.95941
4.236	15.767	-36807	2282.7	-0.0050752	0.31222	0.95931
4.238	15.786	-36813	2282.8	-0.0047824	0.31212	0.95921
4.24	15.811	-36820	2282.8	-0.0044896	0.31203	0.95912
4.242	15.829	-36820	2282.8	-0.0041968	0.31193	0.95902
4.244	15.836	-36820	2282.9	-0.003904	0.31183	0.95892
4.246	15.778	-36820	2282.9	-0.0040016	0.31203	0.95912
4.248	15.74	-36820	2282.9	-0.0040992	0.31222	0.95931
4.25	15.789	-36823	2282.9	-0.0041968	0.31242	0.95951
4.252	15.797	-36826	2283	-0.0042944	0.31261	0.9597
4.254	15.737	-36832	2283	-0.004392	0.31281	0.9599
4.256	15.709	-36838	2283.1	-0.0042944	0.31271	0.9596
4.258	15.739	-36840	2283.2	-0.0041968	0.31261	0.95931
4.26	15.793	-36841	2283.3	-0.0040992	0.31252	0.95902
4.262	15.827	-36841	2283.5	-0.0040016	0.31242	0.95872
4.264	15.808	-36841	2283.7	-0.003904	0.31232	0.95843
4.266	15.815	-36846	2283.9	-0.0042944	0.31242	0.95716
4.268	15.861	-36850	2284.2	-0.0046848	0.31252	0.95589
4.27	15.831	-36856	2284.5	-0.0050752	0.31261	0.95463
4.272	15.726	-36862	2284.9	-0.0054656	0.31271	0.95336
4.274	15.655	-36858	2285.3	-0.005856	0.31281	0.95209
4.276	15.644	-36855	2285.8	-0.0052704	0.3131	0.95248
4.278	15.725	-36854	2286.2	-0.0046848	0.31339	0.95287
4.28	15.882	-36853	2286.7	-0.0040992	0.31369	0.95326
4.282	15.946	-36856	2287.3	-0.0035136	0.31398	0.95365
4.284	15.9	-36859	2287.8	-0.002928	0.31427	0.95404
4.286	15.845	-36866	2288.4	-0.0045872	0.313	0.95267
4.288	15.843	-36873	2289	-0.0062464	0.31173	0.95131
4.29	15.855	-36874	2289.5	-0.0079056	0.31047	0.94994
4.292	15.818	-36874	2290.1	-0.0095648	0.3092	0.94857
4.294	15.81	-36872	2290.7	-0.011224	0.30793	0.94721
4.296	15.86	-36870	2291.3	-0.011029	0.30803	0.9476
4.298	15.911	-36870	2291.9	-0.010834	0.30812	0.94799
4.3	15.852	-36870	2292.5	-0.010638	0.30822	0.94838
4.302	15.794	-36871	2293	-0.010443	0.30832	0.94877
4.304	15.807	-36872	2293.5	-0.010248	0.30842	0.94916
4.306	15.801	-36873	2294	-0.010443	0.30822	0.94906
4.308	15.78	-36874	2294.5	-0.010638	0.30803	0.94896
4.31	15.715	-36875	2295	-0.010834	0.30783	0.94887
4.312	15.693	-36877	2295.4	-0.011029	0.30764	0.94877
4.314	15.837	-36876	2295.9	-0.011224	0.30744	0.94867
4.316	15.859	-36875	2296.4	-0.011517	0.30695	0.94887
4.318	15.86	-36871	2296.9	-0.01181	0.30646	0.94906
4.32	15.889	-36867	2297.3	-0.012102	0.30598	0.94926
4.322	15.867	-36861	2297.8	-0.012395	0.30549	0.94945
4.324	15.842	-36855	2298.2	-0.012688	0.305	0.94965
4.326	15.847	-36853	2298.6	-0.01181	0.3051	0.95062
4.328	15.808	-36851	2298.9	-0.010931	0.3052	0.9516
4.33	15.824	-36848	2299.3	-0.010053	0.30529	0.95258
4.332	15.845	-36846	2299.7	-0.0091744	0.30539	0.95355
4.334	15.855	-36845	2300	-0.008296	0.30549	0.95453
4.336	15.885	-36845	2300.3	-0.0095648	0.3049	0.95345
4.338	15.901	-36841	2300.5	-0.010834	0.30432	0.95238
4.34	15.854	-36837	2300.7	-0.012102	0.30373	0.95131
4.342	15.846	-36830	2300.8	-0.013371	0.30315	0.95023
4.344	15.865	-36823	2300.9	-0.01464	0.30256	0.94916
4.346	15.833	-36820	2301	-0.013859	0.30295	0.95004
4.348	15.812	-36817	2301.2	-0.013078	0.30334	0.95092
4.35	15.8	-36816	2301.2	-0.012298	0.30373	0.9518
4.352	15.824	-36816	2301.3	-0.011517	0.30412	0.95267
4.354	15.889	-36818	2301.3	-0.010736	0.30451	0.95355
4.356	15.923	-36821	2301.3	-0.010736	0.30471	0.95375
4.358	15.911	-36813	2301.3	-0.010736	0.3049	0.95394
4.36	15.881	-36805	2301.3	-0.010736	0.3051	0.95414
4.362	15.847	-36800	2301.3	-0.010736	0.30529	0.95433
4.364	15.832	-36794	2301.3	-0.010736	0.30549	0.95453
4.366	15.857	-36782	2301.2	-0.010638	0.30549	0.95414
4.368	15.903	-36771	2301.2	-0.010541	0.30549	0.95375
4.37	15.943	-36767	2301.1	-0.010443	0.30549	0.95336
4.372	15.944	-36762	2301	-0.010346	0.30549	0.95297
4.374	15.88	-36757	2300.9	-0.010248	0.30549	0.95258
4.376	15.798	-36751	2300.9	-0.009272	0.30705	0.95375
4.378	15.786	-36744	2300.8	-0.008296	0.30861	0.95492
4.38	15.804	-36738	2300.7	-0.00732	0.31017	0.95609
4.382	15.801	-36738	2300.7	-0.006344	0.31173	0.95726
4.384	15.73	-36739	2300.7	-0.005368	0.3133	0.95843
4.386	15.703	-36731	2300.6	-0.0059536	0.31271	0.95833
4.388	15.823	-36722	2300.5	-0.0065392	0.31212	0.95824
4.39	15.897	-36720	2300.4	-0.0071248	0.31154	0.95814
4.392	15.93	-36719	2300.3	-0.0077104	0.31095	0.95804
4.394	15.92	-36707	2300.2	-0.008296	0.31037	0.95794
4.396	15.878	-36695	2300.1	-0.0083936	0.31047	0.95824
4.398	15.794	-36694	2300.1	-0.0084912	0.31056	0.95853
4.4	15.791	-36693	2300	-0.0085888	0.31066	0.95882
4.402	15.818	-36685	2299.9	-0.0086864	0.31076	0.95912
4.404	15.802	-36678	2299.8	-0.008784	0.31086	0.95941
4.406	15.813	-36668	2299.7	-0.009272	0.31056	0.9598
4.408	15.864	-36659	2299.6	-0.00976	0.31027	0.96019
4.41	15.787	-36658	2299.4	-0.010248	0.30998	0.96058
4.412	15.729	-36658	2299.3	-0.010736	0.30968	0.96097
4.414	15.726	-36661	2299.2	-0.011224	0.30939	0.96136
4.416	15.722	-36664	2299.1	-0.011322	0.3089	0.96156
4.418	15.818	-36657	2299	-0.011419	0.30842	0.96175
4.42	15.832	-36649	2298.9	-0.011517	0.30793	0.96195
4.422	15.814	-36644	2298.8	-0.011614	0.30744	0.96214
4.424	15.793	-36639	2298.8	-0.011712	0.30695	0.96234
4.426	15.759	-36633	2298.7	-0.010346	0.30734	0.96156
4.428	15.706	-36628	2298.7	-0.0089792	0.30773	0.96077
4.43	15.696	-36620	2298.7	-0.0076128	0.30812	0.95999
4.432	15.723	-36613	2298.7	-0.0062464	0.30851	0.95921
4.434	15.744	-36609	2298.6	-0.00488	0.3089	0.95843
4.436	15.738	-36605	2298.6	-0.0057584	0.30988	0.95912
4.438	15.772	-36603	2298.6	-0.0066368	0.31086	0.9598
4.44	15.815	-36600	2298.6	-0.0075152	0.31183	0.96048
4.442	15.775	-36601	2298.7	-0.0083936	0.31281	0.96116
4.444	15.749	-36603	2298.7	-0.009272	0.31378	0.96185
4.446	15.769	-36597	2298.6	-0.0084912	0.31378	0.96165
4.448	15.763	-36591	2298.5	-0.0077104	0.31378	0.96146
4.45	15.797	-36586	2298.5	-0.0069296	0.31378	0.96126
4.452	15.831	-36581	2298.5	-0.0061488	0.31378	0.96107
4.454	15.78	-36575	2298.5	-0.005368	0.31378	0.96087
4.456	15.729	-36568	2298.5	-0.0054656	0.31349	0.96165
4.458	15.727	-36568	2298.4	-0.0055632	0.3132	0.96243
4.46	15.704	-36568	2298.3	-0.0056608	0.31291	0.96321
4.462	15.679	-36566	2298.3	-0.0057584	0.31261	0.964
4.464	15.672	-36564	2298.2	-0.005856	0.31232	0.96478
4.466	15.72	-36559	2298.1	-0.0059536	0.31252	0.96439
4.468	15.809	-36554	2298.1	-0.0060512	0.31271	0.964
4.47	15.881	-36549	2298	-0.0061488	0.31291	0.9636
4.472	15.827	-36544	2298	-0.0062464	0.3131	0.96321
4.474	15.749	-36545	2298	-0.006344	0.3133	0.96282
4.476	15.749	-36547	2297.9	-0.0069296	0.3132	0.96331
4.478	15.753	-36546	2297.9	-0.0075152	0.3131	0.9638
4.48	15.719	-36545	2297.8	-0.0081008	0.313	0.96429
4.482	15.766	-36541	2297.8	-0.0086864	0.31291	0.96478
4.484	15.867	-36536	2297.7	-0.009272	0.31281	0.96526
4.486	15.839	-36528	2297.6	-0.0089792	0.31193	0.964
4.488	15.732	-36519	2297.6	-0.0086864	0.31105	0.96273
4.49	15.684	-36519	2297.5	-0.0083936	0.31017	0.96146
4.492	15.722	-36520	2297.4	-0.0081008	0.30929	0.96019
4.494	15.777	-36516	2297.3	-0.007808	0.30842	0.95892
4.496	15.762	-36513	2297.2	-0.0084912	0.3091	0.96019
4.498	15.769	-36515	2297.1	-0.0091744	0.30978	0.96146
4.5	15.759	-36516	2296.9	-0.0098576	0.31047	0.96273
4.502	15.761	-36509	2296.8	-0.010541	0.31115	0.964
4.504	15.771	-36502	2296.6	-0.011224	0.31183	0.96526
4.506	15.781	-36494	2296.5	-0.011029	0.31212	0.96497
4.508	15.775	-36486	2296.4	-0.010834	0.31242	0.96468
4.51	15.74	-36486	2296.3	-0.010638	0.31271	0.96439
4.512	15.76	-36485	2296.2	-0.010443	0.313	0.96409
4.514	15.771	-36480	2296.1	-0.010248	0.3133	0.9638
4.516	15.735	-36474	2296	-0.0089792	0.31339	0.96273
4.518	15.716	-36477	2295.9	-0.0077104	0.31349	0.96165
4.52	15.72	-36481	2295.8	-0.0064416	0.31359	0.96058
4.522	15.775	-36476	2295.7	-0.0051728	0.31369	0.95951
4.524	15.814	-36471	2295.7	-0.003904	0.31378	0.95843
4.526	15.79	-36474	2295.6	-0.0040992	0.3132	0.95726
4.528	15.781	-36478	2295.5	-0.0042944	0.31261	0.95609
4.53	15.787	-36468	2295.4	-0.0044896	0.31203	0.95492
4.532	15.77	-36458	2295.4	-0.0046848	0.31144	0.95375
4.534	15.746	-36462	2295.3	-0.00488	0.31086	0.95258
4.536	15.714	-36466	2295.2	-0.0037088	0.31134	0.95365
4.538	15.681	-36468	2295.1	-0.0025376	0.31183	0.95472
4.54	15.681	-36470	2295.1	-0.0013664	0.31232	0.9558
4.542	15.713	-36471	2295	-0.0001952	0.31281	0.95687
4.544	15.737	-36472	2295	0.000976	0.3133	0.95794
4.546	15.785	-36464	2295	0.0007808	0.31203	0.95677
4.548	15.831	-36456	2294.9	0.0005856	0.31076	0.9556
4.55	15.809	-36453	2294.9	0.0003904	0.30949	0.95443
4.552	15.744	-36450	2294.9	0.0001952	0.30822	0.95326
4.554	15.736	-36455	2294.9	0	0.30695	0.95209
4.556	15.79	-36459	2294.9	-0.0006832	0.30861	0.95375
4.558	15.791	-36460	2294.8	-0.0013664	0.31027	0.95541
4.56	15.708	-36461	2294.9	-0.0020496	0.31193	0.95707
4.562	15.744	-36458	2294.9	-0.0027328	0.31359	0.95872
4.564	15.79	-36454	2295	-0.003416	0.31525	0.96038
4.566	15.793	-36451	2295	-0.0033184	0.31486	0.96019
4.568	15.782	-36449	2295.1	-0.0032208	0.31447	0.95999
4.57	15.706	-36447	2295.1	-0.0031232	0.31408	0.9598
4.572	15.702	-36444	2295.1	-0.0030256	0.31369	0.9596
4.574	15.729	-36444	2295.1	-0.002928	0.3133	0.95941
4.576	15.744	-36443	2295.1	-0.0032208	0.31242	0.95804
