t	ekg	optical	pressure	accel_x	accel_y	accel_z
4.5475e-13	21.626	-3.114e+05	1847.5	0.015128	0.000976	0.99308
0.002	21.555	-3.114e+05	1847.3	0.013762	0.0001952	0.99484
0.004	21.616	-3.114e+05	1847.2	0.012395	-0.0005856	0.99659
0.006	21.673	-3.1139e+05	1847	0.011029	-0.0013664	0.99835
0.008	21.78	-3.114e+05	1846.9	0.0096624	-0.0021472	1.0001
0.01	21.872	-3.114e+05	1846.8	0.008296	-0.002928	1.0019
0.012	21.849	-3.114e+05	1846.7	0.008296	-0.0025376	1.0011
0.014	21.777	-3.114e+05	1846.6	0.008296	-0.0021472	1.0003
0.016	21.663	-3.1139e+05	1846.5	0.008296	-0.0017568	0.99952
0.018	21.556	-3.1139e+05	1846.4	0.008296	-0.0013664	0.99874
0.02	21.55	-3.1139e+05	1846.3	0.008296	-0.000976	0.99796
0.022	21.611	-3.1139e+05	1846.2	0.0089792	-0.0012688	0.99874
0.024	21.722	-3.1139e+05	1846.1	0.0096624	-0.0015616	0.99952
0.026	21.849	-3.1138e+05	1846.1	0.010346	-0.0018544	1.0003
0.028	21.859	-3.1139e+05	1846	0.011029	-0.0021472	1.0011
0.03	21.778	-3.1139e+05	1845.9	0.011712	-0.00244	1.0019
0.032	21.687	-3.1139e+05	1845.9	0.011712	-0.0031232	1.001
0.034	21.57	-3.1139e+05	1845.9	0.011712	-0.0038064	1.0001
0.036	21.539	-3.1139e+05	1845.8	0.011712	-0.0044896	0.99923
0.038	21.598	-3.1139e+05	1845.8	0.011712	-0.0051728	0.99835
0.04	21.68	-3.1139e+05	1845.8	0.011712	-0.005856	0.99747
0.042	21.803	-3.1139e+05	1845.8	0.011419	-0.0061488	0.99806
0.044	21.853	-3.1139e+05	1845.8	0.011126	-0.0064416	0.99864
0.046	21.776	-3.1138e+05	1845.8	0.010834	-0.0067344	0.99923
0.048	21.701	-3.1138e+05	1845.8	0.010541	-0.0070272	0.99981
0.05	21.566	-3.1138e+05	1845.8	0.010248	-0.00732	1.0004
0.052	21.453	-3.1138e+05	1845.8	0.010541	-0.0066368	1.0001
0.054	21.521	-3.1138e+05	1845.8	0.010834	-0.0059536	0.99981
0.056	21.593	-3.1139e+05	1845.7	0.011126	-0.0052704	0.99952
0.058	21.709	-3.114e+05	1845.7	0.011419	-0.0045872	0.99923
0.06	21.829	-3.114e+05	1845.6	0.011712	-0.003904	0.99894
0.062	21.751	-3.1139e+05	1845.6	0.013078	-0.0031232	0.99816
0.064	21.689	-3.1139e+05	1845.6	0.014445	-0.0023424	0.99737
0.066	21.587	-3.1139e+05	1845.5	0.015811	-0.0015616	0.99659
0.068	21.45	-3.1139e+05	1845.5	0.017178	-0.0007808	0.99581
0.07	21.474	-3.1139e+05	1845.4	0.018544	0	0.99503
0.072	21.555	-3.1139e+05	1845.5	0.018056	-9.76e-05	0.99523
0.074	21.667	-3.1139e+05	1845.5	0.017568	-0.0001952	0.99542
0.076	21.797	-3.114e+05	1845.5	0.01708	-0.0002928	0.99562
0.078	21.758	-3.114e+05	1845.4	0.016592	-0.0003904	0.99581
0.08	21.677	-3.114e+05	1845.3	0.016104	-0.000488	0.99601
0.082	21.591	-3.1139e+05	1845.3	0.016592	0.000488	0.99552
0.084	21.481	-3.1139e+05	1845.3	0.01708	0.001464	0.99503
0.086	21.48	-3.1139e+05	1845.3	0.017568	0.00244	0.99454
0.088	21.497	-3.1139e+05	1845.3	0.018056	0.003416	0.99406
0.09	21.569	-3.1139e+05	1845.2	0.018544	0.004392	0.99357
0.092	21.715	-3.114e+05	1845.2	0.018446	0.00488	0.99415
0.094	21.743	-3.1141e+05	1845.2	0.018349	0.005368	0.99474
0.096	21.686	-3.1141e+05	1845.1	0.018251	0.005856	0.99532
0.098	21.608	-3.114e+05	1845.1	0.018154	0.006344	0.99591
0.1	21.485	-3.114e+05	1845.1	0.018056	0.006832	0.9965
0.102	21.44	-3.114e+05	1845	0.018251	0.0059536	0.99572
0.104	21.503	-3.114e+05	1845	0.018446	0.0050752	0.99493
0.106	21.574	-3.1141e+05	1844.9	0.018642	0.0041968	0.99415
0.108	21.672	-3.114e+05	1844.9	0.018837	0.0033184	0.99337
0.11	21.753	-3.114e+05	1844.8	0.019032	0.00244	0.99259
0.112	21.729	-3.114e+05	1844.8	0.018934	0.0020496	0.99308
0.114	21.662	-3.114e+05	1844.8	0.018837	0.0016592	0.99357
0.116	21.564	-3.1141e+05	1844.7	0.018739	0.0012688	0.99406
0.118	21.458	-3.1143e+05	1844.6	0.018642	0.0008784	0.99454
0.12	21.461	-3.1142e+05	1844.5	0.018544	0.000488	0.99503
0.122	21.518	-3.1141e+05	1844.5	0.017373	0.000488	0.99435
0.124	21.612	-3.1141e+05	1844.4	0.016202	0.000488	0.99367
0.126	21.741	-3.1141e+05	1844.3	0.01503	0.000488	0.99298
0.128	21.739	-3.1141e+05	1844.3	0.013859	0.000488	0.9923
0.13	21.653	-3.1141e+05	1844.2	0.012688	0.000488	0.99162
0.132	21.567	-3.1141e+05	1844.1	0.01181	-0.0001952	0.99328
0.134	21.427	-3.1141e+05	1844.1	0.010931	-0.0008784	0.99493
0.136	21.409	-3.1141e+05	1844	0.010053	-0.0015616	0.99659
0.138	21.506	-3.1141e+05	1843.9	0.0091744	-0.0022448	0.99825
0.14	21.592	-3.1141e+05	1843.9	0.008296	-0.002928	0.99991
0.142	21.759	-3.1141e+05	1843.8	0.0089792	-0.003904	1.0003
0.144	21.803	-3.1141e+05	1843.7	0.0096624	-0.00488	1.0007
0.146	21.7	-3.1141e+05	1843.6	0.010346	-0.005856	1.0011
0.148	21.634	-3.1142e+05	1843.5	0.011029	-0.006832	1.0015
0.15	21.491	-3.1142e+05	1843.4	0.011712	-0.007808	1.0019
0.152	21.429	-3.1142e+05	1843.3	0.012298	-0.0075152	1.0011
0.154	21.521	-3.1142e+05	1843.2	0.012883	-0.0072224	1.0003
0.156	21.601	-3.1142e+05	1843.2	0.013469	-0.0069296	0.99952
0.158	21.724	-3.1142e+05	1843.1	0.014054	-0.0066368	0.99874
0.16	21.814	-3.1142e+05	1843.1	0.01464	-0.006344	0.99796
0.162	21.74	-3.1142e+05	1843	0.013957	-0.0059536	0.99845
0.164	21.668	-3.1142e+05	1843	0.013274	-0.0055632	0.99894
0.166	21.552	-3.1143e+05	1842.9	0.01259	-0.0051728	0.99942
0.168	21.441	-3.1143e+05	1842.8	0.011907	-0.0047824	0.99991
0.17	21.481	-3.1143e+05	1842.8	0.011224	-0.004392	1.0004
0.172	21.554	-3.1142e+05	1842.7	0.011907	-0.0038064	1.0003
0.174	21.666	-3.1142e+05	1842.6	0.01259	-0.0032208	1.0002
0.176	21.79	-3.1142e+05	1842.5	0.013274	-0.0026352	1.0001
0.178	21.765	-3.1142e+05	1842.5	0.013957	-0.0020496	1
0.18	21.688	-3.1142e+05	1842.4	0.01464	-0.001464	0.99991
0.182	21.599	-3.1143e+05	1842.3	0.012981	-0.001464	1.0005
0.184	21.476	-3.1143e+05	1842.2	0.011322	-0.001464	1.0011
0.186	21.444	-3.1143e+05	1842.1	0.0096624	-0.001464	1.0017
0.188	21.501	-3.1143e+05	1842	0.0080032	-0.001464	1.0023
0.19	21.594	-3.1143e+05	1841.9	0.006344	-0.001464	1.0028
0.192	21.713	-3.1143e+05	1841.8	0.0072224	-0.0020496	1.0026
0.194	21.726	-3.1143e+05	1841.7	0.0081008	-0.0026352	1.0024
0.196	21.659	-3.1143e+05	1841.6	0.0089792	-0.0032208	1.0023
0.198	21.61	-3.1143e+05	1841.5	0.0098576	-0.0038064	1.0021
0.2	21.505	-3.1144e+05	1841.4	0.010736	-0.004392	1.0019
0.202	21.44	-3.1145e+05	1841.4	0.010443	-0.0040016	1.001
0.204	21.493	-3.1145e+05	1841.3	0.01015	-0.0036112	1.0001
0.206	21.523	-3.1145e+05	1841.3	0.0098576	-0.0032208	0.99923
0.208	21.591	-3.1145e+05	1841.2	0.0095648	-0.0028304	0.99835
0.21	21.687	-3.1144e+05	1841.2	0.009272	-0.00244	0.99747
0.212	21.655	-3.1144e+05	1841.2	0.0095648	-0.0030256	0.99825
0.214	21.562	-3.1144e+05	1841.1	0.0098576	-0.0036112	0.99903
0.216	21.443	-3.1144e+05	1841.1	0.01015	-0.0041968	0.99981
0.218	21.312	-3.1145e+05	1841.1	0.010443	-0.0047824	1.0006
0.22	21.354	-3.1145e+05	1841.1	0.010736	-0.005368	1.0014
0.222	21.427	-3.1145e+05	1841	0.011907	-0.0038064	1.0004
0.224	21.517	-3.1145e+05	1841	0.013078	-0.0022448	0.99942
0.226	21.686	-3.1145e+05	1841	0.01425	-0.0006832	0.99845
0.228	21.678	-3.1145e+05	1840.9	0.015421	0.0008784	0.99747
0.23	21.574	-3.1145e+05	1840.8	0.016592	0.00244	0.9965
0.232	21.5	-3.1146e+05	1840.8	0.015811	0.0018544	0.99601
0.234	21.343	-3.1146e+05	1840.7	0.01503	0.0012688	0.99552
0.236	21.32	-3.1146e+05	1840.7	0.01425	0.0006832	0.99503
0.238	21.412	-3.1146e+05	1840.6	0.013469	9.76e-05	0.99454
0.24	21.487	-3.1146e+05	1840.5	0.012688	-0.000488	0.99406
0.242	21.646	-3.1146e+05	1840.4	0.0122	-0.0007808	0.99406
0.244	21.679	-3.1146e+05	1840.3	0.011712	-0.0010736	0.99406
0.246	21.603	-3.1147e+05	1840.2	0.011224	-0.0013664	0.99406
0.248	21.52	-3.1146e+05	1840	0.010736	-0.0016592	0.99406
0.25	21.357	-3.1146e+05	1839.9	0.010248	-0.001952	0.99406
0.252	21.315	-3.1148e+05	1839.8	0.011224	-0.0022448	0.99474
0.254	21.395	-3.1149e+05	1839.7	0.0122	-0.0025376	0.99542
0.256	21.466	-3.1148e+05	1839.5	0.013176	-0.0028304	0.99611
0.258	21.573	-3.1148e+05	1839.4	0.014152	-0.0031232	0.99679
0.26	21.644	-3.1149e+05	1839.3	0.015128	-0.003416	0.99747
0.262	21.607	-3.1149e+05	1839.2	0.015518	-0.0027328	0.99679
0.264	21.538	-3.115e+05	1839.1	0.015909	-0.0020496	0.99611
0.266	21.418	-3.115e+05	1839.1	0.016299	-0.0013664	0.99542
0.268	21.291	-3.1149e+05	1839	0.01669	-0.0006832	0.99474
0.27	21.304	-3.1149e+05	1839	0.01708	0	0.99406
0.272	21.394	-3.1149e+05	1839	0.017178	0.0002928	0.99406
0.274	21.502	-3.1148e+05	1838.9	0.017275	0.0005856	0.99406
0.276	21.598	-3.1148e+05	1838.9	0.017373	0.0008784	0.99406
0.278	21.59	-3.1149e+05	1838.8	0.01747	0.0011712	0.99406
0.28	21.531	-3.1149e+05	1838.8	0.017568	0.001464	0.99406
0.282	21.47	-3.1149e+05	1838.7	0.016299	-0.000488	0.99503
0.284	21.371	-3.115e+05	1838.6	0.01503	-0.00244	0.99601
0.286	21.35	-3.115e+05	1838.6	0.013762	-0.004392	0.99698
0.288	21.46	-3.115e+05	1838.5	0.012493	-0.006344	0.99796
0.29	21.609	-3.115e+05	1838.5	0.011224	-0.008296	0.99894
0.292	21.757	-3.115e+05	1838.4	0.011712	-0.0081984	0.99874
0.294	21.797	-3.115e+05	1838.4	0.0122	-0.0081008	0.99855
0.296	21.745	-3.1151e+05	1838.3	0.012688	-0.0080032	0.99835
0.298	21.773	-3.1151e+05	1838.3	0.013176	-0.0079056	0.99816
0.3	21.726	-3.1151e+05	1838.2	0.013664	-0.007808	0.99796
0.302	21.591	-3.1152e+05	1838.2	0.013078	-0.0080032	0.99806
0.304	21.565	-3.1152e+05	1838.2	0.012493	-0.0081984	0.99816
0.306	21.576	-3.1152e+05	1838.2	0.011907	-0.0083936	0.99825
0.308	21.614	-3.1151e+05	1838.1	0.011322	-0.0085888	0.99835
0.31	21.627	-3.1151e+05	1838	0.010736	-0.008784	0.99845
0.312	21.469	-3.1152e+05	1838	0.011907	-0.0074176	0.99835
0.314	21.343	-3.1153e+05	1838	0.013078	-0.0060512	0.99825
0.316	21.221	-3.1154e+05	1837.9	0.01425	-0.0046848	0.99816
0.318	21.081	-3.1154e+05	1837.9	0.015421	-0.0033184	0.99806
0.32	21.127	-3.1153e+05	1837.9	0.016592	-0.001952	0.99796
0.322	21.215	-3.1153e+05	1837.8	0.016592	-0.0006832	0.99728
0.324	21.34	-3.1153e+05	1837.8	0.016592	0.0005856	0.99659
0.326	21.528	-3.1153e+05	1837.8	0.016592	0.0018544	0.99591
0.328	21.539	-3.1154e+05	1837.7	0.016592	0.0031232	0.99523
0.33	21.493	-3.1154e+05	1837.6	0.016592	0.004392	0.99454
0.332	21.413	-3.1154e+05	1837.5	0.015811	0.0032208	0.99513
0.334	21.258	-3.1155e+05	1837.5	0.01503	0.0020496	0.99572
0.336	21.241	-3.1155e+05	1837.4	0.01425	0.0008784	0.9963
0.338	21.309	-3.1156e+05	1837.4	0.013469	-0.0002928	0.99689
0.34	21.394	-3.1156e+05	1837.3	0.012688	-0.001464	0.99747
0.342	21.528	-3.1156e+05	1837.3	0.013762	0.0002928	0.99767
0.344	21.572	-3.1157e+05	1837.3	0.014835	0.0020496	0.99786
0.346	21.513	-3.1157e+05	1837.3	0.015909	0.0038064	0.99806
0.348	21.427	-3.1157e+05	1837.2	0.016982	0.0055632	0.99825
0.35	21.294	-3.1157e+05	1837.2	0.018056	0.00732	0.99845
0.352	21.233	-3.1156e+05	1837.2	0.017275	0.006344	0.99718
0.354	21.292	-3.1156e+05	1837.2	0.016494	0.005368	0.99591
0.356	21.37	-3.1156e+05	1837.1	0.015714	0.004392	0.99464
0.358	21.465	-3.1156e+05	1837.1	0.014933	0.003416	0.99337
0.36	21.526	-3.1156e+05	1837	0.014152	0.00244	0.9921
0.362	21.495	-3.1157e+05	1837	0.013762	0.001952	0.9924
0.364	21.445	-3.1157e+05	1836.9	0.013371	0.001464	0.99269
0.366	21.363	-3.1157e+05	1836.8	0.012981	0.000976	0.99298
0.368	21.251	-3.1157e+05	1836.7	0.01259	0.000488	0.99328
0.37	21.239	-3.1157e+05	1836.6	0.0122	0	0.99357
0.372	21.299	-3.1158e+05	1836.6	0.011712	-0.0001952	0.99376
0.374	21.375	-3.1158e+05	1836.5	0.011224	-0.0003904	0.99396
0.376	21.488	-3.1159e+05	1836.4	0.010736	-0.0005856	0.99415
0.378	21.529	-3.1159e+05	1836.3	0.010248	-0.0007808	0.99435
0.38	21.468	-3.1159e+05	1836.3	0.00976	-0.000976	0.99454
0.382	21.388	-3.1159e+05	1836.2	0.0098576	-0.0011712	0.99406
0.384	21.254	-3.1159e+05	1836.1	0.0099552	-0.0013664	0.99357
0.386	21.213	-3.1159e+05	1836	0.010053	-0.0015616	0.99308
0.388	21.294	-3.116e+05	1835.9	0.01015	-0.0017568	0.99259
0.39	21.358	-3.116e+05	1835.9	0.010248	-0.001952	0.9921
0.392	21.477	-3.116e+05	1835.8	0.011224	-0.00244	0.99357
0.394	21.535	-3.116e+05	1835.7	0.0122	-0.002928	0.99503
0.396	21.463	-3.1161e+05	1835.6	0.013176	-0.003416	0.9965
0.398	21.409	-3.1162e+05	1835.5	0.014152	-0.003904	0.99796
0.4	21.287	-3.1162e+05	1835.4	0.015128	-0.004392	0.99942
0.402	21.186	-3.1161e+05	1835.2	0.015226	-0.003904	0.99874
0.404	21.274	-3.1161e+05	1835	0.015323	-0.003416	0.99806
0.406	21.349	-3.1162e+05	1834.9	0.015421	-0.002928	0.99737
0.408	21.437	-3.1161e+05	1834.8	0.015518	-0.00244	0.99669
0.41	21.549	-3.1161e+05	1834.6	0.015616	-0.001952	0.99601
0.412	21.496	-3.1161e+05	1834.5	0.015518	-0.001464	0.99679
0.414	21.417	-3.1162e+05	1834.4	0.015421	-0.000976	0.99757
0.416	21.287	-3.1162e+05	1834.3	0.015323	-0.000488	0.99835
0.418	21.152	-3.1163e+05	1834.3	0.015226	1.0842e-19	0.99913
0.42	21.195	-3.1163e+05	1834.3	0.015128	0.000488	0.99991
0.422	21.289	-3.1163e+05	1834.7	0.012102	0.0006832	1.0006
0.424	21.396	-3.1164e+05	1835.1	0.0090768	0.0008784	1.0013
0.426	21.508	-3.1164e+05	1835.7	0.0060512	0.0010736	1.002
0.428	21.481	-3.1164e+05	1836.7	0.0030256	0.0012688	1.0026
0.43	21.415	-3.1163e+05	1837.7	0	0.001464	1.0033
0.432	21.338	-3.1164e+05	1838.9	0.0013664	-0.0002928	1.0034
0.434	21.229	-3.1165e+05	1840.2	0.0027328	-0.0020496	1.0035
0.436	21.215	-3.1165e+05	1841.4	0.0040992	-0.0038064	1.0036
0.438	21.289	-3.1165e+05	1842.7	0.0054656	-0.0055632	1.0037
0.44	21.384	-3.1166e+05	1844	0.006832	-0.00732	1.0038
0.442	21.511	-3.1167e+05	1845.1	0.0055632	-0.0066368	1.0045
0.444	21.549	-3.1166e+05	1846.3	0.0042944	-0.0059536	1.0052
0.446	21.488	-3.1166e+05	1847.4	0.0030256	-0.0052704	1.0059
0.448	21.419	-3.1166e+05	1848.5	0.0017568	-0.0045872	1.0065
0.45	21.308	-3.1167e+05	1849.6	0.000488	-0.003904	1.0072
0.452	21.222	-3.1167e+05	1850.5	0.0001952	-0.0035136	1.0065
0.454	21.252	-3.1167e+05	1851.3	-9.76e-05	-0.0031232	1.0057
0.456	21.339	-3.1167e+05	1852.1	-0.0003904	-0.0027328	1.0049
0.458	21.471	-3.1167e+05	1852.7	-0.0006832	-0.0023424	1.0041
0.46	21.574	-3.1167e+05	1853.4	-0.000976	-0.001952	1.0033
0.462	21.54	-3.1167e+05	1854	-0.0007808	-0.0018544	1.0033
0.464	21.473	-3.1168e+05	1854.5	-0.0005856	-0.0017568	1.0033
0.466	21.384	-3.1168e+05	1855	-0.0003904	-0.0016592	1.0033
0.468	21.279	-3.1168e+05	1855.4	-0.0001952	-0.0015616	1.0033
0.47	21.306	-3.1168e+05	1855.9	0	-0.001464	1.0033
0.472	21.384	-3.1168e+05	1856.2	-0.0003904	-0.0022448	1.0033
0.474	21.466	-3.1168e+05	1856.5	-0.0007808	-0.0030256	1.0033
0.476	21.589	-3.1168e+05	1856.7	-0.0011712	-0.0038064	1.0033
0.478	21.579	-3.1168e+05	1856.9	-0.0015616	-0.0045872	1.0033
0.48	21.517	-3.1168e+05	1857.1	-0.001952	-0.005368	1.0033
0.482	21.455	-3.1168e+05	1857.2	-0.0017568	-0.0050752	1.0037
0.484	21.323	-3.1167e+05	1857.4	-0.0015616	-0.0047824	1.0041
0.486	21.312	-3.1167e+05	1857.5	-0.0013664	-0.0044896	1.0045
0.488	21.399	-3.1166e+05	1857.5	-0.0011712	-0.0041968	1.0049
0.49	21.464	-3.1164e+05	1857.6	-0.000976	-0.003904	1.0053
0.492	21.618	-3.1165e+05	1857.7	-0.0010736	-0.003416	1.0048
0.494	21.659	-3.1165e+05	1857.7	-0.0011712	-0.002928	1.0043
0.496	21.575	-3.1165e+05	1857.7	-0.0012688	-0.00244	1.0038
0.498	21.502	-3.1165e+05	1857.8	-0.0013664	-0.001952	1.0033
0.5	21.353	-3.1165e+05	1857.8	-0.001464	-0.001464	1.0028
0.502	21.281	-3.1164e+05	1857.8	0.000976	-0.0025376	1.0018
0.504	21.343	-3.1163e+05	1857.8	0.003416	-0.0036112	1.0007
0.506	21.406	-3.1163e+05	1857.8	0.005856	-0.0046848	0.99962
0.508	21.514	-3.1163e+05	1857.8	0.008296	-0.0057584	0.99855
0.51	21.566	-3.1163e+05	1857.8	0.010736	-0.006832	0.99747
0.512	21.512	-3.1162e+05	1857.7	0.010443	-0.0057584	0.99757
0.514	21.479	-3.116e+05	1857.7	0.01015	-0.0046848	0.99767
0.516	21.381	-3.116e+05	1857.6	0.0098576	-0.0036112	0.99776
0.518	21.309	-3.1159e+05	1857.5	0.0095648	-0.0025376	0.99786
0.52	21.346	-3.1159e+05	1857.4	0.009272	-0.001464	0.99796
0.522	21.375	-3.1159e+05	1857.4	0.0098576	-0.0020496	0.99718
0.524	21.443	-3.1158e+05	1857.3	0.010443	-0.0026352	0.9964
0.526	21.563	-3.1158e+05	1857.2	0.011029	-0.0032208	0.99562
0.528	21.57	-3.1158e+05	1857.2	0.011614	-0.0038064	0.99484
0.53	21.494	-3.1157e+05	1857.1	0.0122	-0.004392	0.99406
0.532	21.402	-3.1157e+05	1857.1	0.012395	-0.0038064	0.99386
0.534	21.291	-3.1156e+05	1857	0.01259	-0.0032208	0.99367
0.536	21.251	-3.1155e+05	1856.9	0.012786	-0.0026352	0.99347
0.538	21.289	-3.1154e+05	1856.8	0.012981	-0.0020496	0.99328
0.54	21.361	-3.1154e+05	1856.8	0.013176	-0.001464	0.99308
0.542	21.498	-3.1153e+05	1856.6	0.013762	-0.0013664	0.99396
0.544	21.579	-3.1152e+05	1856.5	0.014347	-0.0012688	0.99484
0.546	21.511	-3.1151e+05	1856.4	0.014933	-0.0011712	0.99572
0.548	21.413	-3.1151e+05	1856.3	0.015518	-0.0010736	0.99659
0.55	21.273	-3.115e+05	1856.3	0.016104	-0.000976	0.99747
0.552	21.183	-3.115e+05	1856.1	0.014347	-0.0010736	0.99611
0.554	21.26	-3.1149e+05	1856	0.01259	-0.0011712	0.99474
0.556	21.359	-3.1149e+05	1855.9	0.010834	-0.0012688	0.99337
0.558	21.472	-3.1148e+05	1855.8	0.0090768	-0.0013664	0.99201
0.56	21.564	-3.1147e+05	1855.6	0.00732	-0.001464	0.99064
0.562	21.494	-3.1146e+05	1855.5	0.0081008	-0.0023424	0.99152
0.564	21.419	-3.1145e+05	1855.3	0.0088816	-0.0032208	0.9924
0.566	21.318	-3.1145e+05	1855.2	0.0096624	-0.0040992	0.99328
0.568	21.188	-3.1144e+05	1855.1	0.010443	-0.0049776	0.99415
0.57	21.209	-3.1143e+05	1855	0.011224	-0.005856	0.99503
0.572	21.256	-3.1143e+05	1854.9	0.011614	-0.0051728	0.99406
0.574	21.335	-3.1142e+05	1854.8	0.012005	-0.0044896	0.99308
0.576	21.493	-3.1142e+05	1854.6	0.012395	-0.0038064	0.9921
0.578	21.463	-3.1142e+05	1854.6	0.012786	-0.0031232	0.99113
0.58	21.384	-3.1141e+05	1854.5	0.013176	-0.00244	0.99015
0.582	21.32	-3.1139e+05	1854.4	0.013762	-0.0017568	0.99171
0.584	21.154	-3.1139e+05	1854.3	0.014347	-0.0010736	0.99328
0.586	21.122	-3.1139e+05	1854.2	0.014933	-0.0003904	0.99484
0.588	21.185	-3.1139e+05	1854	0.015518	0.0002928	0.9964
0.59	21.266	-3.1139e+05	1853.9	0.016104	0.000976	0.99796
0.592	21.408	-3.1138e+05	1853.8	0.015811	0.000488	0.99728
0.594	21.448	-3.1137e+05	1853.6	0.015518	4.4383e-14	0.99659
0.596	21.381	-3.1137e+05	1853.5	0.015226	-0.000488	0.99591
0.598	21.285	-3.1136e+05	1853.3	0.014933	-0.000976	0.99523
0.6	21.131	-3.1136e+05	1853.2	0.01464	-0.001464	0.99454
0.602	21.127	-3.1135e+05	1853	0.014445	-0.0021472	0.99542
0.604	21.227	-3.1135e+05	1852.8	0.01425	-0.0028304	0.9963
0.606	21.287	-3.1135e+05	1852.7	0.014054	-0.0035136	0.99718
0.608	21.382	-3.1134e+05	1852.5	0.013859	-0.0041968	0.99806
0.61	21.459	-3.1134e+05	1852.3	0.013664	-0.00488	0.99894
0.612	21.422	-3.1133e+05	1852.2	0.013469	-0.0052704	0.99933
0.614	21.339	-3.1132e+05	1852.1	0.013274	-0.0056608	0.99972
0.616	21.23	-3.1131e+05	1852	0.013078	-0.0060512	1.0001
0.618	21.132	-3.1131e+05	1851.8	0.012883	-0.0064416	1.0005
0.62	21.126	-3.1131e+05	1851.7	0.012688	-0.006832	1.0009
0.622	21.183	-3.1131e+05	1851.6	0.012395	-0.0074176	1.0007
0.624	21.303	-3.1131e+05	1851.5	0.012102	-0.0080032	1.0005
0.626	21.445	-3.1131e+05	1851.4	0.01181	-0.0085888	1.0003
0.628	21.457	-3.113e+05	1851.3	0.011517	-0.0091744	1.0001
0.63	21.379	-3.1129e+05	1851.1	0.011224	-0.00976	0.99991
0.632	21.297	-3.1128e+05	1851	0.011322	-0.00976	0.99981
0.634	21.187	-3.1128e+05	1850.8	0.011419	-0.00976	0.99972
0.636	21.143	-3.1127e+05	1850.7	0.011517	-0.00976	0.99962
0.638	21.198	-3.1127e+05	1850.6	0.011614	-0.00976	0.99952
0.64	21.288	-3.1127e+05	1850.4	0.011712	-0.00976	0.99942
0.642	21.412	-3.1127e+05	1850.3	0.01015	-0.0076128	1.0007
0.644	21.462	-3.1127e+05	1850.1	0.0085888	-0.0054656	1.002
0.646	21.387	-3.1127e+05	1849.9	0.0070272	-0.0033184	1.0032
0.648	21.299	-3.1127e+05	1849.8	0.0054656	-0.0011712	1.0045
0.65	21.172	-3.1126e+05	1849.7	0.003904	0.000976	1.0058
0.652	21.098	-3.1126e+05	1849.7	0.004392	0.000488	1.0048
0.654	21.173	-3.1125e+05	1849.6	0.00488	-1.0842e-19	1.0038
0.656	21.234	-3.1125e+05	1849.5	0.005368	-0.000488	1.0028
0.658	21.34	-3.1124e+05	1849.5	0.005856	-0.000976	1.0019
0.66	21.47	-3.1124e+05	1849.4	0.006344	-0.001464	1.0009
0.662	21.419	-3.1124e+05	1849.3	0.0072224	-0.0020496	1.0008
0.664	21.353	-3.1123e+05	1849.2	0.0081008	-0.0026352	1.0007
0.666	21.223	-3.1123e+05	1849	0.0089792	-0.0032208	1.0006
0.668	21.084	-3.1123e+05	1848.9	0.0098576	-0.0038064	1.0005
0.67	21.144	-3.1123e+05	1848.7	0.010736	-0.004392	1.0004
0.672	21.21	-3.1123e+05	1848.4	0.011419	-0.0040016	1.0003
0.674	21.322	-3.1123e+05	1848.2	0.012102	-0.0036112	1.0002
0.676	21.449	-3.1123e+05	1847.9	0.012786	-0.0032208	1.0001
0.678	21.403	-3.1123e+05	1847.7	0.013469	-0.0028304	1
0.68	21.341	-3.1123e+05	1847.5	0.014152	-0.00244	0.99991
0.682	21.264	-3.1123e+05	1847.3	0.013566	-0.0028304	0.99972
0.684	21.143	-3.1123e+05	1847.1	0.012981	-0.0032208	0.99952
0.686	21.139	-3.1122e+05	1846.8	0.012395	-0.0036112	0.99933
0.688	21.202	-3.1122e+05	1846.7	0.01181	-0.0040016	0.99913
0.69	21.255	-3.1122e+05	1846.5	0.011224	-0.004392	0.99894
0.692	21.38	-3.1122e+05	1846.4	0.010638	-0.0040992	0.99981
0.694	21.439	-3.1122e+05	1846.2	0.010053	-0.0038064	1.0007
0.696	21.374	-3.1122e+05	1846.1	0.0094672	-0.0035136	1.0016
0.698	21.295	-3.1121e+05	1846	0.0088816	-0.0032208	1.0024
0.7	21.171	-3.1122e+05	1845.9	0.008296	-0.002928	1.0033
0.702	21.056	-3.1122e+05	1845.9	0.0089792	-0.0036112	1.0029
0.704	21.076	-3.1122e+05	1845.9	0.0096624	-0.0042944	1.0025
0.706	21.215	-3.1121e+05	1845.9	0.010346	-0.0049776	1.0022
0.708	21.383	-3.1122e+05	1845.8	0.011029	-0.0056608	1.0018
0.71	21.454	-3.1122e+05	1845.8	0.011712	-0.006344	1.0014
0.712	21.382	-3.1122e+05	1845.8	0.011419	-0.005856	1.001
0.714	21.281	-3.1122e+05	1845.7	0.011126	-0.005368	1.0006
0.716	21.175	-3.1122e+05	1845.7	0.010834	-0.00488	1.0002
0.718	21.072	-3.1122e+05	1845.6	0.010541	-0.004392	0.99981
0.72	21.095	-3.1122e+05	1845.6	0.010248	-0.003904	0.99942
0.722	21.171	-3.1122e+05	1845.6	0.010931	-0.0045872	0.99884
0.724	21.26	-3.1122e+05	1845.7	0.011614	-0.0052704	0.99825
0.726	21.382	-3.1122e+05	1845.7	0.012298	-0.0059536	0.99767
0.728	21.375	-3.1121e+05	1845.7	0.012981	-0.0066368	0.99708
0.73	21.293	-3.1121e+05	1845.6	0.013664	-0.00732	0.9965
0.732	21.227	-3.1122e+05	1845.7	0.013566	-0.0067344	0.99669
0.734	21.111	-3.1123e+05	1845.7	0.013469	-0.0061488	0.99689
0.736	21.101	-3.1123e+05	1845.7	0.013371	-0.0055632	0.99708
0.738	21.172	-3.1123e+05	1845.7	0.013274	-0.0049776	0.99728
0.74	21.213	-3.1124e+05	1845.7	0.013176	-0.004392	0.99747
0.742	21.315	-3.1124e+05	1845.7	0.012883	-0.0051728	0.99757
0.744	21.366	-3.1124e+05	1845.7	0.01259	-0.0059536	0.99767
0.746	21.299	-3.1124e+05	1845.7	0.012298	-0.0067344	0.99776
0.748	21.26	-3.1124e+05	1845.7	0.012005	-0.0075152	0.99786
0.75	21.119	-3.1124e+05	1845.6	0.011712	-0.008296	0.99796
0.752	21.039	-3.1124e+05	1845.6	0.012102	-0.0070272	0.99757
0.754	21.116	-3.1124e+05	1845.6	0.012493	-0.0057584	0.99718
0.756	21.189	-3.1124e+05	1845.5	0.012883	-0.0044896	0.99679
0.758	21.305	-3.1124e+05	1845.5	0.013274	-0.0032208	0.9964
0.76	21.38	-3.1124e+05	1845.4	0.013664	-0.001952	0.99601
0.762	21.313	-3.1124e+05	1845.3	0.012005	-0.0025376	0.99708
0.764	21.237	-3.1125e+05	1845.2	0.010346	-0.0031232	0.99816
0.766	21.132	-3.1125e+05	1845.2	0.0086864	-0.0037088	0.99923
0.768	21.045	-3.1125e+05	1845.1	0.0070272	-0.0042944	1.0003
0.77	21.073	-3.1125e+05	1845.1	0.005368	-0.00488	1.0014
0.772	21.14	-3.1125e+05	1845	0.0061488	-0.0051728	1.0012
0.774	21.256	-3.1125e+05	1844.9	0.0069296	-0.0054656	1.001
0.776	21.368	-3.1126e+05	1844.9	0.0077104	-0.0057584	1.0008
0.778	21.346	-3.1127e+05	1844.9	0.0084912	-0.0060512	1.0006
0.78	21.275	-3.1126e+05	1844.9	0.009272	-0.006344	1.0004
0.782	21.201	-3.1125e+05	1844.8	0.0088816	-0.006832	1.0003
0.784	21.103	-3.1126e+05	1844.8	0.0084912	-0.00732	1.0002
0.786	21.075	-3.1127e+05	1844.7	0.0081008	-0.007808	1.0001
0.788	21.106	-3.1127e+05	1844.7	0.0077104	-0.008296	1
0.79	21.173	-3.1126e+05	1844.7	0.00732	-0.008784	0.99991
0.792	21.308	-3.1127e+05	1844.7	0.0084912	-0.0088816	0.99913
0.794	21.364	-3.1127e+05	1844.7	0.0096624	-0.0089792	0.99835
0.796	21.287	-3.1127e+05	1844.6	0.010834	-0.0090768	0.99757
0.798	21.203	-3.1127e+05	1844.7	0.012005	-0.0091744	0.99679
0.8	21.105	-3.1127e+05	1844.7	0.013176	-0.009272	0.99601
0.802	21.045	-3.1128e+05	1844.7	0.01259	-0.0091744	0.99552
0.804	21.085	-3.1127e+05	1844.7	0.012005	-0.0090768	0.99503
0.806	21.145	-3.1127e+05	1844.6	0.011419	-0.0089792	0.99454
0.808	21.265	-3.1127e+05	1844.6	0.010834	-0.0088816	0.99406
0.81	21.399	-3.1128e+05	1844.6	0.010248	-0.008784	0.99357
0.812	21.376	-3.1127e+05	1844.6	0.008784	-0.0061488	0.99435
0.814	21.296	-3.1127e+05	1844.6	0.00732	-0.0035136	0.99513
0.816	21.167	-3.1128e+05	1844.6	0.005856	-0.0008784	0.99591
0.818	21.028	-3.1129e+05	1844.6	0.004392	0.0017568	0.99669
0.82	21.066	-3.1129e+05	1844.5	0.002928	0.004392	0.99747
0.822	21.149	-3.1129e+05	1844.5	0.0040992	0.0028304	0.99776
0.824	21.234	-3.1129e+05	1844.4	0.0052704	0.0012688	0.99806
0.826	21.346	-3.1128e+05	1844.4	0.0064416	-0.0002928	0.99835
0.828	21.374	-3.113e+05	1844.4	0.0076128	-0.0018544	0.99864
0.83	21.336	-3.1132e+05	1844.4	0.008784	-0.003416	0.99894
0.832	21.217	-3.1132e+05	1844.3	0.008784	-0.003904	0.99962
0.834	21.039	-3.1132e+05	1844.2	0.008784	-0.004392	1.0003
0.836	21.03	-3.1131e+05	1844.1	0.008784	-0.00488	1.001
0.838	21.115	-3.1131e+05	1844	0.008784	-0.005368	1.0017
0.84	21.218	-3.1131e+05	1843.9	0.008784	-0.005856	1.0024
0.842	21.389	-3.1132e+05	1843.9	0.0089792	-0.0055632	1.0018
0.844	21.416	-3.1131e+05	1843.8	0.0091744	-0.0052704	1.0012
0.846	21.332	-3.1131e+05	1843.7	0.0093696	-0.0049776	1.0006
0.848	21.261	-3.1131e+05	1843.6	0.0095648	-0.0046848	1
0.85	21.12	-3.1131e+05	1843.5	0.00976	-0.004392	0.99942
0.852	21.062	-3.1131e+05	1843.4	0.0098576	-0.0035136	0.99884
0.854	21.115	-3.1131e+05	1843.3	0.0099552	-0.0026352	0.99825
0.856	21.188	-3.1131e+05	1843.2	0.010053	-0.0017568	0.99767
0.858	21.322	-3.1131e+05	1843.1	0.01015	-0.0008784	0.99708
0.86	21.394	-3.1131e+05	1842.9	0.010248	0	0.9965
0.862	21.345	-3.1131e+05	1842.8	0.010443	-0.0017568	0.9964
0.864	21.259	-3.1131e+05	1842.7	0.010638	-0.0035136	0.9963
0.866	21.149	-3.1132e+05	1842.6	0.010834	-0.0052704	0.9962
0.868	21.066	-3.1132e+05	1842.5	0.011029	-0.0070272	0.99611
0.87	21.072	-3.1132e+05	1842.4	0.011224	-0.008784	0.99601
0.872	21.136	-3.1132e+05	1842.3	0.010931	-0.0085888	0.99659
0.874	21.257	-3.1132e+05	1842.2	0.010638	-0.0083936	0.99718
0.876	21.359	-3.1132e+05	1842.1	0.010346	-0.0081984	0.99776
0.878	21.335	-3.1132e+05	1842.1	0.010053	-0.0080032	0.99835
0.88	21.251	-3.1132e+05	1842	0.00976	-0.007808	0.99894
0.882	21.152	-3.1132e+05	1842	0.0093696	-0.0062464	0.99825
0.884	21.034	-3.1133e+05	1841.9	0.0089792	-0.0046848	0.99757
0.886	20.992	-3.1133e+05	1841.9	0.0085888	-0.0031232	0.99689
0.888	21.042	-3.1133e+05	1841.8	0.0081984	-0.0015616	0.9962
0.89	21.126	-3.1133e+05	1841.8	0.007808	0	0.99552
0.892	21.257	-3.1134e+05	1841.9	0.0079056	-0.0010736	0.99659
0.894	21.313	-3.1134e+05	1841.9	0.0080032	-0.0021472	0.99767
0.896	21.246	-3.1134e+05	1841.9	0.0081008	-0.0032208	0.99874
0.898	21.181	-3.1134e+05	1841.8	0.0081984	-0.0042944	0.99981
0.9	21.068	-3.1134e+05	1841.8	0.008296	-0.005368	1.0009
0.902	20.994	-3.1134e+05	1841.8	0.0083936	-0.0056608	1.0004
0.904	21.064	-3.1135e+05	1841.8	0.0084912	-0.0059536	0.99991
0.906	21.15	-3.1135e+05	1841.8	0.0085888	-0.0062464	0.99942
0.908	21.272	-3.1135e+05	1841.8	0.0086864	-0.0065392	0.99894
0.91	21.376	-3.1135e+05	1841.7	0.008784	-0.006832	0.99845
0.912	21.334	-3.1135e+05	1841.7	0.0095648	-0.00732	0.99786
0.914	21.257	-3.1135e+05	1841.6	0.010346	-0.007808	0.99728
0.916	21.125	-3.1135e+05	1841.6	0.011126	-0.008296	0.99669
0.918	20.969	-3.1135e+05	1841.5	0.011907	-0.008784	0.99611
0.92	21.043	-3.1135e+05	1841.5	0.012688	-0.009272	0.99552
0.922	21.131	-3.1136e+05	1841.4	0.011907	-0.0089792	0.99572
0.924	21.219	-3.1136e+05	1841.3	0.011126	-0.0086864	0.99591
0.926	21.373	-3.1136e+05	1841.2	0.010346	-0.0083936	0.99611
0.928	21.344	-3.1136e+05	1841.1	0.0095648	-0.0081008	0.9963
0.93	21.264	-3.1137e+05	1841.1	0.008784	-0.007808	0.9965
0.932	21.167	-3.1137e+05	1840.9	0.0088816	-0.0074176	0.99728
0.934	21.032	-3.1137e+05	1840.8	0.0089792	-0.0070272	0.99806
0.936	21.01	-3.1138e+05	1840.7	0.0090768	-0.0066368	0.99884
0.938	21.077	-3.1138e+05	1840.6	0.0091744	-0.0062464	0.99962
0.94	21.157	-3.1138e+05	1840.6	0.009272	-0.005856	1.0004
0.942	21.291	-3.1138e+05	1840.4	0.0093696	-0.0049776	0.99972
0.944	21.314	-3.1138e+05	1840.3	0.0094672	-0.0040992	0.99903
0.946	21.248	-3.1139e+05	1840.2	0.0095648	-0.0032208	0.99835
0.948	21.179	-3.1139e+05	1840.1	0.0096624	-0.0023424	0.99767
0.95	21.055	-3.1139e+05	1840	0.00976	-0.001464	0.99698
0.952	20.997	-3.1139e+05	1839.9	0.010346	-0.0023424	0.99747
0.954	21.043	-3.1139e+05	1839.8	0.010931	-0.0032208	0.99796
0.956	21.102	-3.1139e+05	1839.7	0.011517	-0.0040992	0.99845
0.958	21.207	-3.1139e+05	1839.6	0.012102	-0.0049776	0.99894
0.96	21.291	-3.1139e+05	1839.5	0.012688	-0.005856	0.99942
0.962	21.279	-3.1139e+05	1839.5	0.011322	-0.0066368	0.99816
0.964	21.234	-3.1139e+05	1839.4	0.0099552	-0.0074176	0.99689
0.966	21.153	-3.114e+05	1839.4	0.0085888	-0.0081984	0.99562
0.968	21.069	-3.1141e+05	1839.4	0.0072224	-0.0089792	0.99435
0.97	21.101	-3.1141e+05	1839.3	0.005856	-0.00976	0.99308
0.972	21.222	-3.1141e+05	1839.3	0.006344	-0.00976	0.99328
0.974	21.374	-3.1142e+05	1839.3	0.006832	-0.00976	0.99347
0.976	21.527	-3.1142e+05	1839.3	0.00732	-0.00976	0.99367
0.978	21.53	-3.1142e+05	1839.3	0.007808	-0.00976	0.99386
0.98	21.444	-3.1142e+05	1839.4	0.008296	-0.00976	0.99406
0.982	21.35	-3.1142e+05	1839.4	0.0085888	-0.0099552	0.99464
0.984	21.183	-3.1143e+05	1839.3	0.0088816	-0.01015	0.99523
0.986	21.088	-3.1143e+05	1839.3	0.0091744	-0.010346	0.99581
0.988	21.089	-3.1143e+05	1839.3	0.0094672	-0.010541	0.9964
0.99	21.101	-3.1143e+05	1839.3	0.00976	-0.010736	0.99698
0.992	21.194	-3.1144e+05	1839.2	0.010443	-0.010541	0.99669
0.994	21.22	-3.1145e+05	1839.2	0.011126	-0.010346	0.9964
0.996	21.092	-3.1144e+05	1839.1	0.01181	-0.01015	0.99611
0.998	21.005	-3.1144e+05	1839.1	0.012493	-0.0099552	0.99581
1	20.885	-3.1145e+05	1839	0.013176	-0.00976	0.99552
1.002	20.798	-3.1145e+05	1839	0.014054	-0.009272	0.99581
1.004	20.893	-3.1145e+05	1838.9	0.014933	-0.008784	0.99611
1.006	21.011	-3.1145e+05	1838.9	0.015811	-0.008296	0.9964
1.008	21.169	-3.1146e+05	1838.8	0.01669	-0.007808	0.99669
1.01	21.272	-3.1146e+05	1838.7	0.017568	-0.00732	0.99698
1.012	21.2	-3.1147e+05	1838.7	0.014542	-0.0062464	0.99845
1.014	21.153	-3.1147e+05	1838.6	0.011517	-0.0051728	0.99991
1.016	21.062	-3.1147e+05	1838.5	0.0084912	-0.0040992	1.0014
1.018	20.957	-3.1148e+05	1838.5	0.0054656	-0.0030256	1.0028
1.02	20.995	-3.1148e+05	1838.4	0.00244	-0.001952	1.0043
1.022	21.061	-3.1148e+05	1838.4	0.004392	-0.0023424	1.003
1.024	21.153	-3.1148e+05	1838.3	0.006344	-0.0027328	1.0018
1.026	21.262	-3.1148e+05	1838.2	0.008296	-0.0031232	1.0005
1.028	21.238	-3.1148e+05	1838.2	0.010248	-0.0035136	0.99923
1.03	21.16	-3.1148e+05	1838.1	0.0122	-0.003904	0.99796
1.032	21.066	-3.1148e+05	1838	0.011322	-0.0037088	0.99874
1.034	20.951	-3.1148e+05	1837.9	0.010443	-0.0035136	0.99952
1.036	20.949	-3.1149e+05	1837.9	0.0095648	-0.0033184	1.0003
1.038	21.033	-3.1149e+05	1837.8	0.0086864	-0.0031232	1.0011
1.04	21.133	-3.1149e+05	1837.8	0.007808	-0.002928	1.0019
1.042	21.24	-3.1149e+05	1837.8	0.0096624	-0.0025376	1.0011
1.044	21.248	-3.115e+05	1837.7	0.011517	-0.0021472	1.0003
1.046	21.174	-3.115e+05	1837.7	0.013371	-0.0017568	0.99952
1.048	21.09	-3.1151e+05	1837.7	0.015226	-0.0013664	0.99874
1.05	20.968	-3.1151e+05	1837.7	0.01708	-0.000976	0.99796
1.052	20.907	-3.1151e+05	1837.6	0.016397	-0.0005856	0.99825
1.054	20.98	-3.1152e+05	1837.5	0.015714	-0.0001952	0.99855
1.056	21.081	-3.1152e+05	1837.4	0.01503	0.0001952	0.99884
1.058	21.196	-3.1152e+05	1837.4	0.014347	0.0005856	0.99913
1.06	21.293	-3.1152e+05	1837.3	0.013664	0.000976	0.99942
1.062	21.248	-3.1152e+05	1837.3	0.013566	0.0005856	0.99845
1.064	21.165	-3.1153e+05	1837.2	0.013469	0.0001952	0.99747
1.066	21.068	-3.1153e+05	1837.2	0.013371	-0.0001952	0.9965
1.068	20.932	-3.1153e+05	1837.1	0.013274	-0.0005856	0.99552
1.07	20.936	-3.1153e+05	1837	0.013176	-0.000976	0.99454
1.072	21.02	-3.1153e+05	1836.9	0.013762	-0.0010736	0.99474
1.074	21.095	-3.1153e+05	1836.9	0.014347	-0.0011712	0.99493
1.076	21.22	-3.1153e+05	1836.8	0.014933	-0.0012688	0.99513
1.078	21.211	-3.1153e+05	1836.8	0.015518	-0.0013664	0.99532
1.08	21.132	-3.1154e+05	1836.7	0.016104	-0.001464	0.99552
1.082	21.076	-3.1154e+05	1836.7	0.016592	-0.000976	0.99572
1.084	20.925	-3.1155e+05	1836.6	0.01708	-0.000488	0.99591
1.086	20.909	-3.1155e+05	1836.5	0.017568	-1.0842e-19	0.99611
1.088	20.975	-3.1155e+05	1836.5	0.018056	0.000488	0.9963
1.09	21.062	-3.1155e+05	1836.4	0.018544	0.000976	0.9965
1.092	21.2	-3.1156e+05	1836.3	0.016982	9.76e-05	0.9963
1.094	21.222	-3.1156e+05	1836.3	0.015421	-0.0007808	0.99611
1.096	21.171	-3.1157e+05	1836.3	0.013859	-0.0016592	0.99591
1.098	21.094	-3.1157e+05	1836.4	0.012298	-0.0025376	0.99572
1.1	20.923	-3.1157e+05	1836.4	0.010736	-0.003416	0.99552
1.102	20.868	-3.1157e+05	1836.8	0.010443	-0.0037088	0.9963
1.104	20.954	-3.1157e+05	1837.2	0.01015	-0.0040016	0.99708
1.106	21.028	-3.1158e+05	1837.9	0.0098576	-0.0042944	0.99786
1.108	21.134	-3.1158e+05	1838.9	0.0095648	-0.0045872	0.99864
1.11	21.191	-3.1158e+05	1839.9	0.009272	-0.00488	0.99942
1.112	21.156	-3.1158e+05	1841.1	0.010248	-0.0054656	0.99933
1.114	21.106	-3.1158e+05	1842.3	0.011224	-0.0060512	0.99923
1.116	21.004	-3.1158e+05	1843.5	0.0122	-0.0066368	0.99913
1.118	20.926	-3.1159e+05	1844.6	0.013176	-0.0072224	0.99903
1.12	20.957	-3.116e+05	1845.8	0.014152	-0.007808	0.99894
1.122	21.009	-3.1161e+05	1846.9	0.014347	-0.0081008	0.99835
1.124	21.1	-3.116e+05	1848	0.014542	-0.0083936	0.99776
1.126	21.206	-3.116e+05	1849	0.014738	-0.0086864	0.99718
1.128	21.188	-3.116e+05	1850	0.014933	-0.0089792	0.99659
1.13	21.104	-3.116e+05	1851	0.015128	-0.009272	0.99601
1.132	21.023	-3.1161e+05	1851.7	0.014347	-0.0093696	0.9964
1.134	20.943	-3.1161e+05	1852.5	0.013566	-0.0094672	0.99679
1.136	20.942	-3.1161e+05	1853.1	0.012786	-0.0095648	0.99718
1.138	20.994	-3.1161e+05	1853.8	0.012005	-0.0096624	0.99757
1.14	21.067	-3.1162e+05	1854.4	0.011224	-0.00976	0.99796
1.142	21.211	-3.1162e+05	1854.9	0.010443	-0.0096624	0.99747
1.144	21.276	-3.1162e+05	1855.4	0.0096624	-0.0095648	0.99698
1.146	21.205	-3.1162e+05	1855.9	0.0088816	-0.0094672	0.9965
1.148	21.115	-3.1163e+05	1856.3	0.0081008	-0.0093696	0.99601
1.15	20.983	-3.1163e+05	1856.7	0.00732	-0.009272	0.99552
1.152	20.906	-3.1163e+05	1857.1	0.0051728	-0.0085888	0.99737
1.154	20.956	-3.1163e+05	1857.4	0.0030256	-0.0079056	0.99923
1.156	21.052	-3.1164e+05	1857.7	0.0008784	-0.0072224	1.0011
1.158	21.195	-3.1164e+05	1857.9	-0.0012688	-0.0065392	1.0029
1.16	21.302	-3.1163e+05	1858.1	-0.003416	-0.005856	1.0048
1.162	21.26	-3.1163e+05	1858.3	-0.0032208	-0.0061488	1.0047
1.164	21.198	-3.1163e+05	1858.5	-0.0030256	-0.0064416	1.0046
1.166	21.078	-3.1163e+05	1858.6	-0.0028304	-0.0067344	1.0045
1.168	20.956	-3.1163e+05	1858.7	-0.0026352	-0.0070272	1.0044
1.17	20.997	-3.1163e+05	1858.7	-0.00244	-0.00732	1.0043
1.172	21.071	-3.1163e+05	1858.8	-0.0027328	-0.0067344	1.004
1.174	21.184	-3.1164e+05	1858.8	-0.0030256	-0.0061488	1.0037
1.176	21.339	-3.1163e+05	1858.8	-0.0033184	-0.0055632	1.0034
1.178	21.284	-3.1162e+05	1858.8	-0.0036112	-0.0049776	1.0031
1.18	21.174	-3.1162e+05	1858.8	-0.003904	-0.004392	1.0028
1.182	21.105	-3.1162e+05	1858.7	-0.0027328	-0.0040016	1.0031
1.184	20.96	-3.1161e+05	1858.6	-0.0015616	-0.0036112	1.0034
1.186	20.98	-3.1161e+05	1858.6	-0.0003904	-0.0032208	1.0037
1.188	21.065	-3.116e+05	1858.6	0.0007808	-0.0028304	1.004
1.19	21.147	-3.1159e+05	1858.5	0.001952	-0.00244	1.0043
1.192	21.279	-3.1159e+05	1858.5	0.0031232	-0.0021472	1.0027
1.194	21.298	-3.116e+05	1858.5	0.0042944	-0.0018544	1.0012
1.196	21.228	-3.1159e+05	1858.4	0.0054656	-0.0015616	0.99962
1.198	21.158	-3.1159e+05	1858.3	0.0066368	-0.0012688	0.99806
1.2	21.034	-3.1158e+05	1858.3	0.007808	-0.000976	0.9965
1.202	20.968	-3.1157e+05	1858.2	0.0083936	-0.0011712	0.99679
1.204	20.975	-3.1156e+05	1858.2	0.0089792	-0.0013664	0.99708
1.206	20.985	-3.1156e+05	1858.1	0.0095648	-0.0015616	0.99737
1.208	21.085	-3.1156e+05	1858	0.01015	-0.0017568	0.99767
1.21	21.193	-3.1156e+05	1857.9	0.010736	-0.001952	0.99796
1.212	21.192	-3.1155e+05	1857.8	0.011419	-0.0022448	0.99806
1.214	21.127	-3.1154e+05	1857.7	0.012102	-0.0025376	0.99816
1.216	20.998	-3.1154e+05	1857.7	0.012786	-0.0028304	0.99825
1.218	20.889	-3.1153e+05	1857.7	0.013469	-0.0031232	0.99835
1.22	20.916	-3.1152e+05	1857.7	0.014152	-0.003416	0.99845
1.222	20.988	-3.1152e+05	1857.6	0.013859	-0.0027328	0.99776
1.224	21.06	-3.1151e+05	1857.6	0.013566	-0.0020496	0.99708
1.226	21.155	-3.1149e+05	1857.5	0.013274	-0.0013664	0.9964
1.228	21.184	-3.1149e+05	1857.5	0.012981	-0.0006832	0.99572
1.23	21.137	-3.1149e+05	1857.4	0.012688	-1.5534e-13	0.99503
1.232	21.04	-3.1148e+05	1857.3	0.012493	0	0.99464
1.234	20.883	-3.1148e+05	1857.2	0.012298	0	0.99425
1.236	20.818	-3.1147e+05	1857	0.012102	0	0.99386
1.238	20.882	-3.1147e+05	1856.9	0.011907	0	0.99347
1.24	20.98	-3.1146e+05	1856.8	0.011712	0	0.99308
1.242	21.126	-3.1145e+05	1856.7	0.010638	0.0007808	0.99308
1.244	21.179	-3.1144e+05	1856.6	0.0095648	0.0015616	0.99308
1.246	21.095	-3.1143e+05	1856.4	0.0084912	0.0023424	0.99308
1.248	21.024	-3.1143e+05	1856.3	0.0074176	0.0031232	0.99308
1.25	20.91	-3.1143e+05	1856.1	0.006344	0.003904	0.99308
1.252	20.854	-3.1142e+05	1855.9	0.0052704	0.0036112	0.99171
1.254	20.907	-3.1141e+05	1855.7	0.0041968	0.0033184	0.99035
1.256	20.917	-3.114e+05	1855.5	0.0031232	0.0030256	0.98898
1.258	21.042	-3.114e+05	1855.3	0.0020496	0.0027328	0.98761
1.26	21.195	-3.1139e+05	1855.1	0.000976	0.00244	0.98625
1.262	21.095	-3.1139e+05	1854.9	0.000976	0.0028304	0.98693
1.264	21.037	-3.1138e+05	1854.8	0.000976	0.0032208	0.98761
1.266	20.933	-3.1138e+05	1854.6	0.000976	0.0036112	0.9883
1.268	20.811	-3.1137e+05	1854.4	0.000976	0.0040016	0.98898
1.27	20.866	-3.1136e+05	1854.3	0.000976	0.004392	0.98966
1.272	20.94	-3.1136e+05	1854	0.0021472	0.0041968	0.99015
1.274	21.034	-3.1136e+05	1853.8	0.0033184	0.0040016	0.99064
1.276	21.149	-3.1135e+05	1853.6	0.0044896	0.0038064	0.99113
1.278	21.118	-3.1134e+05	1853.4	0.0056608	0.0036112	0.99162
1.28	21.062	-3.1133e+05	1853.2	0.006832	0.003416	0.9921
1.282	20.992	-3.1132e+05	1853.1	0.0084912	0.0026352	0.99328
1.284	20.871	-3.1131e+05	1852.9	0.01015	0.0018544	0.99445
1.286	20.877	-3.1131e+05	1852.8	0.01181	0.0010736	0.99562
1.288	20.952	-3.113e+05	1852.6	0.013469	0.0002928	0.99679
1.29	21.047	-3.113e+05	1852.4	0.015128	-0.000488	0.99796
1.292	21.166	-3.1129e+05	1852.3	0.012786	-0.0011712	0.99884
1.294	21.153	-3.1128e+05	1852.2	0.010443	-0.0018544	0.99972
1.296	21.078	-3.1128e+05	1852	0.0081008	-0.0025376	1.0006
1.298	21.025	-3.1128e+05	1851.9	0.0057584	-0.0032208	1.0015
1.3	20.925	-3.1128e+05	1851.8	0.003416	-0.003904	1.0024
1.302	20.847	-3.1128e+05	1851.7	0.0044896	-0.0040016	1.0026
1.304	20.873	-3.1127e+05	1851.6	0.0055632	-0.0040992	1.0029
1.306	20.959	-3.1126e+05	1851.5	0.0066368	-0.0041968	1.0032
1.308	21.085	-3.1126e+05	1851.4	0.0077104	-0.0042944	1.0035
1.31	21.175	-3.1126e+05	1851.3	0.008784	-0.004392	1.0038
1.312	21.146	-3.1126e+05	1851.2	0.008296	-0.0040992	1.0038
1.314	21.07	-3.1125e+05	1851.1	0.007808	-0.0038064	1.0038
1.316	20.957	-3.1125e+05	1851	0.00732	-0.0035136	1.0038
1.318	20.847	-3.1125e+05	1850.8	0.006832	-0.0032208	1.0038
1.32	20.876	-3.1124e+05	1850.7	0.006344	-0.002928	1.0038
1.322	20.939	-3.1124e+05	1850.6	0.0065392	-0.0022448	1.0034
1.324	21.02	-3.1124e+05	1850.5	0.0067344	-0.0015616	1.003
1.326	21.126	-3.1123e+05	1850.4	0.0069296	-0.0008784	1.0026
1.328	21.112	-3.1123e+05	1850.3	0.0071248	-0.0001952	1.0023
1.33	21.051	-3.1123e+05	1850.2	0.00732	0.000488	1.0019
1.332	20.989	-3.1122e+05	1850.1	0.0072224	-0.0003904	1.0022
1.334	20.808	-3.1122e+05	1850	0.0071248	-0.0012688	1.0024
1.336	20.778	-3.1122e+05	1849.9	0.0070272	-0.0021472	1.0027
1.338	20.88	-3.1122e+05	1849.8	0.0069296	-0.0030256	1.003
1.34	20.969	-3.1121e+05	1849.7	0.006832	-0.003904	1.0033
1.342	21.168	-3.112e+05	1849.6	0.0074176	-0.0038064	1.0026
1.344	21.214	-3.112e+05	1849.4	0.0080032	-0.0037088	1.002
1.346	21.106	-3.112e+05	1849.3	0.0085888	-0.0036112	1.0013
1.348	21.022	-3.112e+05	1849.1	0.0091744	-0.0035136	1.0006
1.35	20.88	-3.1119e+05	1849	0.00976	-0.003416	0.99991
1.352	20.825	-3.1119e+05	1848.7	0.011322	-0.0035136	0.99962
1.354	20.897	-3.112e+05	1848.5	0.012883	-0.0036112	0.99933
1.356	20.96	-3.112e+05	1848.2	0.014445	-0.0037088	0.99903
1.358	21.07	-3.112e+05	1848	0.016006	-0.0038064	0.99874
1.36	21.144	-3.1119e+05	1847.7	0.017568	-0.003904	0.99845
1.362	21.093	-3.1118e+05	1847.5	0.016592	-0.0031232	0.99747
1.364	21.041	-3.1118e+05	1847.2	0.015616	-0.0023424	0.9965
1.366	20.927	-3.1118e+05	1847	0.01464	-0.0015616	0.99552
1.368	20.822	-3.1117e+05	1846.7	0.013664	-0.0007808	0.99454
1.37	20.86	-3.1117e+05	1846.5	0.012688	0	0.99357
1.372	20.939	-3.1117e+05	1846.2	0.011517	-0.000976	0.99552
1.374	21.048	-3.1118e+05	1846	0.010346	-0.001952	0.99747
1.376	21.158	-3.1117e+05	1845.8	0.0091744	-0.002928	0.99942
1.378	21.157	-3.1117e+05	1845.6	0.0080032	-0.003904	1.0014
1.38	21.088	-3.1118e+05	1845.5	0.006832	-0.00488	1.0033
1.382	20.997	-3.1118e+05	1845.3	0.0060512	-0.0040992	1.0033
1.384	20.885	-3.1119e+05	1845.2	0.0052704	-0.0033184	1.0033
1.386	20.846	-3.112e+05	1845.1	0.0044896	-0.0025376	1.0033
1.388	20.891	-3.1119e+05	1845.1	0.0037088	-0.0017568	1.0033
1.39	20.977	-3.1118e+05	1845	0.002928	-0.000976	1.0033
1.392	21.101	-3.1119e+05	1845	0.0040992	-0.000976	1.0026
1.394	21.135	-3.1119e+05	1845	0.0052704	-0.000976	1.002
1.396	21.044	-3.1119e+05	1845	0.0064416	-0.000976	1.0013
1.398	20.967	-3.1119e+05	1845	0.0076128	-0.000976	1.0006
1.4	20.868	-3.1118e+05	1845.1	0.008784	-0.000976	0.99991
1.402	20.789	-3.1117e+05	1845.1	0.0096624	-0.0017568	0.99981
1.404	20.844	-3.1118e+05	1845.2	0.010541	-0.0025376	0.99972
1.406	20.93	-3.1118e+05	1845.2	0.011419	-0.0033184	0.99962
1.408	21.038	-3.1118e+05	1845.3	0.012298	-0.0040992	0.99952
1.41	21.123	-3.1119e+05	1845.3	0.013176	-0.00488	0.99942
1.412	21.058	-3.1119e+05	1845.4	0.01259	-0.004392	0.99981
1.414	20.97	-3.1118e+05	1845.4	0.012005	-0.003904	1.0002
1.416	20.87	-3.1118e+05	1845.5	0.011419	-0.003416	1.0006
1.418	20.759	-3.1119e+05	1845.5	0.010834	-0.002928	1.001
1.42	20.808	-3.1119e+05	1845.5	0.010248	-0.00244	1.0014
1.422	20.885	-3.1119e+05	1845.5	0.011712	-0.001952	1.0003
1.424	20.946	-3.112e+05	1845.5	0.013176	-0.001464	0.99923
1.426	21.049	-3.112e+05	1845.4	0.01464	-0.000976	0.99816
1.428	21.035	-3.112e+05	1845.4	0.016104	-0.000488	0.99708
1.43	20.985	-3.112e+05	1845.3	0.017568	0	0.99601
1.432	20.906	-3.1121e+05	1845.2	0.016982	-0.0003904	0.99659
1.434	20.77	-3.1121e+05	1845.2	0.016397	-0.0007808	0.99718
1.436	20.782	-3.1121e+05	1845.1	0.015811	-0.0011712	0.99776
1.438	20.812	-3.1121e+05	1845	0.015226	-0.0015616	0.99835
1.44	20.865	-3.1121e+05	1844.9	0.01464	-0.001952	0.99894
1.442	21.025	-3.1121e+05	1844.8	0.014347	-0.0010736	0.99737
1.444	21.078	-3.1121e+05	1844.7	0.014054	-0.0001952	0.99581
1.446	20.989	-3.1121e+05	1844.6	0.013762	0.0006832	0.99425
1.448	20.912	-3.1121e+05	1844.5	0.013469	0.0015616	0.99269
1.45	20.794	-3.1122e+05	1844.4	0.013176	0.00244	0.99113
1.452	20.753	-3.1122e+05	1844.3	0.013566	0.0023424	0.99259
1.454	20.795	-3.1122e+05	1844.3	0.013957	0.0022448	0.99406
1.456	20.866	-3.1122e+05	1844.2	0.014347	0.0021472	0.99552
1.458	20.992	-3.1122e+05	1844.1	0.014738	0.0020496	0.99698
1.46	21.054	-3.1123e+05	1844	0.015128	0.001952	0.99845
1.462	21.015	-3.1123e+05	1844	0.015811	0.0017568	0.99806
1.464	20.954	-3.1123e+05	1844	0.016494	0.0015616	0.99767
1.466	20.847	-3.1122e+05	1844	0.017178	0.0013664	0.99728
1.468	20.753	-3.1123e+05	1843.9	0.017861	0.0011712	0.99689
1.47	20.773	-3.1123e+05	1843.9	0.018544	0.000976	0.9965
1.472	20.843	-3.1124e+05	1843.9	0.017568	0.0007808	0.99679
1.474	20.936	-3.1124e+05	1843.9	0.016592	0.0005856	0.99708
1.476	21.043	-3.1124e+05	1843.8	0.015616	0.0003904	0.99737
1.478	21.06	-3.1123e+05	1843.8	0.01464	0.0001952	0.99767
1.48	20.992	-3.1124e+05	1843.8	0.013664	0	0.99796
1.482	20.893	-3.1124e+05	1843.7	0.01425	0.000488	0.99718
1.484	20.764	-3.1124e+05	1843.7	0.014835	0.000976	0.9964
1.486	20.723	-3.1124e+05	1843.6	0.015421	0.001464	0.99562
1.488	20.8	-3.1124e+05	1843.6	0.016006	0.001952	0.99484
1.49	20.903	-3.1124e+05	1843.5	0.016592	0.00244	0.99406
1.492	21.036	-3.1124e+05	1843.5	0.016202	0.0022448	0.99396
1.494	21.099	-3.1125e+05	1843.5	0.015811	0.0020496	0.99386
1.496	21.007	-3.1125e+05	1843.4	0.015421	0.0018544	0.99376
1.498	20.915	-3.1126e+05	1843.4	0.01503	0.0016592	0.99367
1.5	20.828	-3.1126e+05	1843.3	0.01464	0.001464	0.99357
1.502	20.758	-3.1126e+05	1843.3	0.013664	0.0005856	0.99542
1.504	20.821	-3.1126e+05	1843.3	0.012688	-0.0002928	0.99728
1.506	20.892	-3.1126e+05	1843.2	0.011712	-0.0011712	0.99913
1.508	21.012	-3.1126e+05	1843.2	0.010736	-0.0020496	1.001
1.51	21.11	-3.1126e+05	1843.1	0.00976	-0.002928	1.0028
1.512	21.032	-3.1126e+05	1843	0.0099552	-0.0035136	1.0022
1.514	20.934	-3.1126e+05	1842.9	0.01015	-0.0040992	1.0015
1.516	20.82	-3.1126e+05	1842.8	0.010346	-0.0046848	1.0008
1.518	20.707	-3.1126e+05	1842.6	0.010541	-0.0052704	1.0001
1.52	20.791	-3.1126e+05	1842.5	0.010736	-0.005856	0.99942
1.522	20.848	-3.1126e+05	1842.5	0.011614	-0.0046848	0.99855
1.524	20.948	-3.1126e+05	1842.4	0.012493	-0.0035136	0.99767
1.526	21.107	-3.1126e+05	1842.3	0.013371	-0.0023424	0.99679
1.528	21.104	-3.1127e+05	1842.2	0.01425	-0.0011712	0.99591
1.53	21.043	-3.1128e+05	1842.1	0.015128	-2.663e-13	0.99503
1.532	20.949	-3.1127e+05	1842	0.015128	0	0.99542
1.534	20.835	-3.1127e+05	1841.8	0.015128	0	0.99581
1.536	20.829	-3.1127e+05	1841.7	0.015128	0	0.9962
1.538	20.844	-3.1127e+05	1841.6	0.015128	0	0.99659
1.54	20.902	-3.1128e+05	1841.6	0.015128	0	0.99698
1.542	21.04	-3.1129e+05	1841.5	0.015616	0.0005856	0.99689
1.544	21.053	-3.1129e+05	1841.4	0.016104	0.0011712	0.99679
1.546	20.971	-3.1129e+05	1841.3	0.016592	0.0017568	0.99669
1.548	20.902	-3.1129e+05	1841.3	0.01708	0.0023424	0.99659
1.55	20.798	-3.1129e+05	1841.3	0.017568	0.002928	0.9965
1.552	20.744	-3.1129e+05	1841.2	0.017275	0.0027328	0.99611
1.554	20.779	-3.1129e+05	1841.1	0.016982	0.0025376	0.99572
1.556	20.835	-3.1129e+05	1841.1	0.01669	0.0023424	0.99532
1.558	20.936	-3.1129e+05	1841	0.016397	0.0021472	0.99493
1.56	21	-3.1129e+05	1841	0.016104	0.001952	0.99454
1.562	20.956	-3.113e+05	1840.9	0.015909	0.0013664	0.99493
1.564	20.888	-3.113e+05	1840.9	0.015714	0.0007808	0.99532
1.566	20.787	-3.1131e+05	1840.9	0.015518	0.0001952	0.99572
1.568	20.691	-3.1131e+05	1840.8	0.015323	-0.0003904	0.99611
1.57	20.717	-3.1131e+05	1840.8	0.015128	-0.000976	0.9965
1.572	20.791	-3.1131e+05	1840.8	0.015811	0	0.99601
1.574	20.882	-3.1131e+05	1840.7	0.016494	0.000976	0.99552
1.576	21.016	-3.1131e+05	1840.7	0.017178	0.001952	0.99503
1.578	21.026	-3.1132e+05	1840.7	0.017861	0.002928	0.99454
1.58	20.939	-3.1132e+05	1840.7	0.018544	0.003904	0.99406
1.582	20.842	-3.1132e+05	1840.6	0.018544	0.0044896	0.99445
1.584	20.714	-3.1131e+05	1840.5	0.018544	0.0050752	0.99484
1.586	20.696	-3.1131e+05	1840.5	0.018544	0.0056608	0.99523
1.588	20.762	-3.1132e+05	1840.4	0.018544	0.0062464	0.99562
1.59	20.799	-3.1133e+05	1840.3	0.018544	0.006832	0.99601
1.592	20.938	-3.1133e+05	1840.2	0.016982	0.0052704	0.99503
1.594	21.022	-3.1134e+05	1840.1	0.015421	0.0037088	0.99406
1.596	20.957	-3.1134e+05	1840	0.013859	0.0021472	0.99308
1.598	20.888	-3.1134e+05	1839.9	0.012298	0.0005856	0.9921
1.6	20.741	-3.1134e+05	1839.7	0.010736	-0.000976	0.99113
1.602	20.645	-3.1134e+05	1839.6	0.012005	-0.0001952	0.99162
1.604	20.747	-3.1134e+05	1839.5	0.013274	0.0005856	0.9921
1.606	20.822	-3.1134e+05	1839.3	0.014542	0.0013664	0.99259
1.608	20.97	-3.1134e+05	1839.2	0.015811	0.0021472	0.99308
1.61	21.079	-3.1133e+05	1839	0.01708	0.002928	0.99357
1.612	20.994	-3.1134e+05	1838.9	0.015909	0.0011712	0.99503
1.614	20.913	-3.1134e+05	1838.7	0.014738	-0.0005856	0.9965
1.616	20.799	-3.1135e+05	1838.6	0.013566	-0.0023424	0.99796
1.618	20.694	-3.1135e+05	1838.4	0.012395	-0.0040992	0.99942
1.62	20.707	-3.1135e+05	1838.3	0.011224	-0.005856	1.0009
1.622	20.777	-3.1135e+05	1838.2	0.010541	-0.0052704	1.0006
1.624	20.893	-3.1136e+05	1838.1	0.0098576	-0.0046848	1.0003
1.626	21.014	-3.1136e+05	1838.1	0.0091744	-0.0040992	1
1.628	21.002	-3.1136e+05	1838	0.0084912	-0.0035136	0.99972
1.63	20.916	-3.1137e+05	1837.9	0.007808	-0.002928	0.99942
1.632	20.803	-3.1137e+05	1837.9	0.00732	-0.0031232	1.0004
1.634	20.705	-3.1137e+05	1837.8	0.006832	-0.0033184	1.0014
1.636	20.737	-3.1137e+05	1837.7	0.006344	-0.0035136	1.0024
1.638	20.834	-3.1138e+05	1837.7	0.005856	-0.0037088	1.0033
1.64	20.937	-3.1138e+05	1837.6	0.005368	-0.003904	1.0043
1.642	21.085	-3.1139e+05	1837.5	0.0049776	-0.0041968	1.0045
1.644	21.177	-3.1139e+05	1837.5	0.0045872	-0.0044896	1.0047
1.646	21.161	-3.1138e+05	1837.5	0.0041968	-0.0047824	1.0049
1.648	21.1	-3.1139e+05	1837.4	0.0038064	-0.0050752	1.0051
1.65	21.018	-3.114e+05	1837.4	0.003416	-0.005368	1.0053
1.652	21.004	-3.1139e+05	1837.3	0.0040016	-0.0051728	1.0047
1.654	21.071	-3.1138e+05	1837.3	0.0045872	-0.0049776	1.0041
1.656	21.126	-3.1139e+05	1837.3	0.0051728	-0.0047824	1.0035
1.658	21.204	-3.114e+05	1837.2	0.0057584	-0.0045872	1.0029
1.66	21.236	-3.114e+05	1837.2	0.006344	-0.004392	1.0024
1.662	21.13	-3.114e+05	1837.2	0.0069296	-0.0044896	1.0026
1.664	21.002	-3.114e+05	1837.1	0.0075152	-0.0045872	1.0029
1.666	20.807	-3.114e+05	1837.1	0.0081008	-0.0046848	1.0032
1.668	20.609	-3.1141e+05	1837	0.0086864	-0.0047824	1.0035
1.67	20.621	-3.1141e+05	1837	0.009272	-0.00488	1.0038
1.672	20.682	-3.1142e+05	1836.9	0.0093696	-0.00488	1.0031
1.674	20.759	-3.1142e+05	1836.9	0.0094672	-0.00488	1.0024
1.676	20.896	-3.1142e+05	1836.8	0.0095648	-0.00488	1.0018
1.678	20.907	-3.1143e+05	1836.8	0.0096624	-0.00488	1.0011
1.68	20.853	-3.1142e+05	1836.8	0.00976	-0.00488	1.0004
1.682	20.798	-3.1142e+05	1836.8	0.01015	-0.0052704	1.0007
1.684	20.699	-3.1142e+05	1836.7	0.010541	-0.0056608	1.001
1.686	20.72	-3.1143e+05	1836.7	0.010931	-0.0060512	1.0013
1.688	20.817	-3.1143e+05	1836.7	0.011322	-0.0064416	1.0016
1.69	20.877	-3.1144e+05	1836.6	0.011712	-0.006832	1.0019
1.692	20.994	-3.1144e+05	1836.6	0.013469	-0.0056608	1.0007
1.694	21.022	-3.1145e+05	1836.6	0.015226	-0.0044896	0.99952
1.696	20.954	-3.1144e+05	1836.6	0.016982	-0.0033184	0.99835
1.698	20.903	-3.1144e+05	1836.5	0.018739	-0.0021472	0.99718
1.7	20.772	-3.1145e+05	1836.5	0.020496	-0.000976	0.99601
1.702	20.707	-3.1145e+05	1836.5	0.01991	9.76e-05	0.99532
1.704	20.75	-3.1145e+05	1836.4	0.019325	0.0011712	0.99464
1.706	20.808	-3.1146e+05	1836.4	0.018739	0.0022448	0.99396
1.708	20.984	-3.1145e+05	1836.3	0.018154	0.0033184	0.99328
1.71	21.072	-3.1145e+05	1836.2	0.017568	0.004392	0.99259
1.712	21.008	-3.1146e+05	1836.1	0.017275	0.0035136	0.99279
1.714	20.929	-3.1146e+05	1836	0.016982	0.0026352	0.99298
1.716	20.809	-3.1147e+05	1835.9	0.01669	0.0017568	0.99318
1.718	20.714	-3.1147e+05	1835.8	0.016397	0.0008784	0.99337
1.72	20.723	-3.1148e+05	1835.7	0.016104	0	0.99357
1.722	20.793	-3.1148e+05	1835.6	0.016885	0.0018544	0.99425
1.724	20.917	-3.1147e+05	1835.5	0.017666	0.0037088	0.99493
1.726	21.031	-3.1147e+05	1835.4	0.018446	0.0055632	0.99562
1.728	21.018	-3.1148e+05	1835.2	0.019227	0.0074176	0.9963
1.73	20.939	-3.1148e+05	1835.1	0.020008	0.009272	0.99698
1.732	20.862	-3.1148e+05	1835	0.019032	0.0085888	0.99572
1.734	20.776	-3.1148e+05	1834.9	0.018056	0.0079056	0.99445
1.736	20.746	-3.1149e+05	1834.7	0.01708	0.0072224	0.99318
1.738	20.776	-3.115e+05	1834.6	0.016104	0.0065392	0.99191
1.74	20.843	-3.115e+05	1834.5	0.015128	0.005856	0.99064
1.742	20.964	-3.115e+05	1834.4	0.016104	0.0047824	0.99074
1.744	21.027	-3.115e+05	1834.3	0.01708	0.0037088	0.99084
1.746	20.973	-3.115e+05	1834.2	0.018056	0.0026352	0.99093
1.748	20.892	-3.115e+05	1834.1	0.019032	0.0015616	0.99103
1.75	20.771	-3.1151e+05	1833.9	0.020008	0.000488	0.99113
1.752	20.689	-3.1151e+05	1833.8	0.01913	0.0005856	0.99123
1.754	20.747	-3.1151e+05	1833.7	0.018251	0.0006832	0.99132
1.756	20.842	-3.1151e+05	1833.6	0.017373	0.0007808	0.99142
1.758	20.972	-3.1151e+05	1833.5	0.016494	0.0008784	0.99152
1.76	21.07	-3.1151e+05	1833.3	0.015616	0.000976	0.99162
1.762	21.007	-3.1152e+05	1833.2	0.015226	4.4383e-14	0.9924
1.764	20.936	-3.1152e+05	1833.1	0.014835	-0.000976	0.99318
1.766	20.817	-3.1152e+05	1833	0.014445	-0.001952	0.99396
1.768	20.679	-3.1152e+05	1832.9	0.014054	-0.002928	0.99474
1.77	20.709	-3.1153e+05	1832.9	0.013664	-0.003904	0.99552
1.772	20.779	-3.1153e+05	1833	0.013859	-0.0026352	0.99474
1.774	20.885	-3.1153e+05	1833.1	0.014054	-0.0013664	0.99396
1.776	21.048	-3.1153e+05	1833.4	0.01425	-9.76e-05	0.99318
1.778	21.042	-3.1153e+05	1834	0.014445	0.0011712	0.9924
1.78	20.974	-3.1153e+05	1834.6	0.01464	0.00244	0.99162
1.782	20.886	-3.1153e+05	1835.7	0.015128	0.0022448	0.99191
1.784	20.739	-3.1154e+05	1836.7	0.015616	0.0020496	0.9922
1.786	20.717	-3.1155e+05	1837.9	0.016104	0.0018544	0.99249
1.788	20.758	-3.1155e+05	1839.1	0.016592	0.0016592	0.99279
1.79	20.836	-3.1155e+05	1840.3	0.01708	0.001464	0.99308
1.792	20.996	-3.1155e+05	1841.5	0.016202	0.0002928	0.99464
1.794	21.042	-3.1155e+05	1842.7	0.015323	-0.0008784	0.9962
1.796	20.98	-3.1156e+05	1843.9	0.014445	-0.0020496	0.99776
1.798	20.907	-3.1157e+05	1845	0.013566	-0.0032208	0.99933
1.8	20.789	-3.1157e+05	1846.1	0.012688	-0.004392	1.0009
1.802	20.742	-3.1157e+05	1847.1	0.011614	-0.0042944	1.0022
1.804	20.787	-3.1157e+05	1848.1	0.010541	-0.0041968	1.0034
1.806	20.869	-3.1157e+05	1849	0.0094672	-0.0040992	1.0047
1.808	21.002	-3.1157e+05	1849.8	0.0083936	-0.0040016	1.006
1.81	21.067	-3.1158e+05	1850.5	0.00732	-0.003904	1.0072
1.812	21.031	-3.1158e+05	1851.2	0.0055632	-0.0036112	1.0066
1.814	20.971	-3.1158e+05	1851.9	0.0038064	-0.0033184	1.0061
1.816	20.864	-3.1158e+05	1852.5	0.0020496	-0.0030256	1.0055
1.818	20.763	-3.1158e+05	1853	0.0002928	-0.0027328	1.0049
1.82	20.759	-3.1158e+05	1853.5	-0.001464	-0.00244	1.0043
1.822	20.809	-3.1159e+05	1853.9	-0.000976	-0.0015616	1.0047
1.824	20.93	-3.1159e+05	1854.3	-0.000488	-0.0006832	1.0051
1.826	21.097	-3.1159e+05	1854.6	-1.0842e-19	0.0001952	1.0055
1.828	21.144	-3.116e+05	1854.9	0.000488	0.0010736	1.0059
1.83	21.081	-3.116e+05	1855.3	0.000976	0.001952	1.0063
1.832	20.969	-3.1161e+05	1855.5	0.001952	0.0015616	1.0048
1.834	20.815	-3.1161e+05	1855.7	0.002928	0.0011712	1.0033
1.836	20.806	-3.116e+05	1855.9	0.003904	0.0007808	1.0019
1.838	20.893	-3.116e+05	1856	0.00488	0.0003904	1.0004
1.84	20.972	-3.116e+05	1856	0.005856	0	0.99894
1.842	21.111	-3.1161e+05	1856.1	0.0052704	0.000488	0.99923
1.844	21.144	-3.1161e+05	1856.2	0.0046848	0.000976	0.99952
1.846	21.05	-3.1161e+05	1856.3	0.0040992	0.001464	0.99981
1.848	20.995	-3.116e+05	1856.3	0.0035136	0.001952	1.0001
1.85	20.893	-3.116e+05	1856.3	0.002928	0.00244	1.0004
1.852	20.85	-3.116e+05	1856.3	0.0027328	0.00244	1.0002
1.854	20.895	-3.1159e+05	1856.3	0.0025376	0.00244	1
1.856	20.953	-3.1159e+05	1856.2	0.0023424	0.00244	0.99981
1.858	21.107	-3.1159e+05	1856.2	0.0021472	0.00244	0.99962
1.86	21.212	-3.1159e+05	1856.2	0.001952	0.00244	0.99942
1.862	21.161	-3.1159e+05	1856.1	0.002928	0.001464	1.0002
1.864	21.095	-3.1158e+05	1856.1	0.003904	0.000488	1.001
1.866	20.952	-3.1158e+05	1856	0.00488	-0.000488	1.0018
1.868	20.833	-3.1157e+05	1856	0.005856	-0.001464	1.0025
1.87	20.887	-3.1156e+05	1856	0.006832	-0.00244	1.0033
1.872	20.95	-3.1156e+05	1855.9	0.0074176	-0.0017568	1.0019
1.874	21.058	-3.1155e+05	1855.9	0.0080032	-0.0010736	1.0004
1.876	21.169	-3.1155e+05	1855.9	0.0085888	-0.0003904	0.99894
1.878	21.125	-3.1155e+05	1855.8	0.0091744	0.0002928	0.99747
1.88	21.031	-3.1154e+05	1855.8	0.00976	0.000976	0.99601
1.882	20.908	-3.1154e+05	1855.8	0.010346	4.4383e-14	0.99659
1.884	20.784	-3.1153e+05	1855.7	0.010931	-0.000976	0.99718
1.886	20.797	-3.1153e+05	1855.7	0.011517	-0.001952	0.99776
1.888	20.872	-3.1151e+05	1855.7	0.012102	-0.002928	0.99835
1.89	20.968	-3.115e+05	1855.7	0.012688	-0.003904	0.99894
1.892	21.1	-3.115e+05	1855.6	0.014152	-0.0030256	0.99806
1.894	21.127	-3.115e+05	1855.4	0.015616	-0.0021472	0.99718
1.896	21.059	-3.115e+05	1855.4	0.01708	-0.0012688	0.9963
1.898	20.975	-3.1151e+05	1855.3	0.018544	-0.0003904	0.99542
1.9	20.842	-3.1148e+05	1855.2	0.020008	0.000488	0.99454
1.902	20.763	-3.1146e+05	1855.1	0.017861	0.0001952	0.99386
1.904	20.799	-3.1146e+05	1855	0.015714	-9.76e-05	0.99318
1.906	20.866	-3.1146e+05	1854.9	0.013566	-0.0003904	0.99249
1.908	20.979	-3.1146e+05	1854.8	0.011419	-0.0006832	0.99181
1.91	21.062	-3.1145e+05	1854.7	0.009272	-0.000976	0.99113
1.912	21.021	-3.1144e+05	1854.6	0.010541	-0.0006832	0.99162
1.914	20.961	-3.1142e+05	1854.5	0.01181	-0.0003904	0.9921
1.916	20.847	-3.1141e+05	1854.3	0.013078	-9.76e-05	0.99259
1.918	20.74	-3.114e+05	1854.2	0.014347	0.0001952	0.99308
1.92	20.779	-3.114e+05	1854.1	0.015616	0.000488	0.99357
1.922	20.868	-3.1139e+05	1853.9	0.01464	2.2192e-14	0.99328
1.924	20.968	-3.1139e+05	1853.8	0.013664	-0.000488	0.99298
1.926	21.078	-3.1139e+05	1853.7	0.012688	-0.000976	0.99269
1.928	21.04	-3.1138e+05	1853.5	0.011712	-0.001464	0.9924
1.93	20.958	-3.1138e+05	1853.3	0.010736	-0.001952	0.9921
1.932	20.891	-3.1137e+05	1853.1	0.010834	-0.001464	0.99181
1.934	20.749	-3.1136e+05	1852.9	0.010931	-0.000976	0.99152
1.936	20.728	-3.1135e+05	1852.7	0.011029	-0.000488	0.99123
1.938	20.78	-3.1135e+05	1852.6	0.011126	1.0842e-19	0.99093
1.94	20.889	-3.1135e+05	1852.4	0.011224	0.000488	0.99064
1.942	21.038	-3.1134e+05	1852.2	0.012298	0.0006832	0.99025
1.944	20.993	-3.1134e+05	1852.1	0.013371	0.0008784	0.98986
1.946	20.934	-3.1133e+05	1851.9	0.014445	0.0010736	0.98947
1.948	20.912	-3.1132e+05	1851.7	0.015518	0.0012688	0.98908
1.95	20.76	-3.1132e+05	1851.6	0.016592	0.001464	0.98869
1.952	20.69	-3.1131e+05	1851.4	0.016494	0.0003904	0.99005
1.954	20.764	-3.1131e+05	1851.3	0.016397	-0.0006832	0.99142
1.956	20.853	-3.113e+05	1851.1	0.016299	-0.0017568	0.99279
1.958	21.032	-3.1129e+05	1850.9	0.016202	-0.0028304	0.99415
1.96	21.102	-3.1127e+05	1850.8	0.016104	-0.003904	0.99552
1.962	21.014	-3.1125e+05	1850.6	0.016299	-0.00244	0.99493
1.964	20.946	-3.1125e+05	1850.5	0.016494	-0.000976	0.99435
1.966	20.833	-3.1124e+05	1850.3	0.01669	0.000488	0.99376
1.968	20.743	-3.1123e+05	1850.2	0.016885	0.001952	0.99318
1.97	20.752	-3.1123e+05	1850	0.01708	0.003416	0.99259
1.972	20.792	-3.1122e+05	1849.9	0.016592	0.0023424	0.99406
1.974	20.912	-3.1122e+05	1849.8	0.016104	0.0012688	0.99552
1.976	21.038	-3.1122e+05	1849.7	0.015616	0.0001952	0.99698
1.978	21.027	-3.1122e+05	1849.6	0.015128	-0.0008784	0.99845
1.98	20.96	-3.1121e+05	1849.5	0.01464	-0.001952	0.99991
1.982	20.869	-3.112e+05	1849.5	0.012688	-0.001952	1.0005
1.984	20.751	-3.112e+05	1849.4	0.010736	-0.001952	1.0011
1.986	20.721	-3.112e+05	1849.3	0.008784	-0.001952	1.0017
1.988	20.778	-3.1119e+05	1849.2	0.006832	-0.001952	1.0023
1.99	20.873	-3.1118e+05	1849.1	0.00488	-0.001952	1.0028
1.992	20.999	-3.1118e+05	1849	0.0050752	-0.0015616	1.0031
1.994	21.026	-3.1118e+05	1848.9	0.0052704	-0.0011712	1.0034
1.996	20.939	-3.1117e+05	1848.8	0.0054656	-0.0007808	1.0037
1.998	20.859	-3.1117e+05	1848.8	0.0056608	-0.0003904	1.004
2	20.755	-3.1117e+05	1848.7	0.005856	0	1.0043
2.002	20.695	-3.1116e+05	1848.6	0.0065392	-0.0005856	1.0051
2.004	20.769	-3.1115e+05	1848.5	0.0072224	-0.0011712	1.0059
2.006	20.881	-3.1114e+05	1848.4	0.0079056	-0.0017568	1.0066
2.008	20.986	-3.1114e+05	1848.3	0.0085888	-0.0023424	1.0074
2.01	21.056	-3.1114e+05	1848.1	0.009272	-0.002928	1.0082
2.012	20.991	-3.1114e+05	1848	0.00976	-0.0040016	1.0067
2.014	20.933	-3.1113e+05	1847.8	0.010248	-0.0050752	1.0053
2.016	20.838	-3.1113e+05	1847.7	0.010736	-0.0061488	1.0038
2.018	20.715	-3.1113e+05	1847.6	0.011224	-0.0072224	1.0024
2.02	20.729	-3.1112e+05	1847.4	0.011712	-0.008296	1.0009
2.022	20.779	-3.1111e+05	1847.3	0.012005	-0.0079056	1.0009
2.024	20.869	-3.1112e+05	1847.2	0.012298	-0.0075152	1.0009
2.026	21.044	-3.1112e+05	1847	0.01259	-0.0071248	1.0009
2.028	21.053	-3.1111e+05	1846.8	0.012883	-0.0067344	1.0009
2.03	20.997	-3.1111e+05	1846.6	0.013176	-0.006344	1.0009
2.032	20.86	-3.111e+05	1846.4	0.012102	-0.0057584	1.0018
2.034	20.69	-3.111e+05	1846.2	0.011029	-0.0051728	1.0026
2.036	20.702	-3.111e+05	1846	0.0099552	-0.0045872	1.0035
2.038	20.763	-3.111e+05	1845.8	0.0088816	-0.0040016	1.0044
2.04	20.845	-3.1109e+05	1845.6	0.007808	-0.003416	1.0053
2.042	20.99	-3.1109e+05	1845.4	0.0081984	-0.0044896	1.0049
2.044	21.02	-3.1109e+05	1845.2	0.0085888	-0.0055632	1.0045
2.046	20.964	-3.1108e+05	1844.9	0.0089792	-0.0066368	1.0041
2.048	20.874	-3.1108e+05	1844.7	0.0093696	-0.0077104	1.0037
2.05	20.726	-3.1107e+05	1844.5	0.00976	-0.008784	1.0033
2.052	20.691	-3.1107e+05	1844.4	0.009272	-0.0072224	1.0033
2.054	20.763	-3.1108e+05	1844.2	0.008784	-0.0056608	1.0033
2.056	20.837	-3.1107e+05	1844	0.008296	-0.0040992	1.0033
2.058	20.95	-3.1107e+05	1843.9	0.007808	-0.0025376	1.0033
2.06	21.007	-3.1107e+05	1843.7	0.00732	-0.000976	1.0033
2.062	20.962	-3.1108e+05	1843.6	0.0067344	-0.000488	1.0028
2.064	20.888	-3.1107e+05	1843.5	0.0061488	-1.5534e-13	1.0024
2.066	20.773	-3.1107e+05	1843.4	0.0055632	0.000488	1.0019
2.068	20.697	-3.1107e+05	1843.3	0.0049776	0.000976	1.0014
2.07	20.735	-3.1107e+05	1843.2	0.004392	0.001464	1.0009
2.072	20.811	-3.1107e+05	1843.2	0.0057584	0.0001952	1.001
2.074	20.909	-3.1107e+05	1843.1	0.0071248	-0.0010736	1.0011
2.076	20.993	-3.1107e+05	1843.1	0.0084912	-0.0023424	1.0012
2.078	20.961	-3.1107e+05	1843	0.0098576	-0.0036112	1.0013
2.08	20.877	-3.1108e+05	1843	0.011224	-0.00488	1.0014
2.082	20.801	-3.1108e+05	1843	0.011907	-0.00488	1.0014
2.084	20.696	-3.1108e+05	1843	0.01259	-0.00488	1.0014
2.086	20.675	-3.1107e+05	1843	0.013274	-0.00488	1.0014
2.088	20.773	-3.1107e+05	1843	0.013957	-0.00488	1.0014
2.09	20.881	-3.1108e+05	1843.1	0.01464	-0.00488	1.0014
2.092	21.01	-3.1107e+05	1843.1	0.015518	-0.0033184	0.99972
2.094	21.05	-3.1107e+05	1843.1	0.016397	-0.0017568	0.99806
2.096	20.993	-3.1106e+05	1843.1	0.017275	-0.0001952	0.9964
2.098	20.927	-3.1106e+05	1843	0.018154	0.0013664	0.99474
2.1	20.798	-3.1107e+05	1843	0.019032	0.002928	0.99308
2.102	20.713	-3.1108e+05	1843	0.018251	0.00244	0.99308
2.104	20.75	-3.1108e+05	1843	0.01747	0.001952	0.99308
2.106	20.794	-3.1108e+05	1842.9	0.01669	0.001464	0.99308
2.108	20.932	-3.1108e+05	1842.9	0.015909	0.000976	0.99308
2.11	21.062	-3.1107e+05	1842.9	0.015128	0.000488	0.99308
2.112	20.975	-3.1107e+05	1842.9	0.015421	0.0001952	0.99367
2.114	20.899	-3.1107e+05	1842.8	0.015714	-9.76e-05	0.99425
2.116	20.772	-3.1107e+05	1842.8	0.016006	-0.0003904	0.99484
2.118	20.647	-3.1107e+05	1842.8	0.016299	-0.0006832	0.99542
2.12	20.722	-3.1107e+05	1842.8	0.016592	-0.000976	0.99601
2.122	20.819	-3.1107e+05	1842.8	0.015616	-0.0008784	0.99542
2.124	20.929	-3.1107e+05	1842.7	0.01464	-0.0007808	0.99484
2.126	21.053	-3.1107e+05	1842.7	0.013664	-0.0006832	0.99425
2.128	21.023	-3.1107e+05	1842.7	0.012688	-0.0005856	0.99367
2.13	20.948	-3.1107e+05	1842.7	0.011712	-0.000488	0.99308
2.132	20.848	-3.1108e+05	1842.7	0.012395	-0.0003904	0.99337
2.134	20.688	-3.1108e+05	1842.6	0.013078	-0.0002928	0.99367
2.136	20.683	-3.1108e+05	1842.6	0.013762	-0.0001952	0.99396
2.138	20.764	-3.1108e+05	1842.6	0.014445	-9.76e-05	0.99425
2.14	20.852	-3.1108e+05	1842.5	0.015128	0	0.99454
2.142	20.987	-3.1108e+05	1842.5	0.013664	-0.0002928	0.99415
2.144	21.02	-3.1107e+05	1842.5	0.0122	-0.0005856	0.99376
2.146	20.958	-3.1107e+05	1842.4	0.010736	-0.0008784	0.99337
2.148	20.88	-3.1108e+05	1842.4	0.009272	-0.0011712	0.99298
2.15	20.766	-3.1109e+05	1842.4	0.007808	-0.001464	0.99259
2.152	20.72	-3.1109e+05	1842.4	0.0085888	-0.0007808	0.99269
2.154	20.761	-3.1109e+05	1842.4	0.0093696	-9.76e-05	0.99279
2.156	20.804	-3.1108e+05	1842.4	0.01015	0.0005856	0.99288
2.158	20.885	-3.1108e+05	1842.4	0.010931	0.0012688	0.99298
2.16	20.958	-3.1108e+05	1842.4	0.011712	0.001952	0.99308
2.162	20.937	-3.1108e+05	1842.3	0.012688	0.0018544	0.99406
2.164	20.901	-3.1108e+05	1842.2	0.013664	0.0017568	0.99503
2.166	20.839	-3.1109e+05	1842.1	0.01464	0.0016592	0.99601
2.168	20.755	-3.1109e+05	1842.1	0.015616	0.0015616	0.99698
2.17	20.776	-3.1109e+05	1842	0.016592	0.001464	0.99796
2.172	20.83	-3.1109e+05	1841.9	0.016299	0.0011712	0.99718
2.174	20.914	-3.1108e+05	1841.9	0.016006	0.0008784	0.9964
2.176	21.019	-3.1109e+05	1841.8	0.015714	0.0005856	0.99562
2.178	21.003	-3.1109e+05	1841.8	0.015421	0.0002928	0.99484
2.18	20.946	-3.111e+05	1841.7	0.015128	0	0.99406
2.182	20.837	-3.111e+05	1841.6	0.015323	0.0002928	0.99425
2.184	20.672	-3.111e+05	1841.5	0.015518	0.0005856	0.99445
2.186	20.709	-3.111e+05	1841.5	0.015714	0.0008784	0.99464
2.188	20.811	-3.111e+05	1841.4	0.015909	0.0011712	0.99484
2.19	20.886	-3.1111e+05	1841.4	0.016104	0.001464	0.99503
2.192	21.017	-3.1111e+05	1841.3	0.016299	0.0011712	0.99503
2.194	21.055	-3.1112e+05	1841.2	0.016494	0.0008784	0.99503
2.196	20.979	-3.1111e+05	1841.1	0.01669	0.0005856	0.99503
2.198	20.925	-3.1111e+05	1841	0.016885	0.0002928	0.99503
2.2	20.786	-3.1111e+05	1840.9	0.01708	0	0.99503
2.202	20.691	-3.1111e+05	1840.8	0.016885	0.0003904	0.99464
2.204	20.72	-3.1111e+05	1840.7	0.01669	0.0007808	0.99425
2.206	20.818	-3.1111e+05	1840.6	0.016494	0.0011712	0.99386
2.208	20.992	-3.1111e+05	1840.5	0.016299	0.0015616	0.99347
2.21	21.037	-3.1111e+05	1840.4	0.016104	0.001952	0.99308
2.212	20.965	-3.1112e+05	1840.3	0.016299	0.0021472	0.99347
2.214	20.911	-3.1112e+05	1840.2	0.016494	0.0023424	0.99386
2.216	20.81	-3.1112e+05	1840.1	0.01669	0.0025376	0.99425
2.218	20.7	-3.1113e+05	1840	0.016885	0.0027328	0.99464
2.22	20.705	-3.1113e+05	1839.9	0.01708	0.002928	0.99503
2.222	20.771	-3.1113e+05	1839.8	0.017373	0.0037088	0.99445
2.224	20.889	-3.1113e+05	1839.7	0.017666	0.0044896	0.99386
2.226	20.997	-3.1112e+05	1839.6	0.017958	0.0052704	0.99328
2.228	20.98	-3.1113e+05	1839.5	0.018251	0.0060512	0.99269
2.23	20.901	-3.1113e+05	1839.5	0.018544	0.006832	0.9921
2.232	20.782	-3.1113e+05	1839.3	0.018349	0.005856	0.99249
2.234	20.646	-3.1114e+05	1839.2	0.018154	0.00488	0.99288
2.236	20.628	-3.1114e+05	1839.1	0.017958	0.003904	0.99328
2.238	20.7	-3.1114e+05	1839.1	0.017763	0.002928	0.99367
2.24	20.806	-3.1114e+05	1839	0.017568	0.001952	0.99406
2.242	20.941	-3.1114e+05	1838.9	0.016982	0.00244	0.99357
2.244	20.99	-3.1114e+05	1838.8	0.016397	0.002928	0.99308
2.246	20.921	-3.1113e+05	1838.8	0.015811	0.003416	0.99259
2.248	20.818	-3.1114e+05	1838.7	0.015226	0.003904	0.9921
2.25	20.688	-3.1115e+05	1838.6	0.01464	0.004392	0.99162
2.252	20.613	-3.1114e+05	1838.6	0.015421	0.0038064	0.9922
2.254	20.678	-3.1114e+05	1838.5	0.016202	0.0032208	0.99279
2.256	20.779	-3.1114e+05	1838.5	0.016982	0.0026352	0.99337
2.258	20.899	-3.1115e+05	1838.5	0.017763	0.0020496	0.99396
2.26	20.986	-3.1115e+05	1838.5	0.018544	0.001464	0.99454
2.262	20.941	-3.1115e+05	1838.4	0.018349	0.0020496	0.99406
2.264	20.876	-3.1115e+05	1838.4	0.018154	0.0026352	0.99357
2.266	20.776	-3.1115e+05	1838.4	0.017958	0.0032208	0.99308
2.268	20.653	-3.1115e+05	1838.3	0.017763	0.0038064	0.99259
2.27	20.682	-3.1116e+05	1838.3	0.017568	0.004392	0.9921
2.272	20.75	-3.1116e+05	1838.3	0.017666	0.0033184	0.99337
2.274	20.863	-3.1117e+05	1838.2	0.017763	0.0022448	0.99464
2.276	20.986	-3.1117e+05	1838.2	0.017861	0.0011712	0.99591
2.278	20.919	-3.1116e+05	1838.1	0.017958	9.76e-05	0.99718
2.28	20.88	-3.1116e+05	1838.1	0.018056	-0.000976	0.99845
2.282	20.844	-3.1116e+05	1838	0.018154	-0.0002928	0.99816
2.284	20.684	-3.1117e+05	1837.9	0.018251	0.0003904	0.99786
2.286	20.698	-3.1118e+05	1837.8	0.018349	0.0010736	0.99757
2.288	20.762	-3.1117e+05	1837.7	0.018446	0.0017568	0.99728
2.29	20.813	-3.1117e+05	1837.6	0.018544	0.00244	0.99698
2.292	20.959	-3.1117e+05	1837.5	0.018446	0.0025376	0.99659
2.294	20.998	-3.1117e+05	1837.4	0.018349	0.0026352	0.9962
2.296	20.941	-3.1117e+05	1837.3	0.018251	0.0027328	0.99581
2.298	20.886	-3.1117e+05	1837.2	0.018154	0.0028304	0.99542
2.3	20.752	-3.1118e+05	1837.1	0.018056	0.002928	0.99503
2.302	20.696	-3.1118e+05	1837	0.017275	0.0017568	0.99679
2.304	20.744	-3.1118e+05	1837	0.016494	0.0005856	0.99855
2.306	20.788	-3.1119e+05	1836.9	0.015714	-0.0005856	1.0003
2.308	20.906	-3.1119e+05	1836.8	0.014933	-0.0017568	1.0021
2.31	20.983	-3.1119e+05	1836.8	0.014152	-0.002928	1.0038
2.312	20.948	-3.1119e+05	1836.7	0.014347	-0.0041968	1.0024
2.314	20.905	-3.1119e+05	1836.7	0.014542	-0.0054656	1.0009
2.316	20.842	-3.112e+05	1836.6	0.014738	-0.0067344	0.99942
2.318	20.822	-3.112e+05	1836.6	0.014933	-0.0080032	0.99796
2.32	20.886	-3.112e+05	1836.5	0.015128	-0.009272	0.9965
2.322	20.982	-3.112e+05	1836.5	0.014542	-0.0088816	0.99679
2.324	21.14	-3.112e+05	1836.5	0.013957	-0.0084912	0.99708
2.326	21.295	-3.112e+05	1836.5	0.013371	-0.0081008	0.99737
2.328	21.315	-3.1121e+05	1836.5	0.012786	-0.0077104	0.99767
2.33	21.252	-3.1121e+05	1836.4	0.0122	-0.00732	0.99796
2.332	21.159	-3.1121e+05	1836.4	0.012493	-0.0076128	0.99806
2.334	21.026	-3.1121e+05	1836.4	0.012786	-0.0079056	0.99816
2.336	20.945	-3.1121e+05	1836.4	0.013078	-0.0081984	0.99825
2.338	20.942	-3.1121e+05	1836.3	0.013371	-0.0084912	0.99835
2.34	20.941	-3.1121e+05	1836.3	0.013664	-0.008784	0.99845
2.342	20.944	-3.1121e+05	1836.2	0.013274	-0.0080032	0.99933
2.344	20.893	-3.1122e+05	1836.1	0.012883	-0.0072224	1.0002
2.346	20.821	-3.1122e+05	1836	0.012493	-0.0064416	1.0011
2.348	20.771	-3.1122e+05	1835.9	0.012102	-0.0056608	1.002
2.35	20.657	-3.1122e+05	1835.8	0.011712	-0.00488	1.0028
2.352	20.597	-3.1122e+05	1835.8	0.011614	-0.0046848	1.0024
2.354	20.662	-3.1123e+05	1835.7	0.011517	-0.0044896	1.0021
2.356	20.729	-3.1123e+05	1835.6	0.011419	-0.0042944	1.0017
2.358	20.884	-3.1124e+05	1835.5	0.011322	-0.0040992	1.0013
2.36	21.007	-3.1124e+05	1835.4	0.011224	-0.003904	1.0009
2.362	20.936	-3.1124e+05	1835.4	0.012786	-0.0023424	0.99913
2.364	20.878	-3.1124e+05	1835.3	0.014347	-0.0007808	0.99737
2.366	20.764	-3.1124e+05	1835.3	0.015909	0.0007808	0.99562
2.368	20.636	-3.1124e+05	1835.2	0.01747	0.0023424	0.99386
2.37	20.71	-3.1124e+05	1835.2	0.019032	0.003904	0.9921
2.372	20.773	-3.1124e+05	1835.1	0.019227	0.0032208	0.99298
2.374	20.871	-3.1124e+05	1835.1	0.019422	0.0025376	0.99386
2.376	20.977	-3.1124e+05	1835	0.019618	0.0018544	0.99474
2.378	20.946	-3.1125e+05	1834.9	0.019813	0.0011712	0.99562
2.38	20.91	-3.1125e+05	1834.8	0.020008	0.000488	0.9965
2.382	20.825	-3.1125e+05	1834.8	0.019618	0.001952	0.99552
2.384	20.677	-3.1126e+05	1834.7	0.019227	0.003416	0.99454
2.386	20.684	-3.1126e+05	1834.6	0.018837	0.00488	0.99357
2.388	20.767	-3.1126e+05	1834.6	0.018446	0.006344	0.99259
2.39	20.832	-3.1126e+05	1834.6	0.018056	0.007808	0.99162
2.392	20.932	-3.1125e+05	1834.5	0.017178	0.0064416	0.9921
2.394	20.954	-3.1125e+05	1834.4	0.016299	0.0050752	0.99259
2.396	20.894	-3.1126e+05	1834.3	0.015421	0.0037088	0.99308
2.398	20.807	-3.1127e+05	1834.3	0.014542	0.0023424	0.99357
2.4	20.678	-3.1127e+05	1834.2	0.013664	0.000976	0.99406
2.402	20.647	-3.1128e+05	1834.1	0.012981	0.000976	0.99328
2.404	20.705	-3.1127e+05	1834.1	0.012298	0.000976	0.99249
2.406	20.771	-3.1127e+05	1834	0.011614	0.000976	0.99171
2.408	20.892	-3.1127e+05	1833.9	0.010931	0.000976	0.99093
2.41	20.97	-3.1128e+05	1833.9	0.010248	0.000976	0.99015
2.412	20.928	-3.1128e+05	1833.8	0.010638	0.0006832	0.98986
2.414	20.859	-3.1128e+05	1833.7	0.011029	0.0003904	0.98957
2.416	20.766	-3.1128e+05	1833.6	0.011419	9.76e-05	0.98927
2.418	20.683	-3.1128e+05	1833.5	0.01181	-0.0001952	0.98898
2.42	20.711	-3.1129e+05	1833.4	0.0122	-0.000488	0.98869
2.422	20.781	-3.1129e+05	1833.3	0.01181	-0.0007808	0.98927
2.424	20.866	-3.1129e+05	1833.2	0.011419	-0.0010736	0.98986
2.426	20.967	-3.1129e+05	1833.1	0.011029	-0.0013664	0.99044
2.428	20.963	-3.1129e+05	1832.9	0.010638	-0.0016592	0.99103
2.43	20.88	-3.1129e+05	1832.8	0.010248	-0.001952	0.99162
2.432	20.791	-3.1129e+05	1832.7	0.011126	-0.0016592	0.99132
2.434	20.676	-3.113e+05	1832.5	0.012005	-0.0013664	0.99103
2.436	20.671	-3.113e+05	1832.4	0.012883	-0.0010736	0.99074
2.438	20.752	-3.113e+05	1832.2	0.013762	-0.0007808	0.99044
2.44	20.828	-3.113e+05	1832.1	0.01464	-0.000488	0.99015
2.442	20.969	-3.1131e+05	1832	0.016592	-0.0006832	0.99152
2.444	20.972	-3.1131e+05	1831.9	0.018544	-0.0008784	0.99288
2.446	20.871	-3.1131e+05	1832	0.020496	-0.0010736	0.99425
2.448	20.818	-3.1131e+05	1832.1	0.022448	-0.0012688	0.99562
2.45	20.694	-3.1131e+05	1832.2	0.0244	-0.001464	0.99698
2.452	20.624	-3.113e+05	1832.9	0.023326	-0.0011712	0.9965
2.454	20.723	-3.113e+05	1833.5	0.022253	-0.0008784	0.99601
2.456	20.791	-3.1131e+05	1834.3	0.021179	-0.0005856	0.99552
2.458	20.951	-3.1132e+05	1835.3	0.020106	-0.0002928	0.99503
2.46	21.022	-3.1132e+05	1836.4	0.019032	0	0.99454
2.462	20.925	-3.1131e+05	1837.5	0.019227	-9.76e-05	0.99523
2.464	20.861	-3.1132e+05	1838.7	0.019422	-0.0001952	0.99591
2.466	20.754	-3.1132e+05	1839.8	0.019618	-0.0002928	0.99659
2.468	20.678	-3.1133e+05	1841	0.019813	-0.0003904	0.99728
2.47	20.745	-3.1133e+05	1842.1	0.020008	-0.000488	0.99796
2.472	20.806	-3.1133e+05	1843.1	0.018642	-0.001464	0.99894
2.474	20.906	-3.1133e+05	1844.1	0.017275	-0.00244	0.99991
2.476	21.009	-3.1134e+05	1845.1	0.015909	-0.003416	1.0009
2.478	20.977	-3.1134e+05	1846	0.014542	-0.004392	1.0019
2.48	20.913	-3.1134e+05	1846.9	0.013176	-0.005368	1.0028
2.482	20.83	-3.1134e+05	1847.7	0.011419	-0.0045872	1.0036
2.484	20.72	-3.1134e+05	1848.4	0.0096624	-0.0038064	1.0044
2.486	20.715	-3.1134e+05	1849.1	0.0079056	-0.0030256	1.0052
2.488	20.785	-3.1135e+05	1849.7	0.0061488	-0.0022448	1.006
2.49	20.891	-3.1135e+05	1850.3	0.004392	-0.001464	1.0067
2.492	21.007	-3.1136e+05	1850.8	0.0040016	-0.0012688	1.0061
2.494	21.029	-3.1137e+05	1851.3	0.0036112	-0.0010736	1.0054
2.496	20.988	-3.1137e+05	1851.7	0.0032208	-0.0008784	1.0047
2.498	20.922	-3.1137e+05	1852.1	0.0028304	-0.0006832	1.004
2.5	20.807	-3.1137e+05	1852.5	0.00244	-0.000488	1.0033
2.502	20.749	-3.1137e+05	1852.8	0.0028304	0	1.0028
2.504	20.787	-3.1137e+05	1853.1	0.0032208	0.000488	1.0024
2.506	20.856	-3.1136e+05	1853.3	0.0036112	0.000976	1.0019
2.508	20.982	-3.1137e+05	1853.5	0.0040016	0.001464	1.0014
2.51	21.09	-3.1137e+05	1853.7	0.004392	0.001952	1.0009
2.512	21.06	-3.1136e+05	1853.8	0.0042944	0.0018544	1.0007
2.514	20.993	-3.1135e+05	1853.9	0.0041968	0.0017568	1.0005
2.516	20.893	-3.1135e+05	1854	0.0040992	0.0016592	1.0003
2.518	20.792	-3.1135e+05	1854.1	0.0040016	0.0015616	1.0001
2.52	20.828	-3.1135e+05	1854.2	0.003904	0.001464	0.99991
2.522	20.891	-3.1135e+05	1854.3	0.0040992	0.000976	1.0009
2.524	20.99	-3.1135e+05	1854.4	0.0042944	0.000488	1.0019
2.526	21.138	-3.1135e+05	1854.4	0.0044896	1.0842e-19	1.0028
2.528	21.104	-3.1134e+05	1854.3	0.0046848	-0.000488	1.0038
2.53	21.027	-3.1133e+05	1854.3	0.00488	-0.000976	1.0048
2.532	20.978	-3.1133e+05	1854.3	0.0047824	-4.4383e-14	1.0032
2.534	20.841	-3.1133e+05	1854.3	0.0046848	0.000976	1.0017
2.536	20.83	-3.1133e+05	1854.3	0.0045872	0.001952	1.0001
2.538	20.907	-3.1132e+05	1854.3	0.0044896	0.002928	0.99855
2.54	20.996	-3.1132e+05	1854.2	0.004392	0.003904	0.99698
2.542	21.126	-3.1131e+05	1854.2	0.00488	0.0027328	0.99845
2.544	21.142	-3.1131e+05	1854.2	0.005368	0.0015616	0.99991
2.546	21.078	-3.113e+05	1854.2	0.005856	0.0003904	1.0014
2.548	20.984	-3.113e+05	1854.1	0.006344	-0.0007808	1.0028
2.55	20.833	-3.1129e+05	1854.1	0.006832	-0.001952	1.0043
2.552	20.802	-3.1128e+05	1854	0.0090768	-0.0011712	1.0026
2.554	20.898	-3.1128e+05	1854	0.011322	-0.0003904	1.001
2.556	20.964	-3.1127e+05	1854	0.013566	0.0003904	0.99933
2.558	21.067	-3.1126e+05	1854	0.015811	0.0011712	0.99767
2.56	21.11	-3.1125e+05	1854	0.018056	0.001952	0.99601
2.562	21.039	-3.1125e+05	1854	0.017763	0.0018544	0.99572
2.564	20.961	-3.1123e+05	1853.9	0.01747	0.0017568	0.99542
2.566	20.819	-3.1122e+05	1853.9	0.017178	0.0016592	0.99513
2.568	20.731	-3.1122e+05	1853.8	0.016885	0.0015616	0.99484
2.57	20.78	-3.1122e+05	1853.8	0.016592	0.001464	0.99454
2.572	20.854	-3.1121e+05	1853.7	0.014347	0.0016592	0.99347
2.574	20.949	-3.112e+05	1853.6	0.012102	0.0018544	0.9924
2.576	21.032	-3.1119e+05	1853.5	0.0098576	0.0020496	0.99132
2.578	21.023	-3.1118e+05	1853.4	0.0076128	0.0022448	0.99025
2.58	20.962	-3.1118e+05	1853.2	0.005368	0.00244	0.98918
2.582	20.849	-3.1117e+05	1853.1	0.0064416	0.0012688	0.98927
2.584	20.719	-3.1116e+05	1853	0.0075152	9.76e-05	0.98937
2.586	20.706	-3.1115e+05	1852.8	0.0085888	-0.0010736	0.98947
2.588	20.782	-3.1114e+05	1852.6	0.0096624	-0.0022448	0.98957
2.59	20.882	-3.1113e+05	1852.4	0.010736	-0.003416	0.98966
2.592	20.998	-3.1112e+05	1852.3	0.010346	-0.0031232	0.98918
2.594	21.027	-3.1111e+05	1852.1	0.0099552	-0.0028304	0.98869
2.596	20.954	-3.1111e+05	1852	0.0095648	-0.0025376	0.9882
2.598	20.851	-3.1111e+05	1851.8	0.0091744	-0.0022448	0.98771
2.6	20.714	-3.111e+05	1851.7	0.008784	-0.001952	0.98722
2.602	20.651	-3.1109e+05	1851.4	0.0083936	-0.000976	0.98693
2.604	20.715	-3.1108e+05	1851.2	0.0080032	-8.8766e-14	0.98664
2.606	20.774	-3.1107e+05	1851	0.0076128	0.000976	0.98635
2.608	20.895	-3.1106e+05	1850.9	0.0072224	0.001952	0.98605
2.61	21.009	-3.1106e+05	1850.7	0.006832	0.002928	0.98576
2.612	20.979	-3.1104e+05	1850.5	0.007808	0.0021472	0.98576
2.614	20.914	-3.1102e+05	1850.4	0.008784	0.0013664	0.98576
2.616	20.8	-3.1101e+05	1850.2	0.00976	0.0005856	0.98576
2.618	20.679	-3.11e+05	1850	0.010736	-0.0001952	0.98576
2.62	20.732	-3.11e+05	1849.9	0.011712	-0.000976	0.98576
2.622	20.798	-3.11e+05	1849.7	0.012493	-0.0011712	0.98732
2.624	20.864	-3.1099e+05	1849.6	0.013274	-0.0013664	0.98888
2.626	20.991	-3.1099e+05	1849.5	0.014054	-0.0015616	0.99044
2.628	20.97	-3.1099e+05	1849.4	0.014835	-0.0017568	0.99201
2.63	20.899	-3.1099e+05	1849.2	0.015616	-0.001952	0.99357
2.632	20.829	-3.1098e+05	1849.1	0.01425	-0.0020496	0.99308
2.634	20.72	-3.1098e+05	1848.9	0.012883	-0.0021472	0.99259
2.636	20.724	-3.1096e+05	1848.8	0.011517	-0.0022448	0.9921
2.638	20.78	-3.1094e+05	1848.6	0.01015	-0.0023424	0.99162
2.64	20.847	-3.1094e+05	1848.5	0.008784	-0.00244	0.99113
2.642	20.975	-3.1093e+05	1848.3	0.010248	-0.0021472	0.99181
2.644	20.981	-3.1093e+05	1848.2	0.011712	-0.0018544	0.99249
2.646	20.917	-3.1092e+05	1848.1	0.013176	-0.0015616	0.99318
2.648	20.86	-3.1092e+05	1847.9	0.01464	-0.0012688	0.99386
2.65	20.74	-3.1091e+05	1847.8	0.016104	-0.000976	0.99454
2.652	20.706	-3.1091e+05	1847.7	0.016397	-0.0001952	0.99425
2.654	20.785	-3.1091e+05	1847.6	0.01669	0.0005856	0.99396
2.656	20.875	-3.109e+05	1847.5	0.016982	0.0013664	0.99367
2.658	21.006	-3.1089e+05	1847.5	0.017275	0.0021472	0.99337
2.66	21.069	-3.1088e+05	1847.5	0.017568	0.002928	0.99308
2.662	21.011	-3.1087e+05	1847.4	0.018349	0.0025376	0.99386
2.664	20.927	-3.1087e+05	1847.3	0.01913	0.0021472	0.99464
2.666	20.816	-3.1086e+05	1847.2	0.01991	0.0017568	0.99542
2.668	20.746	-3.1086e+05	1847.1	0.020691	0.0013664	0.9962
2.67	20.781	-3.1086e+05	1847	0.021472	0.000976	0.99698
2.672	20.842	-3.1085e+05	1847	0.020398	0.0007808	0.99747
2.674	20.941	-3.1084e+05	1846.9	0.019325	0.0005856	0.99796
2.676	21.051	-3.1083e+05	1846.8	0.018251	0.0003904	0.99845
2.678	21.037	-3.1083e+05	1846.7	0.017178	0.0001952	0.99894
2.68	20.944	-3.1082e+05	1846.6	0.016104	0	0.99942
2.682	20.838	-3.1082e+05	1846.5	0.014738	-0.0008784	1.0005
2.684	20.722	-3.1082e+05	1846.4	0.013371	-0.0017568	1.0016
2.686	20.719	-3.1081e+05	1846.3	0.012005	-0.0026352	1.0026
2.688	20.804	-3.1081e+05	1846.2	0.010638	-0.0035136	1.0037
2.69	20.881	-3.1081e+05	1846.1	0.009272	-0.004392	1.0048
2.692	20.998	-3.108e+05	1845.9	0.0088816	-0.0040016	1.0043
2.694	21.057	-3.108e+05	1845.8	0.0084912	-0.0036112	1.0038
2.696	21.016	-3.1079e+05	1845.7	0.0081008	-0.0032208	1.0033
2.698	20.93	-3.1078e+05	1845.6	0.0077104	-0.0028304	1.0028
2.7	20.764	-3.1078e+05	1845.4	0.00732	-0.00244	1.0024
2.702	20.68	-3.1078e+05	1845.3	0.0075152	-0.0021472	1.0021
2.704	20.787	-3.1078e+05	1845.1	0.0077104	-0.0018544	1.0018
2.706	20.874	-3.1077e+05	1844.9	0.0079056	-0.0015616	1.0015
2.708	20.985	-3.1077e+05	1844.8	0.0081008	-0.0012688	1.0012
2.71	21.062	-3.1077e+05	1844.6	0.008296	-0.000976	1.0009
2.712	20.973	-3.1076e+05	1844.4	0.0084912	-0.0013664	1.0022
2.714	20.912	-3.1076e+05	1844.3	0.0086864	-0.0017568	1.0034
2.716	20.801	-3.1075e+05	1844.1	0.0088816	-0.0021472	1.0047
2.718	20.703	-3.1075e+05	1843.9	0.0090768	-0.0025376	1.006
2.72	20.754	-3.1075e+05	1843.7	0.009272	-0.002928	1.0072
2.722	20.835	-3.1074e+05	1843.5	0.0086864	-0.0037088	1.0073
2.724	20.948	-3.1074e+05	1843.4	0.0081008	-0.0044896	1.0074
2.726	21.036	-3.1074e+05	1843.2	0.0075152	-0.0052704	1.0075
2.728	20.997	-3.1074e+05	1843	0.0069296	-0.0060512	1.0076
2.73	20.947	-3.1074e+05	1842.9	0.006344	-0.006832	1.0077
2.732	20.849	-3.1074e+05	1842.8	0.007808	-0.0071248	1.0076
2.734	20.737	-3.1074e+05	1842.7	0.009272	-0.0074176	1.0075
2.736	20.754	-3.1074e+05	1842.6	0.010736	-0.0077104	1.0074
2.738	20.805	-3.1074e+05	1842.5	0.0122	-0.0080032	1.0073
2.74	20.875	-3.1073e+05	1842.4	0.013664	-0.008296	1.0072
2.742	20.996	-3.1073e+05	1842.3	0.013176	-0.0079056	1.0064
2.744	21.019	-3.1073e+05	1842.3	0.012688	-0.0075152	1.0055
2.746	20.947	-3.1073e+05	1842.2	0.0122	-0.0071248	1.0046
2.748	20.862	-3.1073e+05	1842.2	0.011712	-0.0067344	1.0037
2.75	20.752	-3.1073e+05	1842.2	0.011224	-0.006344	1.0028
2.752	20.724	-3.1072e+05	1842.2	0.011712	-0.0057584	1.0016
2.754	20.797	-3.1072e+05	1842.2	0.0122	-0.0051728	1.0003
2.756	20.862	-3.1072e+05	1842.2	0.012688	-0.0045872	0.99903
2.758	20.943	-3.1071e+05	1842.1	0.013176	-0.0040016	0.99776
2.76	20.996	-3.1071e+05	1842.1	0.013664	-0.003416	0.9965
2.762	20.957	-3.1071e+05	1842.1	0.01425	-0.0020496	0.9965
2.764	20.895	-3.1072e+05	1842.1	0.014835	-0.0006832	0.9965
2.766	20.788	-3.1072e+05	1842	0.015421	0.0006832	0.9965
2.768	20.681	-3.1072e+05	1842	0.016006	0.0020496	0.9965
2.77	20.707	-3.1072e+05	1842	0.016592	0.003416	0.9965
2.772	20.78	-3.1072e+05	1842	0.015714	0.0022448	0.99591
2.774	20.901	-3.1072e+05	1841.9	0.014835	0.0010736	0.99532
2.776	21.046	-3.1072e+05	1841.9	0.013957	-9.76e-05	0.99474
2.778	21.023	-3.1072e+05	1841.9	0.013078	-0.0012688	0.99415
2.78	20.931	-3.1072e+05	1841.9	0.0122	-0.00244	0.99357
2.782	20.826	-3.1072e+05	1841.9	0.012298	-0.0025376	0.99308
2.784	20.675	-3.1073e+05	1841.8	0.012395	-0.0026352	0.99259
2.786	20.666	-3.1073e+05	1841.8	0.012493	-0.0027328	0.9921
2.788	20.731	-3.1073e+05	1841.7	0.01259	-0.0028304	0.99162
2.79	20.788	-3.1073e+05	1841.6	0.012688	-0.002928	0.99113
2.792	20.968	-3.1073e+05	1841.5	0.012298	-0.0031232	0.99181
2.794	21.046	-3.1073e+05	1841.4	0.011907	-0.0033184	0.99249
2.796	20.99	-3.1073e+05	1841.3	0.011517	-0.0035136	0.99318
2.798	20.909	-3.1073e+05	1841.1	0.011126	-0.0037088	0.99386
2.8	20.735	-3.1074e+05	1841	0.010736	-0.003904	0.99454
2.802	20.707	-3.1074e+05	1840.9	0.010541	-0.0030256	0.99367
2.804	20.774	-3.1074e+05	1840.8	0.010346	-0.0021472	0.99279
2.806	20.812	-3.1074e+05	1840.6	0.01015	-0.0012688	0.99191
2.808	20.936	-3.1074e+05	1840.5	0.0099552	-0.0003904	0.99103
2.81	21.001	-3.1074e+05	1840.3	0.00976	0.000488	0.99015
2.812	20.957	-3.1074e+05	1840.2	0.010541	0.0002928	0.99064
2.814	20.892	-3.1074e+05	1840.1	0.011322	9.76e-05	0.99113
2.816	20.78	-3.1074e+05	1840	0.012102	-9.76e-05	0.99162
2.818	20.687	-3.1074e+05	1839.9	0.012883	-0.0002928	0.9921
2.82	20.731	-3.1074e+05	1839.8	0.013664	-0.000488	0.99259
2.822	20.806	-3.1075e+05	1839.7	0.013957	-0.000488	0.99259
2.824	20.906	-3.1075e+05	1839.6	0.01425	-0.000488	0.99259
2.826	20.991	-3.1075e+05	1839.5	0.014542	-0.000488	0.99259
2.828	20.974	-3.1074e+05	1839.4	0.014835	-0.000488	0.99259
2.83	20.915	-3.1074e+05	1839.4	0.015128	-0.000488	0.99259
2.832	20.826	-3.1074e+05	1839.3	0.014054	-0.0010736	0.99201
2.834	20.73	-3.1074e+05	1839.3	0.012981	-0.0016592	0.99142
2.836	20.727	-3.1074e+05	1839.2	0.011907	-0.0022448	0.99084
2.838	20.798	-3.1075e+05	1839.2	0.010834	-0.0028304	0.99025
2.84	20.903	-3.1075e+05	1839.2	0.00976	-0.003416	0.98966
2.842	21.021	-3.1075e+05	1839.2	0.010638	-0.0030256	0.99093
2.844	21.039	-3.1075e+05	1839.2	0.011517	-0.0026352	0.9922
2.846	20.977	-3.1075e+05	1839.2	0.012395	-0.0022448	0.99347
2.848	20.906	-3.1075e+05	1839.1	0.013274	-0.0018544	0.99474
2.85	20.788	-3.1074e+05	1839.1	0.014152	-0.001464	0.99601
2.852	20.717	-3.1074e+05	1839	0.014835	-0.0007808	0.99523
2.854	20.762	-3.1075e+05	1839	0.015518	-9.76e-05	0.99445
2.856	20.824	-3.1074e+05	1838.9	0.016202	0.0005856	0.99367
2.858	20.925	-3.1074e+05	1838.9	0.016885	0.0012688	0.99288
2.86	21.018	-3.1075e+05	1838.8	0.017568	0.001952	0.9921
2.862	20.977	-3.1076e+05	1838.8	0.017568	0.001464	0.99298
2.864	20.903	-3.1076e+05	1838.8	0.017568	0.000976	0.99386
2.866	20.799	-3.1076e+05	1838.7	0.017568	0.000488	0.99474
2.868	20.703	-3.1076e+05	1838.7	0.017568	-1.0842e-19	0.99562
2.87	20.75	-3.1076e+05	1838.6	0.017568	-0.000488	0.9965
2.872	20.784	-3.1075e+05	1838.5	0.017861	0.000488	0.9965
2.874	20.849	-3.1075e+05	1838.4	0.018154	0.001464	0.9965
2.876	21.027	-3.1076e+05	1838.4	0.018446	0.00244	0.9965
2.878	21.018	-3.1076e+05	1838.3	0.018739	0.003416	0.9965
2.88	20.912	-3.1076e+05	1838.3	0.019032	0.004392	0.9965
2.882	20.82	-3.1075e+05	1838.2	0.018739	0.0040016	0.99562
2.884	20.676	-3.1075e+05	1838.2	0.018446	0.0036112	0.99474
2.886	20.666	-3.1075e+05	1838.1	0.018154	0.0032208	0.99386
2.888	20.762	-3.1076e+05	1838	0.017861	0.0028304	0.99298
2.89	20.872	-3.1076e+05	1837.9	0.017568	0.00244	0.9921
2.892	21.024	-3.1076e+05	1837.8	0.017666	0.001952	0.99337
2.894	21.035	-3.1076e+05	1837.8	0.017763	0.001464	0.99464
2.896	20.971	-3.1076e+05	1837.7	0.017861	0.000976	0.99591
2.898	20.89	-3.1077e+05	1837.6	0.017958	0.000488	0.99718
2.9	20.732	-3.1077e+05	1837.5	0.018056	0	0.99845
2.902	20.683	-3.1078e+05	1837.5	0.017373	-0.0002928	0.99962
2.904	20.733	-3.1077e+05	1837.4	0.01669	-0.0005856	1.0008
2.906	20.82	-3.1077e+05	1837.3	0.016006	-0.0008784	1.002
2.908	20.963	-3.1077e+05	1837.2	0.015323	-0.0011712	1.0031
2.91	21.011	-3.1077e+05	1837.1	0.01464	-0.001464	1.0043
2.912	20.954	-3.1077e+05	1837	0.013664	-0.002928	1.0045
2.914	20.876	-3.1077e+05	1836.9	0.012688	-0.004392	1.0047
2.916	20.749	-3.1077e+05	1836.9	0.011712	-0.005856	1.0049
2.918	20.668	-3.1078e+05	1836.8	0.010736	-0.00732	1.0051
2.92	20.691	-3.1078e+05	1836.8	0.00976	-0.008784	1.0053
2.922	20.748	-3.1078e+05	1836.8	0.010346	-0.008784	1.0045
2.924	20.86	-3.1078e+05	1836.8	0.010931	-0.008784	1.0037
2.926	20.958	-3.1078e+05	1836.7	0.011517	-0.008784	1.0029
2.928	20.918	-3.1078e+05	1836.7	0.012102	-0.008784	1.0022
2.93	20.841	-3.1078e+05	1836.7	0.012688	-0.008784	1.0014
2.932	20.781	-3.1079e+05	1836.7	0.012395	-0.0081984	1.0025
2.934	20.692	-3.1079e+05	1836.7	0.012102	-0.0076128	1.0037
2.936	20.666	-3.1079e+05	1836.7	0.01181	-0.0070272	1.0049
2.938	20.719	-3.1079e+05	1836.6	0.011517	-0.0064416	1.0061
2.94	20.796	-3.1079e+05	1836.6	0.011224	-0.005856	1.0072
2.942	20.914	-3.1079e+05	1836.6	0.01181	-0.00488	1.0065
2.944	20.961	-3.108e+05	1836.6	0.012395	-0.003904	1.0059
2.946	20.901	-3.108e+05	1836.6	0.012981	-0.002928	1.0052
2.948	20.836	-3.108e+05	1836.6	0.013566	-0.001952	1.0045
2.95	20.694	-3.108e+05	1836.6	0.014152	-0.000976	1.0038
2.952	20.63	-3.108e+05	1836.6	0.015323	-0.000488	1.0026
2.954	20.721	-3.108e+05	1836.6	0.016494	1.0842e-19	1.0015
2.956	20.787	-3.108e+05	1836.5	0.017666	0.000488	1.0003
2.958	20.902	-3.1081e+05	1836.5	0.018837	0.000976	0.99913
2.96	20.975	-3.1081e+05	1836.4	0.020008	0.001464	0.99796
2.962	20.908	-3.1082e+05	1836.4	0.018642	0.001464	0.99679
2.964	20.869	-3.1082e+05	1836.3	0.017275	0.001464	0.99562
2.966	20.755	-3.1082e+05	1836.2	0.015909	0.001464	0.99445
2.968	20.625	-3.1082e+05	1836.1	0.014542	0.001464	0.99328
2.97	20.695	-3.1082e+05	1836.1	0.013176	0.001464	0.9921
2.972	20.751	-3.1082e+05	1836	0.013762	0.000488	0.99288
2.974	20.86	-3.1083e+05	1835.9	0.014347	-0.000488	0.99367
2.976	20.967	-3.1082e+05	1835.8	0.014933	-0.001464	0.99445
2.978	20.902	-3.1082e+05	1835.7	0.015518	-0.00244	0.99523
2.98	20.822	-3.1082e+05	1835.6	0.016104	-0.003416	0.99601
2.982	20.744	-3.1082e+05	1835.5	0.016397	-0.0021472	0.99542
2.984	20.669	-3.1082e+05	1835.5	0.01669	-0.0008784	0.99484
2.986	20.706	-3.1083e+05	1835.4	0.016982	0.0003904	0.99425
2.988	20.775	-3.1083e+05	1835.3	0.017275	0.0016592	0.99367
2.99	20.835	-3.1083e+05	1835.3	0.017568	0.002928	0.99308
2.992	20.927	-3.1082e+05	1835.2	0.016982	0.0013664	0.99445
2.994	20.944	-3.1081e+05	1835.1	0.016397	-0.0001952	0.99581
2.996	20.909	-3.1082e+05	1835.1	0.015811	-0.0017568	0.99718
2.998	20.849	-3.1083e+05	1835	0.015226	-0.0033184	0.99855
3	20.749	-3.1084e+05	1834.9	0.01464	-0.00488	0.99991
3.002	20.734	-3.1084e+05	1834.9	0.014542	-0.0051728	0.99942
3.004	20.838	-3.1084e+05	1834.8	0.014445	-0.0054656	0.99894
3.006	20.984	-3.1084e+05	1834.8	0.014347	-0.0057584	0.99845
3.008	21.148	-3.1085e+05	1834.8	0.01425	-0.0060512	0.99796
3.01	21.239	-3.1085e+05	1834.8	0.014152	-0.006344	0.99747
3.012	21.224	-3.1085e+05	1834.7	0.013274	-0.0062464	0.99776
3.014	21.195	-3.1085e+05	1834.7	0.012395	-0.0061488	0.99806
3.016	21.117	-3.1085e+05	1834.6	0.011517	-0.0060512	0.99835
3.018	21.016	-3.1085e+05	1834.6	0.010638	-0.0059536	0.99864
3.02	20.997	-3.1085e+05	1834.5	0.00976	-0.005856	0.99894
3.022	21.001	-3.1086e+05	1834.5	0.010541	-0.0065392	0.99825
3.024	21.05	-3.1086e+05	1834.4	0.011322	-0.0072224	0.99757
3.026	21.089	-3.1086e+05	1834.4	0.012102	-0.0079056	0.99689
3.028	20.955	-3.1085e+05	1834.4	0.012883	-0.0085888	0.9962
3.03	20.793	-3.1085e+05	1834.3	0.013664	-0.009272	0.99552
3.032	20.681	-3.1085e+05	1834.3	0.01464	-0.0071248	0.99503
3.034	20.565	-3.1086e+05	1834.2	0.015616	-0.0049776	0.99454
3.036	20.55	-3.1086e+05	1834.1	0.016592	-0.0028304	0.99406
3.038	20.608	-3.1086e+05	1834.1	0.017568	-0.0006832	0.99357
3.04	20.727	-3.1087e+05	1834	0.018544	0.001464	0.99308
3.042	20.927	-3.1087e+05	1834	0.018056	0.0015616	0.99328
3.044	20.982	-3.1087e+05	1833.9	0.017568	0.0016592	0.99347
3.046	20.898	-3.1087e+05	1833.9	0.01708	0.0017568	0.99367
3.048	20.848	-3.1087e+05	1833.8	0.016592	0.0018544	0.99386
3.05	20.736	-3.1087e+05	1833.8	0.016104	0.001952	0.99406
3.052	20.72	-3.1087e+05	1833.8	0.016885	0.00244	0.99435
3.054	20.799	-3.1087e+05	1833.8	0.017666	0.002928	0.99464
3.056	20.831	-3.1088e+05	1833.8	0.018446	0.003416	0.99493
3.058	20.969	-3.1089e+05	1833.8	0.019227	0.003904	0.99523
3.06	21.044	-3.1089e+05	1833.8	0.020008	0.004392	0.99552
3.062	20.939	-3.1089e+05	1833.8	0.019032	0.0046848	0.9962
3.064	20.857	-3.109e+05	1833.8	0.018056	0.0049776	0.99689
3.066	20.743	-3.109e+05	1833.8	0.01708	0.0052704	0.99757
3.068	20.675	-3.109e+05	1833.8	0.016104	0.0055632	0.99825
3.07	20.735	-3.109e+05	1833.8	0.015128	0.005856	0.99894
3.072	20.836	-3.1091e+05	1833.8	0.015909	0.005856	0.99786
3.074	20.971	-3.1092e+05	1833.8	0.01669	0.005856	0.99679
3.076	21.059	-3.1091e+05	1833.7	0.01747	0.005856	0.99572
3.078	21.006	-3.1091e+05	1833.7	0.018251	0.005856	0.99464
3.08	20.919	-3.109e+05	1833.6	0.019032	0.005856	0.99357
3.082	20.814	-3.1089e+05	1833.6	0.019227	0.005856	0.99386
3.084	20.711	-3.109e+05	1833.5	0.019422	0.005856	0.99415
3.086	20.7	-3.1091e+05	1833.4	0.019618	0.005856	0.99445
3.088	20.744	-3.1091e+05	1833.4	0.019813	0.005856	0.99474
3.09	20.85	-3.1091e+05	1833.3	0.020008	0.005856	0.99503
3.092	20.992	-3.1091e+05	1833.1	0.020008	0.0061488	0.99493
3.094	21.005	-3.1091e+05	1833	0.020008	0.0064416	0.99484
3.096	20.918	-3.1091e+05	1832.9	0.020008	0.0067344	0.99474
3.098	20.842	-3.1091e+05	1832.8	0.020008	0.0070272	0.99464
3.1	20.742	-3.1091e+05	1832.7	0.020008	0.00732	0.99454
3.102	20.689	-3.1092e+05	1832.6	0.018934	0.005856	0.99425
3.104	20.755	-3.1092e+05	1832.4	0.017861	0.004392	0.99396
3.106	20.854	-3.1092e+05	1832.3	0.016787	0.002928	0.99367
3.108	20.97	-3.1092e+05	1832.2	0.015714	0.001464	0.99337
3.11	21.028	-3.1092e+05	1832.1	0.01464	0	0.99308
3.112	20.958	-3.1093e+05	1832	0.015811	9.76e-05	0.99347
3.114	20.88	-3.1093e+05	1831.8	0.016982	0.0001952	0.99386
3.116	20.764	-3.1093e+05	1831.7	0.018154	0.0002928	0.99425
3.118	20.658	-3.1094e+05	1831.6	0.019325	0.0003904	0.99464
3.12	20.705	-3.1094e+05	1831.4	0.020496	0.000488	0.99503
3.122	20.806	-3.1094e+05	1831.3	0.020789	9.76e-05	0.99552
3.124	20.913	-3.1094e+05	1831.2	0.021082	-0.0002928	0.99601
3.126	21.04	-3.1095e+05	1831.1	0.021374	-0.0006832	0.9965
3.128	20.985	-3.1094e+05	1831	0.021667	-0.0010736	0.99698
3.13	20.892	-3.1094e+05	1830.9	0.02196	-0.001464	0.99747
3.132	20.831	-3.1095e+05	1830.9	0.021179	-0.000488	0.99708
3.134	20.707	-3.1095e+05	1830.9	0.020398	0.000488	0.99669
3.136	20.712	-3.1095e+05	1831.1	0.019618	0.001464	0.9963
3.138	20.74	-3.1095e+05	1831.4	0.018837	0.00244	0.99591
3.14	20.78	-3.1096e+05	1831.6	0.018056	0.003416	0.99552
3.142	20.904	-3.1096e+05	1832.5	0.018349	0.0035136	0.99591
3.144	20.921	-3.1097e+05	1833.3	0.018642	0.0036112	0.9963
3.146	20.882	-3.1097e+05	1834.3	0.018934	0.0037088	0.99669
3.148	20.833	-3.1097e+05	1835.5	0.019227	0.0038064	0.99708
3.15	20.684	-3.1097e+05	1836.7	0.01952	0.003904	0.99747
3.152	20.636	-3.1097e+05	1837.8	0.01747	0.0015616	0.99894
3.154	20.695	-3.1097e+05	1839	0.015421	-0.0007808	1.0004
3.156	20.759	-3.1097e+05	1840.1	0.013371	-0.0031232	1.0019
3.158	20.889	-3.1097e+05	1841.2	0.011322	-0.0054656	1.0033
3.16	20.962	-3.1097e+05	1842.3	0.009272	-0.007808	1.0048
3.162	20.939	-3.1097e+05	1843.4	0.0093696	-0.0081984	1.004
3.164	20.882	-3.1098e+05	1844.4	0.0094672	-0.0085888	1.0032
3.166	20.767	-3.1098e+05	1845.3	0.0095648	-0.0089792	1.0024
3.168	20.676	-3.1098e+05	1846.2	0.0096624	-0.0093696	1.0017
3.17	20.699	-3.1098e+05	1847	0.00976	-0.00976	1.0009
3.172	20.772	-3.1098e+05	1847.7	0.0089792	-0.0081008	1.0021
3.174	20.883	-3.1098e+05	1848.4	0.0081984	-0.0064416	1.0032
3.176	20.979	-3.1099e+05	1849	0.0074176	-0.0047824	1.0044
3.178	20.959	-3.1099e+05	1849.6	0.0066368	-0.0031232	1.0056
3.18	20.889	-3.1099e+05	1850.2	0.005856	-0.001464	1.0067
3.182	20.815	-3.1099e+05	1850.7	0.0055632	-0.001464	1.0062
3.184	20.74	-3.1099e+05	1851.1	0.0052704	-0.001464	1.0056
3.186	20.74	-3.1099e+05	1851.5	0.0049776	-0.001464	1.005
3.188	20.8	-3.1099e+05	1851.8	0.0046848	-0.001464	1.0044
3.19	20.892	-3.1098e+05	1852.1	0.004392	-0.001464	1.0038
3.192	21.015	-3.1098e+05	1852.3	0.0054656	-0.0021472	1.0035
3.194	21.061	-3.1098e+05	1852.6	0.0065392	-0.0028304	1.0032
3.196	21.005	-3.1098e+05	1852.7	0.0076128	-0.0035136	1.0029
3.198	20.928	-3.1098e+05	1852.9	0.0086864	-0.0041968	1.0026
3.2	20.812	-3.1097e+05	1853.1	0.00976	-0.00488	1.0024
3.202	20.76	-3.1097e+05	1853.2	0.0094672	-0.0042944	1.0022
3.204	20.83	-3.1096e+05	1853.3	0.0091744	-0.0037088	1.002
3.206	20.905	-3.1095e+05	1853.3	0.0088816	-0.0031232	1.0018
3.208	21.024	-3.1095e+05	1853.4	0.0085888	-0.0025376	1.0016
3.21	21.126	-3.1095e+05	1853.4	0.008296	-0.001952	1.0014
3.212	21.063	-3.1094e+05	1853.4	0.007808	-0.001952	1.0013
3.214	20.988	-3.1094e+05	1853.5	0.00732	-0.001952	1.0012
3.216	20.861	-3.1093e+05	1853.4	0.006832	-0.001952	1.0011
3.218	20.729	-3.1092e+05	1853.4	0.006344	-0.001952	1.001
3.22	20.791	-3.1091e+05	1853.4	0.005856	-0.001952	1.0009
3.222	20.864	-3.1091e+05	1853.4	0.0086864	-0.0018544	1.0003
3.224	20.988	-3.109e+05	1853.4	0.011517	-0.0017568	0.99972
3.226	21.123	-3.109e+05	1853.3	0.014347	-0.0016592	0.99913
3.228	21.073	-3.1089e+05	1853.3	0.017178	-0.0015616	0.99855
3.23	20.985	-3.1089e+05	1853.2	0.020008	-0.001464	0.99796
3.232	20.873	-3.1088e+05	1853.2	0.019422	-0.0008784	0.99698
3.234	20.739	-3.1087e+05	1853.1	0.018837	-0.0002928	0.99601
3.236	20.746	-3.1086e+05	1853.1	0.018251	0.0002928	0.99503
3.238	20.802	-3.1086e+05	1853	0.017666	0.0008784	0.99406
3.24	20.88	-3.1085e+05	1852.9	0.01708	0.001464	0.99308
3.242	21.049	-3.1085e+05	1852.9	0.015421	0.000976	0.99249
3.244	21.101	-3.1084e+05	1852.8	0.013762	0.000488	0.99191
3.246	21.027	-3.1082e+05	1852.7	0.012102	1.1096e-13	0.99132
3.248	20.931	-3.1082e+05	1852.7	0.010443	-0.000488	0.99074
3.25	20.794	-3.1081e+05	1852.6	0.008784	-0.000976	0.99015
3.252	20.757	-3.108e+05	1852.5	0.008784	-0.0003904	0.99015
3.254	20.809	-3.1079e+05	1852.5	0.008784	0.0001952	0.99015
3.256	20.872	-3.1078e+05	1852.4	0.008784	0.0007808	0.99015
3.258	20.969	-3.1078e+05	1852.3	0.008784	0.0013664	0.99015
3.26	21.005	-3.1077e+05	1852.2	0.008784	0.001952	0.99015
3.262	20.951	-3.1076e+05	1852.1	0.0081008	0.0031232	0.99005
3.264	20.888	-3.1076e+05	1852.1	0.0074176	0.0042944	0.98996
3.266	20.786	-3.1075e+05	1852	0.0067344	0.0054656	0.98986
3.268	20.692	-3.1074e+05	1851.9	0.0060512	0.0066368	0.98976
3.27	20.705	-3.1073e+05	1851.8	0.005368	0.007808	0.98966
3.272	20.78	-3.1072e+05	1851.8	0.0061488	0.0060512	0.98947
3.274	20.891	-3.1071e+05	1851.7	0.0069296	0.0042944	0.98927
3.276	20.992	-3.107e+05	1851.6	0.0077104	0.0025376	0.98908
3.278	20.979	-3.107e+05	1851.5	0.0084912	0.0007808	0.98888
3.28	20.904	-3.1069e+05	1851.5	0.009272	-0.000976	0.98869
3.282	20.795	-3.1068e+05	1851.4	0.010736	0.0001952	0.98791
3.284	20.661	-3.1068e+05	1851.3	0.0122	0.0013664	0.98713
3.286	20.66	-3.1067e+05	1851.3	0.013664	0.0025376	0.98635
3.288	20.742	-3.1066e+05	1851.2	0.015128	0.0037088	0.98556
3.29	20.821	-3.1066e+05	1851.1	0.016592	0.00488	0.98478
3.292	20.952	-3.1064e+05	1851	0.015714	0.0038064	0.98488
3.294	20.965	-3.1063e+05	1850.9	0.014835	0.0027328	0.98498
3.296	20.872	-3.1063e+05	1850.8	0.013957	0.0016592	0.98508
3.298	20.808	-3.1062e+05	1850.7	0.013078	0.0005856	0.98517
3.3	20.7	-3.1061e+05	1850.6	0.0122	-0.000488	0.98527
3.302	20.647	-3.106e+05	1850.4	0.011224	-0.0001952	0.98586
3.304	20.709	-3.1059e+05	1850.3	0.010248	9.76e-05	0.98644
3.306	20.752	-3.1058e+05	1850.2	0.009272	0.0003904	0.98703
3.308	20.851	-3.1058e+05	1850	0.008296	0.0006832	0.98761
3.31	20.922	-3.1058e+05	1849.8	0.00732	0.000976	0.9882
3.312	20.862	-3.1058e+05	1849.6	0.0067344	0.0015616	0.98849
3.314	20.818	-3.1057e+05	1849.5	0.0061488	0.0021472	0.98879
3.316	20.686	-3.1056e+05	1849.3	0.0055632	0.0027328	0.98908
3.318	20.554	-3.1055e+05	1849.1	0.0049776	0.0033184	0.98937
3.32	20.606	-3.1055e+05	1849	0.004392	0.003904	0.98966
3.322	20.689	-3.1054e+05	1848.8	0.0066368	0.0031232	0.99132
3.324	20.795	-3.1054e+05	1848.6	0.0088816	0.0023424	0.99298
3.326	20.907	-3.1053e+05	1848.4	0.011126	0.0015616	0.99464
3.328	20.883	-3.1053e+05	1848.2	0.013371	0.0007808	0.9963
3.33	20.815	-3.1052e+05	1848.1	0.015616	0	0.99796
3.332	20.72	-3.1051e+05	1847.9	0.016104	0.0007808	0.99747
3.334	20.599	-3.1051e+05	1847.8	0.016592	0.0015616	0.99698
3.336	20.601	-3.105e+05	1847.7	0.01708	0.0023424	0.9965
3.338	20.698	-3.105e+05	1847.6	0.017568	0.0031232	0.99601
3.34	20.804	-3.1049e+05	1847.5	0.018056	0.003904	0.99552
3.342	20.914	-3.1048e+05	1847.4	0.017958	0.0041968	0.99503
3.344	20.93	-3.1048e+05	1847.2	0.017861	0.0044896	0.99454
3.346	20.876	-3.1048e+05	1847.1	0.017763	0.0047824	0.99406
3.348	20.806	-3.1047e+05	1847	0.017666	0.0050752	0.99357
3.35	20.701	-3.1046e+05	1847	0.017568	0.005368	0.99308
3.352	20.647	-3.1045e+05	1846.8	0.018154	0.0044896	0.99415
3.354	20.682	-3.1045e+05	1846.7	0.018739	0.0036112	0.99523
3.356	20.742	-3.1045e+05	1846.6	0.019325	0.0027328	0.9963
3.358	20.854	-3.1045e+05	1846.5	0.01991	0.0018544	0.99737
3.36	20.939	-3.1044e+05	1846.4	0.020496	0.000976	0.99845
3.362	20.89	-3.1043e+05	1846.3	0.018642	9.76e-05	0.99933
3.364	20.806	-3.1043e+05	1846.2	0.016787	-0.0007808	1.0002
3.366	20.696	-3.1042e+05	1846.1	0.014933	-0.0016592	1.0011
3.368	20.588	-3.1042e+05	1845.9	0.013078	-0.0025376	1.002
3.37	20.612	-3.1042e+05	1845.8	0.011224	-0.003416	1.0028
3.372	20.687	-3.1042e+05	1845.7	0.010248	-0.0038064	1.003
3.374	20.782	-3.1042e+05	1845.7	0.009272	-0.0041968	1.0032
3.376	20.9	-3.1041e+05	1845.6	0.008296	-0.0045872	1.0034
3.378	20.874	-3.1041e+05	1845.4	0.00732	-0.0049776	1.0036
3.38	20.794	-3.1041e+05	1845.3	0.006344	-0.005368	1.0038
3.382	20.684	-3.104e+05	1845.2	0.0065392	-0.0041968	1.0029
3.384	20.538	-3.104e+05	1845.1	0.0067344	-0.0030256	1.0021
3.386	20.54	-3.1039e+05	1845	0.0069296	-0.0018544	1.0012
3.388	20.587	-3.1039e+05	1844.8	0.0071248	-0.0006832	1.0003
3.39	20.664	-3.1039e+05	1844.6	0.00732	0.000488	0.99942
3.392	20.864	-3.1039e+05	1844.4	0.010053	0.0011712	0.99894
3.394	20.869	-3.1039e+05	1844.2	0.012786	0.0018544	0.99845
3.396	20.777	-3.1039e+05	1843.9	0.015518	0.0025376	0.99796
3.398	20.707	-3.1038e+05	1843.7	0.018251	0.0032208	0.99747
3.4	20.575	-3.1038e+05	1843.4	0.020984	0.003904	0.99698
3.402	20.541	-3.1038e+05	1843.2	0.020691	0.0036112	0.99679
3.404	20.606	-3.1038e+05	1843	0.020398	0.0033184	0.99659
3.406	20.654	-3.1038e+05	1842.7	0.020106	0.0030256	0.9964
3.408	20.748	-3.1038e+05	1842.6	0.019813	0.0027328	0.9962
3.41	20.764	-3.1037e+05	1842.4	0.01952	0.00244	0.99601
3.412	20.723	-3.1038e+05	1842.2	0.018642	0.0026352	0.9963
3.414	20.676	-3.1038e+05	1842.1	0.017763	0.0028304	0.99659
3.416	20.528	-3.1038e+05	1842	0.016885	0.0030256	0.99689
3.418	20.45	-3.1037e+05	1841.9	0.016006	0.0032208	0.99718
3.42	20.508	-3.1037e+05	1841.8	0.015128	0.003416	0.99747
3.422	20.565	-3.1036e+05	1841.7	0.014738	0.0025376	0.99776
3.424	20.64	-3.1036e+05	1841.7	0.014347	0.0016592	0.99806
3.426	20.74	-3.1036e+05	1841.6	0.013957	0.0007808	0.99835
3.428	20.763	-3.1036e+05	1841.6	0.013566	-9.76e-05	0.99864
3.43	20.721	-3.1036e+05	1841.6	0.013176	-0.000976	0.99894
3.432	20.62	-3.1036e+05	1841.6	0.012493	-0.0025376	0.99942
3.434	20.499	-3.1036e+05	1841.7	0.01181	-0.0040992	0.99991
3.436	20.48	-3.1036e+05	1841.7	0.011126	-0.0056608	1.0004
3.438	20.547	-3.1037e+05	1841.7	0.010443	-0.0072224	1.0009
3.44	20.649	-3.1036e+05	1841.8	0.00976	-0.008784	1.0014
3.442	20.759	-3.1035e+05	1841.8	0.011614	-0.0077104	1.0008
3.444	20.762	-3.1036e+05	1841.8	0.013469	-0.0066368	1.0002
3.446	20.675	-3.1037e+05	1841.8	0.015323	-0.0055632	0.99962
3.448	20.589	-3.1037e+05	1841.9	0.017178	-0.0044896	0.99903
3.45	20.479	-3.1038e+05	1841.9	0.019032	-0.003416	0.99845
3.452	20.428	-3.1037e+05	1841.9	0.017568	-0.0032208	0.99737
3.454	20.496	-3.1036e+05	1841.9	0.016104	-0.0030256	0.9963
3.456	20.592	-3.1036e+05	1842	0.01464	-0.0028304	0.99523
3.458	20.705	-3.1036e+05	1842	0.013176	-0.0026352	0.99415
3.46	20.756	-3.1037e+05	1842	0.011712	-0.00244	0.99308
3.462	20.67	-3.1037e+05	1841.9	0.012786	-0.0017568	0.99337
3.464	20.607	-3.1037e+05	1841.9	0.013859	-0.0010736	0.99367
3.466	20.509	-3.1037e+05	1841.9	0.014933	-0.0003904	0.99396
3.468	20.407	-3.1037e+05	1841.9	0.016006	0.0002928	0.99425
3.47	20.438	-3.1038e+05	1841.8	0.01708	0.000976	0.99454
3.472	20.483	-3.1038e+05	1841.8	0.015323	0.0006832	0.99406
3.474	20.59	-3.1037e+05	1841.7	0.013566	0.0003904	0.99357
3.476	20.716	-3.1037e+05	1841.6	0.01181	9.76e-05	0.99308
3.478	20.657	-3.1037e+05	1841.6	0.010053	-0.0001952	0.99259
3.48	20.582	-3.1037e+05	1841.5	0.008296	-0.000488	0.9921
3.482	20.494	-3.1037e+05	1841.4	0.0096624	0.0001952	0.99191
3.484	20.341	-3.1037e+05	1841.3	0.011029	0.0008784	0.99171
3.486	20.362	-3.1037e+05	1841.2	0.012395	0.0015616	0.99152
3.488	20.45	-3.1036e+05	1841.1	0.013762	0.0022448	0.99132
3.49	20.544	-3.1036e+05	1841.1	0.015128	0.002928	0.99113
3.492	20.692	-3.1037e+05	1841	0.015616	0.002928	0.9924
3.494	20.693	-3.1038e+05	1840.9	0.016104	0.002928	0.99367
3.496	20.614	-3.1038e+05	1840.8	0.016592	0.002928	0.99493
3.498	20.521	-3.1038e+05	1840.7	0.01708	0.002928	0.9962
3.5	20.375	-3.1038e+05	1840.6	0.017568	0.002928	0.99747
3.502	20.34	-3.1038e+05	1840.6	0.016787	0.0022448	0.99728
3.504	20.406	-3.1038e+05	1840.6	0.016006	0.0015616	0.99708
3.506	20.459	-3.1038e+05	1840.5	0.015226	0.0008784	0.99689
3.508	20.575	-3.1038e+05	1840.4	0.014445	0.0001952	0.99669
3.51	20.646	-3.1039e+05	1840.4	0.013664	-0.000488	0.9965
3.512	20.591	-3.1039e+05	1840.3	0.013274	-0.0013664	0.99708
3.514	20.494	-3.1038e+05	1840.3	0.012883	-0.0022448	0.99767
3.516	20.378	-3.1038e+05	1840.2	0.012493	-0.0031232	0.99825
3.518	20.323	-3.1038e+05	1840.2	0.012102	-0.0040016	0.99884
3.52	20.358	-3.1039e+05	1840.2	0.011712	-0.00488	0.99942
3.522	20.449	-3.1039e+05	1840.2	0.011517	-0.0046848	0.99991
3.524	20.595	-3.1039e+05	1840.2	0.011322	-0.0044896	1.0004
3.526	20.683	-3.1039e+05	1840.2	0.011126	-0.0042944	1.0009
3.528	20.637	-3.1039e+05	1840.2	0.010931	-0.0040992	1.0014
3.53	20.563	-3.1039e+05	1840.2	0.010736	-0.003904	1.0019
3.532	20.47	-3.1039e+05	1840.2	0.012005	-0.0027328	1.001
3.534	20.353	-3.104e+05	1840.2	0.013274	-0.0015616	1.0001
3.536	20.363	-3.104e+05	1840.2	0.014542	-0.0003904	0.99923
3.538	20.451	-3.104e+05	1840.2	0.015811	0.0007808	0.99835
3.54	20.508	-3.104e+05	1840.2	0.01708	0.001952	0.99747
3.542	20.604	-3.1039e+05	1840.2	0.01708	0.001952	0.99698
3.544	20.639	-3.104e+05	1840.2	0.01708	0.001952	0.9965
3.546	20.575	-3.104e+05	1840.2	0.01708	0.001952	0.99601
3.548	20.501	-3.104e+05	1840.1	0.01708	0.001952	0.99552
3.55	20.36	-3.104e+05	1840.1	0.01708	0.001952	0.99503
3.552	20.314	-3.104e+05	1840	0.016592	0.0012688	0.99523
3.554	20.381	-3.1041e+05	1839.9	0.016104	0.0005856	0.99542
3.556	20.422	-3.1041e+05	1839.8	0.015616	-9.76e-05	0.99562
3.558	20.528	-3.1041e+05	1839.7	0.015128	-0.0007808	0.99581
3.56	20.61	-3.1041e+05	1839.6	0.01464	-0.001464	0.99601
3.562	20.555	-3.1042e+05	1839.5	0.015616	-0.0007808	0.9963
3.564	20.502	-3.1042e+05	1839.4	0.016592	-9.76e-05	0.99659
3.566	20.374	-3.1042e+05	1839.3	0.017568	0.0005856	0.99689
3.568	20.285	-3.1042e+05	1839.2	0.018544	0.0012688	0.99718
3.57	20.348	-3.1042e+05	1839.1	0.01952	0.001952	0.99747
3.572	20.409	-3.1042e+05	1839	0.019813	0.0023424	0.99679
3.574	20.511	-3.1043e+05	1838.8	0.020106	0.0027328	0.99611
3.576	20.589	-3.1043e+05	1838.7	0.020398	0.0031232	0.99542
3.578	20.51	-3.1042e+05	1838.6	0.020691	0.0035136	0.99474
3.58	20.444	-3.1043e+05	1838.6	0.020984	0.003904	0.99406
3.582	20.352	-3.1043e+05	1838.4	0.019325	0.0030256	0.99347
3.584	20.235	-3.1043e+05	1838.3	0.017666	0.0021472	0.99288
3.586	20.241	-3.1044e+05	1838.2	0.016006	0.0012688	0.9923
3.588	20.288	-3.1044e+05	1838.1	0.014347	0.0003904	0.99171
3.59	20.365	-3.1044e+05	1838	0.012688	-0.000488	0.99113
3.592	20.5	-3.1044e+05	1837.9	0.012981	-0.0010736	0.99259
3.594	20.496	-3.1044e+05	1837.9	0.013274	-0.0016592	0.99406
3.596	20.408	-3.1043e+05	1837.8	0.013566	-0.0022448	0.99552
3.598	20.329	-3.1043e+05	1837.7	0.013859	-0.0028304	0.99698
3.6	20.225	-3.1043e+05	1837.7	0.014152	-0.003416	0.99845
3.602	20.18	-3.1043e+05	1837.6	0.013371	-0.0042944	0.99894
3.604	20.214	-3.1043e+05	1837.6	0.01259	-0.0051728	0.99942
3.606	20.278	-3.1044e+05	1837.5	0.01181	-0.0060512	0.99991
3.608	20.386	-3.1044e+05	1837.5	0.011029	-0.0069296	1.0004
3.61	20.453	-3.1044e+05	1837.5	0.010248	-0.007808	1.0009
3.612	20.414	-3.1044e+05	1837.5	0.010638	-0.0072224	1.0013
3.614	20.336	-3.1044e+05	1837.4	0.011029	-0.0066368	1.0017
3.616	20.216	-3.1044e+05	1837.4	0.011419	-0.0060512	1.0021
3.618	20.131	-3.1045e+05	1837.4	0.01181	-0.0054656	1.0024
3.62	20.161	-3.1045e+05	1837.4	0.0122	-0.00488	1.0028
3.622	20.214	-3.1045e+05	1837.3	0.0122	-0.0050752	1.0024
3.624	20.314	-3.1045e+05	1837.3	0.0122	-0.0052704	1.0019
3.626	20.4	-3.1045e+05	1837.3	0.0122	-0.0054656	1.0014
3.628	20.34	-3.1045e+05	1837.2	0.0122	-0.0056608	1.0009
3.63	20.255	-3.1045e+05	1837.2	0.0122	-0.005856	1.0004
3.632	20.177	-3.1045e+05	1837.1	0.013664	-0.0060512	1.0001
3.634	20.053	-3.1045e+05	1837	0.015128	-0.0062464	0.99981
3.636	20.076	-3.1045e+05	1836.9	0.016592	-0.0064416	0.99952
3.638	20.185	-3.1046e+05	1836.9	0.018056	-0.0066368	0.99923
3.64	20.245	-3.1047e+05	1836.8	0.01952	-0.006832	0.99894
3.642	20.378	-3.1049e+05	1836.7	0.018544	-0.0070272	0.99864
3.644	20.393	-3.1049e+05	1836.7	0.017568	-0.0072224	0.99835
3.646	20.284	-3.1049e+05	1836.6	0.016592	-0.0074176	0.99806
3.648	20.199	-3.1049e+05	1836.5	0.015616	-0.0076128	0.99776
3.65	20.071	-3.1048e+05	1836.4	0.01464	-0.007808	0.99747
3.652	20.045	-3.1049e+05	1836.3	0.013664	-0.0081008	0.99816
3.654	20.09	-3.1049e+05	1836.2	0.012688	-0.0083936	0.99884
3.656	20.15	-3.1049e+05	1836.1	0.011712	-0.0086864	0.99952
3.658	20.298	-3.1049e+05	1836	0.010736	-0.0089792	1.0002
3.66	20.361	-3.1049e+05	1836	0.00976	-0.009272	1.0009
3.662	20.308	-3.1049e+05	1835.9	0.0096624	-0.0088816	1.0013
3.664	20.23	-3.1049e+05	1835.8	0.0095648	-0.0084912	1.0017
3.666	20.065	-3.1048e+05	1835.7	0.0094672	-0.0081008	1.0021
3.668	19.979	-3.1048e+05	1835.7	0.0093696	-0.0077104	1.0024
3.67	20.029	-3.1049e+05	1835.6	0.009272	-0.00732	1.0028
3.672	20.088	-3.1049e+05	1835.6	0.0085888	-0.0060512	1.003
3.674	20.203	-3.1049e+05	1835.6	0.0079056	-0.0047824	1.0032
3.676	20.292	-3.1049e+05	1835.6	0.0072224	-0.0035136	1.0034
3.678	20.269	-3.1049e+05	1835.5	0.0065392	-0.0022448	1.0036
3.68	20.24	-3.1049e+05	1835.5	0.005856	-0.000976	1.0038
3.682	20.174	-3.105e+05	1835.4	0.0059536	-0.001952	1.004
3.684	20.091	-3.105e+05	1835.4	0.0060512	-0.002928	1.0042
3.686	20.115	-3.105e+05	1835.4	0.0061488	-0.003904	1.0044
3.688	20.205	-3.1051e+05	1835.4	0.0062464	-0.00488	1.0046
3.69	20.331	-3.1051e+05	1835.3	0.006344	-0.005856	1.0048
3.692	20.471	-3.1051e+05	1835.3	0.006344	-0.0047824	1.004
3.694	20.511	-3.1051e+05	1835.2	0.006344	-0.0037088	1.0032
3.696	20.458	-3.1051e+05	1835.1	0.006344	-0.0026352	1.0024
3.698	20.363	-3.1052e+05	1835	0.006344	-0.0015616	1.0017
3.7	20.21	-3.1052e+05	1834.9	0.006344	-0.000488	1.0009
3.702	20.114	-3.1052e+05	1834.8	0.0067344	-0.0013664	1.0017
3.704	20.114	-3.1052e+05	1834.8	0.0071248	-0.0022448	1.0024
3.706	20.099	-3.1052e+05	1834.7	0.0075152	-0.0031232	1.0032
3.708	20.122	-3.1052e+05	1834.6	0.0079056	-0.0040016	1.004
3.71	20.135	-3.1052e+05	1834.6	0.008296	-0.00488	1.0048
3.712	20.053	-3.1052e+05	1834.5	0.0086864	-0.005368	1.0039
3.714	19.982	-3.1053e+05	1834.4	0.0090768	-0.005856	1.003
3.716	19.881	-3.1052e+05	1834.4	0.0094672	-0.006344	1.0022
3.718	19.763	-3.1052e+05	1834.4	0.0098576	-0.006832	1.0013
3.72	19.807	-3.1053e+05	1834.4	0.010248	-0.00732	1.0004
3.722	19.887	-3.1054e+05	1834.4	0.010736	-0.0066368	1.0006
3.724	20.004	-3.1054e+05	1834.4	0.011224	-0.0059536	1.0008
3.726	20.14	-3.1054e+05	1834.4	0.011712	-0.0052704	1.001
3.728	20.12	-3.1054e+05	1834.4	0.0122	-0.0045872	1.0012
3.73	20.062	-3.1054e+05	1834.3	0.012688	-0.003904	1.0014
3.732	19.958	-3.1055e+05	1834.3	0.013078	-0.0027328	1.0003
3.734	19.8	-3.1055e+05	1834.3	0.013469	-0.0015616	0.99923
3.736	19.855	-3.1055e+05	1834.3	0.013859	-0.0003904	0.99816
3.738	19.942	-3.1055e+05	1834.3	0.01425	0.0007808	0.99708
3.74	20.026	-3.1055e+05	1834.3	0.01464	0.001952	0.99601
3.742	20.162	-3.1054e+05	1834.3	0.014542	0.0011712	0.99601
3.744	20.144	-3.1055e+05	1834.2	0.014445	0.0003904	0.99601
3.746	20.063	-3.1056e+05	1834.2	0.014347	-0.0003904	0.99601
3.748	19.988	-3.1056e+05	1834.2	0.01425	-0.0011712	0.99601
3.75	19.826	-3.1056e+05	1834.2	0.014152	-0.001952	0.99601
3.752	19.778	-3.1057e+05	1834.1	0.014738	-0.0006832	0.99523
3.754	19.842	-3.1057e+05	1834.1	0.015323	0.0005856	0.99445
3.756	19.926	-3.1057e+05	1834.1	0.015909	0.0018544	0.99367
3.758	20.045	-3.1057e+05	1834.1	0.016494	0.0031232	0.99288
3.76	20.073	-3.1058e+05	1834.1	0.01708	0.004392	0.9921
3.762	20.029	-3.1058e+05	1834	0.015909	0.003904	0.99152
3.764	20.013	-3.1058e+05	1833.9	0.014738	0.003416	0.99093
3.766	19.944	-3.1058e+05	1833.9	0.013566	0.002928	0.99035
3.768	19.88	-3.1058e+05	1833.8	0.012395	0.00244	0.98976
3.77	19.888	-3.1058e+05	1833.7	0.011224	0.001952	0.98918
3.772	19.93	-3.1059e+05	1833.6	0.011907	0.0016592	0.98986
3.774	20.033	-3.1059e+05	1833.6	0.01259	0.0013664	0.99054
3.776	20.11	-3.1059e+05	1833.5	0.013274	0.0010736	0.99123
3.778	20.078	-3.1058e+05	1833.4	0.013957	0.0007808	0.99191
3.78	20.032	-3.1059e+05	1833.3	0.01464	0.000488	0.99259
3.782	19.952	-3.1059e+05	1833.2	0.01425	-0.0012688	0.99298
3.784	19.82	-3.1059e+05	1833.1	0.013859	-0.0030256	0.99337
3.786	19.814	-3.1058e+05	1832.9	0.013469	-0.0047824	0.99376
3.788	19.921	-3.1059e+05	1832.8	0.013078	-0.0065392	0.99415
3.79	20.03	-3.106e+05	1832.7	0.012688	-0.008296	0.99454
3.792	20.137	-3.106e+05	1832.6	0.013566	-0.006832	0.99474
3.794	20.141	-3.106e+05	1832.5	0.014445	-0.005368	0.99493
3.796	20.049	-3.106e+05	1832.3	0.015323	-0.003904	0.99513
3.798	19.96	-3.106e+05	1832.2	0.016202	-0.00244	0.99532
3.8	19.839	-3.106e+05	1832.1	0.01708	-0.000976	0.99552
3.802	19.776	-3.1061e+05	1832	0.016397	-0.0012688	0.99523
3.804	19.831	-3.1061e+05	1831.9	0.015714	-0.0015616	0.99493
3.806	19.882	-3.1061e+05	1831.8	0.01503	-0.0018544	0.99464
3.808	20.018	-3.1061e+05	1831.7	0.014347	-0.0021472	0.99435
3.81	20.108	-3.1061e+05	1831.6	0.013664	-0.00244	0.99406
3.812	20.021	-3.1062e+05	1831.7	0.013078	-0.0028304	0.99532
3.814	19.945	-3.1062e+05	1831.7	0.012493	-0.0032208	0.99659
3.816	19.821	-3.1062e+05	1831.8	0.011907	-0.0036112	0.99786
3.818	19.704	-3.1062e+05	1831.9	0.011322	-0.0040016	0.99913
3.82	19.764	-3.1063e+05	1832.1	0.010736	-0.004392	1.0004
3.822	19.829	-3.1063e+05	1832.9	0.0095648	-0.0031232	1.0005
3.824	19.926	-3.1063e+05	1833.6	0.0083936	-0.0018544	1.0006
3.826	20.045	-3.1063e+05	1834.6	0.0072224	-0.0005856	1.0007
3.828	20.018	-3.1063e+05	1835.7	0.0060512	0.0006832	1.0008
3.83	19.954	-3.1063e+05	1836.9	0.00488	0.001952	1.0009
3.832	19.839	-3.1064e+05	1838.1	0.0046848	0.000976	1.0014
3.834	19.704	-3.1064e+05	1839.3	0.0044896	-2.1684e-19	1.0019
3.836	19.728	-3.1064e+05	1840.5	0.0042944	-0.000976	1.0024
3.838	19.784	-3.1064e+05	1841.6	0.0040992	-0.001952	1.0028
3.84	19.868	-3.1064e+05	1842.8	0.003904	-0.002928	1.0033
3.842	20.003	-3.1064e+05	1843.8	0.0037088	-0.003904	1.0037
3.844	20.005	-3.1064e+05	1844.8	0.0035136	-0.00488	1.0041
3.846	19.931	-3.1065e+05	1845.8	0.0033184	-0.005856	1.0045
3.848	19.852	-3.1065e+05	1846.6	0.0031232	-0.006832	1.0049
3.85	19.729	-3.1066e+05	1847.5	0.002928	-0.007808	1.0053
3.852	19.683	-3.1066e+05	1848.2	0.0021472	-0.0070272	1.0056
3.854	19.75	-3.1066e+05	1848.9	0.0013664	-0.0062464	1.0059
3.856	19.852	-3.1066e+05	1849.6	0.0005856	-0.0054656	1.0062
3.858	19.977	-3.1065e+05	1850.2	-0.0001952	-0.0046848	1.0065
3.86	20.037	-3.1066e+05	1850.7	-0.000976	-0.003904	1.0067
3.862	20.004	-3.1067e+05	1851.2	-0.0002928	-0.0033184	1.0069
3.864	19.944	-3.1067e+05	1851.6	0.0003904	-0.0027328	1.0071
3.866	19.83	-3.1066e+05	1852.1	0.0010736	-0.0021472	1.0073
3.868	19.727	-3.1066e+05	1852.5	0.0017568	-0.0015616	1.0075
3.87	19.749	-3.1067e+05	1852.9	0.00244	-0.000976	1.0077
3.872	19.831	-3.1067e+05	1853.2	0.0015616	-0.000976	1.0064
3.874	19.919	-3.1067e+05	1853.5	0.0006832	-0.000976	1.005
3.876	20.002	-3.1067e+05	1853.8	-0.0001952	-0.000976	1.0036
3.878	19.981	-3.1067e+05	1854.1	-0.0010736	-0.000976	1.0023
3.88	19.895	-3.1067e+05	1854.3	-0.001952	-0.000976	1.0009
3.882	19.804	-3.1067e+05	1854.4	-0.00244	-0.0013664	1.0015
3.884	19.705	-3.1066e+05	1854.6	-0.002928	-0.0017568	1.0021
3.886	19.739	-3.1065e+05	1854.8	-0.003416	-0.0021472	1.0026
3.888	19.811	-3.1065e+05	1854.9	-0.003904	-0.0025376	1.0032
3.89	19.853	-3.1065e+05	1855.1	-0.004392	-0.002928	1.0038
3.892	19.986	-3.1065e+05	1855.1	-0.001464	-0.0033184	1.0026
3.894	20.012	-3.1064e+05	1855.2	0.001464	-0.0037088	1.0015
3.896	19.932	-3.1064e+05	1855.2	0.004392	-0.0040992	1.0003
3.898	19.863	-3.1063e+05	1855.2	0.00732	-0.0044896	0.99913
3.9	19.706	-3.1063e+05	1855.2	0.010248	-0.00488	0.99796
3.902	19.652	-3.1063e+05	1855.2	0.010443	-0.0055632	0.99786
3.904	19.723	-3.1062e+05	1855.2	0.010638	-0.0062464	0.99776
3.906	19.771	-3.1061e+05	1855.1	0.010834	-0.0069296	0.99767
3.908	19.903	-3.1061e+05	1855	0.011029	-0.0076128	0.99757
3.91	19.938	-3.1061e+05	1854.9	0.011224	-0.008296	0.99747
3.912	19.849	-3.106e+05	1854.8	0.011712	-0.0070272	0.99747
3.914	19.783	-3.1058e+05	1854.7	0.0122	-0.0057584	0.99747
3.916	19.653	-3.1059e+05	1854.6	0.012688	-0.0044896	0.99747
3.918	19.568	-3.1059e+05	1854.5	0.013176	-0.0032208	0.99747
3.92	19.601	-3.1057e+05	1854.3	0.013664	-0.001952	0.99747
3.922	19.66	-3.1056e+05	1854.2	0.012883	-0.0020496	0.9962
3.924	19.767	-3.1056e+05	1854.1	0.012102	-0.0021472	0.99493
3.926	19.836	-3.1055e+05	1853.9	0.011322	-0.0022448	0.99367
3.928	19.791	-3.1054e+05	1853.7	0.010541	-0.0023424	0.9924
3.93	19.737	-3.1054e+05	1853.6	0.00976	-0.00244	0.99113
3.932	19.624	-3.1053e+05	1853.5	0.010346	-0.0023424	0.99171
3.934	19.49	-3.1052e+05	1853.4	0.010931	-0.0022448	0.9923
3.936	19.486	-3.1051e+05	1853.3	0.011517	-0.0021472	0.99288
3.938	19.545	-3.1049e+05	1853.2	0.012102	-0.0020496	0.99347
3.94	19.627	-3.1049e+05	1853	0.012688	-0.001952	0.99406
3.942	19.714	-3.1049e+05	1852.9	0.012981	-0.0021472	0.99454
3.944	19.702	-3.1048e+05	1852.7	0.013274	-0.0023424	0.99503
3.946	19.61	-3.1047e+05	1852.6	0.013566	-0.0025376	0.99552
3.948	19.505	-3.1046e+05	1852.5	0.013859	-0.0027328	0.99601
3.95	19.422	-3.1046e+05	1852.3	0.014152	-0.002928	0.9965
3.952	19.416	-3.1045e+05	1852.2	0.014542	-0.0033184	0.99611
3.954	19.445	-3.1044e+05	1852.1	0.014933	-0.0037088	0.99572
3.956	19.492	-3.1043e+05	1851.9	0.015323	-0.0040992	0.99532
3.958	19.621	-3.1042e+05	1851.8	0.015714	-0.0044896	0.99493
3.96	19.694	-3.1042e+05	1851.7	0.016104	-0.00488	0.99454
3.962	19.62	-3.1042e+05	1851.6	0.014738	-0.0054656	0.99425
3.964	19.538	-3.1041e+05	1851.5	0.013371	-0.0060512	0.99396
3.966	19.418	-3.104e+05	1851.4	0.012005	-0.0066368	0.99367
3.968	19.306	-3.1039e+05	1851.3	0.010638	-0.0072224	0.99337
3.97	19.341	-3.1037e+05	1851.3	0.009272	-0.007808	0.99308
3.972	19.398	-3.1037e+05	1851.1	0.0085888	-0.0080032	0.9921
3.974	19.494	-3.1037e+05	1851	0.0079056	-0.0081984	0.99113
3.976	19.631	-3.1036e+05	1850.9	0.0072224	-0.0083936	0.99015
3.978	19.57	-3.1036e+05	1850.8	0.0065392	-0.0085888	0.98918
3.98	19.464	-3.1034e+05	1850.7	0.005856	-0.008784	0.9882
3.982	19.398	-3.1033e+05	1850.6	0.0083936	-0.0081984	0.98986
3.984	19.276	-3.1033e+05	1850.6	0.010931	-0.0076128	0.99152
3.986	19.273	-3.1033e+05	1850.4	0.013469	-0.0070272	0.99318
3.988	19.319	-3.1032e+05	1850.3	0.016006	-0.0064416	0.99484
3.99	19.399	-3.1031e+05	1850.1	0.018544	-0.005856	0.9965
3.992	19.575	-3.103e+05	1850	0.018739	-0.0042944	0.9963
3.994	19.573	-3.1029e+05	1849.9	0.018934	-0.0027328	0.99611
3.996	19.487	-3.103e+05	1849.8	0.01913	-0.0011712	0.99591
3.998	19.416	-3.103e+05	1849.7	0.019325	0.0003904	0.99572
4	19.264	-3.1029e+05	1849.6	0.01952	0.001952	0.99552
4.002	19.223	-3.1028e+05	1849.4	0.019422	0.0011712	0.99591
4.004	19.27	-3.1027e+05	1849.3	0.019325	0.0003904	0.9963
4.006	19.34	-3.1027e+05	1849.2	0.019227	-0.0003904	0.99669
4.008	19.491	-3.1026e+05	1849.1	0.01913	-0.0011712	0.99708
4.01	19.536	-3.1025e+05	1849	0.019032	-0.001952	0.99747
4.012	19.47	-3.1024e+05	1848.9	0.017373	-0.003416	0.99757
4.014	19.41	-3.1024e+05	1848.8	0.015714	-0.00488	0.99767
4.016	19.284	-3.1023e+05	1848.7	0.014054	-0.006344	0.99776
4.018	19.207	-3.1023e+05	1848.6	0.012395	-0.007808	0.99786
4.02	19.245	-3.1022e+05	1848.6	0.010736	-0.009272	0.99796
4.022	19.313	-3.1022e+05	1848.5	0.010346	-0.0084912	0.99913
4.024	19.433	-3.1021e+05	1848.4	0.0099552	-0.0077104	1.0003
4.026	19.519	-3.1021e+05	1848.4	0.0095648	-0.0069296	1.0015
4.028	19.485	-3.1021e+05	1848.3	0.0091744	-0.0061488	1.0026
4.03	19.404	-3.1021e+05	1848.3	0.008784	-0.005368	1.0038
4.032	19.283	-3.1021e+05	1848.2	0.0084912	-0.0060512	1.0035
4.034	19.154	-3.1021e+05	1848.1	0.0081984	-0.0067344	1.0032
4.036	19.14	-3.102e+05	1847.9	0.0079056	-0.0074176	1.0029
4.038	19.223	-3.1019e+05	1847.8	0.0076128	-0.0081008	1.0026
4.04	19.346	-3.1018e+05	1847.7	0.00732	-0.008784	1.0024
4.042	19.477	-3.1017e+05	1847.5	0.0069296	-0.0076128	1.0034
4.044	19.494	-3.1017e+05	1847.4	0.0065392	-0.0064416	1.0045
4.046	19.4	-3.1016e+05	1847.2	0.0061488	-0.0052704	1.0056
4.048	19.303	-3.1016e+05	1847.1	0.0057584	-0.0040992	1.0066
4.05	19.187	-3.1016e+05	1846.9	0.005368	-0.002928	1.0077
4.052	19.162	-3.1016e+05	1846.8	0.0050752	-0.001952	1.007
4.054	19.252	-3.1016e+05	1846.7	0.0047824	-0.000976	1.0064
4.056	19.327	-3.1016e+05	1846.6	0.0044896	-2.2192e-13	1.0057
4.058	19.441	-3.1016e+05	1846.4	0.0041968	0.000976	1.005
4.06	19.509	-3.1015e+05	1846.3	0.003904	0.001952	1.0043
4.062	19.422	-3.1015e+05	1846.2	0.0051728	0.0002928	1.0038
4.064	19.335	-3.1014e+05	1846.1	0.0064416	-0.0013664	1.0033
4.066	19.232	-3.1014e+05	1845.9	0.0077104	-0.0030256	1.0028
4.068	19.154	-3.1014e+05	1845.7	0.0089792	-0.0046848	1.0024
4.07	19.2	-3.1014e+05	1845.5	0.010248	-0.006344	1.0019
4.072	19.258	-3.1013e+05	1845.3	0.0090768	-0.0057584	1.0024
4.074	19.35	-3.1012e+05	1845	0.0079056	-0.0051728	1.0028
4.076	19.468	-3.1012e+05	1844.8	0.0067344	-0.0045872	1.0033
4.078	19.421	-3.1012e+05	1844.5	0.0055632	-0.0040016	1.0038
4.08	19.357	-3.1012e+05	1844.2	0.004392	-0.003416	1.0043
4.082	19.26	-3.1012e+05	1844	0.00488	-0.0032208	1.0046
4.084	19.128	-3.1012e+05	1843.7	0.005368	-0.0030256	1.0049
4.086	19.145	-3.1012e+05	1843.4	0.005856	-0.0028304	1.0052
4.088	19.193	-3.1012e+05	1843.2	0.006344	-0.0026352	1.0055
4.09	19.272	-3.1012e+05	1842.9	0.006832	-0.00244	1.0058
4.092	19.404	-3.1011e+05	1842.7	0.0071248	-0.0021472	1.004
4.094	19.398	-3.1011e+05	1842.5	0.0074176	-0.0018544	1.0023
4.096	19.324	-3.1011e+05	1842.4	0.0077104	-0.0015616	1.0005
4.098	19.249	-3.1011e+05	1842.2	0.0080032	-0.0012688	0.99874
4.1	19.128	-3.1011e+05	1842	0.008296	-0.000976	0.99698
4.102	19.108	-3.1011e+05	1842	0.0071248	-0.0017568	0.99855
4.104	19.159	-3.1011e+05	1842	0.0059536	-0.0025376	1.0001
4.106	19.231	-3.1011e+05	1841.9	0.0047824	-0.0033184	1.0017
4.108	19.364	-3.101e+05	1841.9	0.0036112	-0.0040992	1.0032
4.11	19.395	-3.101e+05	1841.9	0.00244	-0.00488	1.0048
4.112	19.317	-3.101e+05	1841.9	0.0052704	-0.0052704	1.0032
4.114	19.234	-3.1011e+05	1842	0.0081008	-0.0056608	1.0017
4.116	19.132	-3.1011e+05	1842	0.010931	-0.0060512	1.0001
