t	ekg	optical	pressure	accel_x	accel_y	accel_z
4.5475e-13	18.502	-3.1912e+05	1880.2	-0.41822	0.11712	0.8906
0.002	18.613	-3.1913e+05	1880.1	-0.41919	0.11644	0.8907
0.004	18.81	-3.1913e+05	1880	-0.42017	0.11575	0.8908
0.006	19.064	-3.1914e+05	1879.9	-0.42114	0.11507	0.89089
0.008	19.083	-3.1914e+05	1879.9	-0.42212	0.11439	0.89099
0.01	18.97	-3.1915e+05	1879.8	-0.4231	0.1137	0.89109
0.012	18.831	-3.1915e+05	1879.7	-0.42046	0.11302	0.89011
0.014	18.582	-3.1915e+05	1879.6	-0.41783	0.11234	0.88914
0.016	18.5	-3.1915e+05	1879.5	-0.41519	0.11165	0.88816
0.018	18.587	-3.1915e+05	1879.5	-0.41256	0.11097	0.88718
0.02	18.711	-3.1915e+05	1879.5	-0.40992	0.11029	0.88621
0.022	19.003	-3.1915e+05	1879.4	-0.40943	0.11029	0.88621
0.024	19.132	-3.1915e+05	1879.4	-0.40894	0.11029	0.88621
0.026	19.063	-3.1915e+05	1879.4	-0.40846	0.11029	0.88621
0.028	18.928	-3.1916e+05	1879.4	-0.40797	0.11029	0.88621
0.03	18.62	-3.1916e+05	1879.3	-0.40748	0.11029	0.88621
0.032	18.46	-3.1916e+05	1879.3	-0.40816	0.11019	0.8867
0.034	18.531	-3.1916e+05	1879.2	-0.40885	0.11009	0.88718
0.036	18.618	-3.1916e+05	1879.2	-0.40953	0.11	0.88767
0.038	18.888	-3.1916e+05	1879.3	-0.41021	0.1099	0.88816
0.04	19.099	-3.1916e+05	1879.4	-0.4109	0.1098	0.88865
0.042	19.049	-3.1916e+05	1879.5	-0.41187	0.11126	0.88953
0.044	18.959	-3.1916e+05	1879.7	-0.41285	0.11273	0.8904
0.046	18.751	-3.1917e+05	1879.9	-0.41382	0.11419	0.89128
0.048	18.516	-3.1917e+05	1880.1	-0.4148	0.11566	0.89216
0.05	18.481	-3.1917e+05	1880.3	-0.41578	0.11712	0.89304
0.052	18.577	-3.1918e+05	1880.6	-0.41714	0.11673	0.89304
0.054	18.799	-3.1918e+05	1880.8	-0.41851	0.11634	0.89304
0.056	19.034	-3.1918e+05	1881.1	-0.41988	0.11595	0.89304
0.058	19.055	-3.1919e+05	1881.4	-0.42124	0.11556	0.89304
0.06	18.936	-3.1919e+05	1881.7	-0.42261	0.11517	0.89304
0.062	18.758	-3.1918e+05	1881.9	-0.42271	0.11448	0.89333
0.064	18.527	-3.1919e+05	1882.1	-0.4228	0.1138	0.89363
0.066	18.442	-3.1919e+05	1882.3	-0.4229	0.11312	0.89392
0.068	18.535	-3.192e+05	1882.5	-0.423	0.11244	0.89421
0.07	18.719	-3.192e+05	1882.6	-0.4231	0.11175	0.8945
0.072	18.958	-3.192e+05	1882.8	-0.42349	0.11204	0.89441
0.074	19.059	-3.1921e+05	1883	-0.42388	0.11234	0.89431
0.076	18.969	-3.1921e+05	1883.3	-0.42427	0.11263	0.89421
0.078	18.826	-3.1922e+05	1883.5	-0.42466	0.11292	0.89411
0.08	18.598	-3.1922e+05	1883.8	-0.42505	0.11322	0.89402
0.082	18.418	-3.1922e+05	1884	-0.42485	0.11292	0.89363
0.084	18.472	-3.1922e+05	1884.3	-0.42466	0.11263	0.89324
0.086	18.624	-3.1922e+05	1884.4	-0.42446	0.11234	0.89284
0.088	18.843	-3.1922e+05	1884.5	-0.42427	0.11204	0.89245
0.09	19.047	-3.1922e+05	1884.6	-0.42407	0.11175	0.89206
0.092	19.012	-3.1923e+05	1884.5	-0.42388	0.11244	0.89304
0.094	18.906	-3.1923e+05	1884.4	-0.42368	0.11312	0.89402
0.096	18.726	-3.1923e+05	1884.4	-0.42349	0.1138	0.89499
0.098	18.455	-3.1924e+05	1884.3	-0.42329	0.11448	0.89597
0.1	18.444	-3.1924e+05	1884.2	-0.4231	0.11517	0.89694
0.102	18.578	-3.1924e+05	1884.1	-0.423	0.11507	0.89704
0.104	18.735	-3.1924e+05	1884	-0.4229	0.11497	0.89714
0.106	19.008	-3.1924e+05	1883.9	-0.4228	0.11488	0.89724
0.108	19.031	-3.1924e+05	1883.8	-0.42271	0.11478	0.89733
0.11	18.933	-3.1925e+05	1883.7	-0.42261	0.11468	0.89743
0.112	18.772	-3.1925e+05	1883.6	-0.42319	0.11351	0.89636
0.114	18.482	-3.1926e+05	1883.4	-0.42378	0.11234	0.89528
0.116	18.437	-3.1926e+05	1883.3	-0.42436	0.11117	0.89421
0.118	18.536	-3.1927e+05	1883.1	-0.42495	0.11	0.89314
0.12	18.677	-3.1926e+05	1883	-0.42554	0.10882	0.89206
0.122	18.955	-3.1926e+05	1882.8	-0.42505	0.11019	0.89255
0.124	19.056	-3.1927e+05	1882.5	-0.42456	0.11156	0.89304
0.126	18.979	-3.1927e+05	1882.3	-0.42407	0.11292	0.89353
0.128	18.843	-3.1928e+05	1882.2	-0.42358	0.11429	0.89402
0.13	18.582	-3.1928e+05	1882	-0.4231	0.11566	0.8945
0.132	18.452	-3.1928e+05	1881.8	-0.42261	0.11605	0.89392
0.134	18.506	-3.1928e+05	1881.5	-0.42212	0.11644	0.89333
0.136	18.643	-3.1929e+05	1881.4	-0.42163	0.11683	0.89275
0.138	18.898	-3.193e+05	1881.2	-0.42114	0.11722	0.89216
0.14	19.057	-3.193e+05	1881.1	-0.42066	0.11761	0.89158
0.142	19.023	-3.1929e+05	1881	-0.42056	0.118	0.89187
0.144	18.92	-3.193e+05	1880.9	-0.42046	0.11839	0.89216
0.146	18.741	-3.1931e+05	1880.7	-0.42036	0.11878	0.89245
0.148	18.576	-3.1931e+05	1880.6	-0.42027	0.11917	0.89275
0.15	18.599	-3.1931e+05	1880.5	-0.42017	0.11956	0.89304
0.152	18.762	-3.1931e+05	1880.4	-0.4189	0.11897	0.89187
0.154	19.015	-3.1932e+05	1880.3	-0.41763	0.11839	0.8907
0.156	19.272	-3.1932e+05	1880.3	-0.41636	0.1178	0.88953
0.158	19.336	-3.1932e+05	1880.4	-0.41509	0.11722	0.88836
0.16	19.224	-3.1933e+05	1880.4	-0.41382	0.11663	0.88718
0.162	19.026	-3.1934e+05	1880.4	-0.41324	0.11624	0.8867
0.164	18.765	-3.1934e+05	1880.4	-0.41265	0.11585	0.88621
0.166	18.619	-3.1934e+05	1880.5	-0.41207	0.11546	0.88572
0.168	18.634	-3.1934e+05	1880.5	-0.41148	0.11507	0.88523
0.17	18.696	-3.1934e+05	1880.6	-0.4109	0.11468	0.88474
0.172	18.861	-3.1935e+05	1880.6	-0.41275	0.11536	0.88582
0.174	18.968	-3.1935e+05	1880.6	-0.4146	0.11605	0.88689
0.176	18.865	-3.1935e+05	1880.6	-0.41646	0.11673	0.88796
0.178	18.713	-3.1935e+05	1880.6	-0.41831	0.11741	0.88904
0.18	18.507	-3.1935e+05	1880.5	-0.42017	0.1181	0.89011
0.182	18.33	-3.1935e+05	1880.5	-0.42066	0.11819	0.89109
0.184	18.385	-3.1936e+05	1880.5	-0.42114	0.11829	0.89206
0.186	18.567	-3.1937e+05	1880.6	-0.42163	0.11839	0.89304
0.188	18.827	-3.1937e+05	1880.6	-0.42212	0.11849	0.89402
0.19	19.034	-3.1937e+05	1880.6	-0.42261	0.11858	0.89499
0.192	19.006	-3.1938e+05	1880.7	-0.42251	0.1179	0.89431
0.194	18.936	-3.194e+05	1880.8	-0.42241	0.11722	0.89363
0.196	18.725	-3.194e+05	1880.9	-0.42232	0.11653	0.89294
0.198	18.455	-3.194e+05	1881.1	-0.42222	0.11585	0.89226
0.2	18.466	-3.194e+05	1881.2	-0.42212	0.11517	0.89158
0.202	18.546	-3.1939e+05	1881.4	-0.42202	0.11595	0.89197
0.204	18.724	-3.194e+05	1881.5	-0.42192	0.11673	0.89236
0.206	19.013	-3.194e+05	1881.6	-0.42183	0.11751	0.89275
0.208	19.019	-3.1941e+05	1881.6	-0.42173	0.11829	0.89314
0.21	18.917	-3.1941e+05	1881.7	-0.42163	0.11907	0.89353
0.212	18.758	-3.1941e+05	1881.7	-0.42183	0.11839	0.89363
0.214	18.504	-3.1942e+05	1881.7	-0.42202	0.11771	0.89372
0.216	18.432	-3.1942e+05	1881.7	-0.42222	0.11702	0.89382
0.218	18.522	-3.1942e+05	1881.7	-0.42241	0.11634	0.89392
0.22	18.69	-3.1942e+05	1881.7	-0.42261	0.11566	0.89402
0.222	18.936	-3.1942e+05	1881.6	-0.42036	0.11624	0.89519
0.224	19.01	-3.1943e+05	1881.4	-0.41812	0.11683	0.89636
0.226	18.936	-3.1944e+05	1881.5	-0.41587	0.11741	0.89753
0.228	18.801	-3.1944e+05	1881.6	-0.41363	0.118	0.8987
0.23	18.555	-3.1944e+05	1881.8	-0.41138	0.11858	0.89987
0.232	18.415	-3.1944e+05	1882	-0.41265	0.11829	0.8988
0.234	18.482	-3.1944e+05	1882.1	-0.41392	0.118	0.89772
0.236	18.63	-3.1944e+05	1882.3	-0.41519	0.11771	0.89665
0.238	18.861	-3.1945e+05	1882.3	-0.41646	0.11741	0.89558
0.24	19.036	-3.1945e+05	1882.4	-0.41773	0.11712	0.8945
0.242	19.011	-3.1946e+05	1882.5	-0.41783	0.11702	0.8947
0.244	18.887	-3.1946e+05	1882.6	-0.41792	0.11692	0.89489
0.246	18.675	-3.1947e+05	1882.7	-0.41802	0.11683	0.89509
0.248	18.457	-3.1947e+05	1882.9	-0.41812	0.11673	0.89528
0.25	18.451	-3.1946e+05	1883	-0.41822	0.11663	0.89548
0.252	18.586	-3.1947e+05	1883.1	-0.41763	0.11732	0.89558
0.254	18.787	-3.1948e+05	1883.2	-0.41704	0.118	0.89568
0.256	19.028	-3.1948e+05	1883.3	-0.41646	0.11868	0.89577
0.258	19.07	-3.1948e+05	1883.2	-0.41587	0.11936	0.89587
0.26	18.934	-3.1949e+05	1883.2	-0.41529	0.12005	0.89597
0.262	18.745	-3.195e+05	1883.1	-0.41607	0.11995	0.89607
0.264	18.49	-3.195e+05	1883.1	-0.41685	0.11985	0.89616
0.266	18.414	-3.1951e+05	1883.1	-0.41763	0.11976	0.89626
0.268	18.53	-3.1951e+05	1883.1	-0.41841	0.11966	0.89636
0.27	18.677	-3.1951e+05	1883.1	-0.41919	0.11956	0.89646
0.272	18.97	-3.1951e+05	1883.2	-0.4188	0.11907	0.8948
0.274	19.104	-3.1952e+05	1883.3	-0.41841	0.11858	0.89314
0.276	18.99	-3.1952e+05	1883.5	-0.41802	0.1181	0.89148
0.278	18.86	-3.1953e+05	1883.8	-0.41763	0.11761	0.88982
0.28	18.587	-3.1953e+05	1884.1	-0.41724	0.11712	0.88816
0.282	18.4	-3.1953e+05	1884.4	-0.41646	0.11605	0.88865
0.284	18.499	-3.1953e+05	1884.8	-0.41568	0.11497	0.88914
0.286	18.628	-3.1954e+05	1885.2	-0.4149	0.1139	0.88962
0.288	18.854	-3.1953e+05	1885.6	-0.41412	0.11283	0.89011
0.29	19.05	-3.1953e+05	1886	-0.41334	0.11175	0.8906
0.292	18.998	-3.1954e+05	1886.5	-0.41617	0.11263	0.89158
0.294	18.904	-3.1955e+05	1886.9	-0.419	0.11351	0.89255
0.296	18.687	-3.1955e+05	1887.4	-0.42183	0.11439	0.89353
0.298	18.464	-3.1956e+05	1887.9	-0.42466	0.11527	0.8945
0.3	18.475	-3.1957e+05	1888.4	-0.42749	0.11614	0.89548
0.302	18.584	-3.1957e+05	1889	-0.42602	0.11683	0.89694
0.304	18.797	-3.1957e+05	1889.6	-0.42456	0.11751	0.89841
0.306	19.034	-3.1957e+05	1890.2	-0.4231	0.11819	0.89987
0.308	19.062	-3.1957e+05	1890.9	-0.42163	0.11888	0.90134
0.31	18.984	-3.1957e+05	1891.5	-0.42017	0.11956	0.9028
0.312	18.808	-3.1958e+05	1892.2	-0.41939	0.11985	0.9029
0.314	18.568	-3.1958e+05	1892.9	-0.41861	0.12015	0.903
0.316	18.489	-3.1958e+05	1893.4	-0.41783	0.12044	0.90309
0.318	18.577	-3.1958e+05	1893.9	-0.41704	0.12073	0.90319
0.32	18.77	-3.1958e+05	1894.4	-0.41626	0.12102	0.90329
0.322	19.037	-3.1958e+05	1894.7	-0.41783	0.11995	0.90056
0.324	19.141	-3.1958e+05	1895.1	-0.41939	0.11888	0.89782
0.326	19.042	-3.1958e+05	1895.3	-0.42095	0.1178	0.89509
0.328	18.895	-3.1958e+05	1895.5	-0.42251	0.11673	0.89236
0.33	18.694	-3.1957e+05	1895.7	-0.42407	0.11566	0.88962
0.332	18.555	-3.1958e+05	1895.8	-0.42349	0.11595	0.88953
0.334	18.611	-3.1958e+05	1896	-0.4229	0.11624	0.88943
0.336	18.757	-3.1957e+05	1896.1	-0.42232	0.11653	0.88933
0.338	18.977	-3.1957e+05	1896.3	-0.42173	0.11683	0.88923
0.34	19.17	-3.1956e+05	1896.4	-0.42114	0.11712	0.88914
0.342	19.135	-3.1956e+05	1896.6	-0.42085	0.11732	0.88865
0.344	19.028	-3.1956e+05	1896.7	-0.42056	0.11751	0.88816
0.346	18.859	-3.1956e+05	1896.8	-0.42027	0.11771	0.88767
0.348	18.628	-3.1956e+05	1896.9	-0.41997	0.1179	0.88718
0.35	18.617	-3.1956e+05	1896.9	-0.41968	0.1181	0.8867
0.352	18.733	-3.1955e+05	1896.9	-0.41988	0.11829	0.88757
0.354	18.905	-3.1954e+05	1896.8	-0.42007	0.11849	0.88845
0.356	19.139	-3.1953e+05	1896.8	-0.42027	0.11868	0.88933
0.358	19.178	-3.1952e+05	1896.7	-0.42046	0.11888	0.89021
0.36	19.096	-3.1953e+05	1896.7	-0.42066	0.11907	0.89109
0.362	18.971	-3.1953e+05	1896.6	-0.42095	0.11878	0.89089
0.364	18.671	-3.1953e+05	1896.6	-0.42124	0.11849	0.8907
0.366	18.607	-3.1952e+05	1896.4	-0.42153	0.11819	0.8905
0.368	18.717	-3.1952e+05	1896.2	-0.42183	0.1179	0.89031
0.37	18.819	-3.1952e+05	1895.9	-0.42212	0.11761	0.89011
0.372	19.114	-3.1951e+05	1895.6	-0.42056	0.11702	0.88884
0.374	19.22	-3.195e+05	1895.3	-0.419	0.11644	0.88757
0.376	19.13	-3.195e+05	1895	-0.41744	0.11585	0.88631
0.378	18.994	-3.1949e+05	1894.8	-0.41587	0.11527	0.88504
0.38	18.721	-3.1948e+05	1894.6	-0.41431	0.11468	0.88377
0.382	18.581	-3.1947e+05	1894.4	-0.41402	0.11439	0.88455
0.384	18.647	-3.1947e+05	1894.2	-0.41373	0.11409	0.88533
0.386	18.771	-3.1946e+05	1893.9	-0.41343	0.1138	0.88611
0.388	19.011	-3.1945e+05	1893.6	-0.41314	0.11351	0.88689
0.39	19.176	-3.1943e+05	1893.3	-0.41285	0.11322	0.88767
0.392	19.127	-3.1942e+05	1893	-0.41285	0.1138	0.88796
0.394	19.003	-3.1942e+05	1892.7	-0.41285	0.11439	0.88826
0.396	18.794	-3.1941e+05	1892.4	-0.41285	0.11497	0.88855
0.398	18.6	-3.1941e+05	1892.1	-0.41285	0.11556	0.88884
0.4	18.584	-3.194e+05	1891.8	-0.41285	0.11614	0.88914
0.402	18.676	-3.1939e+05	1891.5	-0.41246	0.11556	0.88865
0.404	18.88	-3.1939e+05	1891.2	-0.41207	0.11497	0.88816
0.406	19.104	-3.1938e+05	1890.9	-0.41168	0.11439	0.88767
0.408	19.131	-3.1938e+05	1890.6	-0.41129	0.1138	0.88718
0.41	19.025	-3.1937e+05	1890.3	-0.4109	0.11322	0.8867
0.412	18.855	-3.1936e+05	1890.1	-0.41021	0.11312	0.8865
0.414	18.626	-3.1935e+05	1889.9	-0.40953	0.11302	0.88631
0.416	18.512	-3.1934e+05	1889.7	-0.40885	0.11292	0.88611
0.418	18.56	-3.1934e+05	1889.6	-0.40816	0.11283	0.88592
0.42	18.71	-3.1933e+05	1889.5	-0.40748	0.11273	0.88572
0.422	18.959	-3.1933e+05	1889.3	-0.40982	0.11429	0.88748
0.424	19.091	-3.1932e+05	1889.1	-0.41216	0.11585	0.88923
0.426	18.995	-3.1931e+05	1889	-0.41451	0.11741	0.89099
0.428	18.842	-3.193e+05	1888.9	-0.41685	0.11897	0.89275
0.43	18.622	-3.1929e+05	1888.8	-0.41919	0.12054	0.8945
0.432	18.456	-3.1929e+05	1888.7	-0.41909	0.12093	0.89538
0.434	18.504	-3.1928e+05	1888.5	-0.419	0.12132	0.89626
0.436	18.64	-3.1927e+05	1888.4	-0.4189	0.12171	0.89714
0.438	18.883	-3.1927e+05	1888.3	-0.4188	0.1221	0.89802
0.44	19.138	-3.1926e+05	1888.2	-0.4187	0.12249	0.8989
0.442	19.107	-3.1926e+05	1888	-0.41831	0.12239	0.8986
0.444	18.968	-3.1926e+05	1887.8	-0.41792	0.12229	0.89831
0.446	18.757	-3.1925e+05	1887.6	-0.41753	0.1222	0.89802
0.448	18.433	-3.1924e+05	1887.5	-0.41714	0.1221	0.89772
0.45	18.433	-3.1923e+05	1887.4	-0.41675	0.122	0.89743
0.452	18.606	-3.1923e+05	1887.3	-0.41665	0.122	0.89782
0.454	18.764	-3.1922e+05	1887.2	-0.41656	0.122	0.89821
0.456	19.021	-3.1921e+05	1887	-0.41646	0.122	0.8986
0.458	19.011	-3.1921e+05	1886.9	-0.41636	0.122	0.89899
0.46	18.908	-3.192e+05	1886.7	-0.41626	0.122	0.89938
0.462	18.765	-3.192e+05	1886.6	-0.41578	0.12122	0.89772
0.464	18.489	-3.1919e+05	1886.5	-0.41529	0.12044	0.89607
0.466	18.434	-3.1919e+05	1886.4	-0.4148	0.11966	0.89441
0.468	18.539	-3.1918e+05	1886.3	-0.41431	0.11888	0.89275
0.47	18.696	-3.1917e+05	1886.3	-0.41382	0.1181	0.89109
0.472	18.972	-3.1917e+05	1886.2	-0.4148	0.11829	0.89226
0.474	19.074	-3.1916e+05	1886.2	-0.41578	0.11849	0.89343
0.476	18.976	-3.1916e+05	1886.1	-0.41675	0.11868	0.8946
0.478	18.816	-3.1915e+05	1886.1	-0.41773	0.11888	0.89577
0.48	18.572	-3.1914e+05	1886	-0.4187	0.11907	0.89694
0.482	18.445	-3.1914e+05	1886	-0.41861	0.11858	0.89646
0.484	18.505	-3.1914e+05	1886	-0.41851	0.1181	0.89597
0.486	18.636	-3.1913e+05	1886	-0.41841	0.11761	0.89548
0.488	18.859	-3.1913e+05	1886	-0.41831	0.11712	0.89499
0.49	19.025	-3.1912e+05	1886	-0.41822	0.11663	0.8945
0.492	19.009	-3.1912e+05	1886.1	-0.4188	0.11732	0.89411
0.494	18.911	-3.1911e+05	1886.1	-0.41939	0.118	0.89372
0.496	18.709	-3.1911e+05	1886.2	-0.41997	0.11868	0.89333
0.498	18.499	-3.1911e+05	1886.3	-0.42056	0.11936	0.89294
0.5	18.501	-3.191e+05	1886.4	-0.42114	0.12005	0.89255
0.502	18.629	-3.191e+05	1886.5	-0.42183	0.11927	0.89343
0.504	18.803	-3.191e+05	1886.6	-0.42251	0.11849	0.89431
0.506	19.017	-3.1909e+05	1886.7	-0.42319	0.11771	0.89519
0.508	19.081	-3.1909e+05	1886.8	-0.42388	0.11692	0.89607
0.51	18.978	-3.1908e+05	1886.9	-0.42456	0.11614	0.89694
0.512	18.786	-3.1908e+05	1886.9	-0.42476	0.11566	0.89636
0.514	18.498	-3.1907e+05	1886.9	-0.42495	0.11517	0.89577
0.516	18.398	-3.1907e+05	1887	-0.42515	0.11468	0.89519
0.518	18.525	-3.1907e+05	1887.1	-0.42534	0.11419	0.8946
0.52	18.687	-3.1907e+05	1887.1	-0.42554	0.1137	0.89402
0.522	18.946	-3.1907e+05	1887.1	-0.42515	0.114	0.89343
0.524	19.072	-3.1907e+05	1887	-0.42476	0.11429	0.89284
0.526	18.967	-3.1907e+05	1887	-0.42436	0.11458	0.89226
0.528	18.829	-3.1906e+05	1886.9	-0.42397	0.11488	0.89167
0.53	18.594	-3.1905e+05	1886.8	-0.42358	0.11517	0.89109
0.532	18.433	-3.1905e+05	1886.6	-0.42397	0.11566	0.89158
0.534	18.521	-3.1905e+05	1886.5	-0.42436	0.11614	0.89206
0.536	18.663	-3.1905e+05	1886.3	-0.42476	0.11663	0.89255
0.538	18.897	-3.1905e+05	1886.1	-0.42515	0.11712	0.89304
0.54	19.07	-3.1905e+05	1885.9	-0.42554	0.11761	0.89353
0.542	18.97	-3.1904e+05	1885.8	-0.42368	0.11761	0.89265
0.544	18.855	-3.1904e+05	1885.6	-0.42183	0.11761	0.89177
0.546	18.641	-3.1904e+05	1885.4	-0.41997	0.11761	0.89089
0.548	18.413	-3.1904e+05	1885.2	-0.41812	0.11761	0.89001
0.55	18.43	-3.1904e+05	1885	-0.41626	0.11761	0.88914
0.552	18.543	-3.1904e+05	1884.9	-0.41724	0.118	0.88982
0.554	18.776	-3.1904e+05	1884.8	-0.41822	0.11839	0.8905
0.556	19.06	-3.1903e+05	1884.6	-0.41919	0.11878	0.89119
0.558	19.083	-3.1903e+05	1884.5	-0.42017	0.11917	0.89187
0.56	18.983	-3.1902e+05	1884.3	-0.42114	0.11956	0.89255
0.562	18.802	-3.1902e+05	1884.2	-0.42114	0.11956	0.89294
0.564	18.544	-3.1902e+05	1884.1	-0.42114	0.11956	0.89333
0.566	18.477	-3.1903e+05	1884	-0.42114	0.11956	0.89372
0.568	18.548	-3.1903e+05	1883.9	-0.42114	0.11956	0.89411
0.57	18.673	-3.1903e+05	1883.9	-0.42114	0.11956	0.8945
0.572	18.895	-3.1903e+05	1883.9	-0.42105	0.11907	0.89382
0.574	19.013	-3.1904e+05	1883.9	-0.42095	0.11858	0.89314
0.576	18.965	-3.1903e+05	1884	-0.42085	0.1181	0.89245
0.578	18.834	-3.1902e+05	1884	-0.42075	0.11761	0.89177
0.58	18.604	-3.1902e+05	1884.1	-0.42066	0.11712	0.89109
0.582	18.446	-3.1902e+05	1884.1	-0.42095	0.11634	0.89021
0.584	18.485	-3.1902e+05	1884.1	-0.42124	0.11556	0.88933
0.586	18.608	-3.1901e+05	1884.2	-0.42153	0.11478	0.88845
0.588	18.82	-3.1901e+05	1884.2	-0.42183	0.114	0.88757
0.59	19.021	-3.1901e+05	1884.3	-0.42212	0.11322	0.8867
0.592	18.999	-3.1902e+05	1884.4	-0.42251	0.1139	0.88806
0.594	18.864	-3.1902e+05	1884.4	-0.4229	0.11458	0.88943
0.596	18.67	-3.1902e+05	1884.5	-0.42329	0.11527	0.8908
0.598	18.459	-3.1902e+05	1884.5	-0.42368	0.11595	0.89216
0.6	18.452	-3.1902e+05	1884.5	-0.42407	0.11663	0.89353
0.602	18.561	-3.1902e+05	1884.6	-0.42232	0.11663	0.89304
0.604	18.735	-3.1903e+05	1884.6	-0.42056	0.11663	0.89255
0.606	18.993	-3.1903e+05	1884.6	-0.4188	0.11663	0.89206
0.608	19.049	-3.1903e+05	1884.6	-0.41704	0.11663	0.89158
0.61	18.941	-3.1903e+05	1884.6	-0.41529	0.11663	0.89109
0.612	18.78	-3.1903e+05	1884.6	-0.41392	0.11585	0.8907
0.614	18.496	-3.1902e+05	1884.6	-0.41256	0.11507	0.89031
0.616	18.409	-3.1903e+05	1884.6	-0.41119	0.11429	0.88992
0.618	18.522	-3.1903e+05	1884.5	-0.40982	0.11351	0.88953
0.62	18.638	-3.1903e+05	1884.5	-0.40846	0.11273	0.88914
0.622	18.914	-3.1902e+05	1884.3	-0.4108	0.11419	0.89021
0.624	19.046	-3.1903e+05	1884.2	-0.41314	0.11566	0.89128
0.626	18.945	-3.1904e+05	1884.1	-0.41548	0.11712	0.89236
0.628	18.83	-3.1903e+05	1884	-0.41783	0.11858	0.89343
0.63	18.58	-3.1903e+05	1883.9	-0.42017	0.12005	0.8945
0.632	18.395	-3.1902e+05	1883.9	-0.41831	0.11946	0.89558
0.634	18.447	-3.1902e+05	1883.8	-0.41646	0.11888	0.89665
0.636	18.586	-3.1903e+05	1883.7	-0.4146	0.11829	0.89772
0.638	18.864	-3.1904e+05	1883.7	-0.41275	0.11771	0.8988
0.64	19.047	-3.1904e+05	1883.7	-0.4109	0.11712	0.89987
0.642	18.972	-3.1904e+05	1883.8	-0.41285	0.1181	0.89948
0.644	18.853	-3.1904e+05	1883.8	-0.4148	0.11907	0.89909
0.646	18.652	-3.1904e+05	1883.9	-0.41675	0.12005	0.8987
0.648	18.463	-3.1904e+05	1884	-0.4187	0.12102	0.89831
0.65	18.442	-3.1904e+05	1884.1	-0.42066	0.122	0.89792
0.652	18.521	-3.1904e+05	1884.2	-0.42153	0.12034	0.89675
0.654	18.732	-3.1904e+05	1884.2	-0.42241	0.11868	0.89558
0.656	18.974	-3.1904e+05	1884.3	-0.42329	0.11702	0.89441
0.658	19.016	-3.1904e+05	1884.3	-0.42417	0.11536	0.89324
0.66	18.922	-3.1905e+05	1884.4	-0.42505	0.1137	0.89206
0.662	18.738	-3.1906e+05	1884.5	-0.42417	0.1138	0.89197
0.664	18.505	-3.1905e+05	1884.5	-0.42329	0.1139	0.89187
0.666	18.452	-3.1905e+05	1884.6	-0.42241	0.114	0.89177
0.668	18.551	-3.1906e+05	1884.7	-0.42153	0.11409	0.89167
0.67	18.656	-3.1907e+05	1884.7	-0.42066	0.11419	0.89158
0.672	18.818	-3.1906e+05	1884.8	-0.42075	0.11527	0.89245
0.674	18.941	-3.1905e+05	1884.9	-0.42085	0.11634	0.89333
0.676	18.911	-3.1905e+05	1885.1	-0.42095	0.11741	0.89421
0.678	18.8	-3.1906e+05	1885.3	-0.42105	0.11849	0.89509
0.68	18.596	-3.1906e+05	1885.5	-0.42114	0.11956	0.89597
0.682	18.424	-3.1906e+05	1885.6	-0.42007	0.11858	0.8947
0.684	18.465	-3.1907e+05	1885.8	-0.419	0.11761	0.89343
0.686	18.592	-3.1907e+05	1886	-0.41792	0.11663	0.89216
0.688	18.812	-3.1906e+05	1886.1	-0.41685	0.11566	0.89089
0.69	19.038	-3.1906e+05	1886.2	-0.41578	0.11468	0.88962
0.692	19.002	-3.1907e+05	1886.3	-0.41695	0.11546	0.89089
0.694	18.885	-3.1908e+05	1886.4	-0.41812	0.11624	0.89216
0.696	18.694	-3.1908e+05	1886.5	-0.41929	0.11702	0.89343
0.698	18.445	-3.1907e+05	1886.7	-0.42046	0.1178	0.8947
0.7	18.457	-3.1907e+05	1886.8	-0.42163	0.11858	0.89597
0.702	18.561	-3.1907e+05	1886.9	-0.42144	0.11829	0.89509
0.704	18.733	-3.1908e+05	1887	-0.42124	0.118	0.89421
0.706	19.043	-3.1909e+05	1887.1	-0.42105	0.11771	0.89333
0.708	19.053	-3.1908e+05	1887.2	-0.42085	0.11741	0.89245
0.71	18.942	-3.1908e+05	1887.4	-0.42066	0.11712	0.89158
0.712	18.798	-3.1907e+05	1887.5	-0.42046	0.11751	0.89138
0.714	18.512	-3.1907e+05	1887.7	-0.42027	0.1179	0.89119
0.716	18.442	-3.1907e+05	1887.9	-0.42007	0.11829	0.89099
0.718	18.536	-3.1907e+05	1888.1	-0.41988	0.11868	0.8908
0.72	18.667	-3.1908e+05	1888.3	-0.41968	0.11907	0.8906
0.722	18.952	-3.1909e+05	1888.5	-0.41988	0.11897	0.89089
0.724	19.049	-3.1909e+05	1888.7	-0.42007	0.11888	0.89119
0.726	18.948	-3.1909e+05	1888.9	-0.42027	0.11878	0.89148
0.728	18.798	-3.191e+05	1889	-0.42046	0.11868	0.89177
0.73	18.559	-3.191e+05	1889.1	-0.42066	0.11858	0.89206
0.732	18.45	-3.1911e+05	1889.2	-0.42036	0.1178	0.89167
0.734	18.526	-3.1911e+05	1889.3	-0.42007	0.11702	0.89128
0.736	18.655	-3.1911e+05	1889.4	-0.41978	0.11624	0.89089
0.738	18.899	-3.1911e+05	1889.5	-0.41948	0.11546	0.8905
0.74	19.035	-3.1911e+05	1889.7	-0.41919	0.11468	0.89011
0.742	18.97	-3.1912e+05	1889.9	-0.42017	0.11536	0.89099
0.744	18.864	-3.1911e+05	1890	-0.42114	0.11605	0.89187
0.746	18.678	-3.1911e+05	1890.2	-0.42212	0.11673	0.89275
0.748	18.491	-3.1911e+05	1890.4	-0.4231	0.11741	0.89363
0.75	18.473	-3.1911e+05	1890.5	-0.42407	0.1181	0.8945
0.752	18.543	-3.1912e+05	1890.7	-0.42407	0.11771	0.89402
0.754	18.707	-3.1912e+05	1890.9	-0.42407	0.11732	0.89353
0.756	18.947	-3.1912e+05	1891.1	-0.42407	0.11692	0.89304
0.758	19.01	-3.1912e+05	1891.3	-0.42407	0.11653	0.89255
0.76	18.902	-3.1913e+05	1891.4	-0.42407	0.11614	0.89206
0.762	18.738	-3.1913e+05	1891.6	-0.42417	0.11614	0.89226
0.764	18.507	-3.1913e+05	1891.8	-0.42427	0.11614	0.89245
0.766	18.411	-3.1913e+05	1892.1	-0.42436	0.11614	0.89265
0.768	18.504	-3.1913e+05	1892.4	-0.42446	0.11614	0.89284
0.77	18.658	-3.1913e+05	1892.7	-0.42456	0.11614	0.89304
0.772	18.873	-3.1913e+05	1893	-0.42388	0.11702	0.89314
0.774	18.986	-3.1914e+05	1893.3	-0.42319	0.1179	0.89324
0.776	18.923	-3.1913e+05	1893.5	-0.42251	0.11878	0.89333
0.778	18.805	-3.1913e+05	1893.7	-0.42183	0.11966	0.89343
0.78	18.58	-3.1914e+05	1893.8	-0.42114	0.12054	0.89353
0.782	18.379	-3.1914e+05	1893.8	-0.42202	0.11946	0.89343
0.784	18.432	-3.1915e+05	1893.8	-0.4229	0.11839	0.89333
0.786	18.58	-3.1915e+05	1893.8	-0.42378	0.11732	0.89324
0.788	18.802	-3.1916e+05	1893.9	-0.42466	0.11624	0.89314
0.79	19.018	-3.1916e+05	1894	-0.42554	0.11517	0.89304
0.792	18.946	-3.1916e+05	1894.2	-0.42515	0.11556	0.89363
0.794	18.834	-3.1915e+05	1894.4	-0.42476	0.11595	0.89421
0.796	18.631	-3.1915e+05	1894.5	-0.42436	0.11634	0.8948
0.798	18.387	-3.1916e+05	1894.7	-0.42397	0.11673	0.89538
0.8	18.421	-3.1916e+05	1894.9	-0.42358	0.11712	0.89597
0.802	18.491	-3.1916e+05	1895	-0.42329	0.11722	0.89568
0.804	18.69	-3.1916e+05	1895.2	-0.423	0.11732	0.89538
0.806	18.974	-3.1916e+05	1895.3	-0.42271	0.11741	0.89509
0.808	18.966	-3.1917e+05	1895.4	-0.42241	0.11751	0.8948
0.81	18.865	-3.1917e+05	1895.5	-0.42212	0.11761	0.8945
0.812	18.719	-3.1917e+05	1895.5	-0.42153	0.11829	0.8945
0.814	18.469	-3.1918e+05	1895.4	-0.42095	0.11897	0.8945
0.816	18.395	-3.1918e+05	1895.3	-0.42036	0.11966	0.8945
0.818	18.465	-3.1918e+05	1895.2	-0.41978	0.12034	0.8945
0.82	18.643	-3.1918e+05	1895.1	-0.41919	0.12102	0.8945
0.822	18.922	-3.1919e+05	1895.1	-0.41997	0.11976	0.89382
0.824	19.024	-3.1918e+05	1895	-0.42075	0.11849	0.89314
0.826	18.925	-3.1918e+05	1895.1	-0.42153	0.11722	0.89245
0.828	18.765	-3.1918e+05	1895.1	-0.42232	0.11595	0.89177
0.83	18.528	-3.1919e+05	1895.2	-0.4231	0.11468	0.89109
0.832	18.383	-3.1919e+05	1895.3	-0.42339	0.11478	0.89089
0.834	18.434	-3.192e+05	1895.3	-0.42368	0.11488	0.8907
0.836	18.567	-3.192e+05	1895.4	-0.42397	0.11497	0.8905
0.838	18.804	-3.192e+05	1895.6	-0.42427	0.11507	0.89031
0.84	19.022	-3.192e+05	1895.8	-0.42456	0.11517	0.89011
0.842	19.011	-3.192e+05	1896	-0.42456	0.11517	0.89109
0.844	18.879	-3.192e+05	1896.2	-0.42456	0.11517	0.89206
0.846	18.699	-3.192e+05	1896.4	-0.42456	0.11517	0.89304
0.848	18.523	-3.192e+05	1896.6	-0.42456	0.11517	0.89402
0.85	18.551	-3.192e+05	1896.8	-0.42456	0.11517	0.89499
0.852	18.715	-3.192e+05	1896.9	-0.42397	0.11556	0.89499
0.854	18.944	-3.192e+05	1896.9	-0.42339	0.11595	0.89499
0.856	19.233	-3.1921e+05	1897	-0.4228	0.11634	0.89499
0.858	19.302	-3.1922e+05	1897.1	-0.42222	0.11673	0.89499
0.86	19.21	-3.1922e+05	1897.1	-0.42163	0.11712	0.89499
0.862	19.055	-3.1922e+05	1897.1	-0.42251	0.11585	0.8948
0.864	18.793	-3.1922e+05	1897.1	-0.42339	0.11458	0.8946
0.866	18.666	-3.1922e+05	1897.1	-0.42427	0.11331	0.89441
0.868	18.701	-3.1923e+05	1897.3	-0.42515	0.11204	0.89421
0.87	18.754	-3.1924e+05	1897.5	-0.42602	0.11078	0.89402
0.872	18.909	-3.1924e+05	1897.6	-0.42593	0.11048	0.89431
0.874	18.953	-3.1924e+05	1897.8	-0.42583	0.11019	0.8946
0.876	18.832	-3.1924e+05	1897.8	-0.42573	0.1099	0.89489
0.878	18.727	-3.1924e+05	1897.7	-0.42563	0.1096	0.89519
0.88	18.448	-3.1924e+05	1897.6	-0.42554	0.10931	0.89548
0.882	18.233	-3.1925e+05	1897.4	-0.42573	0.11019	0.89499
0.884	18.342	-3.1925e+05	1897.3	-0.42593	0.11107	0.8945
0.886	18.491	-3.1926e+05	1897.3	-0.42612	0.11195	0.89402
0.888	18.763	-3.1926e+05	1897.2	-0.42632	0.11283	0.89353
0.89	19.002	-3.1926e+05	1897.2	-0.42651	0.1137	0.89304
0.892	18.953	-3.1927e+05	1897.1	-0.42573	0.11448	0.89314
0.894	18.841	-3.1928e+05	1897	-0.42495	0.11527	0.89324
0.896	18.618	-3.1929e+05	1897	-0.42417	0.11605	0.89333
0.898	18.398	-3.1929e+05	1896.9	-0.42339	0.11683	0.89343
0.9	18.396	-3.1929e+05	1896.9	-0.42261	0.11761	0.89353
0.902	18.494	-3.1929e+05	1896.7	-0.42202	0.11712	0.89324
0.904	18.706	-3.1928e+05	1896.5	-0.42144	0.11663	0.89294
0.906	18.94	-3.1927e+05	1896.3	-0.42085	0.11614	0.89265
0.908	18.954	-3.1928e+05	1896.1	-0.42027	0.11566	0.89236
0.91	18.848	-3.1928e+05	1895.9	-0.41968	0.11517	0.89206
0.912	18.683	-3.1928e+05	1895.6	-0.42036	0.11605	0.89245
0.914	18.453	-3.1929e+05	1895.3	-0.42105	0.11692	0.89284
0.916	18.367	-3.1929e+05	1895	-0.42173	0.1178	0.89324
0.918	18.442	-3.193e+05	1894.8	-0.42241	0.11868	0.89363
0.92	18.596	-3.193e+05	1894.5	-0.4231	0.11956	0.89402
0.922	18.822	-3.193e+05	1894.4	-0.42202	0.11946	0.89353
0.924	18.932	-3.1931e+05	1894.2	-0.42095	0.11936	0.89304
0.926	18.859	-3.1931e+05	1894.1	-0.41988	0.11927	0.89255
0.928	18.729	-3.1931e+05	1894	-0.4188	0.11917	0.89206
0.93	18.523	-3.1931e+05	1893.9	-0.41773	0.11907	0.89158
0.932	18.364	-3.1931e+05	1893.8	-0.41626	0.11907	0.89138
0.934	18.421	-3.1932e+05	1893.6	-0.4148	0.11907	0.89119
0.936	18.566	-3.1932e+05	1893.4	-0.41334	0.11907	0.89099
0.938	18.783	-3.1932e+05	1893.3	-0.41187	0.11907	0.8908
0.94	18.988	-3.1933e+05	1893.1	-0.41041	0.11907	0.8906
0.942	18.957	-3.1933e+05	1892.8	-0.41099	0.11888	0.89031
0.944	18.815	-3.1934e+05	1892.6	-0.41158	0.11868	0.89001
0.946	18.618	-3.1934e+05	1892.4	-0.41216	0.11849	0.88972
0.948	18.38	-3.1935e+05	1892.3	-0.41275	0.11829	0.88943
0.95	18.373	-3.1937e+05	1892.1	-0.41334	0.1181	0.88914
0.952	18.489	-3.1937e+05	1892	-0.41334	0.11771	0.88806
0.954	18.652	-3.1938e+05	1891.8	-0.41334	0.11732	0.88699
0.956	18.906	-3.1937e+05	1891.7	-0.41334	0.11692	0.88592
0.958	18.949	-3.1937e+05	1891.5	-0.41334	0.11653	0.88484
0.96	18.869	-3.1937e+05	1891.3	-0.41334	0.11614	0.88377
0.962	18.747	-3.1938e+05	1891	-0.41197	0.11741	0.88445
0.964	18.471	-3.1938e+05	1890.7	-0.4106	0.11868	0.88513
0.966	18.404	-3.1938e+05	1890.4	-0.40924	0.11995	0.88582
0.968	18.492	-3.1938e+05	1890.1	-0.40787	0.12122	0.8865
0.97	18.601	-3.1938e+05	1889.8	-0.4065	0.12249	0.88718
0.972	18.865	-3.1938e+05	1889.6	-0.40953	0.12151	0.88875
0.974	18.944	-3.1938e+05	1889.4	-0.41256	0.12054	0.89031
0.976	18.872	-3.1938e+05	1889.3	-0.41558	0.11956	0.89187
0.978	18.785	-3.1939e+05	1889.3	-0.41861	0.11858	0.89343
0.98	18.547	-3.194e+05	1889.3	-0.42163	0.11761	0.89499
0.982	18.391	-3.1941e+05	1889.5	-0.42124	0.1179	0.89411
0.984	18.4	-3.194e+05	1889.7	-0.42085	0.11819	0.89324
0.986	18.492	-3.1939e+05	1890	-0.42046	0.11849	0.89236
0.988	18.762	-3.194e+05	1890.3	-0.42007	0.11878	0.89148
0.99	18.961	-3.1941e+05	1890.7	-0.41968	0.11907	0.8906
0.992	18.933	-3.1941e+05	1891.3	-0.42017	0.11849	0.8908
0.994	18.823	-3.1941e+05	1891.8	-0.42066	0.1179	0.89099
0.996	18.621	-3.1942e+05	1892.3	-0.42114	0.11732	0.89119
0.998	18.438	-3.1943e+05	1892.8	-0.42163	0.11673	0.89138
1	18.443	-3.1943e+05	1893.3	-0.42212	0.11614	0.89158
1.002	18.561	-3.1943e+05	1894	-0.42349	0.11575	0.89206
1.004	18.763	-3.1943e+05	1894.6	-0.42485	0.11536	0.89255
1.006	18.97	-3.1943e+05	1895.2	-0.42622	0.11497	0.89304
1.008	18.988	-3.1944e+05	1895.8	-0.42759	0.11458	0.89353
1.01	18.884	-3.1944e+05	1896.5	-0.42895	0.11419	0.89402
1.012	18.729	-3.1945e+05	1897	-0.42885	0.11361	0.89392
1.014	18.497	-3.1945e+05	1897.6	-0.42876	0.11302	0.89382
1.016	18.395	-3.1945e+05	1898.1	-0.42866	0.11244	0.89372
1.018	18.493	-3.1946e+05	1898.6	-0.42856	0.11185	0.89363
1.02	18.663	-3.1946e+05	1899.1	-0.42846	0.11126	0.89353
1.022	18.904	-3.1945e+05	1899.4	-0.427	0.11146	0.89265
1.024	19.045	-3.1945e+05	1899.8	-0.42554	0.11165	0.89177
1.026	18.99	-3.1945e+05	1900.1	-0.42407	0.11185	0.89089
1.028	18.878	-3.1945e+05	1900.4	-0.42261	0.11204	0.89001
1.03	18.667	-3.1946e+05	1900.7	-0.42114	0.11224	0.88914
1.032	18.479	-3.1946e+05	1900.8	-0.42251	0.11302	0.8905
1.034	18.513	-3.1946e+05	1901	-0.42388	0.1138	0.89187
1.036	18.62	-3.1945e+05	1901.1	-0.42524	0.11458	0.89324
1.038	18.859	-3.1945e+05	1901.2	-0.42661	0.11536	0.8946
1.04	19.101	-3.1945e+05	1901.3	-0.42798	0.11614	0.89597
1.042	19.051	-3.1944e+05	1901.4	-0.42739	0.11527	0.8948
1.044	18.95	-3.1944e+05	1901.4	-0.4268	0.11439	0.89363
1.046	18.769	-3.1944e+05	1901.4	-0.42622	0.11351	0.89245
1.048	18.51	-3.1944e+05	1901.3	-0.42563	0.11263	0.89128
1.05	18.533	-3.1944e+05	1901.3	-0.42505	0.11175	0.89011
1.052	18.638	-3.1943e+05	1901.2	-0.42417	0.11273	0.89001
1.054	18.823	-3.1942e+05	1901	-0.42329	0.1137	0.88992
1.056	19.114	-3.1942e+05	1900.9	-0.42241	0.11468	0.88982
1.058	19.146	-3.1941e+05	1900.7	-0.42153	0.11566	0.88972
1.06	19.062	-3.194e+05	1900.5	-0.42066	0.11663	0.88962
1.062	18.914	-3.194e+05	1900.3	-0.42105	0.11692	0.8904
1.064	18.606	-3.194e+05	1900.1	-0.42144	0.11722	0.89119
1.066	18.535	-3.194e+05	1900	-0.42183	0.11751	0.89197
1.068	18.646	-3.1939e+05	1899.8	-0.42222	0.1178	0.89275
1.07	18.773	-3.1938e+05	1899.7	-0.42261	0.1181	0.89353
1.072	19.019	-3.1938e+05	1899.5	-0.42183	0.11917	0.89265
1.074	19.122	-3.1938e+05	1899.4	-0.42105	0.12024	0.89177
1.076	19.042	-3.1937e+05	1899.2	-0.42027	0.12132	0.89089
1.078	18.921	-3.1936e+05	1899.1	-0.41948	0.12239	0.89001
1.08	18.689	-3.1936e+05	1899	-0.4187	0.12346	0.88914
1.082	18.532	-3.1935e+05	1898.8	-0.41851	0.12307	0.88953
1.084	18.554	-3.1934e+05	1898.6	-0.41831	0.12268	0.88992
1.086	18.679	-3.1934e+05	1898.3	-0.41812	0.12229	0.89031
1.088	18.923	-3.1932e+05	1898	-0.41792	0.1219	0.8907
1.09	19.117	-3.1931e+05	1897.7	-0.41773	0.12151	0.89109
1.092	19.1	-3.1931e+05	1897.3	-0.41822	0.12171	0.89187
1.094	18.961	-3.193e+05	1896.9	-0.4187	0.1219	0.89265
1.096	18.728	-3.193e+05	1896.6	-0.41919	0.1221	0.89343
1.098	18.498	-3.1929e+05	1896.2	-0.41968	0.12229	0.89421
1.1	18.471	-3.1928e+05	1895.9	-0.42017	0.12249	0.89499
1.102	18.581	-3.1928e+05	1895.5	-0.41988	0.12288	0.89548
1.104	18.767	-3.1926e+05	1895.2	-0.41958	0.12327	0.89597
1.106	19.013	-3.1925e+05	1894.9	-0.41929	0.12366	0.89646
1.108	19.074	-3.1925e+05	1894.7	-0.419	0.12405	0.89694
1.11	18.944	-3.1925e+05	1894.4	-0.4187	0.12444	0.89743
1.112	18.769	-3.1924e+05	1894.2	-0.41861	0.12385	0.89743
1.114	18.52	-3.1922e+05	1894.1	-0.41851	0.12327	0.89743
1.116	18.434	-3.1922e+05	1893.9	-0.41841	0.12268	0.89743
1.118	18.524	-3.1921e+05	1893.8	-0.41831	0.1221	0.89743
1.12	18.658	-3.1921e+05	1893.8	-0.41822	0.12151	0.89743
1.122	18.915	-3.1921e+05	1893.7	-0.41939	0.12083	0.89675
1.124	19.043	-3.192e+05	1893.6	-0.42056	0.12015	0.89607
1.126	18.929	-3.192e+05	1893.5	-0.42173	0.11946	0.89538
1.128	18.797	-3.1918e+05	1893.4	-0.4229	0.11878	0.8947
1.13	18.566	-3.1917e+05	1893.4	-0.42407	0.1181	0.89402
1.132	18.367	-3.1916e+05	1893.3	-0.42192	0.11868	0.89421
1.134	18.397	-3.1916e+05	1893.2	-0.41978	0.11927	0.89441
1.136	18.507	-3.1916e+05	1893.2	-0.41763	0.11985	0.8946
1.138	18.772	-3.1915e+05	1893.1	-0.41548	0.12044	0.8948
1.14	19.007	-3.1914e+05	1893.1	-0.41334	0.12102	0.89499
1.142	18.928	-3.1913e+05	1893.1	-0.41373	0.12112	0.89499
1.144	18.8	-3.1912e+05	1893	-0.41412	0.12122	0.89499
1.146	18.599	-3.1912e+05	1893	-0.41451	0.12132	0.89499
1.148	18.363	-3.1911e+05	1893	-0.4149	0.12141	0.89499
1.15	18.35	-3.191e+05	1893	-0.41529	0.12151	0.89499
1.152	18.45	-3.1909e+05	1893.1	-0.41548	0.12073	0.89489
1.154	18.67	-3.1908e+05	1893.1	-0.41568	0.11995	0.8948
1.156	18.931	-3.1908e+05	1893.1	-0.41587	0.11917	0.8947
1.158	18.973	-3.1908e+05	1893.2	-0.41607	0.11839	0.8946
1.16	18.89	-3.1908e+05	1893.2	-0.41626	0.11761	0.8945
1.162	18.701	-3.1908e+05	1893.3	-0.41704	0.11897	0.89411
1.164	18.436	-3.1906e+05	1893.4	-0.41783	0.12034	0.89372
1.166	18.359	-3.1905e+05	1893.5	-0.41861	0.12171	0.89333
1.168	18.449	-3.1905e+05	1893.5	-0.41939	0.12307	0.89294
1.17	18.617	-3.1906e+05	1893.5	-0.42017	0.12444	0.89255
1.172	18.852	-3.1905e+05	1893.5	-0.41978	0.12395	0.89245
1.174	18.952	-3.1904e+05	1893.5	-0.41939	0.12346	0.89236
1.176	18.867	-3.1904e+05	1893.5	-0.419	0.12298	0.89226
1.178	18.725	-3.1904e+05	1893.4	-0.41861	0.12249	0.89216
1.18	18.519	-3.1903e+05	1893.3	-0.41822	0.122	0.89206
1.182	18.368	-3.1903e+05	1893.2	-0.41724	0.12171	0.89167
1.184	18.4	-3.1902e+05	1893	-0.41626	0.12141	0.89128
1.186	18.522	-3.1901e+05	1892.9	-0.41529	0.12112	0.89089
1.188	18.741	-3.19e+05	1892.7	-0.41431	0.12083	0.8905
1.19	18.966	-3.19e+05	1892.6	-0.41334	0.12054	0.89011
1.192	18.971	-3.19e+05	1892.4	-0.4149	0.12034	0.89089
1.194	18.838	-3.1899e+05	1892.3	-0.41646	0.12015	0.89167
1.196	18.62	-3.1899e+05	1892.1	-0.41802	0.11995	0.89245
1.198	18.38	-3.1899e+05	1891.9	-0.41958	0.11976	0.89324
1.2	18.359	-3.1899e+05	1891.8	-0.42114	0.11956	0.89402
1.202	18.474	-3.1899e+05	1891.7	-0.42192	0.11858	0.89421
1.204	18.657	-3.1898e+05	1891.5	-0.42271	0.11761	0.89441
1.206	18.923	-3.1898e+05	1891.4	-0.42349	0.11663	0.8946
1.208	18.984	-3.1897e+05	1891.2	-0.42427	0.11566	0.8948
1.21	18.878	-3.1897e+05	1891	-0.42505	0.11468	0.89499
1.212	18.705	-3.1897e+05	1890.8	-0.42554	0.11497	0.8945
1.214	18.431	-3.1896e+05	1890.5	-0.42602	0.11527	0.89402
1.216	18.348	-3.1896e+05	1890.3	-0.42651	0.11556	0.89353
1.218	18.435	-3.1896e+05	1890.1	-0.427	0.11585	0.89304
1.22	18.535	-3.1895e+05	1889.9	-0.42749	0.11614	0.89255
1.222	18.825	-3.1894e+05	1889.7	-0.42573	0.11692	0.89275
1.224	18.964	-3.1895e+05	1889.4	-0.42397	0.11771	0.89294
1.226	18.877	-3.1895e+05	1889.2	-0.42222	0.11849	0.89314
1.228	18.784	-3.1894e+05	1888.9	-0.42046	0.11927	0.89333
1.23	18.537	-3.1894e+05	1888.6	-0.4187	0.12005	0.89353
1.232	18.37	-3.1894e+05	1888.3	-0.4187	0.11976	0.89265
1.234	18.438	-3.1895e+05	1888	-0.4187	0.11946	0.89177
1.236	18.561	-3.1895e+05	1887.8	-0.4187	0.11917	0.89089
1.238	18.798	-3.1894e+05	1887.7	-0.4187	0.11888	0.89001
1.24	18.975	-3.1894e+05	1887.5	-0.4187	0.11858	0.88914
1.242	18.919	-3.1893e+05	1887.4	-0.42027	0.1181	0.8906
1.244	18.814	-3.1893e+05	1887.3	-0.42183	0.11761	0.89206
1.246	18.602	-3.1893e+05	1887.2	-0.42339	0.11712	0.89353
1.248	18.397	-3.1892e+05	1887.1	-0.42495	0.11663	0.89499
1.25	18.383	-3.1892e+05	1887	-0.42651	0.11614	0.89646
1.252	18.467	-3.1892e+05	1886.9	-0.42515	0.11663	0.89528
1.254	18.661	-3.1892e+05	1886.8	-0.42378	0.11712	0.89411
1.256	18.885	-3.1892e+05	1886.7	-0.42241	0.11761	0.89294
1.258	18.912	-3.1892e+05	1886.6	-0.42105	0.1181	0.89177
1.26	18.803	-3.1892e+05	1886.5	-0.41968	0.11858	0.8906
1.262	18.633	-3.1891e+05	1886.5	-0.41968	0.1179	0.8906
1.264	18.422	-3.1891e+05	1886.5	-0.41968	0.11722	0.8906
1.266	18.345	-3.1892e+05	1886.4	-0.41968	0.11653	0.8906
1.268	18.423	-3.1891e+05	1886.4	-0.41968	0.11585	0.8906
1.27	18.585	-3.1891e+05	1886.4	-0.41968	0.11517	0.8906
1.272	18.83	-3.1891e+05	1886.5	-0.42124	0.11458	0.89119
1.274	18.959	-3.1891e+05	1886.6	-0.4228	0.114	0.89177
1.276	18.882	-3.1891e+05	1886.7	-0.42436	0.11341	0.89236
1.278	18.758	-3.1891e+05	1886.8	-0.42593	0.11283	0.89294
1.28	18.548	-3.1891e+05	1886.9	-0.42749	0.11224	0.89353
1.282	18.35	-3.189e+05	1887	-0.42622	0.11341	0.89402
1.284	18.376	-3.189e+05	1887.1	-0.42495	0.11458	0.8945
1.286	18.49	-3.189e+05	1887.2	-0.42368	0.11575	0.89499
1.288	18.698	-3.1891e+05	1887.2	-0.42241	0.11692	0.89548
1.29	18.914	-3.1891e+05	1887.3	-0.42114	0.1181	0.89597
1.292	18.866	-3.1891e+05	1887.3	-0.42153	0.11673	0.8945
1.294	18.747	-3.1891e+05	1887.3	-0.42192	0.11536	0.89304
1.296	18.559	-3.1891e+05	1887.2	-0.42232	0.114	0.89158
1.298	18.325	-3.1892e+05	1887.2	-0.42271	0.11263	0.89011
1.3	18.325	-3.1892e+05	1887.1	-0.4231	0.11126	0.88865
1.302	18.437	-3.1892e+05	1887	-0.42241	0.11283	0.88962
1.304	18.627	-3.1892e+05	1886.9	-0.42173	0.11439	0.8906
1.306	18.931	-3.1892e+05	1886.7	-0.42105	0.11595	0.89158
1.308	18.928	-3.1892e+05	1886.6	-0.42036	0.11751	0.89255
1.31	18.802	-3.1893e+05	1886.5	-0.41968	0.11907	0.89353
1.312	18.67	-3.1893e+05	1886.3	-0.41929	0.11888	0.89304
1.314	18.407	-3.1893e+05	1886.1	-0.4189	0.11868	0.89255
1.316	18.338	-3.1893e+05	1886	-0.41851	0.11849	0.89206
1.318	18.399	-3.1893e+05	1885.8	-0.41812	0.11829	0.89158
1.32	18.519	-3.1893e+05	1885.6	-0.41773	0.1181	0.89109
1.322	18.806	-3.1893e+05	1885.4	-0.41773	0.11761	0.89099
1.324	18.947	-3.1893e+05	1885.2	-0.41773	0.11712	0.89089
1.326	18.873	-3.1893e+05	1885.1	-0.41773	0.11663	0.8908
1.328	18.714	-3.1893e+05	1884.9	-0.41773	0.11614	0.8907
1.33	18.455	-3.1893e+05	1884.8	-0.41773	0.11566	0.8906
1.332	18.318	-3.1894e+05	1884.8	-0.41851	0.11663	0.89109
1.334	18.377	-3.1894e+05	1884.7	-0.41929	0.11761	0.89158
1.336	18.491	-3.1893e+05	1884.6	-0.42007	0.11858	0.89206
1.338	18.72	-3.1893e+05	1884.4	-0.42085	0.11956	0.89255
1.34	18.913	-3.1893e+05	1884.3	-0.42163	0.12054	0.89304
1.342	18.902	-3.1893e+05	1884.2	-0.42251	0.11956	0.89255
1.344	18.784	-3.1894e+05	1884.1	-0.42339	0.11858	0.89206
1.346	18.577	-3.1894e+05	1883.9	-0.42427	0.11761	0.89158
1.348	18.362	-3.1894e+05	1883.8	-0.42515	0.11663	0.89109
1.35	18.335	-3.1895e+05	1883.7	-0.42602	0.11566	0.8906
1.352	18.448	-3.1895e+05	1883.6	-0.42534	0.11663	0.89158
1.354	18.63	-3.1895e+05	1883.5	-0.42466	0.11761	0.89255
1.356	18.858	-3.1895e+05	1883.4	-0.42397	0.11858	0.89353
1.358	18.936	-3.1895e+05	1883.3	-0.42329	0.11956	0.8945
1.36	18.848	-3.1895e+05	1883.2	-0.42261	0.12054	0.89548
1.362	18.672	-3.1896e+05	1883.1	-0.42232	0.12102	0.89489
1.364	18.385	-3.1896e+05	1883	-0.42202	0.12151	0.89431
1.366	18.24	-3.1896e+05	1883	-0.42173	0.122	0.89372
1.368	18.35	-3.1897e+05	1882.9	-0.42144	0.12249	0.89314
1.37	18.487	-3.1897e+05	1882.9	-0.42114	0.12298	0.89255
1.372	18.732	-3.1898e+05	1882.8	-0.42202	0.12161	0.89245
1.374	18.903	-3.1898e+05	1882.7	-0.4229	0.12024	0.89236
1.376	18.843	-3.1898e+05	1882.6	-0.42378	0.11888	0.89226
1.378	18.743	-3.1898e+05	1882.5	-0.42466	0.11751	0.89216
1.38	18.508	-3.1898e+05	1882.5	-0.42554	0.11614	0.89206
1.382	18.313	-3.1898e+05	1882.4	-0.42407	0.11741	0.89187
1.384	18.376	-3.1898e+05	1882.3	-0.42261	0.11868	0.89167
1.386	18.468	-3.1898e+05	1882.2	-0.42114	0.11995	0.89148
1.388	18.691	-3.1898e+05	1882.2	-0.41968	0.12122	0.89128
1.39	18.943	-3.1898e+05	1882.1	-0.41822	0.12249	0.89109
1.392	18.874	-3.1898e+05	1882	-0.4188	0.122	0.89148
1.394	18.749	-3.1898e+05	1881.9	-0.41939	0.12151	0.89187
1.396	18.557	-3.1899e+05	1881.8	-0.41997	0.12102	0.89226
1.398	18.327	-3.1899e+05	1881.7	-0.42056	0.12054	0.89265
1.4	18.326	-3.1899e+05	1881.6	-0.42114	0.12005	0.89304
1.402	18.414	-3.1899e+05	1881.6	-0.41997	0.11966	0.89216
1.404	18.611	-3.1899e+05	1881.7	-0.4188	0.11927	0.89128
1.406	18.88	-3.19e+05	1881.7	-0.41763	0.11888	0.8904
1.408	18.917	-3.19e+05	1881.7	-0.41646	0.11849	0.88953
1.41	18.857	-3.1901e+05	1881.8	-0.41529	0.1181	0.88865
1.412	18.665	-3.1901e+05	1881.9	-0.4149	0.1181	0.88875
1.414	18.353	-3.1901e+05	1882	-0.41451	0.1181	0.88884
1.416	18.267	-3.1901e+05	1882.1	-0.41412	0.1181	0.88894
1.418	18.361	-3.1901e+05	1882.2	-0.41373	0.1181	0.88904
1.42	18.533	-3.1902e+05	1882.2	-0.41334	0.1181	0.88914
1.422	18.803	-3.1902e+05	1882.3	-0.41539	0.11702	0.88943
1.424	18.927	-3.1902e+05	1882.4	-0.41744	0.11595	0.88972
1.426	18.865	-3.1902e+05	1882.4	-0.41948	0.11488	0.89001
1.428	18.729	-3.1902e+05	1882.4	-0.42153	0.1138	0.89031
1.43	18.487	-3.1902e+05	1882.4	-0.42358	0.11273	0.8906
1.432	18.32	-3.1902e+05	1882.4	-0.4228	0.11361	0.8908
1.434	18.355	-3.1903e+05	1882.4	-0.42202	0.11448	0.89099
1.436	18.467	-3.1903e+05	1882.4	-0.42124	0.11536	0.89119
1.438	18.673	-3.1903e+05	1882.5	-0.42046	0.11624	0.89138
1.44	18.898	-3.1903e+05	1882.5	-0.41968	0.11712	0.89158
1.442	18.925	-3.1903e+05	1882.6	-0.42007	0.11722	0.89148
1.444	18.814	-3.1904e+05	1882.6	-0.42046	0.11732	0.89138
1.446	18.611	-3.1905e+05	1882.7	-0.42085	0.11741	0.89128
1.448	18.385	-3.1904e+05	1882.9	-0.42124	0.11751	0.89119
1.45	18.375	-3.1904e+05	1883	-0.42163	0.11761	0.89109
1.452	18.479	-3.1905e+05	1883.2	-0.42202	0.11732	0.89119
1.454	18.647	-3.1905e+05	1883.4	-0.42241	0.11702	0.89128
1.456	18.894	-3.1905e+05	1883.6	-0.4228	0.11673	0.89138
1.458	18.923	-3.1906e+05	1883.7	-0.42319	0.11644	0.89148
1.46	18.805	-3.1906e+05	1883.9	-0.42358	0.11614	0.89158
1.462	18.669	-3.1906e+05	1884	-0.42261	0.11683	0.89226
1.464	18.416	-3.1906e+05	1884.2	-0.42163	0.11751	0.89294
1.466	18.294	-3.1907e+05	1884.3	-0.42066	0.11819	0.89363
1.468	18.377	-3.1907e+05	1884.4	-0.41968	0.11888	0.89431
1.47	18.508	-3.1907e+05	1884.5	-0.4187	0.11956	0.89499
1.472	18.792	-3.1907e+05	1884.6	-0.41968	0.11888	0.8946
1.474	18.934	-3.1907e+05	1884.7	-0.42066	0.11819	0.89421
1.476	18.847	-3.1908e+05	1884.7	-0.42163	0.11751	0.89382
1.478	18.725	-3.1909e+05	1884.7	-0.42261	0.11683	0.89343
1.48	18.464	-3.1908e+05	1884.7	-0.42358	0.11614	0.89304
1.482	18.262	-3.1908e+05	1884.8	-0.423	0.11732	0.89411
1.484	18.341	-3.1908e+05	1884.8	-0.42241	0.11849	0.89519
1.486	18.456	-3.1908e+05	1884.8	-0.42183	0.11966	0.89626
1.488	18.648	-3.1908e+05	1884.8	-0.42124	0.12083	0.89733
1.49	18.86	-3.1908e+05	1884.9	-0.42066	0.122	0.89841
1.492	18.868	-3.1909e+05	1884.9	-0.42017	0.12171	0.89831
1.494	18.753	-3.1909e+05	1884.9	-0.41968	0.12141	0.89821
1.496	18.48	-3.191e+05	1884.9	-0.41919	0.12112	0.89812
1.498	18.243	-3.1911e+05	1884.8	-0.4187	0.12083	0.89802
1.5	18.262	-3.191e+05	1884.8	-0.41822	0.12054	0.89792
1.502	18.38	-3.191e+05	1884.8	-0.41861	0.12102	0.89714
1.504	18.578	-3.191e+05	1884.7	-0.419	0.12151	0.89636
1.506	18.812	-3.1911e+05	1884.7	-0.41939	0.122	0.89558
1.508	18.858	-3.1911e+05	1884.6	-0.41978	0.12249	0.8948
1.51	18.761	-3.1912e+05	1884.5	-0.42017	0.12298	0.89402
1.512	18.594	-3.1912e+05	1884.4	-0.42017	0.1218	0.89353
1.514	18.371	-3.1913e+05	1884.3	-0.42017	0.12063	0.89304
1.516	18.288	-3.1913e+05	1884.1	-0.42017	0.11946	0.89255
1.518	18.369	-3.1914e+05	1883.9	-0.42017	0.11829	0.89206
1.52	18.516	-3.1914e+05	1883.7	-0.42017	0.11712	0.89158
1.522	18.733	-3.1915e+05	1883.6	-0.42017	0.11702	0.89109
1.524	18.844	-3.1915e+05	1883.4	-0.42017	0.11692	0.8906
1.526	18.746	-3.1916e+05	1883.3	-0.42017	0.11683	0.89011
1.528	18.608	-3.1915e+05	1883.1	-0.42017	0.11673	0.88962
1.53	18.43	-3.1915e+05	1883	-0.42017	0.11663	0.88914
1.532	18.272	-3.1915e+05	1882.9	-0.42007	0.11663	0.88992
1.534	18.315	-3.1915e+05	1882.8	-0.41997	0.11663	0.8907
1.536	18.445	-3.1915e+05	1882.7	-0.41988	0.11663	0.89148
1.538	18.654	-3.1916e+05	1882.7	-0.41978	0.11663	0.89226
1.54	18.891	-3.1916e+05	1882.8	-0.41968	0.11663	0.89304
1.542	18.867	-3.1917e+05	1882.8	-0.42036	0.11673	0.89324
1.544	18.737	-3.1917e+05	1882.8	-0.42105	0.11683	0.89343
1.546	18.549	-3.1917e+05	1882.9	-0.42173	0.11692	0.89363
1.548	18.301	-3.1918e+05	1882.9	-0.42241	0.11702	0.89382
1.55	18.281	-3.1918e+05	1883	-0.4231	0.11712	0.89402
1.552	18.392	-3.1918e+05	1882.9	-0.42378	0.11624	0.89372
1.554	18.571	-3.1918e+05	1882.9	-0.42446	0.11536	0.89343
1.556	18.849	-3.1919e+05	1882.9	-0.42515	0.11448	0.89314
1.558	18.866	-3.192e+05	1882.9	-0.42583	0.11361	0.89284
1.56	18.782	-3.192e+05	1882.8	-0.42651	0.11273	0.89255
1.562	18.686	-3.192e+05	1882.8	-0.42593	0.11361	0.89284
1.564	18.401	-3.1921e+05	1882.8	-0.42534	0.11448	0.89314
1.566	18.318	-3.1921e+05	1882.8	-0.42476	0.11536	0.89343
1.568	18.448	-3.1921e+05	1882.7	-0.42417	0.11624	0.89372
1.57	18.632	-3.1922e+05	1882.7	-0.42358	0.11712	0.89402
1.572	18.972	-3.1922e+05	1882.6	-0.42251	0.11712	0.89353
1.574	19.157	-3.1922e+05	1882.6	-0.42144	0.11712	0.89304
1.576	19.125	-3.1922e+05	1882.6	-0.42036	0.11712	0.89255
1.578	19.027	-3.1923e+05	1882.6	-0.41929	0.11712	0.89206
1.58	18.764	-3.1923e+05	1882.5	-0.41822	0.11712	0.89158
1.582	18.561	-3.1923e+05	1882.5	-0.41792	0.11741	0.89109
1.584	18.521	-3.1924e+05	1882.5	-0.41763	0.11771	0.8906
1.586	18.539	-3.1925e+05	1882.4	-0.41734	0.118	0.89011
1.588	18.713	-3.1925e+05	1882.4	-0.41704	0.11829	0.88962
1.59	18.834	-3.1925e+05	1882.4	-0.41675	0.11858	0.88914
1.592	18.763	-3.1925e+05	1882.4	-0.41783	0.11741	0.88904
1.594	18.624	-3.1925e+05	1882.3	-0.4189	0.11624	0.88894
1.596	18.371	-3.1926e+05	1882.3	-0.41997	0.11507	0.88884
1.598	18.148	-3.1926e+05	1882.2	-0.42105	0.1139	0.88875
1.6	18.14	-3.1927e+05	1882.2	-0.42212	0.11273	0.88865
1.602	18.269	-3.1927e+05	1882	-0.42319	0.11341	0.88943
1.604	18.511	-3.1927e+05	1881.9	-0.42427	0.11409	0.89021
1.606	18.773	-3.1927e+05	1881.7	-0.42534	0.11478	0.89099
1.608	18.825	-3.1927e+05	1881.6	-0.42641	0.11546	0.89177
1.61	18.725	-3.1927e+05	1881.4	-0.42749	0.11614	0.89255
1.612	18.583	-3.1928e+05	1881.3	-0.42505	0.11683	0.89197
1.614	18.377	-3.1929e+05	1881.1	-0.42261	0.11751	0.89138
1.616	18.274	-3.1929e+05	1881	-0.42017	0.11819	0.8908
1.618	18.333	-3.193e+05	1880.8	-0.41773	0.11888	0.89021
1.62	18.453	-3.193e+05	1880.7	-0.41529	0.11956	0.88962
1.622	18.7	-3.193e+05	1880.5	-0.41617	0.12044	0.88982
1.624	18.858	-3.193e+05	1880.4	-0.41704	0.12132	0.89001
1.626	18.78	-3.193e+05	1880.2	-0.41792	0.1222	0.89021
1.628	18.653	-3.193e+05	1880.1	-0.4188	0.12307	0.8904
1.63	18.438	-3.1931e+05	1880	-0.41968	0.12395	0.8906
1.632	18.255	-3.1931e+05	1879.9	-0.42066	0.12259	0.89109
1.634	18.316	-3.1931e+05	1879.8	-0.42163	0.12122	0.89158
1.636	18.44	-3.1932e+05	1879.7	-0.42261	0.11985	0.89206
1.638	18.634	-3.1932e+05	1879.7	-0.42358	0.11849	0.89255
1.64	18.876	-3.1933e+05	1879.7	-0.42456	0.11712	0.89304
1.642	18.826	-3.1934e+05	1879.6	-0.4229	0.11868	0.89245
1.644	18.702	-3.1934e+05	1879.6	-0.42124	0.12024	0.89187
1.646	18.505	-3.1934e+05	1879.5	-0.41958	0.1218	0.89128
1.648	18.233	-3.1935e+05	1879.4	-0.41792	0.12337	0.8907
1.65	18.221	-3.1936e+05	1879.3	-0.41626	0.12493	0.89011
1.652	18.314	-3.1937e+05	1879.2	-0.41607	0.12454	0.8904
1.654	18.493	-3.1938e+05	1879.2	-0.41587	0.12415	0.8907
1.656	18.799	-3.1938e+05	1879.1	-0.41568	0.12376	0.89099
1.658	18.857	-3.1938e+05	1879	-0.41548	0.12337	0.89128
1.66	18.779	-3.1938e+05	1878.9	-0.41529	0.12298	0.89158
1.662	18.622	-3.1938e+05	1878.9	-0.41392	0.12132	0.89031
1.664	18.35	-3.1938e+05	1878.9	-0.41256	0.11966	0.88904
1.666	18.254	-3.1939e+05	1878.9	-0.41119	0.118	0.88777
1.668	18.321	-3.1938e+05	1879	-0.40982	0.11634	0.8865
1.67	18.473	-3.1938e+05	1879.1	-0.40846	0.11468	0.88523
1.672	18.748	-3.1939e+05	1879.2	-0.41021	0.11488	0.88406
1.674	18.855	-3.1939e+05	1879.3	-0.41197	0.11507	0.88289
1.676	18.786	-3.194e+05	1879.3	-0.41373	0.11527	0.88172
1.678	18.66	-3.194e+05	1879.3	-0.41548	0.11546	0.88055
1.68	18.428	-3.194e+05	1879.3	-0.41724	0.11566	0.87938
1.682	18.272	-3.194e+05	1879.2	-0.41704	0.11595	0.88162
1.684	18.298	-3.1941e+05	1879.1	-0.41685	0.11624	0.88387
1.686	18.414	-3.1941e+05	1879	-0.41665	0.11653	0.88611
1.688	18.631	-3.1942e+05	1878.9	-0.41646	0.11683	0.88836
1.69	18.828	-3.1943e+05	1878.8	-0.41626	0.11712	0.8906
1.692	18.846	-3.1943e+05	1878.8	-0.41704	0.11712	0.89021
1.694	18.738	-3.1943e+05	1878.9	-0.41783	0.11712	0.88982
1.696	18.52	-3.1943e+05	1879	-0.41861	0.11712	0.88943
1.698	18.289	-3.1943e+05	1879.2	-0.41939	0.11712	0.88904
1.7	18.267	-3.1944e+05	1879.4	-0.42017	0.11712	0.88865
1.702	18.393	-3.1945e+05	1879.7	-0.42085	0.11673	0.88904
1.704	18.588	-3.1945e+05	1880.1	-0.42153	0.11634	0.88943
1.706	18.838	-3.1945e+05	1880.6	-0.42222	0.11595	0.88982
1.708	18.895	-3.1946e+05	1881.2	-0.4229	0.11556	0.89021
1.71	18.756	-3.1947e+05	1881.9	-0.42358	0.11517	0.8906
1.712	18.58	-3.1947e+05	1882.5	-0.42319	0.11566	0.89089
1.714	18.361	-3.1948e+05	1883.1	-0.4228	0.11614	0.89119
1.716	18.278	-3.1948e+05	1883.8	-0.42241	0.11663	0.89148
1.718	18.385	-3.1947e+05	1884.5	-0.42202	0.11712	0.89177
1.72	18.518	-3.1947e+05	1885.1	-0.42163	0.11761	0.89206
1.722	18.758	-3.1948e+05	1885.8	-0.4231	0.11595	0.89265
1.724	18.886	-3.1949e+05	1886.5	-0.42456	0.11429	0.89324
1.726	18.8	-3.1949e+05	1887.2	-0.42602	0.11263	0.89382
1.728	18.709	-3.195e+05	1887.9	-0.42749	0.11097	0.89441
1.73	18.459	-3.195e+05	1888.6	-0.42895	0.10931	0.89499
1.732	18.273	-3.195e+05	1889.3	-0.42934	0.11009	0.89489
1.734	18.293	-3.195e+05	1889.9	-0.42973	0.11087	0.8948
1.736	18.401	-3.195e+05	1890.5	-0.43012	0.11165	0.8947
1.738	18.686	-3.195e+05	1891	-0.43051	0.11244	0.8946
1.74	18.934	-3.195e+05	1891.4	-0.4309	0.11322	0.8945
1.742	18.904	-3.1951e+05	1891.8	-0.42954	0.11195	0.89519
1.744	18.794	-3.1951e+05	1892.2	-0.42817	0.11068	0.89587
1.746	18.577	-3.1951e+05	1892.5	-0.4268	0.10941	0.89655
1.748	18.322	-3.1951e+05	1892.9	-0.42544	0.10814	0.89724
1.75	18.321	-3.1951e+05	1893.2	-0.42407	0.10687	0.89792
1.752	18.442	-3.195e+05	1893.5	-0.42495	0.10716	0.89724
1.754	18.654	-3.195e+05	1893.7	-0.42583	0.10746	0.89655
1.756	18.892	-3.195e+05	1894	-0.42671	0.10775	0.89587
1.758	18.904	-3.195e+05	1894.3	-0.42759	0.10804	0.89519
1.76	18.819	-3.195e+05	1894.5	-0.42846	0.10834	0.8945
1.762	18.694	-3.195e+05	1894.7	-0.42807	0.10873	0.89392
1.764	18.506	-3.195e+05	1894.9	-0.42768	0.10912	0.89333
1.766	18.44	-3.195e+05	1895.1	-0.42729	0.10951	0.89275
1.768	18.509	-3.195e+05	1895.2	-0.4269	0.1099	0.89216
1.77	18.675	-3.195e+05	1895.3	-0.42651	0.11029	0.89158
1.772	18.903	-3.1949e+05	1895.4	-0.42407	0.11185	0.89138
1.774	19.005	-3.1948e+05	1895.5	-0.42163	0.11341	0.89119
1.776	18.941	-3.1948e+05	1895.5	-0.41919	0.11497	0.89099
1.778	18.795	-3.1947e+05	1895.5	-0.41675	0.11653	0.8908
1.78	18.564	-3.1947e+05	1895.4	-0.41431	0.1181	0.8906
1.782	18.403	-3.1947e+05	1895.3	-0.41587	0.11819	0.8908
1.784	18.447	-3.1946e+05	1895.2	-0.41744	0.11829	0.89099
1.786	18.58	-3.1946e+05	1895.1	-0.419	0.11839	0.89119
1.788	18.779	-3.1945e+05	1894.9	-0.42056	0.11849	0.89138
1.79	18.973	-3.1945e+05	1894.7	-0.42212	0.11858	0.89158
1.792	18.953	-3.1944e+05	1894.4	-0.42144	0.11936	0.89216
1.794	18.828	-3.1943e+05	1894.1	-0.42075	0.12015	0.89275
1.796	18.65	-3.1943e+05	1893.9	-0.42007	0.12093	0.89333
1.798	18.408	-3.1942e+05	1893.6	-0.41939	0.12171	0.89392
1.8	18.387	-3.1942e+05	1893.3	-0.4187	0.12249	0.8945
1.802	18.526	-3.1941e+05	1893.1	-0.41822	0.12259	0.89353
1.804	18.688	-3.194e+05	1892.8	-0.41773	0.12268	0.89255
1.806	18.941	-3.194e+05	1892.6	-0.41724	0.12278	0.89158
1.808	18.995	-3.1939e+05	1892.3	-0.41675	0.12288	0.8906
1.81	18.888	-3.1939e+05	1892	-0.41626	0.12298	0.88962
1.812	18.729	-3.1939e+05	1891.8	-0.41665	0.12239	0.89011
1.814	18.434	-3.1938e+05	1891.5	-0.41704	0.1218	0.8906
1.816	18.336	-3.1937e+05	1891.3	-0.41744	0.12122	0.89109
1.818	18.391	-3.1937e+05	1891	-0.41783	0.12063	0.89158
1.82	18.504	-3.1936e+05	1890.8	-0.41822	0.12005	0.89206
1.822	18.81	-3.1935e+05	1890.5	-0.41744	0.12005	0.89167
1.824	18.936	-3.1935e+05	1890.2	-0.41665	0.12005	0.89128
1.826	18.831	-3.1934e+05	1890	-0.41587	0.12005	0.89089
1.828	18.711	-3.1934e+05	1889.8	-0.41509	0.12005	0.8905
1.83	18.466	-3.1933e+05	1889.6	-0.41431	0.12005	0.89011
1.832	18.3	-3.1932e+05	1889.4	-0.41539	0.11907	0.89001
1.834	18.357	-3.1932e+05	1889.3	-0.41646	0.1181	0.88992
1.836	18.465	-3.1932e+05	1889.1	-0.41753	0.11712	0.88982
1.838	18.682	-3.1931e+05	1889	-0.41861	0.11614	0.88972
1.84	18.876	-3.193e+05	1888.9	-0.41968	0.11517	0.88962
1.842	18.847	-3.1929e+05	1888.9	-0.4189	0.11605	0.88962
1.844	18.729	-3.1928e+05	1888.8	-0.41812	0.11692	0.88962
1.846	18.496	-3.1927e+05	1888.8	-0.41734	0.1178	0.88962
1.848	18.279	-3.1927e+05	1888.7	-0.41656	0.11868	0.88962
1.85	18.286	-3.1927e+05	1888.7	-0.41578	0.11956	0.88962
1.852	18.397	-3.1926e+05	1888.7	-0.41636	0.11936	0.89031
1.854	18.594	-3.1925e+05	1888.7	-0.41695	0.11917	0.89099
1.856	18.832	-3.1925e+05	1888.7	-0.41753	0.11897	0.89167
1.858	18.859	-3.1924e+05	1888.7	-0.41812	0.11878	0.89236
1.86	18.721	-3.1924e+05	1888.8	-0.4187	0.11858	0.89304
1.862	18.541	-3.1923e+05	1888.9	-0.41783	0.11771	0.89148
1.864	18.309	-3.1922e+05	1889.1	-0.41695	0.11683	0.88992
1.866	18.211	-3.1921e+05	1889.1	-0.41607	0.11595	0.88836
1.868	18.309	-3.1921e+05	1889.1	-0.41519	0.11507	0.88679
1.87	18.467	-3.1921e+05	1889.1	-0.41431	0.11419	0.88523
1.872	18.689	-3.1921e+05	1889.2	-0.41373	0.11409	0.88543
1.874	18.828	-3.192e+05	1889.3	-0.41314	0.114	0.88562
1.876	18.746	-3.1919e+05	1889.3	-0.41256	0.1139	0.88582
1.878	18.607	-3.1918e+05	1889.3	-0.41197	0.1138	0.88601
1.88	18.393	-3.1918e+05	1889.2	-0.41138	0.1137	0.88621
1.882	18.209	-3.1918e+05	1889.3	-0.41148	0.11361	0.88689
1.884	18.26	-3.1917e+05	1889.3	-0.41158	0.11351	0.88757
1.886	18.397	-3.1916e+05	1889.3	-0.41168	0.11341	0.88826
1.888	18.598	-3.1915e+05	1889.3	-0.41177	0.11331	0.88894
1.89	18.84	-3.1915e+05	1889.3	-0.41187	0.11322	0.88962
1.892	18.807	-3.1915e+05	1889.4	-0.41441	0.11312	0.88962
1.894	18.678	-3.1915e+05	1889.4	-0.41695	0.11302	0.88962
1.896	18.506	-3.1914e+05	1889.4	-0.41948	0.11292	0.88962
1.898	18.251	-3.1914e+05	1889.4	-0.42202	0.11283	0.88962
1.9	18.219	-3.1914e+05	1889.4	-0.42456	0.11273	0.88962
1.902	18.328	-3.1913e+05	1889.4	-0.42446	0.11234	0.89011
1.904	18.489	-3.1913e+05	1889.4	-0.42436	0.11195	0.8906
1.906	18.75	-3.1913e+05	1889.4	-0.42427	0.11156	0.89109
1.908	18.788	-3.1912e+05	1889.4	-0.42417	0.11117	0.89158
1.91	18.686	-3.1912e+05	1889.5	-0.42407	0.11078	0.89206
1.912	18.555	-3.1912e+05	1889.5	-0.42378	0.11204	0.89294
1.914	18.282	-3.1911e+05	1889.5	-0.42349	0.11331	0.89382
1.916	18.202	-3.1911e+05	1889.6	-0.42319	0.11458	0.8947
1.918	18.291	-3.1912e+05	1889.6	-0.4229	0.11585	0.89558
1.92	18.43	-3.191e+05	1889.7	-0.42261	0.11712	0.89646
1.922	18.689	-3.1909e+05	1889.7	-0.42358	0.11605	0.89577
1.924	18.813	-3.1909e+05	1889.7	-0.42456	0.11497	0.89509
1.926	18.76	-3.1908e+05	1889.8	-0.42554	0.1139	0.89441
1.928	18.649	-3.1908e+05	1889.8	-0.42651	0.11283	0.89372
1.93	18.401	-3.1907e+05	1889.9	-0.42749	0.11175	0.89304
1.932	18.235	-3.1908e+05	1890	-0.4271	0.11214	0.89197
1.934	18.264	-3.1908e+05	1890.1	-0.42671	0.11253	0.89089
1.936	18.351	-3.1908e+05	1890.1	-0.42632	0.11292	0.88982
1.938	18.542	-3.1907e+05	1890.2	-0.42593	0.11331	0.88875
1.94	18.733	-3.1907e+05	1890.2	-0.42554	0.1137	0.88767
1.942	18.767	-3.1907e+05	1890.2	-0.42427	0.11517	0.88884
1.944	18.696	-3.1906e+05	1890.2	-0.423	0.11663	0.89001
1.946	18.508	-3.1906e+05	1890.1	-0.42173	0.1181	0.89119
1.948	18.28	-3.1905e+05	1890.1	-0.42046	0.11956	0.89236
1.95	18.217	-3.1904e+05	1890	-0.41919	0.12102	0.89353
1.952	18.306	-3.1905e+05	1889.8	-0.4189	0.12141	0.89294
1.954	18.509	-3.1905e+05	1889.6	-0.41861	0.1218	0.89236
1.956	18.769	-3.1905e+05	1889.4	-0.41831	0.1222	0.89177
1.958	18.827	-3.1905e+05	1889.2	-0.41802	0.12259	0.89119
1.96	18.706	-3.1904e+05	1888.9	-0.41773	0.12298	0.8906
1.962	18.551	-3.1904e+05	1888.7	-0.41841	0.12151	0.89021
1.964	18.315	-3.1904e+05	1888.4	-0.41909	0.12005	0.88982
1.966	18.186	-3.1904e+05	1888.2	-0.41978	0.11858	0.88943
1.968	18.255	-3.1904e+05	1887.9	-0.42046	0.11712	0.88904
1.97	18.395	-3.1905e+05	1887.7	-0.42114	0.11566	0.88865
1.972	18.644	-3.1905e+05	1887.5	-0.42144	0.11605	0.88972
1.974	18.796	-3.1905e+05	1887.3	-0.42173	0.11644	0.8908
1.976	18.735	-3.1904e+05	1887.1	-0.42202	0.11683	0.89187
1.978	18.612	-3.1904e+05	1886.9	-0.42232	0.11722	0.89294
1.98	18.378	-3.1904e+05	1886.7	-0.42261	0.11761	0.89402
1.982	18.161	-3.1904e+05	1886.6	-0.42192	0.11761	0.89333
1.984	18.231	-3.1904e+05	1886.5	-0.42124	0.11761	0.89265
1.986	18.353	-3.1903e+05	1886.5	-0.42056	0.11761	0.89197
1.988	18.581	-3.1903e+05	1886.5	-0.41988	0.11761	0.89128
1.99	18.833	-3.1903e+05	1886.4	-0.41919	0.11761	0.8906
1.992	18.767	-3.1903e+05	1886.5	-0.41958	0.11722	0.89011
1.994	18.636	-3.1903e+05	1886.5	-0.41997	0.11683	0.88962
1.996	18.462	-3.1903e+05	1886.5	-0.42036	0.11644	0.88914
1.998	18.224	-3.1904e+05	1886.6	-0.42075	0.11605	0.88865
2	18.204	-3.1903e+05	1886.6	-0.42114	0.11566	0.88816
2.002	18.273	-3.1903e+05	1886.7	-0.42114	0.11527	0.88787
2.004	18.435	-3.1903e+05	1886.7	-0.42114	0.11488	0.88757
2.006	18.708	-3.1904e+05	1886.8	-0.42114	0.11448	0.88728
2.008	18.765	-3.1904e+05	1886.8	-0.42114	0.11409	0.88699
2.01	18.677	-3.1905e+05	1886.8	-0.42114	0.1137	0.8867
2.012	18.517	-3.1904e+05	1886.9	-0.42046	0.11429	0.88621
2.014	18.272	-3.1904e+05	1886.9	-0.41978	0.11488	0.88572
2.016	18.192	-3.1904e+05	1886.9	-0.41909	0.11546	0.88523
2.018	18.268	-3.1904e+05	1887	-0.41841	0.11605	0.88474
2.02	18.415	-3.1904e+05	1887	-0.41773	0.11663	0.88426
2.022	18.654	-3.1904e+05	1887	-0.4187	0.11673	0.88592
2.024	18.764	-3.1904e+05	1887	-0.41968	0.11683	0.88757
2.026	18.679	-3.1905e+05	1887	-0.42066	0.11692	0.88923
2.028	18.539	-3.1904e+05	1887.1	-0.42163	0.11702	0.89089
2.03	18.336	-3.1904e+05	1887.2	-0.42261	0.11712	0.89255
2.032	18.178	-3.1904e+05	1887.1	-0.42056	0.11624	0.89197
2.034	18.2	-3.1903e+05	1887.1	-0.41851	0.11536	0.89138
2.036	18.323	-3.1903e+05	1887.1	-0.41646	0.11448	0.8908
2.038	18.537	-3.1903e+05	1887.1	-0.41441	0.11361	0.89021
2.04	18.748	-3.1904e+05	1887.2	-0.41236	0.11273	0.88962
2.042	18.745	-3.1905e+05	1887.1	-0.4147	0.1138	0.8907
2.044	18.625	-3.1905e+05	1887	-0.41704	0.11488	0.89177
2.046	18.431	-3.1905e+05	1886.9	-0.41939	0.11595	0.89284
2.048	18.192	-3.1904e+05	1886.9	-0.42173	0.11702	0.89392
2.05	18.161	-3.1904e+05	1886.9	-0.42407	0.1181	0.89499
2.052	18.273	-3.1904e+05	1886.8	-0.42495	0.11634	0.89431
2.054	18.433	-3.1905e+05	1886.8	-0.42583	0.11458	0.89363
2.056	18.689	-3.1905e+05	1886.7	-0.42671	0.11283	0.89294
2.058	18.769	-3.1906e+05	1886.7	-0.42759	0.11107	0.89226
2.06	18.672	-3.1905e+05	1886.7	-0.42846	0.10931	0.89158
2.062	18.53	-3.1905e+05	1886.7	-0.42807	0.1097	0.89167
2.064	18.257	-3.1905e+05	1886.6	-0.42768	0.11009	0.89177
2.066	18.146	-3.1906e+05	1886.6	-0.42729	0.11048	0.89187
2.068	18.265	-3.1907e+05	1886.5	-0.4269	0.11087	0.89197
2.07	18.383	-3.1907e+05	1886.4	-0.42651	0.11126	0.89206
2.072	18.635	-3.1907e+05	1886.3	-0.42632	0.11175	0.89197
2.074	18.772	-3.1907e+05	1886.3	-0.42612	0.11224	0.89187
2.076	18.676	-3.1907e+05	1886.2	-0.42593	0.11273	0.89177
2.078	18.578	-3.1908e+05	1886.1	-0.42573	0.11322	0.89167
2.08	18.322	-3.1908e+05	1886.1	-0.42554	0.1137	0.89158
2.082	18.151	-3.1908e+05	1886	-0.42339	0.11429	0.89158
2.084	18.225	-3.1907e+05	1886	-0.42124	0.11488	0.89158
2.086	18.356	-3.1907e+05	1886	-0.41909	0.11546	0.89158
2.088	18.57	-3.1907e+05	1886	-0.41695	0.11605	0.89158
2.09	18.736	-3.1907e+05	1885.9	-0.4148	0.11663	0.89158
2.092	18.713	-3.1908e+05	1885.9	-0.41548	0.11683	0.89167
2.094	18.606	-3.1908e+05	1885.9	-0.41617	0.11702	0.89177
2.096	18.39	-3.1908e+05	1885.8	-0.41685	0.11722	0.89187
2.098	18.179	-3.1907e+05	1885.8	-0.41753	0.11741	0.89197
2.1	18.18	-3.1908e+05	1885.7	-0.41822	0.11761	0.89206
2.102	18.284	-3.1908e+05	1885.6	-0.41783	0.11751	0.89138
2.104	18.465	-3.1908e+05	1885.6	-0.41744	0.11741	0.8907
2.106	18.681	-3.1909e+05	1885.5	-0.41704	0.11732	0.89001
2.108	18.726	-3.1909e+05	1885.4	-0.41665	0.11722	0.88933
2.11	18.649	-3.1909e+05	1885.3	-0.41626	0.11712	0.88865
2.112	18.491	-3.191e+05	1885.2	-0.41539	0.11605	0.88855
2.114	18.252	-3.191e+05	1885.2	-0.41451	0.11497	0.88845
2.116	18.143	-3.191e+05	1885.2	-0.41363	0.1139	0.88836
2.118	18.219	-3.191e+05	1885.1	-0.41275	0.11283	0.88826
2.12	18.382	-3.191e+05	1885.1	-0.41187	0.11175	0.88816
2.122	18.6	-3.191e+05	1885.1	-0.41187	0.11175	0.88738
2.124	18.714	-3.191e+05	1885.1	-0.41187	0.11175	0.8866
2.126	18.658	-3.191e+05	1885.1	-0.41187	0.11175	0.88582
2.128	18.548	-3.1911e+05	1885.1	-0.41187	0.11175	0.88504
2.13	18.358	-3.1912e+05	1885.1	-0.41187	0.11175	0.88426
2.132	18.194	-3.1912e+05	1885.2	-0.41216	0.11204	0.88484
2.134	18.24	-3.1912e+05	1885.2	-0.41246	0.11234	0.88543
2.136	18.363	-3.1911e+05	1885.3	-0.41275	0.11263	0.88601
2.138	18.552	-3.1911e+05	1885.3	-0.41304	0.11292	0.8866
2.14	18.768	-3.1911e+05	1885.4	-0.41334	0.11322	0.88718
2.142	18.745	-3.1911e+05	1885.4	-0.41421	0.11361	0.88611
2.144	18.627	-3.1911e+05	1885.5	-0.41509	0.114	0.88504
2.146	18.413	-3.1912e+05	1885.6	-0.41597	0.11439	0.88396
2.148	18.152	-3.1912e+05	1885.6	-0.41685	0.11478	0.88289
2.15	18.16	-3.1912e+05	1885.7	-0.41773	0.11517	0.88182
2.152	18.297	-3.1911e+05	1885.7	-0.41958	0.11488	0.88348
2.154	18.464	-3.1911e+05	1885.8	-0.42144	0.11458	0.88513
2.156	18.772	-3.1912e+05	1885.9	-0.42329	0.11429	0.88679
2.158	18.826	-3.1913e+05	1886	-0.42515	0.114	0.88845
2.16	18.703	-3.1913e+05	1886.1	-0.427	0.1137	0.89011
2.162	18.536	-3.1913e+05	1886.2	-0.42544	0.11361	0.88982
2.164	18.241	-3.1913e+05	1886.3	-0.42388	0.11351	0.88953
2.166	18.133	-3.1913e+05	1886.4	-0.42232	0.11341	0.88923
2.168	18.224	-3.1913e+05	1886.5	-0.42075	0.11331	0.88894
2.17	18.373	-3.1913e+05	1886.6	-0.41919	0.11322	0.88865
2.172	18.672	-3.1913e+05	1886.7	-0.41997	0.11302	0.88914
2.174	18.823	-3.1913e+05	1886.8	-0.42075	0.11283	0.88962
2.176	18.779	-3.1913e+05	1886.9	-0.42153	0.11263	0.89011
2.178	18.67	-3.1914e+05	1886.9	-0.42232	0.11244	0.8906
2.18	18.395	-3.1914e+05	1887	-0.4231	0.11224	0.89109
2.182	18.214	-3.1914e+05	1887	-0.4231	0.11234	0.8908
2.184	18.228	-3.1914e+05	1887	-0.4231	0.11244	0.8905
2.186	18.304	-3.1915e+05	1887	-0.4231	0.11253	0.89021
2.188	18.536	-3.1915e+05	1887	-0.4231	0.11263	0.88992
2.19	18.738	-3.1915e+05	1887	-0.4231	0.11273	0.88962
2.192	18.729	-3.1915e+05	1886.9	-0.42388	0.11263	0.89011
2.194	18.624	-3.1915e+05	1886.9	-0.42466	0.11253	0.8906
2.196	18.406	-3.1915e+05	1886.8	-0.42544	0.11244	0.89109
2.198	18.176	-3.1916e+05	1886.8	-0.42622	0.11234	0.89158
2.2	18.142	-3.1916e+05	1886.8	-0.427	0.11224	0.89206
2.202	18.24	-3.1917e+05	1886.8	-0.42524	0.11244	0.89119
2.204	18.42	-3.1917e+05	1886.7	-0.42349	0.11263	0.89031
2.206	18.65	-3.1918e+05	1886.7	-0.42173	0.11283	0.88943
2.208	18.721	-3.1918e+05	1886.8	-0.41997	0.11302	0.88855
2.21	18.63	-3.1918e+05	1886.8	-0.41822	0.11322	0.88767
2.212	18.483	-3.1918e+05	1886.8	-0.41753	0.11331	0.88757
2.214	18.263	-3.1918e+05	1886.9	-0.41685	0.11341	0.88748
2.216	18.153	-3.1918e+05	1886.9	-0.41617	0.11351	0.88738
2.218	18.232	-3.1918e+05	1886.9	-0.41548	0.11361	0.88728
2.22	18.352	-3.1918e+05	1886.8	-0.4148	0.1137	0.88718
2.222	18.553	-3.1919e+05	1886.8	-0.4147	0.11409	0.8867
2.224	18.717	-3.1919e+05	1886.8	-0.4146	0.11448	0.88621
2.226	18.657	-3.1919e+05	1886.8	-0.41451	0.11488	0.88572
2.228	18.531	-3.192e+05	1886.7	-0.41441	0.11527	0.88523
2.23	18.316	-3.192e+05	1886.6	-0.41431	0.11566	0.88474
2.232	18.119	-3.192e+05	1886.5	-0.41665	0.11566	0.88601
2.234	18.165	-3.192e+05	1886.5	-0.419	0.11566	0.88728
2.236	18.266	-3.1921e+05	1886.4	-0.42134	0.11566	0.88855
2.238	18.484	-3.1921e+05	1886.3	-0.42368	0.11566	0.88982
2.24	18.745	-3.1921e+05	1886.2	-0.42602	0.11566	0.89109
2.242	18.7	-3.1922e+05	1886.1	-0.42505	0.11605	0.89119
2.244	18.612	-3.1922e+05	1886	-0.42407	0.11644	0.89128
2.246	18.436	-3.1922e+05	1885.9	-0.4231	0.11683	0.89138
2.248	18.151	-3.1922e+05	1885.9	-0.42212	0.11722	0.89148
2.25	18.155	-3.1922e+05	1885.8	-0.42114	0.11761	0.89158
2.252	18.271	-3.1923e+05	1885.7	-0.41968	0.1178	0.89119
2.254	18.425	-3.1923e+05	1885.6	-0.41822	0.118	0.8908
2.256	18.644	-3.1923e+05	1885.5	-0.41675	0.11819	0.8904
2.258	18.672	-3.1923e+05	1885.4	-0.41529	0.11839	0.89001
2.26	18.599	-3.1923e+05	1885.3	-0.41382	0.11858	0.88962
2.262	18.463	-3.1923e+05	1885.3	-0.41451	0.11839	0.88972
2.264	18.202	-3.1923e+05	1885.2	-0.41519	0.11819	0.88982
2.266	18.122	-3.1924e+05	1885.2	-0.41587	0.118	0.88992
2.268	18.223	-3.1924e+05	1885.2	-0.41656	0.1178	0.89001
2.27	18.378	-3.1924e+05	1885.2	-0.41724	0.11761	0.89011
2.272	18.638	-3.1924e+05	1885.2	-0.41714	0.11732	0.88923
2.274	18.772	-3.1925e+05	1885.3	-0.41704	0.11702	0.88836
2.276	18.704	-3.1925e+05	1885.3	-0.41695	0.11673	0.88748
2.278	18.536	-3.1925e+05	1885.3	-0.41685	0.11644	0.8866
2.28	18.283	-3.1926e+05	1885.3	-0.41675	0.11614	0.88572
2.282	18.133	-3.1926e+05	1885.3	-0.41763	0.11575	0.88611
2.284	18.191	-3.1927e+05	1885.2	-0.41851	0.11536	0.8865
2.286	18.345	-3.1927e+05	1885.2	-0.41939	0.11497	0.88689
2.288	18.597	-3.1928e+05	1885.2	-0.42027	0.11458	0.88728
2.29	18.831	-3.1928e+05	1885.1	-0.42114	0.11419	0.88767
2.292	18.868	-3.1928e+05	1885.1	-0.42153	0.11468	0.88767
2.294	18.797	-3.1929e+05	1885.1	-0.42192	0.11517	0.88767
2.296	18.651	-3.1929e+05	1885	-0.42232	0.11566	0.88767
2.298	18.462	-3.193e+05	1884.9	-0.42271	0.11614	0.88767
2.3	18.424	-3.193e+05	1884.9	-0.4231	0.11663	0.88767
2.302	18.498	-3.193e+05	1884.9	-0.4228	0.11614	0.88806
2.304	18.624	-3.193e+05	1884.8	-0.42251	0.11566	0.88845
2.306	18.83	-3.193e+05	1884.8	-0.42222	0.11517	0.88884
2.308	18.857	-3.1931e+05	1884.8	-0.42192	0.11468	0.88923
2.31	18.684	-3.1931e+05	1884.8	-0.42163	0.11419	0.88962
2.312	18.45	-3.1931e+05	1884.8	-0.42124	0.11468	0.88943
2.314	18.146	-3.193e+05	1884.7	-0.42085	0.11517	0.88923
2.316	17.992	-3.1932e+05	1884.7	-0.42046	0.11566	0.88904
2.318	18.073	-3.1933e+05	1884.7	-0.42007	0.11614	0.88884
2.32	18.184	-3.1933e+05	1884.7	-0.41968	0.11663	0.88865
2.322	18.425	-3.1934e+05	1884.7	-0.42066	0.11585	0.88904
2.324	18.618	-3.1933e+05	1884.7	-0.42163	0.11507	0.88943
2.326	18.582	-3.1933e+05	1884.7	-0.42261	0.11429	0.88982
2.328	18.512	-3.1934e+05	1884.6	-0.42358	0.11351	0.89021
2.33	18.286	-3.1935e+05	1884.6	-0.42456	0.11273	0.8906
2.332	18.078	-3.1935e+05	1884.6	-0.42417	0.11283	0.89011
2.334	18.158	-3.1935e+05	1884.5	-0.42378	0.11292	0.88962
2.336	18.298	-3.1936e+05	1884.4	-0.42339	0.11302	0.88914
2.338	18.503	-3.1936e+05	1884.3	-0.423	0.11312	0.88865
2.34	18.698	-3.1936e+05	1884.2	-0.42261	0.11322	0.88816
2.342	18.651	-3.1936e+05	1884.1	-0.42319	0.11322	0.88836
2.344	18.57	-3.1936e+05	1884	-0.42378	0.11322	0.88855
2.346	18.363	-3.1936e+05	1884	-0.42436	0.11322	0.88875
2.348	18.124	-3.1937e+05	1883.9	-0.42495	0.11322	0.88894
2.35	18.114	-3.1938e+05	1883.8	-0.42554	0.11322	0.88914
2.352	18.236	-3.1938e+05	1883.8	-0.42349	0.11419	0.88855
2.354	18.436	-3.1938e+05	1883.8	-0.42144	0.11517	0.88796
2.356	18.684	-3.1938e+05	1883.8	-0.41939	0.11614	0.88738
2.358	18.715	-3.1939e+05	1883.9	-0.41734	0.11712	0.88679
2.36	18.608	-3.1939e+05	1884	-0.41529	0.1181	0.88621
2.362	18.455	-3.1939e+05	1884.1	-0.41421	0.1178	0.8864
2.364	18.223	-3.1939e+05	1884.1	-0.41314	0.11751	0.8866
2.366	18.113	-3.194e+05	1884.1	-0.41207	0.11722	0.88679
2.368	18.178	-3.194e+05	1884.1	-0.41099	0.11692	0.88699
2.37	18.325	-3.194e+05	1884.2	-0.40992	0.11663	0.88718
2.372	18.551	-3.1941e+05	1884.2	-0.41109	0.11653	0.88748
2.374	18.694	-3.1941e+05	1884.3	-0.41226	0.11644	0.88777
2.376	18.654	-3.1941e+05	1884.3	-0.41343	0.11634	0.88806
2.378	18.535	-3.1942e+05	1884.3	-0.4146	0.11624	0.88836
2.38	18.322	-3.1942e+05	1884.3	-0.41578	0.11614	0.88865
2.382	18.134	-3.1942e+05	1884.4	-0.41607	0.11634	0.88787
2.384	18.158	-3.1943e+05	1884.4	-0.41636	0.11653	0.88709
2.386	18.296	-3.1944e+05	1884.5	-0.41665	0.11673	0.88631
2.388	18.505	-3.1944e+05	1884.5	-0.41695	0.11692	0.88552
2.39	18.727	-3.1944e+05	1884.6	-0.41724	0.11712	0.88474
2.392	18.718	-3.1944e+05	1884.7	-0.41783	0.11634	0.88328
2.394	18.599	-3.1945e+05	1884.7	-0.41841	0.11556	0.88182
2.396	18.421	-3.1945e+05	1884.7	-0.419	0.11478	0.88035
2.398	18.15	-3.1945e+05	1884.6	-0.41958	0.114	0.87889
2.4	18.09	-3.1945e+05	1884.5	-0.42017	0.11322	0.87742
2.402	18.204	-3.1945e+05	1884.3	-0.41929	0.11244	0.87899
2.404	18.386	-3.1945e+05	1884.1	-0.41841	0.11165	0.88055
2.406	18.657	-3.1945e+05	1884	-0.41753	0.11087	0.88211
2.408	18.714	-3.1946e+05	1883.9	-0.41665	0.11009	0.88367
2.41	18.608	-3.1947e+05	1883.8	-0.41578	0.10931	0.88523
2.412	18.492	-3.1947e+05	1883.8	-0.41539	0.11185	0.88826
2.414	18.214	-3.1947e+05	1883.8	-0.415	0.11439	0.89128
2.416	18.115	-3.1947e+05	1883.8	-0.4146	0.11692	0.89431
2.418	18.202	-3.1947e+05	1883.8	-0.41421	0.11946	0.89733
2.42	18.318	-3.1948e+05	1883.8	-0.41382	0.122	0.90036
2.422	18.613	-3.1949e+05	1884.1	-0.4189	0.11936	0.89909
2.424	18.754	-3.1949e+05	1884.3	-0.42397	0.11673	0.89782
2.426	18.684	-3.195e+05	1884.8	-0.42905	0.11409	0.89655
2.428	18.574	-3.1951e+05	1885.6	-0.43412	0.11146	0.89528
2.43	18.318	-3.1951e+05	1886.3	-0.4392	0.10882	0.89402
2.432	18.113	-3.1951e+05	1887.4	-0.43432	0.11009	0.89245
2.434	18.13	-3.1951e+05	1888.5	-0.42944	0.11136	0.89089
2.436	18.236	-3.1951e+05	1889.5	-0.42456	0.11263	0.88933
2.438	18.5	-3.1951e+05	1890.3	-0.41968	0.1139	0.88777
2.44	18.739	-3.1952e+05	1891.2	-0.4148	0.11517	0.88621
2.442	18.743	-3.1952e+05	1891.6	-0.41578	0.11458	0.88787
2.444	18.64	-3.1953e+05	1892.1	-0.41675	0.114	0.88953
2.446	18.428	-3.1954e+05	1892.4	-0.41773	0.11341	0.89119
2.448	18.203	-3.1953e+05	1892.7	-0.4187	0.11283	0.89284
2.45	18.177	-3.1953e+05	1893	-0.41968	0.11224	0.8945
2.452	18.26	-3.1954e+05	1893.6	-0.42261	0.11156	0.89665
2.454	18.434	-3.1955e+05	1894.2	-0.42554	0.11087	0.8988
2.456	18.663	-3.1954e+05	1895	-0.42846	0.11019	0.90095
2.458	18.726	-3.1954e+05	1896	-0.43139	0.10951	0.90309
2.46	18.647	-3.1955e+05	1897	-0.43432	0.10882	0.90524
2.462	18.519	-3.1956e+05	1898	-0.43188	0.10853	0.90426
2.464	18.306	-3.1956e+05	1899	-0.42944	0.10824	0.90329
2.466	18.189	-3.1955e+05	1899.8	-0.427	0.10795	0.90231
2.468	18.26	-3.1955e+05	1900.4	-0.42456	0.10765	0.90134
2.47	18.398	-3.1956e+05	1901	-0.42212	0.10736	0.90036
2.472	18.636	-3.1955e+05	1901.1	-0.42163	0.10834	0.89733
2.474	18.823	-3.1955e+05	1901.2	-0.42114	0.10931	0.89431
2.476	18.753	-3.1955e+05	1901.3	-0.42066	0.11029	0.89128
2.478	18.632	-3.1955e+05	1901.3	-0.42017	0.11126	0.88826
2.48	18.438	-3.1954e+05	1901.3	-0.41968	0.11224	0.88523
2.482	18.235	-3.1954e+05	1901.4	-0.42163	0.11136	0.8864
2.484	18.282	-3.1954e+05	1901.5	-0.42358	0.11048	0.88757
2.486	18.38	-3.1954e+05	1901.6	-0.42554	0.1096	0.88875
2.488	18.57	-3.1954e+05	1901.8	-0.42749	0.10873	0.88992
2.49	18.847	-3.1954e+05	1902	-0.42944	0.10785	0.89109
2.492	18.844	-3.1954e+05	1902.1	-0.42807	0.10814	0.89089
2.494	18.763	-3.1954e+05	1902.2	-0.42671	0.10843	0.8907
2.496	18.589	-3.1953e+05	1902.2	-0.42534	0.10873	0.8905
2.498	18.288	-3.1952e+05	1902.1	-0.42397	0.10902	0.89031
2.5	18.277	-3.1952e+05	1902	-0.42261	0.10931	0.89011
2.502	18.397	-3.1952e+05	1901.7	-0.42271	0.1096	0.88904
2.504	18.548	-3.1952e+05	1901.5	-0.4228	0.1099	0.88796
2.506	18.841	-3.1951e+05	1901.2	-0.4229	0.11019	0.88689
2.508	18.879	-3.1951e+05	1900.9	-0.423	0.11048	0.88582
2.51	18.782	-3.1951e+05	1900.6	-0.4231	0.11078	0.88474
2.512	18.643	-3.195e+05	1900.3	-0.42319	0.11117	0.88455
2.514	18.36	-3.195e+05	1900	-0.42329	0.11156	0.88435
2.516	18.245	-3.1949e+05	1899.7	-0.42339	0.11195	0.88416
2.518	18.318	-3.1948e+05	1899.4	-0.42349	0.11234	0.88396
2.52	18.443	-3.1948e+05	1899.1	-0.42358	0.11273	0.88377
2.522	18.705	-3.1948e+05	1898.8	-0.4228	0.11488	0.88465
2.524	18.836	-3.1947e+05	1898.5	-0.42202	0.11702	0.88552
2.526	18.785	-3.1946e+05	1898.2	-0.42124	0.11917	0.8864
2.528	18.68	-3.1946e+05	1897.9	-0.42046	0.12132	0.88728
2.53	18.449	-3.1945e+05	1897.7	-0.41968	0.12346	0.88816
2.532	18.268	-3.1945e+05	1897.4	-0.41939	0.12298	0.88796
2.534	18.27	-3.1944e+05	1897.1	-0.41909	0.12249	0.88777
2.536	18.383	-3.1943e+05	1896.8	-0.4188	0.122	0.88757
2.538	18.614	-3.1943e+05	1896.5	-0.41851	0.12151	0.88738
2.54	18.805	-3.1942e+05	1896.2	-0.41822	0.12102	0.88718
2.542	18.79	-3.1941e+05	1895.9	-0.41724	0.12015	0.88689
2.544	18.658	-3.1941e+05	1895.5	-0.41626	0.11927	0.8866
2.546	18.461	-3.1941e+05	1895.2	-0.41529	0.11839	0.88631
2.548	18.26	-3.194e+05	1894.9	-0.41431	0.11751	0.88601
2.55	18.221	-3.1939e+05	1894.7	-0.41334	0.11663	0.88572
2.552	18.31	-3.1938e+05	1894.4	-0.41304	0.11614	0.88523
2.554	18.468	-3.1937e+05	1894.2	-0.41275	0.11566	0.88474
2.556	18.693	-3.1937e+05	1894	-0.41246	0.11517	0.88426
2.558	18.753	-3.1937e+05	1893.7	-0.41216	0.11468	0.88377
2.56	18.617	-3.1935e+05	1893.4	-0.41187	0.11419	0.88328
2.562	18.46	-3.1934e+05	1893.2	-0.41275	0.11458	0.88396
2.564	18.228	-3.1934e+05	1893	-0.41363	0.11497	0.88465
2.566	18.104	-3.1933e+05	1892.8	-0.41451	0.11536	0.88533
2.568	18.217	-3.1933e+05	1892.8	-0.41539	0.11575	0.88601
2.57	18.374	-3.1933e+05	1892.8	-0.41626	0.11614	0.8867
2.572	18.6	-3.1932e+05	1892.9	-0.41714	0.11527	0.88465
2.574	18.75	-3.1931e+05	1892.9	-0.41802	0.11439	0.8826
2.576	18.671	-3.193e+05	1893	-0.4189	0.11351	0.88055
2.578	18.573	-3.193e+05	1892.9	-0.41978	0.11263	0.8785
2.58	18.35	-3.1929e+05	1892.9	-0.42066	0.11175	0.87645
2.582	18.128	-3.1929e+05	1892.6	-0.41958	0.11224	0.87752
2.584	18.171	-3.1928e+05	1892.4	-0.41851	0.11273	0.8786
2.586	18.275	-3.1927e+05	1892.1	-0.41744	0.11322	0.87967
2.588	18.492	-3.1927e+05	1891.9	-0.41636	0.1137	0.88074
2.59	18.758	-3.1926e+05	1891.6	-0.41529	0.11419	0.88182
2.592	18.695	-3.1926e+05	1891.4	-0.41724	0.1137	0.88377
2.594	18.549	-3.1926e+05	1891.1	-0.41919	0.11322	0.88572
2.596	18.377	-3.1925e+05	1891.1	-0.42114	0.11273	0.88767
2.598	18.145	-3.1924e+05	1891.2	-0.4231	0.11224	0.88962
2.6	18.136	-3.1924e+05	1891.3	-0.42505	0.11175	0.89158
2.602	18.209	-3.1925e+05	1891.6	-0.42485	0.11146	0.89265
2.604	18.379	-3.1925e+05	1891.8	-0.42466	0.11117	0.89372
2.606	18.644	-3.1925e+05	1892	-0.42446	0.11087	0.8948
2.608	18.696	-3.1924e+05	1892.1	-0.42427	0.11058	0.89587
2.61	18.616	-3.1924e+05	1892.2	-0.42407	0.11029	0.89694
2.612	18.475	-3.1923e+05	1892.1	-0.42319	0.11019	0.89489
2.614	18.228	-3.1923e+05	1892	-0.42232	0.11009	0.89284
2.616	18.126	-3.1923e+05	1892	-0.42144	0.11	0.8908
2.618	18.189	-3.1922e+05	1891.9	-0.42056	0.1099	0.88875
2.62	18.324	-3.1921e+05	1891.9	-0.41968	0.1098	0.8867
2.622	18.571	-3.192e+05	1892	-0.41958	0.11087	0.88757
2.624	18.717	-3.192e+05	1892	-0.41948	0.11195	0.88845
2.626	18.688	-3.192e+05	1892.1	-0.41939	0.11302	0.88933
2.628	18.58	-3.1919e+05	1892.2	-0.41929	0.11409	0.89021
2.63	18.321	-3.1919e+05	1892.4	-0.41919	0.11517	0.89109
2.632	18.084	-3.1918e+05	1892.5	-0.42036	0.11341	0.89216
2.634	18.105	-3.1918e+05	1892.7	-0.42153	0.11165	0.89324
2.636	18.251	-3.1918e+05	1892.8	-0.42271	0.1099	0.89431
2.638	18.471	-3.1918e+05	1892.8	-0.42388	0.10814	0.89538
2.64	18.693	-3.1918e+05	1892.9	-0.42505	0.10638	0.89646
2.642	18.683	-3.1918e+05	1893	-0.42554	0.10697	0.89607
2.644	18.558	-3.1917e+05	1893.1	-0.42602	0.10756	0.89568
2.646	18.41	-3.1916e+05	1893.2	-0.42651	0.10814	0.89528
2.648	18.193	-3.1916e+05	1893.3	-0.427	0.10873	0.89489
2.65	18.147	-3.1916e+05	1893.5	-0.42749	0.10931	0.8945
2.652	18.257	-3.1916e+05	1893.6	-0.42768	0.10902	0.89402
2.654	18.417	-3.1916e+05	1893.8	-0.42788	0.10873	0.89353
2.656	18.65	-3.1915e+05	1894	-0.42807	0.10843	0.89304
2.658	18.719	-3.1915e+05	1894.1	-0.42827	0.10814	0.89255
2.66	18.601	-3.1914e+05	1894.3	-0.42846	0.10785	0.89206
2.662	18.479	-3.1913e+05	1894.3	-0.42641	0.11	0.89119
2.664	18.238	-3.1913e+05	1894.3	-0.42436	0.11214	0.89031
2.666	18.1	-3.1913e+05	1894.3	-0.42232	0.11429	0.88943
2.668	18.173	-3.1913e+05	1894.1	-0.42027	0.11644	0.88855
2.67	18.307	-3.1914e+05	1894	-0.41822	0.11858	0.88767
2.672	18.591	-3.1914e+05	1893.8	-0.41831	0.11839	0.88757
2.674	18.759	-3.1914e+05	1893.5	-0.41841	0.11819	0.88748
2.676	18.676	-3.1913e+05	1893.3	-0.41851	0.118	0.88738
2.678	18.562	-3.1913e+05	1893	-0.41861	0.1178	0.88728
2.68	18.311	-3.1913e+05	1892.8	-0.4187	0.11761	0.88718
2.682	18.123	-3.1914e+05	1892.6	-0.41831	0.11751	0.88699
2.684	18.17	-3.1913e+05	1892.3	-0.41792	0.11741	0.88679
2.686	18.257	-3.1913e+05	1892.1	-0.41753	0.11732	0.8866
2.688	18.476	-3.1913e+05	1891.9	-0.41714	0.11722	0.8864
2.69	18.698	-3.1912e+05	1891.6	-0.41675	0.11712	0.88621
2.692	18.689	-3.1912e+05	1891.4	-0.41744	0.11644	0.88592
2.694	18.607	-3.1912e+05	1891.2	-0.41812	0.11575	0.88562
2.696	18.424	-3.1913e+05	1891	-0.4188	0.11507	0.88533
2.698	18.188	-3.1913e+05	1890.8	-0.41948	0.11439	0.88504
2.7	18.123	-3.1913e+05	1890.5	-0.42017	0.1137	0.88474
2.702	18.189	-3.1913e+05	1890.4	-0.42212	0.114	0.88621
2.704	18.384	-3.1913e+05	1890.2	-0.42407	0.11429	0.88767
2.706	18.643	-3.1913e+05	1890.1	-0.42602	0.11458	0.88914
2.708	18.704	-3.1912e+05	1890	-0.42798	0.11488	0.8906
2.71	18.604	-3.1911e+05	1889.9	-0.42993	0.11517	0.89206
2.712	18.451	-3.1912e+05	1889.9	-0.42778	0.11614	0.8908
2.714	18.232	-3.1913e+05	1889.8	-0.42563	0.11712	0.88953
2.716	18.116	-3.1913e+05	1889.7	-0.42349	0.1181	0.88826
2.718	18.173	-3.1913e+05	1889.7	-0.42134	0.11907	0.88699
2.72	18.317	-3.1913e+05	1889.7	-0.41919	0.12005	0.88572
2.722	18.559	-3.1913e+05	1889.6	-0.41919	0.11907	0.88611
2.724	18.723	-3.1912e+05	1889.6	-0.41919	0.1181	0.8865
2.726	18.669	-3.1912e+05	1889.5	-0.41919	0.11712	0.88689
2.728	18.535	-3.1912e+05	1889.5	-0.41919	0.11614	0.88728
2.73	18.319	-3.1913e+05	1889.4	-0.41919	0.11517	0.88767
2.732	18.132	-3.1913e+05	1889.4	-0.41909	0.11546	0.88796
2.734	18.157	-3.1913e+05	1889.3	-0.419	0.11575	0.88826
2.736	18.252	-3.1913e+05	1889.3	-0.4189	0.11605	0.88855
2.738	18.432	-3.1914e+05	1889.2	-0.4188	0.11634	0.88884
2.74	18.682	-3.1914e+05	1889.1	-0.4187	0.11663	0.88914
2.742	18.684	-3.1914e+05	1889.1	-0.41822	0.11653	0.88865
2.744	18.55	-3.1913e+05	1889.1	-0.41773	0.11644	0.88816
2.746	18.384	-3.1912e+05	1889	-0.41724	0.11634	0.88767
2.748	18.128	-3.1913e+05	1889	-0.41675	0.11624	0.88718
2.75	18.089	-3.1914e+05	1888.9	-0.41626	0.11614	0.8867
2.752	18.236	-3.1914e+05	1888.8	-0.41665	0.11634	0.88709
2.754	18.43	-3.1914e+05	1888.7	-0.41704	0.11653	0.88748
2.756	18.723	-3.1915e+05	1888.6	-0.41744	0.11673	0.88787
2.758	18.748	-3.1915e+05	1888.5	-0.41783	0.11692	0.88826
2.76	18.627	-3.1915e+05	1888.4	-0.41822	0.11712	0.88865
2.762	18.462	-3.1915e+05	1888.4	-0.41948	0.11663	0.88865
2.764	18.125	-3.1915e+05	1888.3	-0.42075	0.11614	0.88865
2.766	18.015	-3.1915e+05	1888.3	-0.42202	0.11566	0.88865
2.768	18.122	-3.1915e+05	1888.2	-0.42329	0.11517	0.88865
2.77	18.277	-3.1916e+05	1888.1	-0.42456	0.11468	0.88865
2.772	18.573	-3.1916e+05	1888	-0.42261	0.11448	0.88836
2.774	18.723	-3.1915e+05	1888	-0.42066	0.11429	0.88806
2.776	18.655	-3.1915e+05	1887.9	-0.4187	0.11409	0.88777
2.778	18.533	-3.1915e+05	1887.8	-0.41675	0.1139	0.88748
2.78	18.293	-3.1915e+05	1887.7	-0.4148	0.1137	0.88718
2.782	18.115	-3.1915e+05	1887.6	-0.41646	0.114	0.88826
2.784	18.141	-3.1915e+05	1887.5	-0.41812	0.11429	0.88933
2.786	18.258	-3.1916e+05	1887.4	-0.41978	0.11458	0.8904
2.788	18.494	-3.1916e+05	1887.3	-0.42144	0.11488	0.89148
2.79	18.714	-3.1916e+05	1887.2	-0.4231	0.11517	0.89255
2.792	18.718	-3.1916e+05	1887.2	-0.42144	0.11527	0.89167
2.794	18.575	-3.1916e+05	1887.1	-0.41978	0.11536	0.8908
2.796	18.352	-3.1916e+05	1887.1	-0.41812	0.11546	0.88992
2.798	18.131	-3.1916e+05	1887.1	-0.41646	0.11556	0.88904
2.8	18.1	-3.1916e+05	1887	-0.4148	0.11566	0.88816
2.802	18.215	-3.1917e+05	1887	-0.41558	0.11517	0.88738
2.804	18.39	-3.1917e+05	1887	-0.41636	0.11468	0.8866
2.806	18.612	-3.1918e+05	1887	-0.41714	0.11419	0.88582
2.808	18.682	-3.1918e+05	1887	-0.41792	0.1137	0.88504
2.81	18.583	-3.1918e+05	1887	-0.4187	0.11322	0.88426
2.812	18.447	-3.1918e+05	1887.1	-0.4187	0.1139	0.88426
2.814	18.231	-3.1918e+05	1887.1	-0.4187	0.11458	0.88426
2.816	18.106	-3.1919e+05	1887.1	-0.4187	0.11527	0.88426
2.818	18.189	-3.192e+05	1887.2	-0.4187	0.11595	0.88426
2.82	18.337	-3.1919e+05	1887.2	-0.4187	0.11663	0.88426
2.822	18.572	-3.1919e+05	1887.2	-0.41841	0.11624	0.88435
2.824	18.747	-3.1919e+05	1887.2	-0.41812	0.11585	0.88445
2.826	18.677	-3.192e+05	1887.1	-0.41783	0.11546	0.88455
2.828	18.546	-3.192e+05	1887	-0.41753	0.11507	0.88465
2.83	18.332	-3.192e+05	1886.9	-0.41724	0.11468	0.88474
2.832	18.111	-3.192e+05	1886.8	-0.41861	0.11448	0.88601
2.834	18.166	-3.192e+05	1886.8	-0.41997	0.11429	0.88728
2.836	18.285	-3.192e+05	1886.7	-0.42134	0.11409	0.88855
2.838	18.482	-3.192e+05	1886.6	-0.42271	0.1139	0.88982
2.84	18.749	-3.1921e+05	1886.5	-0.42407	0.1137	0.89109
2.842	18.712	-3.1922e+05	1886.4	-0.42329	0.11458	0.89119
2.844	18.6	-3.1921e+05	1886.4	-0.42251	0.11546	0.89128
2.846	18.386	-3.1921e+05	1886.3	-0.42173	0.11634	0.89138
2.848	18.112	-3.1922e+05	1886.3	-0.42095	0.11722	0.89148
2.85	18.123	-3.1922e+05	1886.3	-0.42017	0.1181	0.89158
2.852	18.245	-3.1922e+05	1886.2	-0.42007	0.11751	0.8908
2.854	18.427	-3.1922e+05	1886.2	-0.41997	0.11692	0.89001
2.856	18.701	-3.1923e+05	1886.2	-0.41988	0.11634	0.88923
2.858	18.753	-3.1924e+05	1886.2	-0.41978	0.11575	0.88845
2.86	18.677	-3.1924e+05	1886.1	-0.41968	0.11517	0.88767
2.862	18.529	-3.1923e+05	1886.1	-0.42027	0.11566	0.88855
2.864	18.275	-3.1924e+05	1886.1	-0.42085	0.11614	0.88943
2.866	18.154	-3.1924e+05	1886.1	-0.42144	0.11663	0.89031
2.868	18.207	-3.1924e+05	1886	-0.42202	0.11712	0.89119
2.87	18.347	-3.1924e+05	1885.9	-0.42261	0.11761	0.89206
2.872	18.572	-3.1925e+05	1885.8	-0.42261	0.11751	0.89206
2.874	18.681	-3.1926e+05	1885.8	-0.42261	0.11741	0.89206
2.876	18.636	-3.1926e+05	1885.7	-0.42261	0.11732	0.89206
2.878	18.543	-3.1926e+05	1885.6	-0.42261	0.11722	0.89206
2.88	18.336	-3.1926e+05	1885.4	-0.42261	0.11712	0.89206
2.882	18.157	-3.1927e+05	1885.3	-0.42202	0.11673	0.89128
2.884	18.173	-3.1927e+05	1885.3	-0.42144	0.11634	0.8905
2.886	18.295	-3.1926e+05	1885.2	-0.42085	0.11595	0.88972
2.888	18.514	-3.1927e+05	1885.1	-0.42027	0.11556	0.88894
2.89	18.722	-3.1927e+05	1885.1	-0.41968	0.11517	0.88816
2.892	18.719	-3.1927e+05	1885	-0.42007	0.11527	0.88836
2.894	18.6	-3.1927e+05	1885	-0.42046	0.11536	0.88855
2.896	18.428	-3.1928e+05	1884.9	-0.42085	0.11546	0.88875
2.898	18.209	-3.1928e+05	1884.8	-0.42124	0.11556	0.88894
2.9	18.149	-3.1928e+05	1884.7	-0.42163	0.11566	0.88914
2.902	18.24	-3.1929e+05	1884.6	-0.42124	0.11653	0.88972
2.904	18.393	-3.1929e+05	1884.5	-0.42085	0.11741	0.89031
2.906	18.621	-3.1929e+05	1884.4	-0.42046	0.11829	0.89089
2.908	18.701	-3.1929e+05	1884.3	-0.42007	0.11917	0.89148
2.91	18.587	-3.1929e+05	1884.2	-0.41968	0.12005	0.89206
2.912	18.446	-3.193e+05	1884.1	-0.41988	0.11956	0.89138
2.914	18.203	-3.193e+05	1883.9	-0.42007	0.11907	0.8907
2.916	18.07	-3.1931e+05	1883.8	-0.42027	0.11858	0.89001
2.918	18.172	-3.1931e+05	1883.7	-0.42046	0.1181	0.88933
2.92	18.303	-3.1931e+05	1883.5	-0.42066	0.11761	0.88865
2.922	18.577	-3.1931e+05	1883.4	-0.42007	0.1178	0.88904
2.924	18.754	-3.1931e+05	1883.4	-0.41948	0.118	0.88943
2.926	18.664	-3.1931e+05	1883.3	-0.4189	0.11819	0.88982
2.928	18.549	-3.1932e+05	1883.2	-0.41831	0.11839	0.89021
2.93	18.301	-3.1932e+05	1883.2	-0.41773	0.11858	0.8906
2.932	18.083	-3.1933e+05	1883.1	-0.41675	0.1179	0.88982
2.934	18.151	-3.1934e+05	1883.1	-0.41578	0.11722	0.88904
2.936	18.269	-3.1933e+05	1883	-0.4148	0.11653	0.88826
2.938	18.461	-3.1932e+05	1882.9	-0.41382	0.11585	0.88748
2.94	18.682	-3.1932e+05	1882.8	-0.41285	0.11517	0.8867
2.942	18.645	-3.1932e+05	1882.8	-0.41324	0.11546	0.88699
2.944	18.551	-3.1933e+05	1882.8	-0.41363	0.11575	0.88728
2.946	18.369	-3.1933e+05	1882.8	-0.41402	0.11605	0.88757
2.948	18.142	-3.1934e+05	1882.8	-0.41441	0.11634	0.88787
2.95	18.131	-3.1935e+05	1882.8	-0.4148	0.11663	0.88816
2.952	18.205	-3.1935e+05	1882.9	-0.4146	0.11692	0.88816
2.954	18.362	-3.1934e+05	1882.9	-0.41441	0.11722	0.88816
2.956	18.648	-3.1935e+05	1883	-0.41421	0.11751	0.88816
2.958	18.75	-3.1935e+05	1883.1	-0.41402	0.1178	0.88816
2.96	18.654	-3.1935e+05	1883.2	-0.41382	0.1181	0.88816
2.962	18.455	-3.1936e+05	1883.3	-0.41509	0.11839	0.88914
2.964	18.2	-3.1937e+05	1883.4	-0.41636	0.11868	0.89011
2.966	18.101	-3.1938e+05	1883.5	-0.41763	0.11897	0.89109
2.968	18.179	-3.1938e+05	1883.6	-0.4189	0.11927	0.89206
2.97	18.314	-3.1938e+05	1883.8	-0.42017	0.11956	0.89304
2.972	18.527	-3.1938e+05	1883.8	-0.42085	0.11936	0.89284
2.974	18.683	-3.1938e+05	1883.9	-0.42153	0.11917	0.89265
2.976	18.647	-3.1938e+05	1883.9	-0.42222	0.11897	0.89245
2.978	18.514	-3.1938e+05	1883.9	-0.4229	0.11878	0.89226
2.98	18.292	-3.1939e+05	1883.9	-0.42358	0.11858	0.89206
2.982	18.11	-3.1939e+05	1883.9	-0.42466	0.11653	0.89275
2.984	18.164	-3.194e+05	1883.8	-0.42573	0.11448	0.89343
2.986	18.323	-3.1941e+05	1883.8	-0.4268	0.11244	0.89411
2.988	18.543	-3.194e+05	1883.8	-0.42788	0.11039	0.8948
2.99	18.794	-3.194e+05	1883.8	-0.42895	0.10834	0.89548
2.992	18.822	-3.1941e+05	1883.8	-0.42856	0.10824	0.89577
2.994	18.743	-3.1941e+05	1883.7	-0.42817	0.10814	0.89607
2.996	18.645	-3.1942e+05	1883.7	-0.42778	0.10804	0.89636
2.998	18.439	-3.1942e+05	1883.6	-0.42739	0.10795	0.89665
3	18.393	-3.1942e+05	1883.5	-0.427	0.10785	0.89694
3.002	18.435	-3.1942e+05	1883.5	-0.4268	0.10756	0.89704
3.004	18.561	-3.1943e+05	1883.4	-0.42661	0.10726	0.89714
3.006	18.84	-3.1943e+05	1883.3	-0.42641	0.10697	0.89724
3.008	18.862	-3.1944e+05	1883.2	-0.42622	0.10668	0.89733
3.01	18.705	-3.1944e+05	1883	-0.42602	0.10638	0.89743
3.012	18.513	-3.1944e+05	1882.9	-0.42612	0.10726	0.89626
3.014	18.131	-3.1945e+05	1882.8	-0.42622	0.10814	0.89509
3.016	17.97	-3.1945e+05	1882.6	-0.42632	0.10902	0.89392
3.018	18.057	-3.1945e+05	1882.3	-0.42641	0.1099	0.89275
3.02	18.177	-3.1946e+05	1882.1	-0.42651	0.11078	0.89158
3.022	18.466	-3.1946e+05	1881.9	-0.4268	0.11039	0.89216
3.024	18.634	-3.1947e+05	1881.6	-0.4271	0.11	0.89275
3.026	18.579	-3.1947e+05	1881.4	-0.42739	0.1096	0.89333
3.028	18.478	-3.1947e+05	1881.2	-0.42768	0.10921	0.89392
3.03	18.237	-3.1948e+05	1880.9	-0.42798	0.10882	0.8945
3.032	18.052	-3.1948e+05	1880.7	-0.42671	0.1099	0.89353
3.034	18.115	-3.1948e+05	1880.5	-0.42544	0.11097	0.89255
3.036	18.276	-3.1948e+05	1880.2	-0.42417	0.11204	0.89158
3.038	18.52	-3.1948e+05	1880	-0.4229	0.11312	0.8906
3.04	18.722	-3.1949e+05	1879.8	-0.42163	0.11419	0.88962
3.042	18.692	-3.195e+05	1879.6	-0.42134	0.11536	0.89011
3.044	18.568	-3.195e+05	1879.4	-0.42105	0.11653	0.8906
3.046	18.375	-3.195e+05	1879.1	-0.42075	0.11771	0.89109
3.048	18.171	-3.195e+05	1878.9	-0.42046	0.11888	0.89158
3.05	18.146	-3.195e+05	1878.7	-0.42017	0.12005	0.89206
3.052	18.223	-3.195e+05	1878.5	-0.4188	0.11839	0.8907
3.054	18.37	-3.1951e+05	1878.3	-0.41744	0.11673	0.88933
3.056	18.6	-3.1951e+05	1878.1	-0.41607	0.11507	0.88796
3.058	18.685	-3.1952e+05	1877.9	-0.4147	0.11341	0.8866
3.06	18.587	-3.1952e+05	1877.7	-0.41334	0.11175	0.88523
3.062	18.435	-3.1953e+05	1877.5	-0.41402	0.11273	0.88474
3.064	18.215	-3.1954e+05	1877.4	-0.4147	0.1137	0.88426
3.066	18.089	-3.1955e+05	1877.2	-0.41539	0.11468	0.88377
3.068	18.169	-3.1955e+05	1877.1	-0.41607	0.11566	0.88328
3.07	18.313	-3.1955e+05	1876.9	-0.41675	0.11663	0.88279
3.072	18.527	-3.1955e+05	1876.8	-0.41656	0.11673	0.88416
3.074	18.7	-3.1955e+05	1876.7	-0.41636	0.11683	0.88552
3.076	18.64	-3.1955e+05	1876.6	-0.41617	0.11692	0.88689
3.078	18.514	-3.1955e+05	1876.5	-0.41597	0.11702	0.88826
3.08	18.323	-3.1956e+05	1876.4	-0.41578	0.11712	0.88962
3.082	18.111	-3.1956e+05	1876.4	-0.41587	0.11663	0.88826
3.084	18.133	-3.1956e+05	1876.4	-0.41597	0.11614	0.88689
3.086	18.237	-3.1957e+05	1876.4	-0.41607	0.11566	0.88552
3.088	18.439	-3.1957e+05	1876.5	-0.41617	0.11517	0.88416
3.09	18.694	-3.1958e+05	1876.6	-0.41626	0.11468	0.88279
3.092	18.679	-3.1958e+05	1876.7	-0.41519	0.11419	0.88289
3.094	18.572	-3.1959e+05	1876.8	-0.41412	0.1137	0.88299
3.096	18.427	-3.1959e+05	1876.9	-0.41304	0.11322	0.88308
3.098	18.155	-3.1959e+05	1877	-0.41197	0.11273	0.88318
3.1	18.133	-3.1959e+05	1877.1	-0.4109	0.11224	0.88328
3.102	18.231	-3.196e+05	1877.1	-0.41148	0.11292	0.88338
3.104	18.392	-3.1959e+05	1877.1	-0.41207	0.11361	0.88348
3.106	18.678	-3.1959e+05	1877.1	-0.41265	0.11429	0.88357
3.108	18.709	-3.196e+05	1877.1	-0.41324	0.11497	0.88367
3.11	18.617	-3.1961e+05	1877.1	-0.41382	0.11566	0.88377
3.112	18.495	-3.1961e+05	1877.1	-0.41519	0.11605	0.88533
3.114	18.244	-3.1962e+05	1877.1	-0.41656	0.11644	0.88689
3.116	18.153	-3.1962e+05	1877.2	-0.41792	0.11683	0.88845
3.118	18.226	-3.1963e+05	1877.3	-0.41929	0.11722	0.89001
3.12	18.333	-3.1963e+05	1877.5	-0.42066	0.11761	0.89158
3.122	18.54	-3.1963e+05	1877.7	-0.42124	0.11751	0.89177
3.124	18.677	-3.1964e+05	1877.9	-0.42183	0.11741	0.89197
3.126	18.653	-3.1964e+05	1878.2	-0.42241	0.11732	0.89216
3.128	18.543	-3.1965e+05	1878.7	-0.423	0.11722	0.89236
3.13	18.318	-3.1965e+05	1879.1	-0.42358	0.11712	0.89255
3.132	18.139	-3.1967e+05	1879.8	-0.42436	0.11595	0.89206
3.134	18.154	-3.1968e+05	1880.4	-0.42515	0.11478	0.89158
3.136	18.279	-3.1968e+05	1881.1	-0.42593	0.11361	0.89109
3.138	18.484	-3.1969e+05	1881.8	-0.42671	0.11244	0.8906
3.14	18.678	-3.1969e+05	1882.5	-0.42749	0.11126	0.89011
3.142	18.707	-3.1969e+05	1883.3	-0.42846	0.11156	0.89109
3.144	18.618	-3.197e+05	1884	-0.42944	0.11185	0.89206
3.146	18.442	-3.1971e+05	1884.7	-0.43042	0.11214	0.89304
3.148	18.23	-3.1971e+05	1885.5	-0.43139	0.11244	0.89402
3.15	18.18	-3.1971e+05	1886.2	-0.43237	0.11273	0.89499
3.152	18.261	-3.1971e+05	1886.9	-0.4312	0.11214	0.89577
3.154	18.405	-3.197e+05	1887.7	-0.43003	0.11156	0.89655
3.156	18.639	-3.1971e+05	1888.3	-0.42885	0.11097	0.89733
3.158	18.741	-3.1971e+05	1888.9	-0.42768	0.11039	0.89812
3.16	18.655	-3.1971e+05	1889.4	-0.42651	0.1098	0.8989
3.162	18.526	-3.1972e+05	1889.8	-0.4271	0.1096	0.8987
3.164	18.308	-3.1972e+05	1890.3	-0.42768	0.10941	0.89851
3.166	18.182	-3.1972e+05	1890.6	-0.42827	0.10921	0.89831
3.168	18.279	-3.1972e+05	1890.9	-0.42885	0.10902	0.89812
3.17	18.424	-3.1973e+05	1891.2	-0.42944	0.10882	0.89792
3.172	18.665	-3.1973e+05	1891.4	-0.42954	0.11029	0.89675
3.174	18.849	-3.1973e+05	1891.6	-0.42964	0.11175	0.89558
3.176	18.762	-3.1973e+05	1891.7	-0.42973	0.11322	0.89441
3.178	18.677	-3.1973e+05	1891.8	-0.42983	0.11468	0.89324
3.18	18.468	-3.1972e+05	1891.9	-0.42993	0.11614	0.89206
3.182	18.22	-3.1972e+05	1892	-0.42798	0.11517	0.89138
3.184	18.255	-3.1972e+05	1892	-0.42602	0.11419	0.8907
3.186	18.359	-3.1972e+05	1892.1	-0.42407	0.11322	0.89001
3.188	18.582	-3.1971e+05	1892.1	-0.42212	0.11224	0.88933
3.19	18.823	-3.197e+05	1892.1	-0.42017	0.11126	0.88865
3.192	18.791	-3.197e+05	1892	-0.42134	0.11175	0.88923
3.194	18.709	-3.1971e+05	1892	-0.42251	0.11224	0.88982
3.196	18.579	-3.197e+05	1891.9	-0.42368	0.11273	0.8904
3.198	18.357	-3.197e+05	1891.7	-0.42485	0.11322	0.89099
3.2	18.301	-3.1969e+05	1891.5	-0.42602	0.1137	0.89158
3.202	18.379	-3.1968e+05	1891.3	-0.42397	0.11488	0.89089
3.204	18.563	-3.1969e+05	1891	-0.42192	0.11605	0.89021
3.206	18.822	-3.1969e+05	1890.8	-0.41988	0.11722	0.88953
3.208	18.891	-3.1969e+05	1890.5	-0.41783	0.11839	0.88884
3.21	18.827	-3.1968e+05	1890.2	-0.41578	0.11956	0.88816
3.212	18.675	-3.1968e+05	1889.8	-0.41695	0.11849	0.8867
3.214	18.405	-3.1967e+05	1889.5	-0.41812	0.11741	0.88523
3.216	18.26	-3.1967e+05	1889.2	-0.41929	0.11634	0.88377
3.218	18.308	-3.1968e+05	1888.8	-0.42046	0.11527	0.8823
3.22	18.457	-3.1966e+05	1888.5	-0.42163	0.11419	0.88084
3.222	18.699	-3.1965e+05	1888.2	-0.41939	0.114	0.88133
3.224	18.848	-3.1965e+05	1887.9	-0.41714	0.1138	0.88182
3.226	18.799	-3.1964e+05	1887.6	-0.4149	0.11361	0.8823
3.228	18.67	-3.1963e+05	1887.3	-0.41265	0.11341	0.88279
3.23	18.458	-3.1962e+05	1886.9	-0.41041	0.11322	0.88328
3.232	18.266	-3.1962e+05	1886.6	-0.41041	0.11439	0.88455
3.234	18.279	-3.1962e+05	1886.3	-0.41041	0.11556	0.88582
3.236	18.404	-3.1962e+05	1886	-0.41041	0.11673	0.88709
3.238	18.595	-3.1961e+05	1885.7	-0.41041	0.1179	0.88836
3.24	18.814	-3.196e+05	1885.4	-0.41041	0.11907	0.88962
3.242	18.838	-3.1959e+05	1885.1	-0.4106	0.1181	0.88914
3.244	18.719	-3.1958e+05	1884.8	-0.4108	0.11712	0.88865
3.246	18.532	-3.1958e+05	1884.6	-0.41099	0.11614	0.88816
3.248	18.258	-3.1957e+05	1884.4	-0.41119	0.11517	0.88767
3.25	18.193	-3.1956e+05	1884.2	-0.41138	0.11419	0.88718
3.252	18.318	-3.1956e+05	1884	-0.41138	0.11458	0.88738
3.254	18.483	-3.1957e+05	1883.8	-0.41138	0.11497	0.88757
3.256	18.73	-3.1956e+05	1883.7	-0.41138	0.11536	0.88777
3.258	18.807	-3.1954e+05	1883.6	-0.41138	0.11575	0.88796
3.26	18.701	-3.1954e+05	1883.4	-0.41138	0.11614	0.88816
3.262	18.554	-3.1953e+05	1883.4	-0.41177	0.11595	0.88826
3.264	18.3	-3.1952e+05	1883.3	-0.41216	0.11575	0.88836
3.266	18.148	-3.1951e+05	1883.3	-0.41256	0.11556	0.88845
3.268	18.224	-3.1951e+05	1883.2	-0.41295	0.11536	0.88855
3.27	18.345	-3.1951e+05	1883.2	-0.41334	0.11517	0.88865
3.272	18.625	-3.1951e+05	1883.2	-0.41402	0.11566	0.88904
3.274	18.814	-3.1951e+05	1883.2	-0.4147	0.11614	0.88943
3.276	18.735	-3.1949e+05	1883.2	-0.41539	0.11663	0.88982
3.278	18.572	-3.1948e+05	1883.1	-0.41607	0.11712	0.89021
3.28	18.297	-3.1948e+05	1883.1	-0.41675	0.11761	0.8906
3.282	18.124	-3.1948e+05	1883.1	-0.41744	0.11829	0.89197
3.284	18.186	-3.1947e+05	1883.1	-0.41812	0.11897	0.89333
3.286	18.298	-3.1946e+05	1883.1	-0.4188	0.11966	0.8947
3.288	18.51	-3.1946e+05	1883.1	-0.41948	0.12034	0.89607
3.29	18.706	-3.1945e+05	1883.1	-0.42017	0.12102	0.89743
3.292	18.691	-3.1945e+05	1883.1	-0.42066	0.12024	0.89646
3.294	18.593	-3.1944e+05	1883.2	-0.42114	0.11946	0.89548
3.296	18.413	-3.1943e+05	1883.2	-0.42163	0.11868	0.8945
3.298	18.186	-3.1942e+05	1883.3	-0.42212	0.1179	0.89353
3.3	18.137	-3.1942e+05	1883.3	-0.42261	0.11712	0.89255
3.302	18.22	-3.1943e+05	1883.3	-0.42163	0.118	0.89265
3.304	18.413	-3.1942e+05	1883.4	-0.42066	0.11888	0.89275
3.306	18.672	-3.1942e+05	1883.4	-0.41968	0.11976	0.89284
3.308	18.754	-3.1941e+05	1883.4	-0.4187	0.12063	0.89294
3.31	18.671	-3.194e+05	1883.4	-0.41773	0.12151	0.89304
3.312	18.521	-3.194e+05	1883.4	-0.4189	0.12073	0.89363
3.314	18.285	-3.194e+05	1883.4	-0.42007	0.11995	0.89421
3.316	18.147	-3.1939e+05	1883.4	-0.42124	0.11917	0.8948
3.318	18.203	-3.1939e+05	1883.3	-0.42241	0.11839	0.89538
3.32	18.332	-3.1939e+05	1883.3	-0.42358	0.11761	0.89597
3.322	18.546	-3.1939e+05	1883.2	-0.4229	0.11839	0.89587
3.324	18.72	-3.1938e+05	1883.1	-0.42222	0.11917	0.89577
3.326	18.7	-3.1938e+05	1883	-0.42153	0.11995	0.89568
3.328	18.586	-3.1938e+05	1883	-0.42085	0.12073	0.89558
3.33	18.369	-3.1937e+05	1882.9	-0.42017	0.12151	0.89548
3.332	18.137	-3.1937e+05	1882.8	-0.41968	0.12093	0.89489
3.334	18.146	-3.1937e+05	1882.7	-0.41919	0.12034	0.89431
3.336	18.278	-3.1936e+05	1882.6	-0.4187	0.11976	0.89372
3.338	18.494	-3.1936e+05	1882.5	-0.41822	0.11917	0.89314
3.34	18.749	-3.1935e+05	1882.5	-0.41773	0.11858	0.89255
3.342	18.751	-3.1935e+05	1882.3	-0.41919	0.11712	0.89216
3.344	18.633	-3.1934e+05	1882.2	-0.42066	0.11566	0.89177
3.346	18.478	-3.1933e+05	1882.1	-0.42212	0.11419	0.89138
3.348	18.213	-3.1933e+05	1882	-0.42358	0.11273	0.89099
3.35	18.149	-3.1933e+05	1881.9	-0.42505	0.11126	0.8906
3.352	18.25	-3.1933e+05	1881.8	-0.42573	0.11224	0.89177
3.354	18.376	-3.1933e+05	1881.8	-0.42641	0.11322	0.89294
3.356	18.666	-3.1932e+05	1881.7	-0.4271	0.11419	0.89411
3.358	18.752	-3.1932e+05	1881.7	-0.42778	0.11517	0.89528
3.36	18.652	-3.1932e+05	1881.7	-0.42846	0.11614	0.89646
3.362	18.522	-3.1932e+05	1881.7	-0.42593	0.11624	0.89538
3.364	18.258	-3.1931e+05	1881.7	-0.42339	0.11634	0.89431
3.366	18.146	-3.1931e+05	1881.7	-0.42085	0.11644	0.89324
3.368	18.225	-3.193e+05	1881.7	-0.41831	0.11653	0.89216
3.37	18.326	-3.193e+05	1881.7	-0.41578	0.11663	0.89109
3.372	18.575	-3.193e+05	1881.5	-0.41665	0.11732	0.89138
3.374	18.742	-3.193e+05	1881.4	-0.41753	0.118	0.89167
3.376	18.698	-3.193e+05	1881.3	-0.41841	0.11868	0.89197
3.378	18.578	-3.193e+05	1881.1	-0.41929	0.11936	0.89226
3.38	18.337	-3.193e+05	1880.9	-0.42017	0.12005	0.89255
3.382	18.15	-3.1931e+05	1880.7	-0.41997	0.12034	0.89206
3.384	18.183	-3.193e+05	1880.5	-0.41978	0.12063	0.89158
3.386	18.318	-3.193e+05	1880.3	-0.41958	0.12093	0.89109
3.388	18.532	-3.193e+05	1880.1	-0.41939	0.12122	0.8906
3.39	18.724	-3.1929e+05	1879.9	-0.41919	0.12151	0.89011
3.392	18.719	-3.1928e+05	1879.7	-0.41988	0.12083	0.89109
3.394	18.601	-3.1928e+05	1879.5	-0.42056	0.12015	0.89206
3.396	18.415	-3.1928e+05	1879.4	-0.42124	0.11946	0.89304
3.398	18.202	-3.1928e+05	1879.3	-0.42192	0.11878	0.89402
3.4	18.143	-3.1928e+05	1879.2	-0.42261	0.1181	0.89499
3.402	18.229	-3.1929e+05	1879.1	-0.42241	0.11819	0.89489
3.404	18.402	-3.1928e+05	1879	-0.42222	0.11829	0.8948
3.406	18.654	-3.1928e+05	1878.9	-0.42202	0.11839	0.8947
3.408	18.773	-3.1928e+05	1878.8	-0.42183	0.11849	0.8946
3.41	18.684	-3.1928e+05	1878.8	-0.42163	0.11858	0.8945
3.412	18.521	-3.1928e+05	1878.8	-0.42192	0.1178	0.89411
3.414	18.271	-3.1928e+05	1878.7	-0.42222	0.11702	0.89372
3.416	18.097	-3.1928e+05	1878.8	-0.42251	0.11624	0.89333
3.418	18.172	-3.1928e+05	1878.8	-0.4228	0.11546	0.89294
3.42	18.318	-3.1928e+05	1878.8	-0.4231	0.11468	0.89255
3.422	18.576	-3.1929e+05	1878.8	-0.42349	0.11448	0.89206
3.424	18.789	-3.1929e+05	1878.9	-0.42388	0.11429	0.89158
3.426	18.722	-3.193e+05	1878.9	-0.42427	0.11409	0.89109
3.428	18.575	-3.1929e+05	1878.9	-0.42466	0.1139	0.8906
3.43	18.35	-3.1929e+05	1878.9	-0.42505	0.1137	0.89011
3.432	18.126	-3.1928e+05	1878.9	-0.42436	0.11478	0.89099
3.434	18.143	-3.1928e+05	1878.9	-0.42368	0.11585	0.89187
3.436	18.226	-3.1928e+05	1878.9	-0.423	0.11692	0.89275
3.438	18.437	-3.1928e+05	1878.9	-0.42232	0.118	0.89363
3.44	18.752	-3.1929e+05	1879	-0.42163	0.11907	0.8945
3.442	18.718	-3.1929e+05	1879	-0.42085	0.12015	0.89372
3.444	18.59	-3.1929e+05	1879	-0.42007	0.12122	0.89294
3.446	18.425	-3.1929e+05	1879	-0.41929	0.12229	0.89216
3.448	18.176	-3.193e+05	1878.9	-0.41851	0.12337	0.89138
3.45	18.147	-3.193e+05	1878.9	-0.41773	0.12444	0.8906
3.452	18.244	-3.193e+05	1878.8	-0.4187	0.12415	0.89148
3.454	18.424	-3.193e+05	1878.7	-0.41968	0.12385	0.89236
3.456	18.684	-3.193e+05	1878.6	-0.42066	0.12356	0.89324
3.458	18.734	-3.193e+05	1878.5	-0.42163	0.12327	0.89411
3.46	18.645	-3.193e+05	1878.4	-0.42261	0.12298	0.89499
3.462	18.501	-3.193e+05	1878.2	-0.4228	0.12171	0.8945
3.464	18.241	-3.193e+05	1878	-0.423	0.12044	0.89402
3.466	18.132	-3.193e+05	1877.9	-0.42319	0.11917	0.89353
3.468	18.171	-3.193e+05	1877.7	-0.42339	0.1179	0.89304
3.47	18.289	-3.193e+05	1877.6	-0.42358	0.11663	0.89255
3.472	18.542	-3.193e+05	1877.4	-0.42407	0.11644	0.89236
3.474	18.704	-3.193e+05	1877.2	-0.42456	0.11624	0.89216
3.476	18.669	-3.1931e+05	1877.1	-0.42505	0.11605	0.89197
3.478	18.56	-3.1931e+05	1876.9	-0.42554	0.11585	0.89177
3.48	18.349	-3.1931e+05	1876.7	-0.42602	0.11566	0.89158
3.482	18.156	-3.1932e+05	1876.6	-0.42515	0.11692	0.89158
3.484	18.159	-3.1932e+05	1876.5	-0.42427	0.11819	0.89158
3.486	18.273	-3.1932e+05	1876.4	-0.42339	0.11946	0.89158
3.488	18.47	-3.1932e+05	1876.3	-0.42251	0.12073	0.89158
3.49	18.689	-3.1932e+05	1876.2	-0.42163	0.122	0.89158
3.492	18.703	-3.1933e+05	1876.1	-0.42202	0.1219	0.89245
3.494	18.567	-3.1933e+05	1876	-0.42241	0.1218	0.89333
3.496	18.39	-3.1933e+05	1875.9	-0.4228	0.12171	0.89421
3.498	18.171	-3.1933e+05	1875.8	-0.42319	0.12161	0.89509
3.5	18.122	-3.1933e+05	1875.8	-0.42358	0.12151	0.89597
3.502	18.238	-3.1933e+05	1875.7	-0.4228	0.12132	0.89548
3.504	18.385	-3.1933e+05	1875.6	-0.42202	0.12112	0.89499
3.506	18.634	-3.1933e+05	1875.6	-0.42124	0.12093	0.8945
3.508	18.735	-3.1934e+05	1875.6	-0.42046	0.12073	0.89402
3.51	18.644	-3.1934e+05	1875.6	-0.41968	0.12054	0.89353
3.512	18.513	-3.1934e+05	1875.6	-0.42027	0.12034	0.89333
3.514	18.253	-3.1934e+05	1875.6	-0.42085	0.12015	0.89314
3.516	18.094	-3.1934e+05	1875.6	-0.42144	0.11995	0.89294
3.518	18.195	-3.1935e+05	1875.6	-0.42202	0.11976	0.89275
3.52	18.316	-3.1935e+05	1875.6	-0.42261	0.11956	0.89255
3.522	18.573	-3.1935e+05	1875.6	-0.42124	0.11897	0.89177
3.524	18.751	-3.1935e+05	1875.5	-0.41988	0.11839	0.89099
3.526	18.638	-3.1935e+05	1875.5	-0.41851	0.1178	0.89021
3.528	18.555	-3.1935e+05	1875.5	-0.41714	0.11722	0.88943
3.53	18.344	-3.1936e+05	1875.5	-0.41578	0.11663	0.88865
3.532	18.093	-3.1936e+05	1875.5	-0.41529	0.11663	0.88826
3.534	18.124	-3.1936e+05	1875.5	-0.4148	0.11663	0.88787
3.536	18.224	-3.1936e+05	1875.4	-0.41431	0.11663	0.88748
3.538	18.46	-3.1936e+05	1875.4	-0.41382	0.11663	0.88709
3.54	18.704	-3.1937e+05	1875.4	-0.41334	0.11663	0.8867
3.542	18.679	-3.1937e+05	1875.3	-0.41275	0.11663	0.88728
3.544	18.593	-3.1937e+05	1875.3	-0.41216	0.11663	0.88787
3.546	18.438	-3.1937e+05	1875.2	-0.41158	0.11663	0.88845
3.548	18.198	-3.1937e+05	1875.2	-0.41099	0.11663	0.88904
3.55	18.148	-3.1936e+05	1875.1	-0.41041	0.11663	0.88962
3.552	18.236	-3.1937e+05	1875.1	-0.41207	0.11702	0.89011
3.554	18.403	-3.1938e+05	1875.1	-0.41373	0.11741	0.8906
3.556	18.651	-3.1938e+05	1875.1	-0.41539	0.1178	0.89109
3.558	18.73	-3.1939e+05	1875.1	-0.41704	0.11819	0.89158
3.56	18.634	-3.1939e+05	1875.1	-0.4187	0.11858	0.89206
3.562	18.491	-3.1939e+05	1875.1	-0.4189	0.11878	0.89167
3.564	18.284	-3.1939e+05	1875.1	-0.41909	0.11897	0.89128
3.566	18.159	-3.194e+05	1875.1	-0.41929	0.11917	0.89089
3.568	18.216	-3.1939e+05	1875	-0.41948	0.11936	0.8905
3.57	18.365	-3.1939e+05	1875	-0.41968	0.11956	0.89011
3.572	18.597	-3.194e+05	1874.9	-0.41968	0.11907	0.8905
3.574	18.765	-3.1941e+05	1874.8	-0.41968	0.11858	0.89089
3.576	18.711	-3.1941e+05	1874.8	-0.41968	0.1181	0.89128
3.578	18.576	-3.1941e+05	1874.8	-0.41968	0.11761	0.89167
3.58	18.387	-3.1941e+05	1874.8	-0.41968	0.11712	0.89206
3.582	18.18	-3.1941e+05	1874.8	-0.41841	0.11644	0.89119
3.584	18.171	-3.1941e+05	1874.8	-0.41714	0.11575	0.89031
3.586	18.293	-3.1941e+05	1874.8	-0.41587	0.11507	0.88943
3.588	18.487	-3.1942e+05	1874.8	-0.4146	0.11439	0.88855
3.59	18.732	-3.1942e+05	1874.8	-0.41334	0.1137	0.88767
3.592	18.774	-3.1942e+05	1874.8	-0.41509	0.11468	0.88972
3.594	18.673	-3.1942e+05	1874.8	-0.41685	0.11566	0.89177
3.596	18.505	-3.1942e+05	1874.8	-0.41861	0.11663	0.89382
3.598	18.256	-3.1943e+05	1874.8	-0.42036	0.11761	0.89587
3.6	18.202	-3.1943e+05	1874.7	-0.42212	0.11858	0.89792
3.602	18.287	-3.1944e+05	1874.8	-0.42124	0.11897	0.89792
3.604	18.413	-3.1944e+05	1874.8	-0.42036	0.11936	0.89792
3.606	18.679	-3.1945e+05	1874.8	-0.41948	0.11976	0.89792
3.608	18.78	-3.1944e+05	1874.8	-0.41861	0.12015	0.89792
3.61	18.627	-3.1944e+05	1874.9	-0.41773	0.12054	0.89792
3.612	18.469	-3.1945e+05	1874.9	-0.4188	0.11907	0.89685
3.614	18.23	-3.1946e+05	1874.8	-0.41988	0.11761	0.89577
3.616	18.118	-3.1946e+05	1874.8	-0.42095	0.11614	0.8947
3.618	18.211	-3.1945e+05	1874.8	-0.42202	0.11468	0.89363
3.62	18.333	-3.1945e+05	1874.8	-0.4231	0.11322	0.89255
3.622	18.58	-3.1945e+05	1874.6	-0.42271	0.11351	0.89324
3.624	18.706	-3.1946e+05	1874.5	-0.42232	0.1138	0.89392
3.626	18.625	-3.1947e+05	1874.4	-0.42192	0.11409	0.8946
3.628	18.527	-3.1948e+05	1874.3	-0.42153	0.11439	0.89528
3.63	18.326	-3.1948e+05	1874.2	-0.42114	0.11468	0.89597
3.632	18.141	-3.1948e+05	1874.2	-0.42105	0.11556	0.89587
3.634	18.161	-3.1948e+05	1874.1	-0.42095	0.11644	0.89577
3.636	18.262	-3.1948e+05	1874	-0.42085	0.11732	0.89568
3.638	18.476	-3.1948e+05	1874	-0.42075	0.11819	0.89558
3.64	18.702	-3.1948e+05	1874	-0.42066	0.11907	0.89548
3.642	18.724	-3.1948e+05	1873.9	-0.42105	0.11819	0.89509
3.644	18.604	-3.1948e+05	1873.8	-0.42144	0.11732	0.8947
3.646	18.392	-3.1949e+05	1873.8	-0.42183	0.11644	0.89431
3.648	18.162	-3.1949e+05	1873.7	-0.42222	0.11556	0.89392
3.65	18.116	-3.1949e+05	1873.7	-0.42261	0.11468	0.89353
3.652	18.208	-3.1949e+05	1873.5	-0.42271	0.11527	0.89363
3.654	18.379	-3.1949e+05	1873.4	-0.4228	0.11585	0.89372
3.656	18.623	-3.195e+05	1873.3	-0.4229	0.11644	0.89382
3.658	18.719	-3.195e+05	1873.2	-0.423	0.11702	0.89392
3.66	18.637	-3.1951e+05	1873	-0.4231	0.11761	0.89402
3.662	18.51	-3.1951e+05	1872.9	-0.42212	0.11761	0.89324
3.664	18.31	-3.1951e+05	1872.8	-0.42114	0.11761	0.89245
3.666	18.148	-3.1951e+05	1872.7	-0.42017	0.11761	0.89167
3.668	18.163	-3.1952e+05	1872.5	-0.41919	0.11761	0.89089
3.67	18.276	-3.1954e+05	1872.4	-0.41822	0.11761	0.89011
3.672	18.489	-3.1954e+05	1872.4	-0.41948	0.1178	0.8905
3.674	18.704	-3.1954e+05	1872.3	-0.42075	0.118	0.89089
3.676	18.666	-3.1954e+05	1872.2	-0.42202	0.11819	0.89128
3.678	18.542	-3.1954e+05	1872.2	-0.42329	0.11839	0.89167
3.68	18.339	-3.1954e+05	1872.1	-0.42456	0.11858	0.89206
3.682	18.107	-3.1954e+05	1872.1	-0.42417	0.11771	0.89206
3.684	18.138	-3.1955e+05	1872.1	-0.42378	0.11683	0.89206
3.686	18.273	-3.1956e+05	1872	-0.42339	0.11595	0.89206
3.688	18.456	-3.1955e+05	1871.8	-0.423	0.11507	0.89206
3.69	18.718	-3.1955e+05	1871.7	-0.42261	0.11419	0.89206
3.692	18.712	-3.1955e+05	1871.7	-0.42251	0.11439	0.89197
3.694	18.596	-3.1955e+05	1871.7	-0.42241	0.11458	0.89187
3.696	18.437	-3.1956e+05	1871.6	-0.42232	0.11478	0.89177
3.698	18.151	-3.1957e+05	1871.5	-0.42222	0.11497	0.89167
3.7	18.096	-3.1957e+05	1871.4	-0.42212	0.11517	0.89158
3.702	18.221	-3.1957e+05	1871.3	-0.4228	0.11478	0.89128
3.704	18.429	-3.1958e+05	1871.2	-0.42349	0.11439	0.89099
3.706	18.749	-3.1959e+05	1871.2	-0.42417	0.114	0.8907
3.708	18.847	-3.1958e+05	1871.2	-0.42485	0.11361	0.8904
3.71	18.78	-3.1958e+05	1871.1	-0.42554	0.11322	0.89011
3.712	18.679	-3.1959e+05	1871.1	-0.42456	0.11458	0.89148
3.714	18.476	-3.1959e+05	1871.1	-0.42358	0.11595	0.89284
3.716	18.399	-3.1959e+05	1871.1	-0.42261	0.11732	0.89421
3.718	18.499	-3.1959e+05	1871.2	-0.42163	0.11868	0.89558
3.72	18.637	-3.196e+05	1871.2	-0.42066	0.12005	0.89694
3.722	18.868	-3.1961e+05	1871.3	-0.42056	0.11907	0.89528
3.724	18.99	-3.1961e+05	1871.3	-0.42046	0.1181	0.89363
3.726	18.899	-3.1961e+05	1871.4	-0.42036	0.11712	0.89197
3.728	18.723	-3.1962e+05	1871.4	-0.42027	0.11614	0.89031
3.73	18.43	-3.1962e+05	1871.4	-0.42017	0.11517	0.88865
3.732	18.162	-3.1962e+05	1871.3	-0.42105	0.11488	0.88923
3.734	18.12	-3.1962e+05	1871.3	-0.42192	0.11458	0.88982
3.736	18.218	-3.1962e+05	1871.2	-0.4228	0.11429	0.8904
3.738	18.412	-3.1962e+05	1871.1	-0.42368	0.114	0.89099
3.74	18.619	-3.1963e+05	1871.1	-0.42456	0.1137	0.89158
3.742	18.662	-3.1963e+05	1871	-0.42358	0.11517	0.89314
3.744	18.581	-3.1964e+05	1870.9	-0.42261	0.11663	0.8947
3.746	18.411	-3.1964e+05	1870.8	-0.42163	0.1181	0.89626
3.748	18.195	-3.1965e+05	1870.8	-0.42066	0.11956	0.89782
3.75	18.146	-3.1965e+05	1870.8	-0.41968	0.12102	0.89938
3.752	18.247	-3.1965e+05	1870.8	-0.42075	0.12044	0.89851
3.754	18.393	-3.1965e+05	1870.7	-0.42183	0.11985	0.89763
3.756	18.602	-3.1966e+05	1870.6	-0.4229	0.11927	0.89675
3.758	18.713	-3.1966e+05	1870.6	-0.42397	0.11868	0.89587
3.76	18.652	-3.1967e+05	1870.5	-0.42505	0.1181	0.89499
3.762	18.544	-3.1967e+05	1870.4	-0.42436	0.1181	0.8948
3.764	18.302	-3.1967e+05	1870.3	-0.42368	0.1181	0.8946
3.766	18.099	-3.1967e+05	1870.2	-0.423	0.1181	0.89441
3.768	18.153	-3.1967e+05	1870.1	-0.42232	0.1181	0.89421
3.77	18.273	-3.1968e+05	1870.1	-0.42163	0.1181	0.89402
3.772	18.51	-3.1968e+05	1870	-0.42163	0.11751	0.89324
3.774	18.741	-3.1968e+05	1870	-0.42163	0.11692	0.89245
3.776	18.678	-3.1969e+05	1869.9	-0.42163	0.11634	0.89167
3.778	18.582	-3.197e+05	1869.9	-0.42163	0.11575	0.89089
3.78	18.359	-3.1969e+05	1869.8	-0.42163	0.11517	0.89011
3.782	18.111	-3.1969e+05	1869.7	-0.42066	0.11653	0.88992
3.784	18.158	-3.197e+05	1869.6	-0.41968	0.1179	0.88972
3.786	18.259	-3.197e+05	1869.6	-0.4187	0.11927	0.88953
3.788	18.477	-3.1971e+05	1869.5	-0.41773	0.12063	0.88933
3.79	18.732	-3.1973e+05	1869.4	-0.41675	0.122	0.88914
3.792	18.715	-3.1972e+05	1869.4	-0.41724	0.1218	0.88972
3.794	18.619	-3.1972e+05	1869.3	-0.41773	0.12161	0.89031
3.796	18.425	-3.1972e+05	1869.2	-0.41822	0.12141	0.89089
3.798	18.159	-3.1971e+05	1869.2	-0.4187	0.12122	0.89148
3.8	18.124	-3.1972e+05	1869.1	-0.41919	0.12102	0.89206
3.802	18.222	-3.1972e+05	1869.1	-0.41978	0.12063	0.89236
3.804	18.387	-3.1973e+05	1869	-0.42036	0.12024	0.89265
3.806	18.643	-3.1974e+05	1869	-0.42095	0.11985	0.89294
3.808	18.733	-3.1975e+05	1868.9	-0.42153	0.11946	0.89324
3.81	18.669	-3.1975e+05	1868.8	-0.42212	0.11907	0.89353
3.812	18.537	-3.1975e+05	1868.8	-0.41939	0.11819	0.89216
3.814	18.293	-3.1975e+05	1868.8	-0.41665	0.11732	0.8908
3.816	18.149	-3.1975e+05	1868.7	-0.41392	0.11644	0.88943
3.818	18.195	-3.1976e+05	1868.5	-0.41119	0.11556	0.88806
3.82	18.313	-3.1976e+05	1868.4	-0.40846	0.11468	0.8867
3.822	18.54	-3.1977e+05	1868.1	-0.40836	0.11458	0.88718
3.824	18.722	-3.1977e+05	1867.9	-0.40826	0.11448	0.88767
3.826	18.679	-3.1978e+05	1867.7	-0.40816	0.11439	0.88816
3.828	18.543	-3.1978e+05	1867.5	-0.40807	0.11429	0.88865
3.83	18.357	-3.1979e+05	1867.3	-0.40797	0.11419	0.88914
3.832	18.179	-3.1979e+05	1867.2	-0.41099	0.11478	0.8906
3.834	18.18	-3.1979e+05	1867.1	-0.41402	0.11536	0.89206
3.836	18.303	-3.198e+05	1867.1	-0.41704	0.11595	0.89353
3.838	18.503	-3.1981e+05	1867.1	-0.42007	0.11653	0.89499
3.84	18.728	-3.1981e+05	1867.1	-0.4231	0.11712	0.89646
3.842	18.73	-3.1981e+05	1867.2	-0.42319	0.11683	0.89568
3.844	18.622	-3.1981e+05	1867.4	-0.42329	0.11653	0.89489
3.846	18.481	-3.1981e+05	1867.7	-0.42339	0.11624	0.89411
3.848	18.238	-3.1981e+05	1868.2	-0.42349	0.11595	0.89333
3.85	18.165	-3.1982e+05	1868.6	-0.42358	0.11566	0.89255
3.852	18.248	-3.1982e+05	1869.2	-0.42329	0.11663	0.89314
3.854	18.381	-3.1982e+05	1869.7	-0.423	0.11761	0.89372
3.856	18.669	-3.1983e+05	1870.3	-0.42271	0.11858	0.89431
3.858	18.801	-3.1984e+05	1870.9	-0.42241	0.11956	0.89489
3.86	18.7	-3.1984e+05	1871.6	-0.42212	0.12054	0.89548
3.862	18.583	-3.1985e+05	1872.2	-0.42349	0.12024	0.89616
3.864	18.319	-3.1985e+05	1872.9	-0.42485	0.11995	0.89685
3.866	18.152	-3.1985e+05	1873.7	-0.42622	0.11966	0.89753
3.868	18.251	-3.1985e+05	1874.4	-0.42759	0.11936	0.89821
3.87	18.358	-3.1985e+05	1875.2	-0.42895	0.11907	0.8989
3.872	18.626	-3.1985e+05	1875.9	-0.427	0.11936	0.89899
3.874	18.806	-3.1986e+05	1876.7	-0.42505	0.11966	0.89909
3.876	18.736	-3.1986e+05	1877.4	-0.4231	0.11995	0.89919
3.878	18.632	-3.1986e+05	1878	-0.42114	0.12024	0.89929
3.88	18.435	-3.1986e+05	1878.7	-0.41919	0.12054	0.89938
3.882	18.248	-3.1986e+05	1879.2	-0.41997	0.11917	0.89733
3.884	18.255	-3.1986e+05	1879.7	-0.42075	0.1178	0.89528
3.886	18.336	-3.1987e+05	1880.2	-0.42153	0.11644	0.89324
3.888	18.543	-3.1987e+05	1880.6	-0.42232	0.11507	0.89119
3.89	18.782	-3.1987e+05	1880.9	-0.4231	0.1137	0.88914
3.892	18.814	-3.1987e+05	1881.2	-0.42329	0.11409	0.88962
3.894	18.738	-3.1987e+05	1881.5	-0.42349	0.11448	0.89011
3.896	18.564	-3.1987e+05	1881.8	-0.42368	0.11488	0.8906
3.898	18.324	-3.1987e+05	1882.1	-0.42388	0.11527	0.89109
3.9	18.249	-3.1987e+05	1882.3	-0.42407	0.11566	0.89158
3.902	18.326	-3.1987e+05	1882.5	-0.42544	0.11517	0.89128
3.904	18.52	-3.1987e+05	1882.7	-0.4268	0.11468	0.89099
3.906	18.779	-3.1987e+05	1882.9	-0.42817	0.11419	0.8907
3.908	18.883	-3.1987e+05	1883.1	-0.42954	0.1137	0.8904
3.91	18.831	-3.1986e+05	1883.2	-0.4309	0.11322	0.89011
3.912	18.701	-3.1986e+05	1883.3	-0.42954	0.1137	0.89031
3.914	18.468	-3.1985e+05	1883.4	-0.42817	0.11419	0.8905
3.916	18.308	-3.1985e+05	1883.4	-0.4268	0.11468	0.8907
3.918	18.346	-3.1984e+05	1883.4	-0.42544	0.11517	0.89089
3.92	18.485	-3.1984e+05	1883.4	-0.42407	0.11566	0.89109
3.922	18.711	-3.1984e+05	1883.3	-0.42456	0.11536	0.89138
3.924	18.887	-3.1984e+05	1883.2	-0.42505	0.11507	0.89167
3.926	18.851	-3.1983e+05	1883	-0.42554	0.11478	0.89197
3.928	18.735	-3.1983e+05	1882.8	-0.42602	0.11448	0.89226
3.93	18.537	-3.1982e+05	1882.6	-0.42651	0.11419	0.89255
3.932	18.316	-3.1981e+05	1882.3	-0.42554	0.11556	0.89333
3.934	18.323	-3.1981e+05	1882	-0.42456	0.11692	0.89411
3.936	18.453	-3.198e+05	1881.7	-0.42358	0.11829	0.89489
3.938	18.647	-3.198e+05	1881.4	-0.42261	0.11966	0.89568
3.94	18.917	-3.1979e+05	1881	-0.42163	0.12102	0.89646
3.942	18.93	-3.1979e+05	1880.7	-0.42114	0.12161	0.89548
3.944	18.791	-3.1978e+05	1880.3	-0.42066	0.1222	0.8945
3.946	18.637	-3.1978e+05	1880	-0.42017	0.12278	0.89353
3.948	18.339	-3.1978e+05	1879.6	-0.41968	0.12337	0.89255
3.95	18.259	-3.1978e+05	1879.2	-0.41919	0.12395	0.89158
3.952	18.362	-3.1976e+05	1878.8	-0.41783	0.1221	0.89099
3.954	18.49	-3.1975e+05	1878.4	-0.41646	0.12024	0.8904
3.956	18.781	-3.1975e+05	1877.9	-0.41509	0.11839	0.88982
3.958	18.877	-3.1974e+05	1877.5	-0.41373	0.11653	0.88923
3.96	18.797	-3.1974e+05	1877.1	-0.41236	0.11468	0.88865
3.962	18.665	-3.1973e+05	1876.7	-0.41187	0.11478	0.88836
3.964	18.381	-3.1972e+05	1876.3	-0.41138	0.11488	0.88806
3.966	18.25	-3.1972e+05	1876	-0.4109	0.11497	0.88777
3.968	18.32	-3.1971e+05	1875.7	-0.41041	0.11507	0.88748
3.97	18.447	-3.1971e+05	1875.4	-0.40992	0.11517	0.88718
3.972	18.696	-3.197e+05	1875.1	-0.41236	0.11595	0.88826
3.974	18.833	-3.1969e+05	1874.9	-0.4148	0.11673	0.88933
3.976	18.778	-3.1969e+05	1874.6	-0.41724	0.11751	0.8904
3.978	18.663	-3.1969e+05	1874.3	-0.41968	0.11829	0.89148
3.98	18.432	-3.1969e+05	1874.1	-0.42212	0.11907	0.89255
3.982	18.237	-3.1968e+05	1873.9	-0.42153	0.11995	0.89275
3.984	18.237	-3.1967e+05	1873.7	-0.42095	0.12083	0.89294
3.986	18.333	-3.1966e+05	1873.5	-0.42036	0.12171	0.89314
3.988	18.526	-3.1965e+05	1873.3	-0.41978	0.12259	0.89333
3.99	18.728	-3.1964e+05	1873.1	-0.41919	0.12346	0.89353
3.992	18.741	-3.1964e+05	1873	-0.41948	0.12317	0.89372
3.994	18.623	-3.1963e+05	1872.9	-0.41978	0.12288	0.89392
3.996	18.449	-3.1963e+05	1872.8	-0.42007	0.12259	0.89411
3.998	18.253	-3.1962e+05	1872.7	-0.42036	0.12229	0.89431
4	18.196	-3.1962e+05	1872.6	-0.42066	0.122	0.8945
4.002	18.282	-3.1961e+05	1872.6	-0.42056	0.12161	0.8948
4.004	18.441	-3.1961e+05	1872.6	-0.42046	0.12122	0.89509
4.006	18.682	-3.196e+05	1872.6	-0.42036	0.12083	0.89538
4.008	18.797	-3.1959e+05	1872.7	-0.42027	0.12044	0.89568
4.01	18.698	-3.1958e+05	1872.7	-0.42017	0.12005	0.89597
4.012	18.535	-3.1958e+05	1872.8	-0.42007	0.11995	0.89607
4.014	18.296	-3.1957e+05	1872.9	-0.41997	0.11985	0.89616
4.016	18.136	-3.1957e+05	1873	-0.41988	0.11976	0.89626
4.018	18.207	-3.1957e+05	1873	-0.41978	0.11966	0.89636
4.02	18.344	-3.1956e+05	1873.1	-0.41968	0.11956	0.89646
4.022	18.579	-3.1955e+05	1873.2	-0.41919	0.12054	0.89577
4.024	18.795	-3.1955e+05	1873.3	-0.4187	0.12151	0.89509
4.026	18.733	-3.1955e+05	1873.4	-0.41822	0.12249	0.89441
4.028	18.601	-3.1954e+05	1873.5	-0.41773	0.12346	0.89372
4.03	18.403	-3.1953e+05	1873.6	-0.41724	0.12444	0.89304
4.032	18.179	-3.1953e+05	1873.6	-0.41802	0.12317	0.89411
4.034	18.219	-3.1953e+05	1873.7	-0.4188	0.1219	0.89519
4.036	18.339	-3.1952e+05	1873.7	-0.41958	0.12063	0.89626
4.038	18.534	-3.1952e+05	1873.8	-0.42036	0.11936	0.89733
4.04	18.772	-3.1952e+05	1873.8	-0.42114	0.1181	0.89841
4.042	18.732	-3.1952e+05	1873.9	-0.42202	0.11683	0.89714
4.044	18.622	-3.1951e+05	1873.9	-0.4229	0.11556	0.89587
4.046	18.468	-3.1951e+05	1873.9	-0.42378	0.11429	0.8946
4.048	18.218	-3.195e+05	1873.9	-0.42466	0.11302	0.89333
4.05	18.173	-3.195e+05	1873.9	-0.42554	0.11175	0.89206
4.052	18.258	-3.1949e+05	1873.9	-0.42476	0.11273	0.89255
4.054	18.41	-3.1949e+05	1874	-0.42397	0.1137	0.89304
4.056	18.678	-3.1948e+05	1874	-0.42319	0.11468	0.89353
4.058	18.765	-3.1948e+05	1874	-0.42241	0.11566	0.89402
4.06	18.702	-3.1948e+05	1874.1	-0.42163	0.11663	0.8945
4.062	18.583	-3.1947e+05	1874.1	-0.42183	0.11614	0.89431
4.064	18.343	-3.1947e+05	1874.1	-0.42202	0.11566	0.89411
4.066	18.184	-3.1946e+05	1874	-0.42222	0.11517	0.89392
4.068	18.195	-3.1946e+05	1874	-0.42241	0.11468	0.89372
4.07	18.316	-3.1945e+05	1873.9	-0.42261	0.11419	0.89353
4.072	18.586	-3.1946e+05	1873.9	-0.42124	0.11527	0.89441
4.074	18.794	-3.1946e+05	1873.8	-0.41988	0.11634	0.89528
4.076	18.759	-3.1945e+05	1873.7	-0.41851	0.11741	0.89616
4.078	18.619	-3.1944e+05	1873.7	-0.41714	0.11849	0.89704
4.08	18.417	-3.1944e+05	1873.6	-0.41578	0.11956	0.89792
4.082	18.22	-3.1944e+05	1873.6	-0.41675	0.11956	0.89685
4.084	18.206	-3.1944e+05	1873.5	-0.41773	0.11956	0.89577
4.086	18.321	-3.1944e+05	1873.4	-0.4187	0.11956	0.8947
4.088	18.505	-3.1944e+05	1873.3	-0.41968	0.11956	0.89363
4.09	18.714	-3.1943e+05	1873.1	-0.42066	0.11956	0.89255
4.092	18.743	-3.1943e+05	1872.9	-0.42036	0.11956	0.89245
4.094	18.641	-3.1943e+05	1872.7	-0.42007	0.11956	0.89236
4.096	18.494	-3.1943e+05	1872.5	-0.41978	0.11956	0.89226
4.098	18.26	-3.1942e+05	1872.3	-0.41948	0.11956	0.89216
4.1	18.181	-3.1942e+05	1872.1	-0.41919	0.11956	0.89206
4.102	18.295	-3.1942e+05	1871.9	-0.42007	0.11868	0.89226
4.104	18.462	-3.1942e+05	1871.7	-0.42095	0.1178	0.89245
4.106	18.705	-3.1942e+05	1871.4	-0.42183	0.11692	0.89265
4.108	18.8	-3.1942e+05	1871.2	-0.42271	0.11605	0.89284
4.11	18.682	-3.1943e+05	1871	-0.42358	0.11517	0.89304
4.112	18.539	-3.1943e+05	1870.8	-0.42378	0.11527	0.89333
4.114	18.311	-3.1943e+05	1870.6	-0.42397	0.11536	0.89363
4.116	18.154	-3.1942e+05	1870.4	-0.42417	0.11546	0.89392
4.118	18.222	-3.1941e+05	1870.3	-0.42436	0.11556	0.89421
4.12	18.323	-3.1941e+05	1870.2	-0.42456	0.11566	0.8945
4.122	18.596	-3.1941e+05	1870.2	-0.42476	0.11507	0.89363
4.124	18.816	-3.1941e+05	1870.1	-0.42495	0.11448	0.89275
4.126	18.727	-3.1941e+05	1870	-0.42515	0.1139	0.89187
4.128	18.623	-3.1941e+05	1869.9	-0.42534	0.11331	0.89099
4.13	18.402	-3.1941e+05	1869.9	-0.42554	0.11273	0.89011
4.132	18.169	-3.1941e+05	1869.8	-0.42505	0.11263	0.8906
4.134	18.181	-3.1941e+05	1869.7	-0.42456	0.11253	0.89109
4.136	18.283	-3.1941e+05	1869.6	-0.42407	0.11244	0.89158
4.138	18.521	-3.1941e+05	1869.5	-0.42358	0.11234	0.89206
4.14	18.764	-3.1941e+05	1869.4	-0.4231	0.11224	0.89255
4.142	18.751	-3.1941e+05	1869.4	-0.42212	0.11322	0.89216
4.144	18.654	-3.1941e+05	1869.3	-0.42114	0.11419	0.89177
4.146	18.474	-3.1941e+05	1869.3	-0.42017	0.11517	0.89138
4.148	18.243	-3.1941e+05	1869.2	-0.41919	0.11614	0.89099
4.15	18.208	-3.1941e+05	1869.1	-0.41822	0.11712	0.8906
4.152	18.301	-3.1941e+05	1869.1	-0.41841	0.11741	0.89158
4.154	18.441	-3.1941e+05	1869.1	-0.41861	0.11771	0.89255
4.156	18.664	-3.1942e+05	1869.1	-0.4188	0.118	0.89353
4.158	18.759	-3.1942e+05	1869.1	-0.419	0.11829	0.8945
4.16	18.683	-3.1942e+05	1869.1	-0.41919	0.11858	0.89548
4.162	18.533	-3.1942e+05	1869.2	-0.41948	0.11819	0.8948
4.164	18.303	-3.1942e+05	1869.2	-0.41978	0.1178	0.89411
4.166	18.158	-3.1943e+05	1869.2	-0.42007	0.11741	0.89343
4.168	18.21	-3.1942e+05	1869.2	-0.42036	0.11702	0.89275
4.17	18.349	-3.1941e+05	1869.2	-0.42066	0.11663	0.89206
4.172	18.578	-3.1942e+05	1869.1	-0.42144	0.11634	0.89304
4.174	18.774	-3.1942e+05	1869	-0.42222	0.11605	0.89402
4.176	18.734	-3.1942e+05	1868.9	-0.423	0.11575	0.89499
4.178	18.598	-3.1942e+05	1868.8	-0.42378	0.11546	0.89597
4.18	18.403	-3.1942e+05	1868.7	-0.42456	0.11517	0.89694
4.182	18.19	-3.1942e+05	1868.6	-0.42388	0.11536	0.89616
4.184	18.182	-3.1942e+05	1868.5	-0.42319	0.11556	0.89538
4.186	18.292	-3.1941e+05	1868.3	-0.42251	0.11575	0.8946
4.188	18.493	-3.1941e+05	1868.2	-0.42183	0.11595	0.89382
4.19	18.757	-3.1942e+05	1868	-0.42114	0.11614	0.89304
4.192	18.767	-3.1942e+05	1867.9	-0.42173	0.11653	0.89314
4.194	18.625	-3.1943e+05	1867.8	-0.42232	0.11692	0.89324
4.196	18.467	-3.1943e+05	1867.7	-0.4229	0.11732	0.89333
4.198	18.205	-3.1943e+05	1867.6	-0.42349	0.11771	0.89343
4.2	18.135	-3.1943e+05	1867.5	-0.42407	0.1181	0.89353
4.202	18.26	-3.1942e+05	1867.4	-0.42388	0.11839	0.8945
4.204	18.419	-3.1943e+05	1867.3	-0.42368	0.11868	0.89548
4.206	18.717	-3.1943e+05	1867.3	-0.42349	0.11897	0.89646
4.208	18.791	-3.1943e+05	1867.2	-0.42329	0.11927	0.89743
4.21	18.679	-3.1944e+05	1867.1	-0.4231	0.11956	0.89841
4.212	18.562	-3.1944e+05	1867.1	-0.42339	0.11878	0.89753
4.214	18.282	-3.1944e+05	1867	-0.42368	0.118	0.89665
4.216	18.144	-3.1945e+05	1866.9	-0.42397	0.11722	0.89577
4.218	18.219	-3.1945e+05	1866.8	-0.42427	0.11644	0.89489
4.22	18.305	-3.1946e+05	1866.7	-0.42456	0.11566	0.89402
4.222	18.559	-3.1946e+05	1866.7	-0.42476	0.11595	0.89402
4.224	18.776	-3.1946e+05	1866.7	-0.42495	0.11624	0.89402
4.226	18.735	-3.1946e+05	1866.6	-0.42515	0.11653	0.89402
4.228	18.628	-3.1946e+05	1866.5	-0.42534	0.11683	0.89402
4.23	18.418	-3.1947e+05	1866.5	-0.42554	0.11712	0.89402
4.232	18.199	-3.1946e+05	1866.4	-0.42515	0.11751	0.89353
4.234	18.174	-3.1945e+05	1866.3	-0.42476	0.1179	0.89304
4.236	18.281	-3.1945e+05	1866.2	-0.42436	0.11829	0.89255
4.238	18.507	-3.1946e+05	1866.1	-0.42397	0.11868	0.89206
4.24	18.723	-3.1946e+05	1866.1	-0.42358	0.11907	0.89158
4.242	18.732	-3.1947e+05	1866	-0.42388	0.11868	0.89226
4.244	18.626	-3.1946e+05	1865.9	-0.42417	0.11829	0.89294
4.246	18.46	-3.1946e+05	1865.9	-0.42446	0.1179	0.89363
4.248	18.249	-3.1946e+05	1865.8	-0.42476	0.11751	0.89431
4.25	18.168	-3.1946e+05	1865.8	-0.42505	0.11712	0.89499
4.252	18.235	-3.1947e+05	1865.7	-0.42427	0.11771	0.8947
4.254	18.395	-3.1947e+05	1865.7	-0.42349	0.11829	0.89441
4.256	18.645	-3.1947e+05	1865.6	-0.42271	0.11888	0.89411
4.258	18.785	-3.1948e+05	1865.5	-0.42192	0.11946	0.89382
4.26	18.718	-3.1947e+05	1865.4	-0.42114	0.12005	0.89353
4.262	18.565	-3.1947e+05	1865.3	-0.41978	0.12015	0.89265
4.264	18.323	-3.1947e+05	1865.2	-0.41841	0.12024	0.89177
4.266	18.146	-3.1947e+05	1865.1	-0.41704	0.12034	0.89089
4.268	18.199	-3.1948e+05	1865	-0.41568	0.12044	0.89001
4.27	18.342	-3.1948e+05	1864.9	-0.41431	0.12054	0.88914
4.272	18.551	-3.1949e+05	1864.8	-0.41441	0.12034	0.88943
4.274	18.742	-3.1949e+05	1864.8	-0.41451	0.12015	0.88972
4.276	18.703	-3.1949e+05	1864.7	-0.4146	0.11995	0.89001
4.278	18.589	-3.1949e+05	1864.6	-0.4147	0.11976	0.89031
4.28	18.416	-3.1949e+05	1864.5	-0.4148	0.11956	0.8906
