t	ekg	optical	pressure	accel_x	accel_y	accel_z
2.8422e-14	22.152	-35118	1994.8	-0.75103	0.39528	-0.50703
0.002	22.149	-35119	1994.9	-0.75093	0.39479	-0.50723
0.004	22.147	-35119	1995	-0.75084	0.3943	-0.50742
0.006	22.145	-35120	1995.1	-0.75074	0.39382	-0.50762
0.008	22.135	-35121	1995.2	-0.75064	0.39333	-0.50781
0.01	22.139	-35123	1995.2	-0.75054	0.39284	-0.50801
0.012	22.143	-35122	1995.3	-0.75084	0.39264	-0.50781
0.014	22.151	-35119	1995.3	-0.75113	0.39245	-0.50762
0.016	22.156	-35119	1995.4	-0.75142	0.39225	-0.50742
0.018	22.155	-35121	1995.5	-0.75172	0.39206	-0.50723
0.02	22.15	-35122	1995.6	-0.75201	0.39186	-0.50703
0.022	22.139	-35123	1995.6	-0.75132	0.39313	-0.50752
0.024	22.128	-35123	1995.6	-0.75064	0.3944	-0.50801
0.026	22.122	-35124	1995.7	-0.74996	0.39567	-0.5085
0.028	22.12	-35126	1995.8	-0.74928	0.39694	-0.50898
0.03	22.119	-35127	1995.8	-0.74859	0.39821	-0.50947
0.032	22.121	-35129	1995.8	-0.74967	0.39723	-0.5085
0.034	22.123	-35132	1995.9	-0.75074	0.39626	-0.50752
0.036	22.124	-35132	1995.9	-0.75181	0.39528	-0.50654
0.038	22.121	-35130	1996	-0.75289	0.3943	-0.50557
0.04	22.125	-35129	1996	-0.75396	0.39333	-0.50459
0.042	22.137	-35130	1996	-0.75308	0.39304	-0.50488
0.044	22.14	-35130	1996	-0.7522	0.39274	-0.50518
0.046	22.135	-35131	1996	-0.75132	0.39245	-0.50547
0.048	22.126	-35129	1996.1	-0.75045	0.39216	-0.50576
0.05	22.119	-35126	1996.1	-0.74957	0.39186	-0.50606
0.052	22.112	-35126	1996.1	-0.74869	0.39255	-0.50684
0.054	22.108	-35131	1996.1	-0.74781	0.39323	-0.50762
0.056	22.107	-35133	1996.1	-0.74693	0.39391	-0.5084
0.058	22.106	-35133	1996.1	-0.74605	0.3946	-0.50918
0.06	22.106	-35133	1996.1	-0.74518	0.39528	-0.50996
0.062	22.109	-35134	1996.1	-0.74723	0.39577	-0.50918
0.064	22.112	-35135	1996.1	-0.74928	0.39626	-0.5084
0.066	22.114	-35135	1996.1	-0.75132	0.39674	-0.50762
0.068	22.109	-35134	1996.1	-0.75337	0.39723	-0.50684
0.07	22.103	-35132	1996.1	-0.75542	0.39772	-0.50606
0.072	22.098	-35133	1996.1	-0.75464	0.39733	-0.50606
0.074	22.09	-35136	1996.2	-0.75386	0.39694	-0.50606
0.076	22.087	-35137	1996.2	-0.75308	0.39655	-0.50606
0.078	22.088	-35136	1996.1	-0.7523	0.39616	-0.50606
0.08	22.082	-35135	1996.1	-0.75152	0.39577	-0.50606
0.082	22.083	-35135	1996.1	-0.75132	0.39577	-0.50606
0.084	22.085	-35136	1996.2	-0.75113	0.39577	-0.50606
0.086	22.088	-35137	1996.2	-0.75093	0.39577	-0.50606
0.088	22.093	-35138	1996.2	-0.75074	0.39577	-0.50606
0.09	22.1	-35137	1996.2	-0.75054	0.39577	-0.50606
0.092	22.103	-35138	1996.2	-0.75045	0.39528	-0.50576
0.094	22.116	-35141	1996.2	-0.75035	0.39479	-0.50547
0.096	22.129	-35143	1996.3	-0.75025	0.3943	-0.50518
0.098	22.131	-35142	1996.3	-0.75015	0.39382	-0.50488
0.1	22.136	-35139	1996.3	-0.75006	0.39333	-0.50459
0.102	22.142	-35134	1996.3	-0.74996	0.39352	-0.50488
0.104	22.148	-35131	1996.3	-0.74986	0.39372	-0.50518
0.106	22.154	-35130	1996.3	-0.74976	0.39391	-0.50547
0.108	22.143	-35131	1996.4	-0.74967	0.39411	-0.50576
0.11	22.134	-35135	1996.4	-0.74957	0.3943	-0.50606
0.112	22.134	-35139	1996.4	-0.74967	0.39489	-0.50625
0.114	22.142	-35143	1996.4	-0.74976	0.39548	-0.50645
0.116	22.153	-35143	1996.4	-0.74986	0.39606	-0.50664
0.118	22.156	-35141	1996.4	-0.74996	0.39665	-0.50684
0.12	22.162	-35141	1996.4	-0.75006	0.39723	-0.50703
0.122	22.167	-35143	1996.3	-0.75025	0.39723	-0.50752
0.124	22.166	-35145	1996.3	-0.75045	0.39723	-0.50801
0.126	22.16	-35148	1996.3	-0.75064	0.39723	-0.5085
0.128	22.159	-35151	1996.3	-0.75084	0.39723	-0.50898
0.13	22.164	-35154	1996.3	-0.75103	0.39723	-0.50947
0.132	22.167	-35158	1996.3	-0.75142	0.39743	-0.50898
0.134	22.158	-35162	1996.3	-0.75181	0.39762	-0.5085
0.136	22.151	-35164	1996.3	-0.7522	0.39782	-0.50801
0.138	22.148	-35163	1996.3	-0.75259	0.39801	-0.50752
0.14	22.154	-35159	1996.4	-0.75298	0.39821	-0.50703
0.142	22.162	-35152	1996.4	-0.75162	0.39616	-0.50781
0.144	22.164	-35150	1996.4	-0.75025	0.39411	-0.50859
0.146	22.161	-35154	1996.4	-0.74888	0.39206	-0.50937
0.148	22.154	-35157	1996.3	-0.74752	0.39001	-0.51016
0.15	22.154	-35160	1996.3	-0.74615	0.38796	-0.51094
0.152	22.155	-35161	1996.3	-0.74723	0.38942	-0.51025
0.154	22.152	-35158	1996.2	-0.7483	0.39089	-0.50957
0.156	22.147	-35158	1996.2	-0.74937	0.39235	-0.50889
0.158	22.148	-35160	1996.2	-0.75045	0.39382	-0.5082
0.16	22.155	-35160	1996.2	-0.75152	0.39528	-0.50752
0.162	22.161	-35160	1996.2	-0.75113	0.39606	-0.50781
0.164	22.157	-35158	1996.2	-0.75074	0.39684	-0.50811
0.166	22.162	-35155	1996.2	-0.75035	0.39762	-0.5084
0.168	22.176	-35156	1996.2	-0.74996	0.3984	-0.50869
0.17	22.183	-35160	1996.2	-0.74957	0.39918	-0.50898
0.172	22.176	-35162	1996.1	-0.74957	0.39811	-0.50869
0.174	22.163	-35162	1996.1	-0.74957	0.39704	-0.5084
0.176	22.143	-35160	1996.1	-0.74957	0.39596	-0.50811
0.178	22.096	-35159	1996.1	-0.74957	0.39489	-0.50781
0.18	22.037	-35158	1996	-0.74957	0.39382	-0.50752
0.182	21.978	-35158	1996	-0.74967	0.39401	-0.50752
0.184	21.924	-35158	1996	-0.74976	0.39421	-0.50752
0.186	21.851	-35158	1996	-0.74986	0.3944	-0.50752
0.188	21.78	-35158	1996	-0.74996	0.3946	-0.50752
0.19	21.703	-35158	1996	-0.75006	0.39479	-0.50752
0.192	21.623	-35159	1995.9	-0.75035	0.39567	-0.50762
0.194	21.547	-35161	1995.9	-0.75064	0.39655	-0.50772
0.196	21.487	-35164	1995.8	-0.75093	0.39743	-0.50781
0.198	21.447	-35169	1995.8	-0.75123	0.39831	-0.50791
0.2	21.422	-35171	1995.8	-0.75152	0.39918	-0.50801
0.202	21.415	-35171	1995.8	-0.75103	0.39782	-0.50762
0.204	21.427	-35170	1995.8	-0.75054	0.39645	-0.50723
0.206	21.46	-35168	1995.8	-0.75006	0.39508	-0.50684
0.208	21.504	-35167	1995.8	-0.74957	0.39372	-0.50645
0.21	21.558	-35167	1995.8	-0.74908	0.39235	-0.50606
0.212	21.635	-35167	1995.8	-0.74976	0.39333	-0.50664
0.214	21.738	-35166	1995.8	-0.75045	0.3943	-0.50723
0.216	21.866	-35166	1995.7	-0.75113	0.39528	-0.50781
0.218	21.993	-35166	1995.7	-0.75181	0.39626	-0.5084
0.22	22.076	-35166	1995.6	-0.7525	0.39723	-0.50898
0.222	22.1	-35166	1995.7	-0.75162	0.39723	-0.50908
0.224	22.099	-35167	1995.7	-0.75074	0.39723	-0.50918
0.226	22.107	-35170	1995.7	-0.74986	0.39723	-0.50928
0.228	22.121	-35172	1995.7	-0.74898	0.39723	-0.50937
0.23	22.134	-35173	1995.8	-0.7481	0.39723	-0.50947
0.232	22.142	-35173	1995.7	-0.7484	0.39733	-0.50898
0.234	22.142	-35170	1995.7	-0.74869	0.39743	-0.5085
0.236	22.136	-35168	1995.7	-0.74898	0.39752	-0.50801
0.238	22.132	-35166	1995.7	-0.74928	0.39762	-0.50752
0.24	22.124	-35166	1995.7	-0.74957	0.39772	-0.50703
0.242	22.119	-35169	1995.6	-0.75045	0.39723	-0.50654
0.244	22.119	-35172	1995.6	-0.75132	0.39674	-0.50606
0.246	22.118	-35174	1995.6	-0.7522	0.39626	-0.50557
0.248	22.116	-35175	1995.5	-0.75308	0.39577	-0.50508
0.25	22.115	-35176	1995.5	-0.75396	0.39528	-0.50459
0.252	22.109	-35175	1995.5	-0.75279	0.39557	-0.50557
0.254	22.104	-35173	1995.4	-0.75162	0.39587	-0.50654
0.256	22.104	-35172	1995.4	-0.75045	0.39616	-0.50752
0.258	22.103	-35173	1995.3	-0.74928	0.39645	-0.5085
0.26	22.102	-35173	1995.3	-0.7481	0.39674	-0.50947
0.262	22.098	-35173	1995.3	-0.74869	0.39635	-0.50869
0.264	22.095	-35173	1995.2	-0.74928	0.39596	-0.50791
0.266	22.091	-35171	1995.2	-0.74986	0.39557	-0.50713
0.268	22.082	-35171	1995.1	-0.75045	0.39518	-0.50635
0.27	22.078	-35174	1995.1	-0.75103	0.39479	-0.50557
0.272	22.069	-35174	1995.1	-0.75123	0.3945	-0.50567
0.274	22.075	-35173	1995	-0.75142	0.39421	-0.50576
0.276	22.073	-35173	1995	-0.75162	0.39391	-0.50586
0.278	22.078	-35174	1994.9	-0.75181	0.39362	-0.50596
0.28	22.079	-35173	1994.9	-0.75201	0.39333	-0.50606
0.282	22.078	-35168	1994.8	-0.75103	0.39391	-0.50654
0.284	22.081	-35166	1994.7	-0.75006	0.3945	-0.50703
0.286	22.074	-35165	1994.7	-0.74908	0.39508	-0.50752
0.288	22.069	-35164	1994.6	-0.7481	0.39567	-0.50801
0.29	22.062	-35164	1994.5	-0.74713	0.39626	-0.5085
0.292	22.057	-35166	1994.4	-0.74742	0.39606	-0.5085
0.294	22.058	-35171	1994.4	-0.74771	0.39587	-0.5085
0.296	22.059	-35174	1994.3	-0.74801	0.39567	-0.5085
0.298	22.064	-35174	1994.2	-0.7483	0.39548	-0.5085
0.3	22.061	-35174	1994.1	-0.74859	0.39528	-0.5085
0.302	22.05	-35173	1994	-0.75006	0.39577	-0.50781
0.304	22.041	-35173	1993.9	-0.75152	0.39626	-0.50713
0.306	22.039	-35175	1993.9	-0.75298	0.39674	-0.50645
0.308	22.036	-35175	1993.8	-0.75445	0.39723	-0.50576
0.31	22.035	-35174	1993.8	-0.75591	0.39772	-0.50508
0.312	22.039	-35172	1993.7	-0.75572	0.39772	-0.50498
0.314	22.041	-35170	1993.7	-0.75552	0.39772	-0.50488
0.316	22.043	-35171	1993.6	-0.75533	0.39772	-0.50479
0.318	22.043	-35176	1993.6	-0.75513	0.39772	-0.50469
0.32	22.04	-35178	1993.6	-0.75494	0.39772	-0.50459
0.322	22.043	-35178	1993.5	-0.75435	0.39811	-0.50547
0.324	22.043	-35178	1993.4	-0.75376	0.3985	-0.50635
0.326	22.034	-35177	1993.4	-0.75318	0.39889	-0.50723
0.328	22.027	-35180	1993.4	-0.75259	0.39928	-0.50811
0.33	22.021	-35186	1993.4	-0.75201	0.39967	-0.50898
0.332	22.012	-35190	1993.3	-0.75201	0.39977	-0.5085
0.334	22.009	-35191	1993.3	-0.75201	0.39987	-0.50801
0.336	22.001	-35192	1993.3	-0.75201	0.39996	-0.50752
0.338	21.997	-35191	1993.3	-0.75201	0.40006	-0.50703
0.34	21.995	-35188	1993.2	-0.75201	0.40016	-0.50654
0.342	21.987	-35183	1993.3	-0.75181	0.39928	-0.50664
0.344	21.991	-35177	1993.3	-0.75162	0.3984	-0.50674
0.346	21.987	-35171	1993.3	-0.75142	0.39752	-0.50684
0.348	21.975	-35172	1993.3	-0.75123	0.39665	-0.50693
0.35	21.976	-35181	1993.3	-0.75103	0.39577	-0.50703
0.352	21.964	-35183	1993.3	-0.75093	0.39655	-0.50732
0.354	21.956	-35180	1993.3	-0.75084	0.39733	-0.50762
0.356	21.948	-35180	1993.3	-0.75074	0.39811	-0.50791
0.358	21.955	-35183	1993.4	-0.75064	0.39889	-0.5082
0.36	21.96	-35185	1993.4	-0.75054	0.39967	-0.5085
0.362	21.955	-35184	1993.5	-0.75093	0.3987	-0.50781
0.364	21.942	-35185	1993.5	-0.75132	0.39772	-0.50713
0.366	21.938	-35186	1993.6	-0.75172	0.39674	-0.50645
0.368	21.934	-35187	1993.6	-0.75211	0.39577	-0.50576
0.37	21.924	-35188	1993.7	-0.7525	0.39479	-0.50508
0.372	21.918	-35188	1993.6	-0.75113	0.39469	-0.50576
0.374	21.91	-35189	1993.6	-0.74976	0.3946	-0.50645
0.376	21.899	-35189	1993.6	-0.7484	0.3945	-0.50713
0.378	21.891	-35187	1993.6	-0.74703	0.3944	-0.50781
0.38	21.89	-35186	1993.7	-0.74566	0.3943	-0.5085
0.382	21.886	-35185	1993.7	-0.74684	0.39411	-0.5084
0.384	21.876	-35186	1993.7	-0.74801	0.39391	-0.5083
0.386	21.866	-35189	1993.7	-0.74918	0.39372	-0.5082
0.388	21.858	-35188	1993.7	-0.75035	0.39352	-0.50811
0.39	21.853	-35182	1993.8	-0.75152	0.39333	-0.50801
0.392	21.847	-35182	1993.8	-0.75074	0.39333	-0.50801
0.394	21.846	-35188	1993.9	-0.74996	0.39333	-0.50801
0.396	21.852	-35190	1993.9	-0.74918	0.39333	-0.50801
0.398	21.847	-35187	1994	-0.7484	0.39333	-0.50801
0.4	21.832	-35186	1994.1	-0.74762	0.39333	-0.50801
0.402	21.82	-35185	1994.2	-0.74888	0.39411	-0.50752
0.404	21.812	-35186	1994.2	-0.75015	0.39489	-0.50703
0.406	21.802	-35188	1994.3	-0.75142	0.39567	-0.50654
0.408	21.789	-35189	1994.4	-0.75269	0.39645	-0.50606
0.41	21.783	-35188	1994.6	-0.75396	0.39723	-0.50557
0.412	21.778	-35189	1994.7	-0.75416	0.39723	-0.50528
0.414	21.776	-35190	1994.8	-0.75435	0.39723	-0.50498
0.416	21.779	-35190	1994.9	-0.75455	0.39723	-0.50469
0.418	21.764	-35191	1995	-0.75474	0.39723	-0.5044
0.42	21.752	-35190	1995.1	-0.75494	0.39723	-0.5041
0.422	21.765	-35188	1995.2	-0.75425	0.39733	-0.50371
0.424	21.775	-35187	1995.3	-0.75357	0.39743	-0.50332
0.426	21.781	-35187	1995.5	-0.75289	0.39752	-0.50293
0.428	21.779	-35187	1995.6	-0.7522	0.39762	-0.50254
0.43	21.778	-35186	1995.7	-0.75152	0.39772	-0.50215
0.432	21.774	-35184	1995.8	-0.75113	0.39752	-0.50293
0.434	21.772	-35181	1995.9	-0.75074	0.39733	-0.50371
0.436	21.77	-35180	1996	-0.75035	0.39713	-0.50449
0.438	21.767	-35181	1996.2	-0.74996	0.39694	-0.50528
0.44	21.769	-35179	1996.3	-0.74957	0.39674	-0.50606
0.442	21.773	-35175	1996.4	-0.75123	0.39635	-0.50567
0.444	21.789	-35174	1996.5	-0.75289	0.39596	-0.50528
0.446	21.796	-35176	1996.7	-0.75455	0.39557	-0.50488
0.448	21.789	-35172	1996.8	-0.7562	0.39518	-0.50449
0.45	21.793	-35162	1997	-0.75786	0.39479	-0.5041
0.452	21.798	-35157	1997.1	-0.75562	0.39469	-0.50508
0.454	21.802	-35160	1997.3	-0.75337	0.3946	-0.50606
0.456	21.814	-35160	1997.4	-0.75113	0.3945	-0.50703
0.458	21.829	-35159	1997.5	-0.74888	0.3944	-0.50801
0.46	21.837	-35157	1997.7	-0.74664	0.3943	-0.50898
0.462	21.841	-35154	1997.9	-0.74849	0.3946	-0.5082
0.464	21.845	-35150	1998	-0.75035	0.39489	-0.50742
0.466	21.851	-35145	1998.2	-0.7522	0.39518	-0.50664
0.468	21.855	-35145	1998.4	-0.75406	0.39548	-0.50586
0.47	21.86	-35151	1998.6	-0.75591	0.39577	-0.50508
0.472	21.872	-35149	1998.8	-0.75533	0.39596	-0.50528
0.474	21.889	-35140	1999	-0.75474	0.39616	-0.50547
0.476	21.897	-35137	1999.2	-0.75416	0.39635	-0.50567
0.478	21.905	-35140	1999.4	-0.75357	0.39655	-0.50586
0.48	21.921	-35140	1999.6	-0.75298	0.39674	-0.50606
0.482	21.931	-35135	1999.9	-0.75259	0.39694	-0.50625
0.484	21.939	-35129	2000.1	-0.7522	0.39713	-0.50645
0.486	21.948	-35124	2000.3	-0.75181	0.39733	-0.50664
0.488	21.959	-35121	2000.6	-0.75142	0.39752	-0.50684
0.49	21.977	-35120	2000.8	-0.75103	0.39772	-0.50703
0.492	21.993	-35122	2001	-0.75074	0.39743	-0.50732
0.494	21.999	-35129	2001.2	-0.75045	0.39713	-0.50762
0.496	22.002	-35125	2001.4	-0.75015	0.39684	-0.50791
0.498	22.005	-35111	2001.6	-0.74986	0.39655	-0.5082
0.5	22.007	-35102	2001.8	-0.74957	0.39626	-0.5085
0.502	22.006	-35100	2002	-0.74918	0.39616	-0.5084
0.504	22.018	-35096	2002.1	-0.74879	0.39606	-0.5083
0.506	22.021	-35091	2002.3	-0.7484	0.39596	-0.5082
0.508	22.023	-35087	2002.4	-0.74801	0.39587	-0.50811
0.51	22.031	-35086	2002.6	-0.74762	0.39577	-0.50801
0.512	22.034	-35087	2002.6	-0.74615	0.39704	-0.50937
0.514	22.031	-35090	2002.7	-0.74469	0.39831	-0.51074
0.516	22.041	-35088	2002.7	-0.74322	0.39957	-0.51211
0.518	22.041	-35080	2002.7	-0.74176	0.40084	-0.51347
0.52	22.044	-35075	2002.7	-0.7403	0.40211	-0.51484
0.522	22.044	-35073	2002.7	-0.74147	0.40123	-0.51445
0.524	22.042	-35073	2002.7	-0.74264	0.40036	-0.51406
0.526	22.039	-35075	2002.7	-0.74381	0.39948	-0.51367
0.528	22.039	-35076	2002.7	-0.74498	0.3986	-0.51328
0.53	22.043	-35077	2002.6	-0.74615	0.39772	-0.51289
0.532	22.048	-35077	2002.6	-0.74615	0.39782	-0.51269
0.534	22.048	-35077	2002.5	-0.74615	0.39792	-0.5125
0.536	22.048	-35072	2002.5	-0.74615	0.39801	-0.5123
0.538	22.043	-35063	2002.4	-0.74615	0.39811	-0.51211
0.54	22.047	-35060	2002.3	-0.74615	0.39821	-0.51191
0.542	22.052	-35063	2002.2	-0.74537	0.3986	-0.51133
0.544	22.051	-35066	2002.1	-0.74459	0.39899	-0.51074
0.546	22.042	-35067	2002.1	-0.74381	0.39938	-0.51016
0.548	22.041	-35063	2002	-0.74303	0.39977	-0.50957
0.55	22.041	-35053	2002	-0.74225	0.40016	-0.50898
0.552	22.046	-35048	2001.9	-0.74322	0.39987	-0.50889
0.554	22.044	-35048	2001.9	-0.7442	0.39957	-0.50879
0.556	22.04	-35050	2001.9	-0.74518	0.39928	-0.50869
0.558	22.043	-35055	2001.9	-0.74615	0.39899	-0.50859
0.56	22.051	-35056	2001.8	-0.74713	0.3987	-0.5085
0.562	22.06	-35054	2001.8	-0.74791	0.39879	-0.5083
0.564	22.063	-35054	2001.8	-0.74869	0.39889	-0.50811
0.566	22.058	-35055	2001.8	-0.74947	0.39899	-0.50791
0.568	22.057	-35055	2001.8	-0.75025	0.39909	-0.50772
0.57	22.062	-35054	2001.9	-0.75103	0.39918	-0.50752
0.572	22.062	-35053	2001.9	-0.75162	0.39879	-0.50635
0.574	22.058	-35051	2001.9	-0.7522	0.3984	-0.50518
0.576	22.057	-35051	2001.9	-0.75279	0.39801	-0.50401
0.578	22.059	-35053	2001.8	-0.75337	0.39762	-0.50284
0.58	22.056	-35052	2001.8	-0.75396	0.39723	-0.50166
0.582	22.051	-35048	2001.8	-0.75347	0.39772	-0.50235
0.584	22.047	-35047	2001.8	-0.75298	0.39821	-0.50303
0.586	22.046	-35049	2001.8	-0.7525	0.3987	-0.50371
0.588	22.043	-35049	2001.8	-0.75201	0.39918	-0.5044
0.59	22.041	-35046	2001.8	-0.75152	0.39967	-0.50508
0.592	22.04	-35044	2001.7	-0.7525	0.39948	-0.50528
0.594	22.039	-35043	2001.6	-0.75347	0.39928	-0.50547
0.596	22.043	-35044	2001.5	-0.75445	0.39909	-0.50567
0.598	22.042	-35047	2001.4	-0.75542	0.39889	-0.50586
0.6	22.037	-35051	2001.4	-0.7564	0.3987	-0.50606
0.602	22.031	-35056	2001.4	-0.75611	0.39811	-0.50547
0.604	22.033	-35057	2001.3	-0.75581	0.39752	-0.50488
0.606	22.032	-35054	2001.3	-0.75552	0.39694	-0.5043
0.608	22.029	-35052	2001.2	-0.75523	0.39635	-0.50371
0.61	22.03	-35051	2001.2	-0.75494	0.39577	-0.50313
0.612	22.032	-35048	2001.1	-0.75572	0.39528	-0.50274
0.614	22.034	-35044	2001	-0.7565	0.39479	-0.50235
0.616	22.028	-35042	2000.9	-0.75728	0.3943	-0.50196
0.618	22.015	-35042	2000.8	-0.75806	0.39382	-0.50157
0.62	22.022	-35045	2000.7	-0.75884	0.39333	-0.50118
0.622	22.028	-35051	2000.6	-0.75835	0.39391	-0.50147
0.624	22.022	-35052	2000.5	-0.75786	0.3945	-0.50176
0.626	22.021	-35049	2000.5	-0.75738	0.39508	-0.50205
0.628	22.022	-35049	2000.4	-0.75689	0.39567	-0.50235
0.63	22.018	-35053	2000.4	-0.7564	0.39626	-0.50264
0.632	22.015	-35056	2000.3	-0.75572	0.39626	-0.50196
0.634	22.013	-35058	2000.2	-0.75503	0.39626	-0.50127
0.636	22.01	-35058	2000.1	-0.75435	0.39626	-0.50059
0.638	22.012	-35057	2000.1	-0.75367	0.39626	-0.49991
0.64	22.014	-35056	2000	-0.75298	0.39626	-0.49922
0.642	22.019	-35055	2000	-0.75298	0.39665	-0.50098
0.644	22.025	-35055	2000	-0.75298	0.39704	-0.50274
0.646	22.026	-35056	1999.9	-0.75298	0.39743	-0.50449
0.648	22.023	-35059	1999.9	-0.75298	0.39782	-0.50625
0.65	22.018	-35063	1999.9	-0.75298	0.39821	-0.50801
0.652	22.01	-35064	1999.8	-0.75328	0.39772	-0.50752
0.654	22.009	-35062	1999.8	-0.75357	0.39723	-0.50703
0.656	22.014	-35064	1999.8	-0.75386	0.39674	-0.50654
0.658	22.014	-35069	1999.8	-0.75416	0.39626	-0.50606
0.66	22.02	-35068	1999.8	-0.75445	0.39577	-0.50557
0.662	22.031	-35061	1999.8	-0.75308	0.39508	-0.50557
0.664	22.034	-35058	1999.8	-0.75172	0.3944	-0.50557
0.666	22.031	-35058	1999.8	-0.75035	0.39372	-0.50557
0.668	22.028	-35060	1999.8	-0.74898	0.39304	-0.50557
0.67	22.026	-35064	1999.8	-0.74762	0.39235	-0.50557
0.672	22.027	-35067	1999.8	-0.74742	0.39304	-0.50635
0.674	22.028	-35068	1999.7	-0.74723	0.39372	-0.50713
0.676	22.029	-35069	1999.7	-0.74703	0.3944	-0.50791
0.678	22.027	-35070	1999.7	-0.74684	0.39508	-0.50869
0.68	22.033	-35072	1999.7	-0.74664	0.39577	-0.50947
0.682	22.039	-35074	1999.7	-0.74674	0.39616	-0.50976
0.684	22.032	-35073	1999.6	-0.74684	0.39655	-0.51006
0.686	22.027	-35069	1999.6	-0.74693	0.39694	-0.51035
0.688	22.026	-35067	1999.5	-0.74703	0.39733	-0.51064
0.69	22.026	-35068	1999.5	-0.74713	0.39772	-0.51094
0.692	22.025	-35065	1999.5	-0.74723	0.39606	-0.51055
0.694	22.022	-35059	1999.4	-0.74732	0.3944	-0.51016
0.696	22.012	-35058	1999.4	-0.74742	0.39274	-0.50976
0.698	22.014	-35063	1999.4	-0.74752	0.39108	-0.50937
0.7	22.021	-35067	1999.4	-0.74762	0.38942	-0.50898
0.702	22.023	-35070	1999.3	-0.74791	0.39011	-0.5085
0.704	22.027	-35068	1999.3	-0.7482	0.39079	-0.50801
0.706	22.028	-35063	1999.3	-0.74849	0.39147	-0.50752
0.708	22.027	-35063	1999.3	-0.74879	0.39216	-0.50703
0.71	22.029	-35070	1999.3	-0.74908	0.39284	-0.50654
0.712	22.03	-35070	1999.2	-0.74996	0.3945	-0.50664
0.714	22.029	-35063	1999.1	-0.75084	0.39616	-0.50674
0.716	22.027	-35060	1999.1	-0.75172	0.39782	-0.50684
0.718	22.028	-35061	1999.2	-0.75259	0.39948	-0.50693
0.72	22.025	-35065	1999.2	-0.75347	0.40114	-0.50703
0.722	22.024	-35072	1999.2	-0.75328	0.39987	-0.50645
0.724	22.027	-35073	1999.3	-0.75308	0.3986	-0.50586
0.726	22.03	-35068	1999.3	-0.75289	0.39733	-0.50528
0.728	22.029	-35065	1999.3	-0.75269	0.39606	-0.50469
0.73	22.029	-35066	1999.3	-0.7525	0.39479	-0.5041
0.732	22.028	-35066	1999.3	-0.75298	0.3946	-0.50381
0.734	22.02	-35065	1999.4	-0.75347	0.3944	-0.50352
0.736	22.015	-35064	1999.5	-0.75396	0.39421	-0.50323
0.738	22.025	-35064	1999.5	-0.75445	0.39401	-0.50293
0.74	22.037	-35061	1999.5	-0.75494	0.39382	-0.50264
0.742	22.037	-35057	1999.6	-0.75484	0.3946	-0.50313
0.744	22.035	-35055	1999.6	-0.75474	0.39538	-0.50362
0.746	22.039	-35055	1999.7	-0.75464	0.39616	-0.5041
0.748	22.038	-35056	1999.8	-0.75455	0.39694	-0.50459
0.75	22.03	-35059	1999.9	-0.75445	0.39772	-0.50508
0.752	22.027	-35061	1999.9	-0.75328	0.39743	-0.50615
0.754	22.03	-35062	1999.9	-0.75211	0.39713	-0.50723
0.756	22.039	-35063	2000	-0.75093	0.39684	-0.5083
0.758	22.045	-35065	2000.1	-0.74976	0.39655	-0.50937
0.76	22.042	-35065	2000.1	-0.74859	0.39626	-0.51045
0.762	22.033	-35063	2000.2	-0.74859	0.39616	-0.51016
0.764	22.031	-35061	2000.2	-0.74859	0.39606	-0.50986
0.766	22.041	-35060	2000.3	-0.74859	0.39596	-0.50957
0.768	22.035	-35057	2000.3	-0.74859	0.39587	-0.50928
0.77	22.026	-35054	2000.4	-0.74859	0.39577	-0.50898
0.772	22.017	-35051	2000.4	-0.74937	0.39606	-0.5084
0.774	22.009	-35049	2000.5	-0.75015	0.39635	-0.50781
0.776	22.013	-35050	2000.5	-0.75093	0.39665	-0.50723
0.778	22.009	-35053	2000.6	-0.75172	0.39694	-0.50664
0.78	21.994	-35055	2000.6	-0.7525	0.39723	-0.50606
0.782	21.992	-35055	2000.6	-0.75211	0.39694	-0.50606
0.784	22.001	-35054	2000.6	-0.75172	0.39665	-0.50606
0.786	22.004	-35053	2000.7	-0.75132	0.39635	-0.50606
0.788	22	-35054	2000.7	-0.75093	0.39606	-0.50606
0.79	21.992	-35058	2000.8	-0.75054	0.39577	-0.50606
0.792	22.005	-35058	2000.9	-0.75045	0.39645	-0.50674
0.794	22.011	-35056	2000.9	-0.75035	0.39713	-0.50742
0.796	22.014	-35054	2001	-0.75025	0.39782	-0.50811
0.798	22.019	-35052	2001	-0.75015	0.3985	-0.50879
0.8	22.008	-35052	2001.1	-0.75006	0.39918	-0.50947
0.802	21.993	-35053	2001.1	-0.75006	0.39831	-0.50811
0.804	21.985	-35053	2001.1	-0.75006	0.39743	-0.50674
0.806	21.975	-35050	2001.2	-0.75006	0.39655	-0.50537
0.808	21.967	-35048	2001.3	-0.75006	0.39567	-0.50401
0.81	21.966	-35046	2001.4	-0.75006	0.39479	-0.50264
0.812	21.968	-35046	2001.4	-0.75084	0.39508	-0.50313
0.814	21.968	-35049	2001.5	-0.75162	0.39538	-0.50362
0.816	21.965	-35050	2001.5	-0.7524	0.39567	-0.5041
0.818	21.966	-35048	2001.6	-0.75318	0.39596	-0.50459
0.82	21.967	-35046	2001.6	-0.75396	0.39626	-0.50508
0.822	21.965	-35043	2001.7	-0.75259	0.39577	-0.50567
0.824	21.965	-35046	2001.7	-0.75123	0.39528	-0.50625
0.826	21.967	-35053	2001.8	-0.74986	0.39479	-0.50684
0.828	21.965	-35056	2001.9	-0.74849	0.3943	-0.50742
0.83	21.962	-35056	2001.9	-0.74713	0.39382	-0.50801
0.832	21.963	-35053	2001.9	-0.74859	0.39508	-0.50713
0.834	21.961	-35048	2002	-0.75006	0.39635	-0.50625
0.836	21.955	-35043	2002	-0.75152	0.39762	-0.50537
0.838	21.962	-35039	2002	-0.75298	0.39889	-0.50449
0.84	21.974	-35038	2002	-0.75445	0.40016	-0.50362
0.842	21.986	-35040	2002.1	-0.75347	0.39948	-0.50528
0.844	21.997	-35042	2002.1	-0.7525	0.39879	-0.50693
0.846	21.999	-35044	2002.1	-0.75152	0.39811	-0.50859
0.848	21.999	-35046	2002.2	-0.75054	0.39743	-0.51025
0.85	22	-35049	2002.2	-0.74957	0.39674	-0.51191
0.852	22.006	-35051	2002.2	-0.74928	0.39733	-0.51152
0.854	22.019	-35051	2002.2	-0.74898	0.39792	-0.51113
0.856	22.029	-35051	2002.1	-0.74869	0.3985	-0.51074
0.858	22.026	-35052	2002.1	-0.7484	0.39909	-0.51035
0.86	22.026	-35054	2002.1	-0.7481	0.39967	-0.50996
0.862	22.029	-35057	2002.1	-0.74957	0.39909	-0.50937
0.864	22.034	-35058	2002.1	-0.75103	0.3985	-0.50879
0.866	22.031	-35055	2002.2	-0.7525	0.39792	-0.5082
0.868	22.031	-35053	2002.2	-0.75396	0.39733	-0.50762
0.87	22.028	-35052	2002.2	-0.75542	0.39674	-0.50703
0.872	22.027	-35051	2002.2	-0.75484	0.39684	-0.50645
0.874	22.026	-35050	2002.2	-0.75425	0.39694	-0.50586
0.876	22.033	-35048	2002.3	-0.75367	0.39704	-0.50528
0.878	22.035	-35046	2002.2	-0.75308	0.39713	-0.50469
0.88	22.035	-35046	2002.2	-0.7525	0.39723	-0.5041
0.882	22.038	-35048	2002.3	-0.75269	0.39752	-0.50449
0.884	22.036	-35049	2002.3	-0.75289	0.39782	-0.50488
0.886	22.031	-35051	2002.3	-0.75308	0.39811	-0.50528
0.888	22.028	-35049	2002.3	-0.75328	0.3984	-0.50567
0.89	22.031	-35044	2002.3	-0.75347	0.3987	-0.50606
0.892	22.028	-35042	2002.3	-0.75289	0.39879	-0.50664
0.894	22.027	-35043	2002.3	-0.7523	0.39889	-0.50723
0.896	22.022	-35049	2002.3	-0.75172	0.39899	-0.50781
0.898	22.021	-35060	2002.3	-0.75113	0.39909	-0.5084
0.9	22.021	-35064	2002.3	-0.75054	0.39918	-0.50898
0.902	22.027	-35063	2002.3	-0.75035	0.3986	-0.5082
0.904	22.033	-35062	2002.2	-0.75015	0.39801	-0.50742
0.906	22.03	-35062	2002.2	-0.74996	0.39743	-0.50664
0.908	22.03	-35063	2002.2	-0.74976	0.39684	-0.50586
0.91	22.038	-35065	2002.2	-0.74957	0.39626	-0.50508
0.912	22.042	-35067	2002.2	-0.74986	0.39723	-0.50596
0.914	22.041	-35067	2002.2	-0.75015	0.39821	-0.50684
0.916	22.038	-35067	2002.3	-0.75045	0.39918	-0.50772
0.918	22.041	-35068	2002.3	-0.75074	0.40016	-0.50859
0.92	22.052	-35066	2002.3	-0.75103	0.40114	-0.50947
0.922	22.058	-35062	2002.4	-0.75172	0.40123	-0.50898
0.924	22.063	-35059	2002.4	-0.7524	0.40133	-0.5085
0.926	22.059	-35057	2002.5	-0.75308	0.40143	-0.50801
0.928	22.04	-35057	2002.5	-0.75376	0.40153	-0.50752
0.93	22.015	-35059	2002.5	-0.75445	0.40162	-0.50703
0.932	21.976	-35060	2002.5	-0.75376	0.40104	-0.50703
0.934	21.922	-35059	2002.6	-0.75308	0.40045	-0.50703
0.936	21.864	-35061	2002.6	-0.7524	0.39987	-0.50703
0.938	21.812	-35065	2002.6	-0.75172	0.39928	-0.50703
0.94	21.753	-35069	2002.6	-0.75103	0.3987	-0.50703
0.942	21.684	-35073	2002.6	-0.75045	0.39879	-0.50723
0.944	21.616	-35073	2002.6	-0.74986	0.39889	-0.50742
0.946	21.546	-35069	2002.6	-0.74928	0.39899	-0.50762
0.948	21.485	-35066	2002.6	-0.74869	0.39909	-0.50781
0.95	21.435	-35066	2002.6	-0.7481	0.39918	-0.50801
0.952	21.407	-35066	2002.7	-0.74937	0.39909	-0.50742
0.954	21.377	-35066	2002.7	-0.75064	0.39899	-0.50684
0.956	21.38	-35069	2002.7	-0.75191	0.39889	-0.50625
0.958	21.406	-35073	2002.7	-0.75318	0.39879	-0.50567
0.96	21.448	-35073	2002.8	-0.75445	0.3987	-0.50508
0.962	21.502	-35070	2002.8	-0.75289	0.39821	-0.50537
0.964	21.55	-35071	2002.8	-0.75132	0.39772	-0.50567
0.966	21.609	-35075	2002.8	-0.74976	0.39723	-0.50596
0.968	21.688	-35078	2002.8	-0.7482	0.39674	-0.50625
0.97	21.802	-35079	2002.8	-0.74664	0.39626	-0.50654
0.972	21.929	-35081	2002.8	-0.74713	0.39616	-0.50684
0.974	22.01	-35082	2002.8	-0.74762	0.39606	-0.50713
0.976	22.034	-35081	2002.8	-0.7481	0.39596	-0.50742
0.978	22.029	-35079	2002.8	-0.74859	0.39587	-0.50772
0.98	22.014	-35078	2002.8	-0.74908	0.39577	-0.50801
0.982	22.008	-35079	2002.8	-0.74908	0.39674	-0.5085
0.984	22.007	-35078	2002.9	-0.74908	0.39772	-0.50898
0.986	22.013	-35077	2002.9	-0.74908	0.3987	-0.50947
0.988	22.024	-35078	2002.9	-0.74908	0.39967	-0.50996
0.99	22.022	-35082	2002.9	-0.74908	0.40065	-0.51045
0.992	22.011	-35087	2002.9	-0.74898	0.40075	-0.51055
0.994	22.007	-35092	2003	-0.74888	0.40084	-0.51064
0.996	22.004	-35094	2003	-0.74879	0.40094	-0.51074
0.998	22.001	-35093	2003	-0.74869	0.40104	-0.51084
1	22.001	-35089	2003.1	-0.74859	0.40114	-0.51094
1.002	21.996	-35080	2003.1	-0.74908	0.40114	-0.51123
1.004	21.992	-35079	2003.1	-0.74957	0.40114	-0.51152
1.006	21.989	-35085	2003.1	-0.75006	0.40114	-0.51181
1.008	21.984	-35089	2003.1	-0.75054	0.40114	-0.51211
1.01	21.98	-35089	2003.2	-0.75103	0.40114	-0.5124
1.012	21.979	-35087	2003.1	-0.75162	0.40006	-0.51074
1.014	21.966	-35082	2003.1	-0.7522	0.39899	-0.50908
1.016	21.956	-35083	2003.1	-0.75279	0.39792	-0.50742
1.018	21.955	-35087	2003.1	-0.75337	0.39684	-0.50576
1.02	21.954	-35088	2003.1	-0.75396	0.39577	-0.5041
1.022	21.958	-35084	2003.1	-0.75279	0.39606	-0.50449
1.024	21.969	-35082	2003.1	-0.75162	0.39635	-0.50488
1.026	21.971	-35083	2003.1	-0.75045	0.39665	-0.50528
1.028	21.97	-35086	2003.1	-0.74928	0.39694	-0.50567
1.03	21.969	-35093	2003.1	-0.7481	0.39723	-0.50606
1.032	21.962	-35096	2003	-0.74742	0.39733	-0.50664
1.034	21.957	-35097	2002.9	-0.74674	0.39743	-0.50723
1.036	21.954	-35092	2002.8	-0.74605	0.39752	-0.50781
1.038	21.952	-35083	2002.7	-0.74537	0.39762	-0.5084
1.04	21.953	-35082	2002.6	-0.74469	0.39772	-0.50898
1.042	21.95	-35088	2002.6	-0.74644	0.3987	-0.5084
1.044	21.951	-35093	2002.5	-0.7482	0.39967	-0.50781
1.046	21.946	-35096	2002.4	-0.74996	0.40065	-0.50723
1.048	21.943	-35094	2002.3	-0.75172	0.40162	-0.50664
1.05	21.94	-35089	2002.2	-0.75347	0.4026	-0.50606
1.052	21.931	-35086	2002.1	-0.75328	0.40172	-0.50547
1.054	21.928	-35086	2002	-0.75308	0.40084	-0.50488
1.056	21.926	-35085	2001.9	-0.75289	0.39996	-0.5043
1.058	21.92	-35083	2001.9	-0.75269	0.39909	-0.50371
1.06	21.917	-35083	2001.8	-0.7525	0.39821	-0.50313
1.062	21.921	-35086	2001.8	-0.75318	0.39879	-0.5043
1.064	21.928	-35089	2001.7	-0.75386	0.39938	-0.50547
1.066	21.928	-35091	2001.7	-0.75455	0.39996	-0.50664
1.068	21.926	-35093	2001.7	-0.75523	0.40055	-0.50781
1.07	21.923	-35094	2001.6	-0.75591	0.40114	-0.50898
1.072	21.916	-35095	2001.6	-0.75494	0.40006	-0.50859
1.074	21.908	-35094	2001.6	-0.75396	0.39899	-0.5082
1.076	21.904	-35093	2001.6	-0.75298	0.39792	-0.50781
1.078	21.9	-35093	2001.5	-0.75201	0.39684	-0.50742
1.08	21.896	-35092	2001.5	-0.75103	0.39577	-0.50703
1.082	21.898	-35090	2001.5	-0.75113	0.39743	-0.50752
1.084	21.896	-35090	2001.5	-0.75123	0.39909	-0.50801
1.086	21.889	-35093	2001.5	-0.75132	0.40075	-0.5085
1.088	21.883	-35093	2001.4	-0.75142	0.4024	-0.50898
1.09	21.882	-35089	2001.4	-0.75152	0.40406	-0.50947
1.092	21.887	-35086	2001.4	-0.75132	0.40377	-0.50908
1.094	21.891	-35085	2001.3	-0.75113	0.40348	-0.50869
1.096	21.881	-35091	2001.3	-0.75093	0.40319	-0.5083
1.098	21.87	-35102	2001.2	-0.75074	0.40289	-0.50791
1.1	21.86	-35107	2001.1	-0.75054	0.4026	-0.50752
1.102	21.852	-35106	2001.1	-0.75045	0.40201	-0.50801
1.104	21.851	-35105	2001.1	-0.75035	0.40143	-0.5085
1.106	21.855	-35105	2001	-0.75025	0.40084	-0.50898
1.108	21.861	-35102	2000.9	-0.75015	0.40026	-0.50947
1.11	21.853	-35096	2000.9	-0.75006	0.39967	-0.50996
1.112	21.847	-35094	2000.8	-0.74908	0.39928	-0.51025
1.114	21.846	-35097	2000.8	-0.7481	0.39889	-0.51055
1.116	21.831	-35098	2000.7	-0.74713	0.3985	-0.51084
1.118	21.824	-35097	2000.7	-0.74615	0.39811	-0.51113
1.12	21.814	-35098	2000.7	-0.74518	0.39772	-0.51142
1.122	21.807	-35099	2000.6	-0.74693	0.39792	-0.50996
1.124	21.798	-35100	2000.5	-0.74869	0.39811	-0.5085
1.126	21.801	-35100	2000.4	-0.75045	0.39831	-0.50703
1.128	21.8	-35101	2000.3	-0.7522	0.3985	-0.50557
1.13	21.788	-35104	2000.2	-0.75396	0.3987	-0.5041
1.132	21.772	-35106	2000.1	-0.75142	0.3987	-0.50557
1.134	21.76	-35109	2000.1	-0.74888	0.3987	-0.50703
1.136	21.749	-35111	2000	-0.74635	0.3987	-0.5085
1.138	21.743	-35113	1999.9	-0.74381	0.3987	-0.50996
1.14	21.739	-35110	1999.9	-0.74127	0.3987	-0.51142
1.142	21.733	-35103	1999.8	-0.74127	0.39831	-0.51133
1.144	21.731	-35102	1999.7	-0.74127	0.39792	-0.51123
1.146	21.726	-35107	1999.6	-0.74127	0.39752	-0.51113
1.148	21.718	-35106	1999.5	-0.74127	0.39713	-0.51103
1.15	21.711	-35100	1999.5	-0.74127	0.39674	-0.51094
1.152	21.705	-35099	1999.5	-0.74313	0.39723	-0.51045
1.154	21.698	-35103	1999.5	-0.74498	0.39772	-0.50996
1.156	21.69	-35106	1999.4	-0.74684	0.39821	-0.50947
1.158	21.685	-35108	1999.4	-0.74869	0.3987	-0.50898
1.16	21.682	-35106	1999.3	-0.75054	0.39918	-0.5085
1.162	21.673	-35101	1999.3	-0.75142	0.39899	-0.50732
1.164	21.66	-35099	1999.3	-0.7523	0.39879	-0.50615
1.166	21.651	-35102	1999.3	-0.75318	0.3986	-0.50498
1.168	21.644	-35102	1999.3	-0.75406	0.3984	-0.50381
1.17	21.644	-35099	1999.3	-0.75494	0.39821	-0.50264
1.172	21.653	-35100	1999.3	-0.75425	0.39821	-0.50391
1.174	21.664	-35104	1999.2	-0.75357	0.39821	-0.50518
1.176	21.667	-35104	1999.2	-0.75289	0.39821	-0.50645
1.178	21.656	-35100	1999.2	-0.7522	0.39821	-0.50772
1.18	21.65	-35098	1999.2	-0.75152	0.39821	-0.50898
1.182	21.647	-35098	1999.2	-0.75181	0.39811	-0.50879
1.184	21.65	-35100	1999.1	-0.75211	0.39801	-0.50859
1.186	21.656	-35103	1999.1	-0.7524	0.39792	-0.5084
1.188	21.662	-35106	1999	-0.75269	0.39782	-0.5082
1.19	21.655	-35111	1998.9	-0.75298	0.39772	-0.50801
1.192	21.648	-35106	1998.9	-0.75328	0.39752	-0.50742
1.194	21.652	-35093	1998.9	-0.75357	0.39733	-0.50684
1.196	21.667	-35086	1998.8	-0.75386	0.39713	-0.50625
1.198	21.667	-35087	1998.8	-0.75416	0.39694	-0.50567
1.2	21.663	-35088	1998.8	-0.75445	0.39674	-0.50508
1.202	21.676	-35090	1998.8	-0.75279	0.39596	-0.50547
1.204	21.683	-35091	1998.7	-0.75113	0.39518	-0.50586
1.206	21.685	-35091	1998.7	-0.74947	0.3944	-0.50625
1.208	21.691	-35088	1998.7	-0.74781	0.39362	-0.50664
1.21	21.706	-35084	1998.7	-0.74615	0.39284	-0.50703
1.212	21.719	-35080	1998.7	-0.74849	0.39323	-0.50615
1.214	21.728	-35077	1998.8	-0.75084	0.39362	-0.50528
1.216	21.742	-35074	1998.8	-0.75318	0.39401	-0.5044
1.218	21.744	-35072	1998.8	-0.75552	0.3944	-0.50352
1.22	21.751	-35071	1998.9	-0.75786	0.39479	-0.50264
1.222	21.763	-35072	1998.9	-0.75767	0.39479	-0.50235
1.224	21.774	-35074	1999	-0.75747	0.39479	-0.50205
1.226	21.782	-35077	1999.1	-0.75728	0.39479	-0.50176
1.228	21.789	-35075	1999.1	-0.75708	0.39479	-0.50147
1.23	21.8	-35067	1999.2	-0.75689	0.39479	-0.50118
1.232	21.813	-35063	1999.3	-0.75689	0.39528	-0.50254
1.234	21.819	-35063	1999.5	-0.75689	0.39577	-0.50391
1.236	21.827	-35061	1999.7	-0.75689	0.39626	-0.50528
1.238	21.841	-35057	1999.9	-0.75689	0.39674	-0.50664
1.24	21.861	-35054	2000.1	-0.75689	0.39723	-0.50801
1.242	21.871	-35051	2000.2	-0.75699	0.39704	-0.50723
1.244	21.869	-35049	2000.4	-0.75708	0.39684	-0.50645
1.246	21.872	-35047	2000.5	-0.75718	0.39665	-0.50567
1.248	21.88	-35044	2000.7	-0.75728	0.39645	-0.50488
1.25	21.883	-35040	2000.8	-0.75738	0.39626	-0.5041
1.252	21.887	-35037	2000.9	-0.75552	0.39606	-0.50469
1.254	21.894	-35036	2001.1	-0.75367	0.39587	-0.50528
1.256	21.899	-35035	2001.2	-0.75181	0.39567	-0.50586
1.258	21.904	-35034	2001.3	-0.74996	0.39548	-0.50645
1.26	21.91	-35032	2001.3	-0.7481	0.39528	-0.50703
1.262	21.917	-35029	2001.4	-0.74859	0.39665	-0.50762
1.264	21.924	-35025	2001.5	-0.74908	0.39801	-0.5082
1.266	21.93	-35022	2001.6	-0.74957	0.39938	-0.50879
1.268	21.931	-35020	2001.6	-0.75006	0.40075	-0.50937
1.27	21.927	-35017	2001.6	-0.75054	0.40211	-0.50996
1.272	21.924	-35016	2001.6	-0.74888	0.40133	-0.51016
1.274	21.927	-35016	2001.7	-0.74723	0.40055	-0.51035
1.276	21.931	-35012	2001.7	-0.74557	0.39977	-0.51055
1.278	21.937	-35005	2001.6	-0.74391	0.39899	-0.51074
1.28	21.936	-35001	2001.6	-0.74225	0.39821	-0.51094
1.282	21.94	-35000	2001.6	-0.74361	0.39811	-0.51035
1.284	21.946	-34999	2001.6	-0.74498	0.39801	-0.50976
1.286	21.944	-34998	2001.5	-0.74635	0.39792	-0.50918
1.288	21.932	-34999	2001.5	-0.74771	0.39782	-0.50859
1.29	21.941	-35002	2001.5	-0.74908	0.39772	-0.50801
1.292	21.945	-35004	2001.5	-0.75054	0.3984	-0.50811
1.294	21.947	-35005	2001.4	-0.75201	0.39909	-0.5082
1.296	21.944	-35002	2001.4	-0.75347	0.39977	-0.5083
1.298	21.938	-34995	2001.3	-0.75494	0.40045	-0.5084
1.3	21.939	-34992	2001.3	-0.7564	0.40114	-0.5085
1.302	21.936	-34991	2001.3	-0.75523	0.40143	-0.50879
1.304	21.934	-34990	2001.2	-0.75406	0.40172	-0.50908
1.306	21.934	-34990	2001.2	-0.75289	0.40201	-0.50937
1.308	21.939	-34991	2001.3	-0.75172	0.40231	-0.50967
1.31	21.952	-34993	2001.3	-0.75054	0.4026	-0.50996
1.312	21.962	-34994	2001.2	-0.75093	0.40201	-0.50937
1.314	21.961	-34993	2001.2	-0.75132	0.40143	-0.50879
1.316	21.955	-34989	2001.1	-0.75172	0.40084	-0.5082
1.318	21.946	-34982	2001.1	-0.75211	0.40026	-0.50762
1.32	21.938	-34978	2001.1	-0.7525	0.39967	-0.50703
1.322	21.936	-34977	2001.1	-0.75172	0.3984	-0.50693
1.324	21.937	-34977	2001.1	-0.75093	0.39713	-0.50684
1.326	21.937	-34979	2001	-0.75015	0.39587	-0.50674
1.328	21.942	-34982	2000.9	-0.74937	0.3946	-0.50664
1.33	21.95	-34986	2000.8	-0.74859	0.39333	-0.50654
1.332	21.95	-34988	2000.7	-0.74908	0.3943	-0.50684
1.334	21.942	-34989	2000.6	-0.74957	0.39528	-0.50713
1.336	21.936	-34989	2000.5	-0.75006	0.39626	-0.50742
1.338	21.932	-34988	2000.4	-0.75054	0.39723	-0.50772
1.34	21.929	-34988	2000.3	-0.75103	0.39821	-0.50801
1.342	21.928	-34989	2000.2	-0.75172	0.39821	-0.50781
1.344	21.934	-34991	2000	-0.7524	0.39821	-0.50762
1.346	21.939	-34995	1999.9	-0.75308	0.39821	-0.50742
1.348	21.941	-34995	1999.7	-0.75376	0.39821	-0.50723
1.35	21.944	-34992	1999.6	-0.75445	0.39821	-0.50703
1.352	21.94	-34989	1999.5	-0.75376	0.39684	-0.50693
1.354	21.934	-34987	1999.3	-0.75308	0.39548	-0.50684
1.356	21.935	-34989	1999.2	-0.7524	0.39411	-0.50674
1.358	21.936	-34994	1999	-0.75172	0.39274	-0.50664
1.36	21.927	-34997	1998.9	-0.75103	0.39138	-0.50654
1.362	21.927	-35000	1998.7	-0.75045	0.39196	-0.50684
1.364	21.929	-34998	1998.5	-0.74986	0.39255	-0.50713
1.366	21.932	-34992	1998.3	-0.74928	0.39313	-0.50742
1.368	21.927	-34994	1998.2	-0.74869	0.39372	-0.50772
1.37	21.917	-35003	1998.1	-0.7481	0.3943	-0.50801
1.372	21.918	-35006	1998	-0.74928	0.3946	-0.50762
1.374	21.92	-35003	1997.8	-0.75045	0.39489	-0.50723
1.376	21.916	-35001	1997.6	-0.75162	0.39518	-0.50684
1.378	21.922	-35000	1997.5	-0.75279	0.39548	-0.50645
1.38	21.922	-35000	1997.3	-0.75396	0.39577	-0.50606
1.382	21.918	-35002	1997.1	-0.75318	0.39528	-0.50606
1.384	21.915	-35000	1996.9	-0.7524	0.39479	-0.50606
1.386	21.921	-34993	1996.8	-0.75162	0.3943	-0.50606
1.388	21.926	-34990	1996.6	-0.75084	0.39382	-0.50606
1.39	21.925	-34990	1996.5	-0.75006	0.39333	-0.50606
1.392	21.922	-34992	1996.4	-0.75103	0.39401	-0.50625
1.394	21.917	-34997	1996.3	-0.75201	0.39469	-0.50645
1.396	21.915	-35002	1996.2	-0.75298	0.39538	-0.50664
1.398	21.913	-35006	1996	-0.75396	0.39606	-0.50684
1.4	21.911	-35004	1995.9	-0.75494	0.39674	-0.50703
1.402	21.909	-34996	1995.8	-0.75396	0.39655	-0.50684
1.404	21.907	-34995	1995.6	-0.75298	0.39635	-0.50664
1.406	21.911	-35000	1995.6	-0.75201	0.39616	-0.50645
1.408	21.917	-35003	1995.5	-0.75103	0.39596	-0.50625
1.41	21.922	-35003	1995.5	-0.75006	0.39577	-0.50606
1.412	21.93	-35004	1995.4	-0.74996	0.39577	-0.50664
1.414	21.936	-35006	1995.3	-0.74986	0.39577	-0.50723
1.416	21.932	-35007	1995.2	-0.74976	0.39577	-0.50781
1.418	21.923	-35008	1995.1	-0.74967	0.39577	-0.5084
1.42	21.916	-35008	1995	-0.74957	0.39577	-0.50898
1.422	21.916	-35009	1995	-0.75015	0.39626	-0.50879
1.424	21.92	-35010	1995	-0.75074	0.39674	-0.50859
1.426	21.923	-35011	1995	-0.75132	0.39723	-0.5084
1.428	21.925	-35015	1994.9	-0.75191	0.39772	-0.5082
1.43	21.927	-35020	1994.8	-0.7525	0.39821	-0.50801
1.432	21.931	-35020	1994.7	-0.75142	0.39674	-0.50772
1.434	21.936	-35014	1994.7	-0.75035	0.39528	-0.50742
1.436	21.932	-35011	1994.6	-0.74928	0.39382	-0.50713
1.438	21.931	-35011	1994.5	-0.7482	0.39235	-0.50684
1.44	21.931	-35014	1994.5	-0.74713	0.39089	-0.50654
1.442	21.927	-35018	1994.4	-0.74732	0.39167	-0.50654
1.444	21.925	-35020	1994.4	-0.74752	0.39245	-0.50654
1.446	21.921	-35019	1994.3	-0.74771	0.39323	-0.50654
1.448	21.922	-35018	1994.2	-0.74791	0.39401	-0.50654
1.45	21.929	-35018	1994.1	-0.7481	0.39479	-0.50654
1.452	21.928	-35018	1994	-0.74869	0.39528	-0.50654
1.454	21.923	-35021	1994	-0.74928	0.39577	-0.50654
1.456	21.925	-35021	1993.9	-0.74986	0.39626	-0.50654
1.458	21.933	-35019	1993.8	-0.75045	0.39674	-0.50654
1.46	21.935	-35018	1993.8	-0.75103	0.39723	-0.50654
1.462	21.931	-35019	1993.7	-0.75045	0.39733	-0.50693
1.464	21.922	-35023	1993.7	-0.74986	0.39743	-0.50732
1.466	21.925	-35028	1993.6	-0.74928	0.39752	-0.50772
1.468	21.925	-35029	1993.5	-0.74869	0.39762	-0.50811
1.47	21.924	-35026	1993.5	-0.7481	0.39772	-0.5085
1.472	21.923	-35023	1993.4	-0.74947	0.39811	-0.50762
1.474	21.922	-35019	1993.4	-0.75084	0.3985	-0.50674
1.476	21.92	-35017	1993.3	-0.7522	0.39889	-0.50586
1.478	21.917	-35015	1993.3	-0.75357	0.39928	-0.50498
1.48	21.915	-35016	1993.3	-0.75494	0.39967	-0.5041
1.482	21.921	-35017	1993.3	-0.75464	0.39938	-0.50459
1.484	21.925	-35021	1993.3	-0.75435	0.39909	-0.50508
1.486	21.932	-35027	1993.3	-0.75406	0.39879	-0.50557
1.488	21.941	-35028	1993.4	-0.75376	0.3985	-0.50606
1.49	21.945	-35024	1993.4	-0.75347	0.39821	-0.50654
1.492	21.95	-35022	1993.4	-0.75357	0.3984	-0.50664
1.494	21.944	-35021	1993.4	-0.75367	0.3986	-0.50674
1.496	21.93	-35023	1993.5	-0.75376	0.39879	-0.50684
1.498	21.927	-35027	1993.5	-0.75386	0.39899	-0.50693
1.5	21.929	-35028	1993.6	-0.75396	0.39918	-0.50703
1.502	21.929	-35026	1993.7	-0.75445	0.39879	-0.50703
1.504	21.926	-35024	1993.7	-0.75494	0.3984	-0.50703
1.506	21.927	-35024	1993.8	-0.75542	0.39801	-0.50703
1.508	21.925	-35023	1993.8	-0.75591	0.39762	-0.50703
1.51	21.918	-35023	1993.9	-0.7564	0.39723	-0.50703
1.512	21.918	-35023	1993.9	-0.75552	0.39743	-0.50732
1.514	21.924	-35022	1994	-0.75464	0.39762	-0.50762
1.516	21.921	-35023	1994	-0.75376	0.39782	-0.50791
1.518	21.911	-35024	1994.1	-0.75289	0.39801	-0.5082
1.52	21.901	-35024	1994.1	-0.75201	0.39821	-0.5085
1.522	21.901	-35024	1994.2	-0.75123	0.39752	-0.50879
1.524	21.908	-35023	1994.2	-0.75045	0.39684	-0.50908
1.526	21.91	-35021	1994.2	-0.74967	0.39616	-0.50937
1.528	21.909	-35020	1994.2	-0.74888	0.39548	-0.50967
1.53	21.906	-35021	1994.2	-0.7481	0.39479	-0.50996
1.532	21.899	-35022	1994.3	-0.7481	0.39508	-0.50947
1.534	21.89	-35025	1994.3	-0.7481	0.39538	-0.50898
1.536	21.878	-35025	1994.4	-0.7481	0.39567	-0.5085
1.538	21.876	-35021	1994.3	-0.7481	0.39596	-0.50801
1.54	21.88	-35017	1994.3	-0.7481	0.39626	-0.50752
1.542	21.884	-35015	1994.3	-0.7481	0.39567	-0.50791
1.544	21.889	-35016	1994.3	-0.7481	0.39508	-0.5083
1.546	21.89	-35021	1994.3	-0.7481	0.3945	-0.50869
1.548	21.891	-35024	1994.3	-0.7481	0.39391	-0.50908
1.55	21.896	-35023	1994.2	-0.7481	0.39333	-0.50947
1.552	21.893	-35022	1994.3	-0.74742	0.39401	-0.50918
1.554	21.893	-35022	1994.3	-0.74674	0.39469	-0.50889
1.556	21.892	-35024	1994.3	-0.74605	0.39538	-0.50859
1.558	21.888	-35026	1994.3	-0.74537	0.39606	-0.5083
1.56	21.886	-35027	1994.2	-0.74469	0.39674	-0.50801
1.562	21.881	-35027	1994.2	-0.74586	0.39626	-0.50732
1.564	21.88	-35025	1994.3	-0.74703	0.39577	-0.50664
1.566	21.886	-35023	1994.3	-0.7482	0.39528	-0.50596
1.568	21.892	-35020	1994.2	-0.74937	0.39479	-0.50528
1.57	21.886	-35018	1994.2	-0.75054	0.3943	-0.50459
1.572	21.887	-35018	1994.2	-0.75035	0.39499	-0.50528
1.574	21.888	-35020	1994.2	-0.75015	0.39567	-0.50596
1.576	21.89	-35020	1994.2	-0.74996	0.39635	-0.50664
1.578	21.901	-35020	1994.2	-0.74976	0.39704	-0.50732
1.58	21.921	-35021	1994.2	-0.74957	0.39772	-0.50801
1.582	21.94	-35022	1994.2	-0.74947	0.39694	-0.50762
1.584	21.948	-35024	1994.2	-0.74937	0.39616	-0.50723
1.586	21.95	-35027	1994.1	-0.74928	0.39538	-0.50684
1.588	21.95	-35028	1994.1	-0.74918	0.3946	-0.50645
1.59	21.947	-35027	1994.1	-0.74908	0.39382	-0.50606
1.592	21.949	-35024	1994	-0.74957	0.39421	-0.50635
1.594	21.955	-35020	1994	-0.75006	0.3946	-0.50664
1.596	21.957	-35018	1994	-0.75054	0.39499	-0.50693
1.598	21.957	-35018	1993.9	-0.75103	0.39538	-0.50723
1.6	21.958	-35019	1993.9	-0.75152	0.39577	-0.50752
1.602	21.954	-35019	1993.8	-0.75074	0.39596	-0.50762
1.604	21.947	-35024	1993.8	-0.74996	0.39616	-0.50772
1.606	21.944	-35032	1993.8	-0.74918	0.39635	-0.50781
1.608	21.95	-35037	1993.7	-0.7484	0.39655	-0.50791
1.61	21.958	-35037	1993.6	-0.74762	0.39674	-0.50801
1.612	21.96	-35035	1993.5	-0.74849	0.39723	-0.50791
1.614	21.955	-35030	1993.5	-0.74937	0.39772	-0.50781
1.616	21.947	-35027	1993.4	-0.75025	0.39821	-0.50772
1.618	21.941	-35026	1993.4	-0.75113	0.3987	-0.50762
1.62	21.94	-35026	1993.3	-0.75201	0.39918	-0.50752
1.622	21.942	-35028	1993.2	-0.75142	0.3985	-0.50723
1.624	21.95	-35029	1993.1	-0.75084	0.39782	-0.50693
1.626	21.957	-35029	1993	-0.75025	0.39713	-0.50664
1.628	21.96	-35028	1992.9	-0.74967	0.39645	-0.50635
1.63	21.961	-35024	1992.8	-0.74908	0.39577	-0.50606
1.632	21.962	-35023	1992.7	-0.74928	0.39587	-0.50615
1.634	21.958	-35026	1992.7	-0.74947	0.39596	-0.50625
1.636	21.962	-35030	1992.6	-0.74967	0.39606	-0.50635
1.638	21.959	-35035	1992.5	-0.74986	0.39616	-0.50645
1.64	21.961	-35038	1992.4	-0.75006	0.39626	-0.50654
1.642	21.959	-35037	1992.3	-0.75084	0.39665	-0.50664
1.644	21.966	-35037	1992.1	-0.75162	0.39704	-0.50674
1.646	21.968	-35037	1992	-0.7524	0.39743	-0.50684
1.648	21.974	-35038	1992	-0.75318	0.39782	-0.50693
1.65	21.976	-35039	1991.9	-0.75396	0.39821	-0.50703
1.652	21.973	-35039	1991.8	-0.75435	0.39811	-0.50615
1.654	21.976	-35038	1991.7	-0.75474	0.39801	-0.50528
1.656	21.972	-35036	1991.6	-0.75513	0.39792	-0.5044
1.658	21.956	-35033	1991.5	-0.75552	0.39782	-0.50352
1.66	21.928	-35034	1991.4	-0.75591	0.39772	-0.50264
1.662	21.886	-35037	1991.3	-0.7566	0.39665	-0.50303
1.664	21.832	-35042	1991.2	-0.75728	0.39557	-0.50342
1.666	21.775	-35048	1991.1	-0.75796	0.3945	-0.50381
1.668	21.714	-35050	1991	-0.75864	0.39343	-0.5042
1.67	21.649	-35048	1991	-0.75933	0.39235	-0.50459
1.672	21.585	-35045	1990.9	-0.75904	0.39206	-0.50459
1.674	21.514	-35042	1990.8	-0.75874	0.39177	-0.50459
1.676	21.436	-35039	1990.7	-0.75845	0.39147	-0.50459
1.678	21.366	-35038	1990.7	-0.75816	0.39118	-0.50459
1.68	21.314	-35038	1990.6	-0.75786	0.39089	-0.50459
1.682	21.282	-35039	1990.5	-0.75679	0.39186	-0.5044
1.684	21.271	-35044	1990.4	-0.75572	0.39284	-0.5042
1.686	21.28	-35054	1990.3	-0.75464	0.39382	-0.50401
1.688	21.299	-35056	1990.3	-0.75357	0.39479	-0.50381
1.69	21.328	-35051	1990.2	-0.7525	0.39577	-0.50362
1.692	21.373	-35048	1990.1	-0.75308	0.39596	-0.50352
1.694	21.423	-35048	1990	-0.75367	0.39616	-0.50342
1.696	21.49	-35048	1989.9	-0.75425	0.39635	-0.50332
1.698	21.584	-35048	1989.8	-0.75484	0.39655	-0.50323
1.7	21.706	-35051	1989.7	-0.75542	0.39674	-0.50313
1.702	21.83	-35057	1989.6	-0.75425	0.39538	-0.50371
1.704	21.902	-35061	1989.6	-0.75308	0.39401	-0.5043
1.706	21.919	-35064	1989.5	-0.75191	0.39264	-0.50488
1.708	21.923	-35064	1989.4	-0.75074	0.39128	-0.50547
1.71	21.919	-35061	1989.2	-0.74957	0.38991	-0.50606
1.712	21.921	-35060	1989.2	-0.74937	0.3905	-0.50615
1.714	21.931	-35062	1989.1	-0.74918	0.39108	-0.50625
1.716	21.943	-35061	1989	-0.74898	0.39167	-0.50635
1.718	21.957	-35057	1989	-0.74879	0.39225	-0.50645
1.72	21.953	-35056	1988.9	-0.74859	0.39284	-0.50654
1.722	21.948	-35057	1988.8	-0.74937	0.39382	-0.50674
1.724	21.947	-35059	1988.6	-0.75015	0.39479	-0.50693
1.726	21.939	-35062	1988.6	-0.75093	0.39577	-0.50713
1.728	21.939	-35066	1988.5	-0.75172	0.39674	-0.50732
1.73	21.928	-35072	1988.4	-0.7525	0.39772	-0.50752
1.732	21.92	-35071	1988.3	-0.75181	0.39665	-0.50723
1.734	21.925	-35062	1988.2	-0.75113	0.39557	-0.50693
1.736	21.921	-35058	1988.1	-0.75045	0.3945	-0.50664
1.738	21.912	-35061	1988	-0.74976	0.39343	-0.50635
1.74	21.906	-35066	1987.9	-0.74908	0.39235	-0.50606
1.742	21.904	-35073	1987.8	-0.74976	0.39235	-0.50606
1.744	21.902	-35074	1987.8	-0.75045	0.39235	-0.50606
1.746	21.902	-35067	1987.7	-0.75113	0.39235	-0.50606
1.748	21.904	-35066	1987.6	-0.75181	0.39235	-0.50606
1.75	21.906	-35072	1987.6	-0.7525	0.39235	-0.50606
1.752	21.9	-35075	1987.5	-0.7524	0.39333	-0.50625
1.754	21.89	-35076	1987.4	-0.7523	0.3943	-0.50645
1.756	21.883	-35076	1987.3	-0.7522	0.39528	-0.50664
1.758	21.882	-35074	1987.2	-0.75211	0.39626	-0.50684
1.76	21.885	-35072	1987.1	-0.75201	0.39723	-0.50703
1.762	21.882	-35072	1987	-0.75093	0.39538	-0.50781
1.764	21.878	-35071	1986.9	-0.74986	0.39352	-0.50859
1.766	21.887	-35071	1986.8	-0.74879	0.39167	-0.50937
1.768	21.89	-35072	1986.7	-0.74771	0.38981	-0.51016
1.77	21.886	-35075	1986.5	-0.74664	0.38796	-0.51094
1.772	21.885	-35077	1986.4	-0.74635	0.38845	-0.51045
1.774	21.889	-35080	1986.3	-0.74605	0.38894	-0.50996
1.776	21.888	-35083	1986.2	-0.74576	0.38942	-0.50947
1.778	21.882	-35086	1986.1	-0.74547	0.38991	-0.50898
1.78	21.884	-35087	1986	-0.74518	0.3904	-0.5085
1.782	21.883	-35088	1985.9	-0.74654	0.39196	-0.5084
1.784	21.877	-35087	1985.8	-0.74791	0.39352	-0.5083
1.786	21.866	-35086	1985.7	-0.74928	0.39508	-0.5082
1.788	21.864	-35084	1985.6	-0.75064	0.39665	-0.50811
1.79	21.87	-35083	1985.5	-0.75201	0.39821	-0.50801
1.792	21.867	-35084	1985.5	-0.75162	0.39752	-0.50772
1.794	21.866	-35088	1985.4	-0.75123	0.39684	-0.50742
1.796	21.868	-35086	1985.3	-0.75084	0.39616	-0.50713
1.798	21.863	-35078	1985.3	-0.75045	0.39548	-0.50684
1.8	21.862	-35076	1985.2	-0.75006	0.39479	-0.50654
1.802	21.858	-35079	1985.1	-0.74947	0.3943	-0.50635
1.804	21.853	-35081	1985	-0.74888	0.39382	-0.50615
1.806	21.847	-35083	1984.9	-0.7483	0.39333	-0.50596
1.808	21.838	-35086	1984.8	-0.74771	0.39284	-0.50576
1.81	21.836	-35089	1984.7	-0.74713	0.39235	-0.50557
1.812	21.833	-35093	1984.7	-0.7484	0.39323	-0.50576
1.814	21.817	-35099	1984.6	-0.74967	0.39411	-0.50596
1.816	21.82	-35100	1984.5	-0.75093	0.39499	-0.50615
1.818	21.821	-35095	1984.5	-0.7522	0.39587	-0.50635
1.82	21.823	-35092	1984.4	-0.75347	0.39674	-0.50654
1.822	21.82	-35091	1984.3	-0.75298	0.39616	-0.50615
1.824	21.811	-35090	1984.3	-0.7525	0.39557	-0.50576
1.826	21.805	-35090	1984.2	-0.75201	0.39499	-0.50537
1.828	21.807	-35091	1984.2	-0.75152	0.3944	-0.50498
1.83	21.814	-35092	1984.2	-0.75103	0.39382	-0.50459
1.832	21.813	-35089	1984.2	-0.75201	0.3943	-0.50528
1.834	21.808	-35083	1984.1	-0.75298	0.39479	-0.50596
1.836	21.799	-35082	1984.1	-0.75396	0.39528	-0.50664
1.838	21.788	-35087	1984.1	-0.75494	0.39577	-0.50732
1.84	21.782	-35090	1984.1	-0.75591	0.39626	-0.50801
1.842	21.778	-35090	1984	-0.75542	0.39538	-0.50732
1.844	21.774	-35091	1984	-0.75494	0.3945	-0.50664
1.846	21.767	-35095	1984	-0.75445	0.39362	-0.50596
1.848	21.757	-35095	1984	-0.75396	0.39274	-0.50528
1.85	21.746	-35092	1983.9	-0.75347	0.39186	-0.50459
1.852	21.737	-35095	1983.9	-0.7522	0.39147	-0.50508
1.854	21.74	-35103	1983.9	-0.75093	0.39108	-0.50557
1.856	21.744	-35106	1983.9	-0.74967	0.39069	-0.50606
1.858	21.74	-35104	1983.8	-0.7484	0.3903	-0.50654
1.86	21.735	-35099	1983.8	-0.74713	0.38991	-0.50703
1.862	21.726	-35092	1983.7	-0.74674	0.38962	-0.50811
1.864	21.72	-35092	1983.6	-0.74635	0.38933	-0.50918
1.866	21.717	-35099	1983.5	-0.74596	0.38903	-0.51025
1.868	21.708	-35103	1983.5	-0.74557	0.38874	-0.51133
1.87	21.695	-35104	1983.4	-0.74518	0.38845	-0.5124
1.872	21.693	-35102	1983.4	-0.74527	0.38913	-0.51103
1.874	21.689	-35097	1983.3	-0.74537	0.38981	-0.50967
1.876	21.691	-35096	1983.3	-0.74547	0.3905	-0.5083
1.878	21.683	-35097	1983.3	-0.74557	0.39118	-0.50693
1.88	21.667	-35100	1983.2	-0.74566	0.39186	-0.50557
1.882	21.653	-35105	1983.2	-0.74654	0.39372	-0.50654
1.884	21.648	-35107	1983.1	-0.74742	0.39557	-0.50752
1.886	21.646	-35107	1983.1	-0.7483	0.39743	-0.5085
1.888	21.64	-35105	1983.1	-0.74918	0.39928	-0.50947
1.89	21.634	-35102	1983.1	-0.75006	0.40114	-0.51045
1.892	21.633	-35100	1983.1	-0.75074	0.40036	-0.50976
1.894	21.627	-35099	1983.1	-0.75142	0.39957	-0.50908
1.896	21.621	-35102	1983.1	-0.75211	0.39879	-0.5084
1.898	21.617	-35108	1983.1	-0.75279	0.39801	-0.50772
1.9	21.608	-35109	1983.1	-0.75347	0.39723	-0.50703
1.902	21.6	-35104	1983.2	-0.75308	0.39723	-0.50674
1.904	21.599	-35103	1983.2	-0.75269	0.39723	-0.50645
1.906	21.604	-35106	1983.2	-0.7523	0.39723	-0.50615
1.908	21.607	-35107	1983.2	-0.75191	0.39723	-0.50586
1.91	21.607	-35105	1983.2	-0.75152	0.39723	-0.50557
1.912	21.608	-35102	1983.3	-0.75113	0.39655	-0.50528
1.914	21.606	-35097	1983.3	-0.75074	0.39587	-0.50498
1.916	21.6	-35094	1983.4	-0.75035	0.39518	-0.50469
1.918	21.598	-35091	1983.4	-0.74996	0.3945	-0.5044
1.92	21.602	-35090	1983.4	-0.74957	0.39382	-0.5041
1.922	21.614	-35092	1983.5	-0.74957	0.3945	-0.50528
1.924	21.623	-35090	1983.7	-0.74957	0.39518	-0.50645
1.926	21.63	-35083	1983.7	-0.74957	0.39587	-0.50762
1.928	21.637	-35077	1983.7	-0.74957	0.39655	-0.50879
1.93	21.639	-35071	1983.7	-0.74957	0.39723	-0.50996
1.932	21.641	-35070	1983.8	-0.74879	0.39645	-0.50967
1.934	21.647	-35073	1983.9	-0.74801	0.39567	-0.50937
1.936	21.655	-35074	1983.9	-0.74723	0.39489	-0.50908
1.938	21.659	-35072	1984	-0.74644	0.39411	-0.50879
1.94	21.66	-35072	1984	-0.74566	0.39333	-0.5085
1.942	21.665	-35076	1984.1	-0.74557	0.39196	-0.50908
1.944	21.675	-35074	1984.2	-0.74547	0.3906	-0.50967
1.946	21.687	-35068	1984.3	-0.74537	0.38923	-0.51025
1.948	21.696	-35063	1984.5	-0.74527	0.38786	-0.51084
1.95	21.705	-35060	1984.6	-0.74518	0.3865	-0.51142
1.952	21.717	-35059	1984.7	-0.74488	0.38669	-0.51113
1.954	21.729	-35059	1984.8	-0.74459	0.38689	-0.51084
1.956	21.746	-35057	1984.9	-0.7443	0.38708	-0.51055
1.958	21.762	-35050	1985	-0.744	0.38728	-0.51025
1.96	21.778	-35046	1985.1	-0.74371	0.38747	-0.50996
1.962	21.794	-35044	1985.3	-0.74352	0.38894	-0.50986
1.964	21.805	-35042	1985.4	-0.74332	0.3904	-0.50976
1.966	21.802	-35041	1985.6	-0.74313	0.39186	-0.50967
1.968	21.789	-35039	1985.7	-0.74293	0.39333	-0.50957
1.97	21.796	-35034	1985.7	-0.74274	0.39479	-0.50947
1.972	21.808	-35031	1985.9	-0.74381	0.3945	-0.50908
1.974	21.822	-35029	1986.1	-0.74488	0.39421	-0.50869
1.976	21.841	-35026	1986.2	-0.74596	0.39391	-0.5083
1.978	21.854	-35023	1986.3	-0.74703	0.39362	-0.50791
1.98	21.853	-35020	1986.4	-0.7481	0.39333	-0.50752
1.982	21.855	-35016	1986.4	-0.74752	0.39343	-0.50791
1.984	21.86	-35014	1986.5	-0.74693	0.39352	-0.5083
1.986	21.863	-35014	1986.5	-0.74635	0.39362	-0.50869
1.988	21.868	-35012	1986.6	-0.74576	0.39372	-0.50908
1.99	21.87	-35006	1986.7	-0.74518	0.39382	-0.50947
1.992	21.873	-35007	1986.7	-0.74596	0.39508	-0.50986
1.994	21.877	-35014	1986.7	-0.74674	0.39635	-0.51025
1.996	21.882	-35013	1986.7	-0.74752	0.39762	-0.51064
1.998	21.884	-35006	1986.8	-0.7483	0.39889	-0.51103
2	21.894	-35002	1986.8	-0.74908	0.40016	-0.51142
2.002	21.899	-35001	1986.7	-0.74947	0.39948	-0.51074
2.004	21.895	-35000	1986.7	-0.74986	0.39879	-0.51006
2.006	21.893	-35001	1986.6	-0.75025	0.39811	-0.50937
2.008	21.892	-35001	1986.6	-0.75064	0.39743	-0.50869
2.01	21.89	-35001	1986.6	-0.75103	0.39674	-0.50801
2.012	21.889	-34998	1986.5	-0.75054	0.39743	-0.50811
2.014	21.887	-34993	1986.5	-0.75006	0.39811	-0.5082
2.016	21.884	-34991	1986.4	-0.74957	0.39879	-0.5083
2.018	21.88	-34991	1986.4	-0.74908	0.39948	-0.5084
2.02	21.884	-34991	1986.3	-0.74859	0.40016	-0.5085
2.022	21.898	-34992	1986.3	-0.74859	0.39928	-0.50762
2.024	21.908	-34991	1986.2	-0.74859	0.3984	-0.50674
2.026	21.904	-34988	1986.2	-0.74859	0.39752	-0.50586
2.028	21.898	-34987	1986.2	-0.74859	0.39665	-0.50498
2.03	21.899	-34987	1986.2	-0.74859	0.39577	-0.5041
2.032	21.906	-34987	1986.2	-0.75015	0.39752	-0.50459
2.034	21.915	-34986	1986.2	-0.75172	0.39928	-0.50508
2.036	21.913	-34987	1986.2	-0.75328	0.40104	-0.50557
2.038	21.907	-34989	1986.2	-0.75484	0.4028	-0.50606
2.04	21.908	-34993	1986.2	-0.7564	0.40455	-0.50654
2.042	21.906	-34997	1986.3	-0.75406	0.40299	-0.50684
2.044	21.896	-34996	1986.3	-0.75172	0.40143	-0.50713
2.046	21.905	-34990	1986.4	-0.74937	0.39987	-0.50742
2.048	21.913	-34984	1986.4	-0.74703	0.39831	-0.50772
2.05	21.911	-34977	1986.3	-0.74469	0.39674	-0.50801
2.052	21.905	-34978	1986.4	-0.74576	0.39723	-0.50791
2.054	21.902	-34985	1986.4	-0.74684	0.39772	-0.50781
2.056	21.9	-34989	1986.4	-0.74791	0.39821	-0.50772
2.058	21.9	-34990	1986.4	-0.74898	0.3987	-0.50762
2.06	21.901	-34990	1986.4	-0.75006	0.39918	-0.50752
2.062	21.897	-34989	1986.4	-0.75035	0.39938	-0.50781
2.064	21.894	-34989	1986.3	-0.75064	0.39957	-0.50811
2.066	21.889	-34990	1986.3	-0.75093	0.39977	-0.5084
2.068	21.892	-34988	1986.3	-0.75123	0.39996	-0.50869
2.07	21.893	-34983	1986.2	-0.75152	0.40016	-0.50898
2.072	21.899	-34982	1986.2	-0.75279	0.3987	-0.50781
2.074	21.901	-34984	1986.1	-0.75406	0.39723	-0.50664
2.076	21.901	-34985	1986	-0.75533	0.39577	-0.50547
2.078	21.902	-34985	1986	-0.7566	0.3943	-0.5043
2.08	21.904	-34986	1985.9	-0.75786	0.39284	-0.50313
2.082	21.908	-34988	1985.8	-0.75747	0.39274	-0.50313
2.084	21.901	-34993	1985.7	-0.75708	0.39264	-0.50313
2.086	21.892	-35000	1985.7	-0.75669	0.39255	-0.50313
2.088	21.889	-35002	1985.6	-0.7563	0.39245	-0.50313
2.09	21.891	-34998	1985.6	-0.75591	0.39235	-0.50313
2.092	21.89	-34993	1985.5	-0.75581	0.39225	-0.50391
2.094	21.887	-34987	1985.4	-0.75572	0.39216	-0.50469
2.096	21.89	-34985	1985.4	-0.75562	0.39206	-0.50547
2.098	21.891	-34985	1985.3	-0.75552	0.39196	-0.50625
2.1	21.895	-34988	1985.3	-0.75542	0.39186	-0.50703
2.102	21.9	-34994	1985.3	-0.75562	0.39196	-0.50654
2.104	21.904	-34998	1985.2	-0.75581	0.39206	-0.50606
2.106	21.905	-35000	1985.1	-0.75601	0.39216	-0.50557
2.108	21.898	-35000	1985.1	-0.7562	0.39225	-0.50508
2.11	21.895	-34997	1985	-0.7564	0.39235	-0.50459
2.112	21.895	-34997	1984.9	-0.75562	0.39255	-0.50459
2.114	21.896	-34998	1984.8	-0.75484	0.39274	-0.50459
2.116	21.894	-34997	1984.7	-0.75406	0.39294	-0.50459
2.118	21.891	-34996	1984.6	-0.75328	0.39313	-0.50459
2.12	21.888	-34995	1984.6	-0.7525	0.39333	-0.50459
2.122	21.888	-34994	1984.5	-0.75337	0.39343	-0.5044
2.124	21.888	-34996	1984.4	-0.75425	0.39352	-0.5042
2.126	21.889	-34999	1984.3	-0.75513	0.39362	-0.50401
2.128	21.893	-35001	1984.3	-0.75601	0.39372	-0.50381
2.13	21.899	-35001	1984.2	-0.75689	0.39382	-0.50362
2.132	21.899	-35001	1984.1	-0.75679	0.39411	-0.50362
2.134	21.896	-35002	1984	-0.75669	0.3944	-0.50362
2.136	21.887	-34999	1983.9	-0.7566	0.39469	-0.50362
2.138	21.886	-34993	1983.8	-0.7565	0.39499	-0.50362
2.14	21.887	-34992	1983.7	-0.7564	0.39528	-0.50362
2.142	21.879	-34996	1983.7	-0.75611	0.39508	-0.50401
2.144	21.887	-34998	1983.6	-0.75581	0.39489	-0.5044
2.146	21.894	-34999	1983.6	-0.75552	0.39469	-0.50479
2.148	21.893	-34999	1983.5	-0.75523	0.3945	-0.50518
2.15	21.894	-34999	1983.5	-0.75494	0.3943	-0.50557
2.152	21.891	-35002	1983.5	-0.75406	0.3946	-0.50606
2.154	21.892	-35009	1983.4	-0.75318	0.39489	-0.50654
2.156	21.897	-35013	1983.4	-0.7523	0.39518	-0.50703
2.158	21.898	-35015	1983.3	-0.75142	0.39548	-0.50752
2.16	21.893	-35011	1983.2	-0.75054	0.39577	-0.50801
2.162	21.89	-35002	1983.2	-0.75103	0.39655	-0.50791
2.164	21.888	-35000	1983.1	-0.75152	0.39733	-0.50781
2.166	21.887	-35006	1983.1	-0.75201	0.39811	-0.50772
2.168	21.886	-35011	1983.1	-0.7525	0.39889	-0.50762
2.17	21.884	-35015	1983.1	-0.75298	0.39967	-0.50752
2.172	21.881	-35018	1983	-0.7525	0.39967	-0.50801
2.174	21.88	-35019	1983	-0.75201	0.39967	-0.5085
2.176	21.886	-35018	1982.9	-0.75152	0.39967	-0.50898
2.178	21.891	-35017	1982.9	-0.75103	0.39967	-0.50947
2.18	21.896	-35016	1982.8	-0.75054	0.39967	-0.50996
2.182	21.901	-35014	1982.7	-0.75093	0.39918	-0.50928
2.184	21.902	-35014	1982.7	-0.75132	0.3987	-0.50859
2.186	21.898	-35014	1982.6	-0.75172	0.39821	-0.50791
2.188	21.896	-35014	1982.6	-0.75211	0.39772	-0.50723
2.19	21.901	-35014	1982.5	-0.7525	0.39723	-0.50654
2.192	21.906	-35015	1982.5	-0.75347	0.39674	-0.50596
2.194	21.906	-35016	1982.4	-0.75445	0.39626	-0.50537
2.196	21.904	-35018	1982.4	-0.75542	0.39577	-0.50479
2.198	21.902	-35020	1982.3	-0.7564	0.39528	-0.5042
2.2	21.9	-35022	1982.3	-0.75738	0.39479	-0.50362
2.202	21.895	-35023	1982.3	-0.75718	0.3946	-0.50362
2.204	21.896	-35023	1982.2	-0.75699	0.3944	-0.50362
2.206	21.9	-35023	1982.2	-0.75679	0.39421	-0.50362
2.208	21.91	-35021	1982.2	-0.7566	0.39401	-0.50362
2.21	21.914	-35018	1982.2	-0.7564	0.39382	-0.50362
2.212	21.911	-35016	1982.2	-0.75718	0.39313	-0.50362
2.214	21.906	-35015	1982.1	-0.75796	0.39245	-0.50362
2.216	21.905	-35017	1982.1	-0.75874	0.39177	-0.50362
2.218	21.905	-35025	1982.1	-0.75952	0.39108	-0.50362
2.22	21.904	-35030	1982.2	-0.7603	0.3904	-0.50362
2.222	21.902	-35032	1982.2	-0.75923	0.39118	-0.50381
2.224	21.905	-35034	1982.2	-0.75816	0.39196	-0.50401
2.226	21.911	-35034	1982.2	-0.75708	0.39274	-0.5042
2.228	21.912	-35030	1982.3	-0.75601	0.39352	-0.5044
2.23	21.91	-35021	1982.3	-0.75494	0.3943	-0.50459
2.232	21.915	-35018	1982.3	-0.75484	0.3945	-0.5043
2.234	21.918	-35019	1982.4	-0.75474	0.39469	-0.50401
2.236	21.909	-35020	1982.4	-0.75464	0.39489	-0.50371
2.238	21.91	-35021	1982.4	-0.75455	0.39508	-0.50342
2.24	21.913	-35023	1982.4	-0.75445	0.39528	-0.50313
2.242	21.912	-35026	1982.5	-0.75416	0.39469	-0.50381
2.244	21.912	-35026	1982.5	-0.75386	0.39411	-0.50449
2.246	21.914	-35024	1982.6	-0.75357	0.39352	-0.50518
2.248	21.917	-35021	1982.6	-0.75328	0.39294	-0.50586
2.25	21.915	-35016	1982.7	-0.75298	0.39235	-0.50654
2.252	21.913	-35015	1982.7	-0.75396	0.39206	-0.50615
2.254	21.912	-35017	1982.7	-0.75494	0.39177	-0.50576
2.256	21.908	-35018	1982.7	-0.75591	0.39147	-0.50537
2.258	21.906	-35018	1982.8	-0.75689	0.39118	-0.50498
2.26	21.907	-35017	1982.8	-0.75786	0.39089	-0.50459
2.262	21.908	-35016	1982.8	-0.75738	0.39157	-0.50459
2.264	21.914	-35016	1982.8	-0.75689	0.39225	-0.50459
2.266	21.918	-35017	1982.8	-0.7564	0.39294	-0.50459
2.268	21.917	-35018	1982.8	-0.75591	0.39362	-0.50459
2.27	21.914	-35018	1982.8	-0.75542	0.3943	-0.50459
2.272	21.914	-35017	1982.8	-0.75562	0.39421	-0.5043
2.274	21.916	-35016	1982.7	-0.75581	0.39411	-0.50401
2.276	21.915	-35017	1982.7	-0.75601	0.39401	-0.50371
2.278	21.912	-35019	1982.7	-0.7562	0.39391	-0.50342
2.28	21.91	-35020	1982.7	-0.7564	0.39382	-0.50313
2.282	21.911	-35019	1982.7	-0.75611	0.3946	-0.50371
2.284	21.908	-35017	1982.7	-0.75581	0.39538	-0.5043
2.286	21.903	-35015	1982.7	-0.75552	0.39616	-0.50488
2.288	21.903	-35015	1982.7	-0.75523	0.39694	-0.50547
2.29	21.905	-35018	1982.7	-0.75494	0.39772	-0.50606
2.292	21.904	-35020	1982.7	-0.75376	0.39665	-0.50615
2.294	21.905	-35021	1982.6	-0.75259	0.39557	-0.50625
2.296	21.901	-35021	1982.6	-0.75142	0.3945	-0.50635
2.298	21.901	-35020	1982.6	-0.75025	0.39343	-0.50645
2.3	21.902	-35019	1982.7	-0.74908	0.39235	-0.50654
2.302	21.89	-35018	1982.7	-0.75025	0.39343	-0.50664
2.304	21.886	-35018	1982.7	-0.75142	0.3945	-0.50674
2.306	21.886	-35019	1982.7	-0.75259	0.39557	-0.50684
2.308	21.889	-35019	1982.6	-0.75376	0.39665	-0.50693
2.31	21.897	-35017	1982.6	-0.75494	0.39772	-0.50703
2.312	21.889	-35015	1982.6	-0.75318	0.39557	-0.50742
2.314	21.882	-35014	1982.6	-0.75142	0.39343	-0.50781
2.316	21.879	-35016	1982.6	-0.74967	0.39128	-0.5082
2.318	21.869	-35021	1982.6	-0.74791	0.38913	-0.50859
2.32	21.859	-35024	1982.6	-0.74615	0.38698	-0.50898
2.322	21.849	-35025	1982.6	-0.74771	0.38962	-0.50947
2.324	21.847	-35025	1982.6	-0.74928	0.39225	-0.50996
2.326	21.852	-35023	1982.5	-0.75084	0.39489	-0.51045
2.328	21.858	-35024	1982.5	-0.7524	0.39752	-0.51094
2.33	21.864	-35026	1982.5	-0.75396	0.40016	-0.51142
2.332	21.873	-35027	1982.5	-0.75318	0.39909	-0.51025
2.334	21.877	-35027	1982.5	-0.7524	0.39801	-0.50908
2.336	21.878	-35027	1982.5	-0.75162	0.39694	-0.50791
2.338	21.879	-35028	1982.4	-0.75084	0.39587	-0.50674
2.34	21.878	-35030	1982.3	-0.75006	0.39479	-0.50557
2.342	21.871	-35032	1982.3	-0.74996	0.39557	-0.50654
2.344	21.863	-35033	1982.3	-0.74986	0.39635	-0.50752
2.346	21.858	-35032	1982.3	-0.74976	0.39713	-0.5085
2.348	21.859	-35030	1982.3	-0.74967	0.39792	-0.50947
2.35	21.863	-35028	1982.2	-0.74957	0.3987	-0.51045
2.352	21.866	-35026	1982.2	-0.75045	0.39821	-0.50908
2.354	21.869	-35026	1982.1	-0.75132	0.39772	-0.50772
2.356	21.866	-35026	1982.1	-0.7522	0.39723	-0.50635
2.358	21.864	-35026	1982	-0.75308	0.39674	-0.50498
2.36	21.874	-35028	1981.9	-0.75396	0.39626	-0.50362
2.362	21.882	-35032	1981.9	-0.75347	0.39665	-0.5044
2.364	21.881	-35034	1981.8	-0.75298	0.39704	-0.50518
2.366	21.882	-35035	1981.8	-0.7525	0.39743	-0.50596
2.368	21.889	-35033	1981.7	-0.75201	0.39782	-0.50674
2.37	21.899	-35029	1981.6	-0.75152	0.39821	-0.50752
2.372	21.92	-35029	1981.6	-0.7523	0.39801	-0.50713
2.374	21.938	-35033	1981.5	-0.75308	0.39782	-0.50674
2.376	21.941	-35035	1981.4	-0.75386	0.39762	-0.50635
2.378	21.941	-35034	1981.4	-0.75464	0.39743	-0.50596
2.38	21.943	-35034	1981.4	-0.75542	0.39723	-0.50557
2.382	21.941	-35035	1981.3	-0.75484	0.39762	-0.50606
2.384	21.937	-35037	1981.2	-0.75425	0.39801	-0.50654
2.386	21.931	-35040	1981.1	-0.75367	0.3984	-0.50703
2.388	21.931	-35041	1981.1	-0.75308	0.39879	-0.50752
2.39	21.928	-35041	1981.1	-0.7525	0.39918	-0.50801
2.392	21.929	-35040	1981	-0.75191	0.39899	-0.5085
2.394	21.936	-35038	1981	-0.75132	0.39879	-0.50898
2.396	21.937	-35037	1980.9	-0.75074	0.3986	-0.50947
2.398	21.932	-35038	1980.8	-0.75015	0.3984	-0.50996
2.4	21.934	-35041	1980.8	-0.74957	0.39821	-0.51045
2.402	21.937	-35045	1980.7	-0.75054	0.39831	-0.50976
2.404	21.935	-35049	1980.6	-0.75152	0.3984	-0.50908
2.406	21.937	-35052	1980.6	-0.7525	0.3985	-0.5084
2.408	21.937	-35055	1980.5	-0.75347	0.3986	-0.50772
2.41	21.931	-35056	1980.5	-0.75445	0.3987	-0.50703
2.412	21.929	-35054	1980.4	-0.75376	0.39879	-0.50752
2.414	21.933	-35049	1980.3	-0.75308	0.39889	-0.50801
2.416	21.937	-35049	1980.2	-0.7524	0.39899	-0.5085
2.418	21.933	-35053	1980.2	-0.75172	0.39909	-0.50898
2.42	21.929	-35057	1980.1	-0.75103	0.39918	-0.50947
2.422	21.924	-35060	1980	-0.75181	0.39821	-0.50791
2.424	21.919	-35062	1980	-0.75259	0.39723	-0.50635
2.426	21.922	-35063	1979.9	-0.75337	0.39626	-0.50479
2.428	21.933	-35062	1979.9	-0.75416	0.39528	-0.50323
2.43	21.945	-35059	1979.8	-0.75494	0.3943	-0.50166
2.432	21.955	-35059	1979.7	-0.75455	0.39587	-0.50293
2.434	21.958	-35061	1979.6	-0.75416	0.39743	-0.5042
2.436	21.962	-35065	1979.5	-0.75376	0.39899	-0.50547
2.438	21.963	-35073	1979.5	-0.75337	0.40055	-0.50674
2.44	21.958	-35073	1979.4	-0.75298	0.40211	-0.50801
2.442	21.953	-35065	1979.3	-0.75269	0.40162	-0.50859
2.444	21.939	-35063	1979.2	-0.7524	0.40114	-0.50918
2.446	21.91	-35068	1979.1	-0.75211	0.40065	-0.50976
2.448	21.87	-35072	1979	-0.75181	0.40016	-0.51035
2.45	21.815	-35076	1978.9	-0.75152	0.39967	-0.51094
2.452	21.757	-35077	1978.8	-0.75191	0.3984	-0.50918
2.454	21.712	-35076	1978.7	-0.7523	0.39713	-0.50742
2.456	21.663	-35072	1978.6	-0.75269	0.39587	-0.50567
2.458	21.602	-35066	1978.4	-0.75308	0.3946	-0.50391
2.46	21.539	-35063	1978.3	-0.75347	0.39333	-0.50215
2.462	21.459	-35064	1978.2	-0.75386	0.39411	-0.50235
2.464	21.372	-35069	1978.1	-0.75425	0.39489	-0.50254
2.466	21.304	-35079	1978	-0.75464	0.39567	-0.50274
2.468	21.26	-35082	1977.9	-0.75503	0.39645	-0.50293
2.47	21.235	-35079	1977.8	-0.75542	0.39723	-0.50313
2.472	21.22	-35075	1977.7	-0.75386	0.39713	-0.50449
2.474	21.218	-35070	1977.6	-0.7523	0.39704	-0.50586
2.476	21.237	-35072	1977.5	-0.75074	0.39694	-0.50723
2.478	21.278	-35082	1977.4	-0.74918	0.39684	-0.50859
2.48	21.326	-35084	1977.2	-0.74762	0.39674	-0.50996
2.482	21.392	-35078	1977.1	-0.74937	0.39674	-0.50859
2.484	21.484	-35074	1977.1	-0.75113	0.39674	-0.50723
2.486	21.591	-35072	1977	-0.75289	0.39674	-0.50586
2.488	21.719	-35073	1976.9	-0.75464	0.39674	-0.50449
2.49	21.818	-35078	1976.8	-0.7564	0.39674	-0.50313
2.492	21.867	-35081	1976.8	-0.75523	0.39684	-0.50449
2.494	21.885	-35083	1976.7	-0.75406	0.39694	-0.50586
2.496	21.889	-35084	1976.6	-0.75289	0.39704	-0.50723
2.498	21.888	-35084	1976.6	-0.75172	0.39713	-0.50859
2.5	21.903	-35083	1976.5	-0.75054	0.39723	-0.50996
2.502	21.914	-35081	1976.4	-0.75172	0.39723	-0.50869
2.504	21.91	-35083	1976.3	-0.75289	0.39723	-0.50742
2.506	21.903	-35090	1976.3	-0.75406	0.39723	-0.50615
2.508	21.906	-35095	1976.3	-0.75523	0.39723	-0.50488
2.51	21.913	-35096	1976.2	-0.7564	0.39723	-0.50362
2.512	21.916	-35095	1976.2	-0.75679	0.39635	-0.50401
2.514	21.917	-35092	1976.2	-0.75718	0.39548	-0.5044
2.516	21.914	-35093	1976.1	-0.75757	0.3946	-0.50479
2.518	21.908	-35099	1976	-0.75796	0.39372	-0.50518
2.52	21.901	-35101	1976	-0.75835	0.39284	-0.50557
2.522	21.896	-35098	1975.9	-0.75679	0.39323	-0.50596
2.524	21.891	-35094	1975.9	-0.75523	0.39362	-0.50635
2.526	21.888	-35090	1975.9	-0.75367	0.39401	-0.50674
2.528	21.885	-35089	1975.9	-0.75211	0.3944	-0.50713
2.53	21.883	-35091	1975.8	-0.75054	0.39479	-0.50752
2.532	21.883	-35091	1975.8	-0.75201	0.39411	-0.50732
2.534	21.882	-35089	1975.7	-0.75347	0.39343	-0.50713
2.536	21.882	-35090	1975.7	-0.75494	0.39274	-0.50693
2.538	21.884	-35093	1975.6	-0.7564	0.39206	-0.50674
2.54	21.89	-35095	1975.6	-0.75786	0.39138	-0.50654
2.542	21.887	-35096	1975.5	-0.75601	0.39196	-0.50703
2.544	21.877	-35097	1975.5	-0.75416	0.39255	-0.50752
2.546	21.88	-35097	1975.4	-0.7523	0.39313	-0.50801
2.548	21.883	-35097	1975.4	-0.75045	0.39372	-0.5085
2.55	21.876	-35098	1975.3	-0.74859	0.3943	-0.50898
2.552	21.867	-35098	1975.2	-0.74762	0.39304	-0.50976
2.554	21.866	-35095	1975.1	-0.74664	0.39177	-0.51055
2.556	21.868	-35096	1975	-0.74566	0.3905	-0.51133
2.558	21.869	-35099	1974.9	-0.74469	0.38923	-0.51211
2.56	21.867	-35101	1974.8	-0.74371	0.38796	-0.51289
2.562	21.861	-35100	1974.7	-0.7443	0.38786	-0.5124
2.564	21.855	-35101	1974.6	-0.74488	0.38776	-0.51191
2.566	21.85	-35103	1974.6	-0.74547	0.38767	-0.51142
2.568	21.843	-35103	1974.6	-0.74605	0.38757	-0.51094
2.57	21.844	-35102	1974.5	-0.74664	0.38747	-0.51045
2.572	21.845	-35102	1974.5	-0.74615	0.38718	-0.51084
2.574	21.846	-35101	1974.4	-0.74566	0.38689	-0.51123
2.576	21.854	-35100	1974.3	-0.74518	0.38659	-0.51162
2.578	21.856	-35101	1974.3	-0.74469	0.3863	-0.51201
2.58	21.85	-35104	1974.2	-0.7442	0.38601	-0.5124
2.582	21.851	-35108	1974.2	-0.744	0.38708	-0.51172
2.584	21.849	-35108	1974.1	-0.74381	0.38816	-0.51103
2.586	21.835	-35104	1974.1	-0.74361	0.38923	-0.51035
2.588	21.828	-35105	1974	-0.74342	0.3903	-0.50967
2.59	21.831	-35112	1973.9	-0.74322	0.39138	-0.50898
2.592	21.833	-35113	1973.9	-0.7444	0.39089	-0.50859
2.594	21.837	-35109	1973.9	-0.74557	0.3904	-0.5082
2.596	21.833	-35106	1973.9	-0.74674	0.38991	-0.50781
2.598	21.827	-35105	1973.9	-0.74791	0.38942	-0.50742
2.6	21.821	-35106	1973.8	-0.74908	0.38894	-0.50703
2.602	21.814	-35110	1973.8	-0.74967	0.3902	-0.50693
2.604	21.813	-35111	1973.8	-0.75025	0.39147	-0.50684
2.606	21.811	-35108	1973.7	-0.75084	0.39274	-0.50674
2.608	21.808	-35109	1973.7	-0.75142	0.39401	-0.50664
2.61	21.815	-35112	1973.7	-0.75201	0.39528	-0.50654
2.612	21.821	-35111	1973.7	-0.75142	0.39508	-0.50664
2.614	21.813	-35106	1973.8	-0.75084	0.39489	-0.50674
2.616	21.805	-35107	1973.8	-0.75025	0.39469	-0.50684
2.618	21.803	-35114	1973.8	-0.74967	0.3945	-0.50693
2.62	21.8	-35119	1973.7	-0.74908	0.3943	-0.50703
2.622	21.794	-35122	1973.8	-0.74898	0.39489	-0.50791
2.624	21.786	-35121	1973.8	-0.74888	0.39548	-0.50879
2.626	21.782	-35117	1973.8	-0.74879	0.39606	-0.50967
2.628	21.781	-35115	1973.8	-0.74869	0.39665	-0.51055
2.63	21.774	-35115	1973.8	-0.74859	0.39723	-0.51142
2.632	21.768	-35119	1973.8	-0.7482	0.39557	-0.51181
2.634	21.763	-35126	1973.8	-0.74781	0.39391	-0.5122
2.636	21.756	-35127	1973.8	-0.74742	0.39225	-0.5126
2.638	21.752	-35122	1973.8	-0.74703	0.3906	-0.51299
2.64	21.746	-35115	1973.8	-0.74664	0.38894	-0.51338
2.642	21.742	-35108	1973.7	-0.74723	0.38933	-0.51289
2.644	21.735	-35110	1973.7	-0.74781	0.38972	-0.5124
2.646	21.726	-35123	1973.7	-0.7484	0.39011	-0.51191
2.648	21.723	-35131	1973.7	-0.74898	0.3905	-0.51142
2.65	21.708	-35133	1973.7	-0.74957	0.39089	-0.51094
2.652	21.697	-35129	1973.7	-0.74869	0.38981	-0.51123
2.654	21.69	-35118	1973.6	-0.74781	0.38874	-0.51152
2.656	21.684	-35115	1973.6	-0.74693	0.38767	-0.51181
2.658	21.674	-35120	1973.6	-0.74605	0.38659	-0.51211
2.66	21.667	-35122	1973.6	-0.74518	0.38552	-0.5124
2.662	21.662	-35123	1973.7	-0.74605	0.3865	-0.51133
2.664	21.661	-35125	1973.8	-0.74693	0.38747	-0.51025
2.666	21.652	-35128	1973.8	-0.74781	0.38845	-0.50918
2.668	21.64	-35129	1973.9	-0.74869	0.38942	-0.50811
2.67	21.631	-35128	1973.9	-0.74957	0.3904	-0.50703
2.672	21.625	-35128	1974	-0.74996	0.39167	-0.50732
2.674	21.629	-35127	1974.1	-0.75035	0.39294	-0.50762
2.676	21.632	-35128	1974.2	-0.75074	0.39421	-0.50791
2.678	21.63	-35129	1974.2	-0.75113	0.39548	-0.5082
2.68	21.619	-35130	1974.3	-0.75152	0.39674	-0.5085
2.682	21.611	-35133	1974.4	-0.75074	0.3943	-0.50908
2.684	21.612	-35134	1974.5	-0.74996	0.39186	-0.50967
2.686	21.611	-35134	1974.6	-0.74918	0.38942	-0.51025
2.688	21.613	-35128	1974.7	-0.7484	0.38698	-0.51084
2.69	21.61	-35116	1974.8	-0.74762	0.38454	-0.51142
2.692	21.605	-35116	1974.9	-0.74674	0.38435	-0.51123
2.694	21.605	-35127	1975	-0.74586	0.38415	-0.51103
2.696	21.61	-35130	1975	-0.74498	0.38396	-0.51084
2.698	21.614	-35125	1975.1	-0.7441	0.38376	-0.51064
2.7	21.612	-35123	1975.1	-0.74322	0.38357	-0.51045
2.702	21.604	-35122	1975.2	-0.74293	0.38445	-0.51045
2.704	21.599	-35117	1975.3	-0.74264	0.38532	-0.51045
2.706	21.597	-35109	1975.4	-0.74235	0.3862	-0.51045
2.708	21.597	-35105	1975.4	-0.74205	0.38708	-0.51045
2.71	21.598	-35106	1975.5	-0.74176	0.38796	-0.51045
2.712	21.601	-35106	1975.5	-0.74283	0.38689	-0.51094
2.714	21.609	-35107	1975.6	-0.74391	0.38581	-0.51142
2.716	21.616	-35107	1975.6	-0.74498	0.38474	-0.51191
2.718	21.62	-35106	1975.7	-0.74605	0.38367	-0.5124
2.72	21.622	-35104	1975.8	-0.74713	0.38259	-0.51289
2.722	21.62	-35103	1976	-0.74635	0.38288	-0.51269
2.724	21.62	-35096	1976.2	-0.74557	0.38318	-0.5125
2.726	21.629	-35084	1976.3	-0.74479	0.38347	-0.5123
2.728	21.639	-35079	1976.5	-0.744	0.38376	-0.51211
2.73	21.653	-35080	1976.7	-0.74322	0.38406	-0.51191
2.732	21.662	-35080	1976.8	-0.74361	0.38415	-0.51201
2.734	21.67	-35080	1977	-0.744	0.38425	-0.51211
2.736	21.681	-35077	1977.2	-0.7444	0.38435	-0.5122
2.738	21.697	-35072	1977.4	-0.74479	0.38445	-0.5123
2.74	21.708	-35068	1977.5	-0.74518	0.38454	-0.5124
2.742	21.718	-35063	1977.7	-0.74547	0.38484	-0.51299
2.744	21.732	-35060	1977.9	-0.74576	0.38513	-0.51357
2.746	21.743	-35061	1978.2	-0.74605	0.38542	-0.51416
2.748	21.757	-35060	1978.4	-0.74635	0.38572	-0.51474
2.75	21.765	-35058	1978.6	-0.74664	0.38601	-0.51533
2.752	21.76	-35056	1978.8	-0.74703	0.38591	-0.51504
2.754	21.766	-35053	1978.9	-0.74742	0.38581	-0.51474
2.756	21.774	-35052	1979.1	-0.74781	0.38572	-0.51445
2.758	21.785	-35053	1979.3	-0.7482	0.38562	-0.51416
2.76	21.792	-35052	1979.4	-0.74859	0.38552	-0.51386
2.762	21.796	-35047	1979.5	-0.7483	0.3864	-0.51367
2.764	21.804	-35042	1979.7	-0.74801	0.38728	-0.51347
2.766	21.816	-35037	1979.7	-0.74771	0.38816	-0.51328
2.768	21.822	-35036	1979.8	-0.74742	0.38903	-0.51308
2.77	21.827	-35040	1979.9	-0.74713	0.38991	-0.51289
2.772	21.835	-35039	1979.9	-0.74703	0.38991	-0.51279
2.774	21.842	-35032	1979.9	-0.74693	0.38991	-0.51269
2.776	21.849	-35029	1979.9	-0.74684	0.38991	-0.5126
2.778	21.853	-35032	1979.9	-0.74674	0.38991	-0.5125
2.78	21.855	-35031	1979.9	-0.74664	0.38991	-0.5124
2.782	21.854	-35027	1979.9	-0.74576	0.39128	-0.51152
2.784	21.851	-35025	1979.8	-0.74488	0.39264	-0.51064
2.786	21.849	-35025	1979.8	-0.744	0.39401	-0.50976
2.788	21.848	-35025	1979.7	-0.74313	0.39538	-0.50889
2.79	21.85	-35024	1979.7	-0.74225	0.39674	-0.50801
2.792	21.855	-35024	1979.6	-0.74244	0.39587	-0.5082
2.794	21.86	-35025	1979.6	-0.74264	0.39499	-0.5084
2.796	21.868	-35023	1979.5	-0.74283	0.39411	-0.50859
2.798	21.872	-35020	1979.4	-0.74303	0.39323	-0.50879
2.8	21.872	-35019	1979.3	-0.74322	0.39235	-0.50898
2.802	21.872	-35021	1979.3	-0.7441	0.39235	-0.50879
2.804	21.877	-35022	1979.2	-0.74498	0.39235	-0.50859
2.806	21.881	-35020	1979.1	-0.74586	0.39235	-0.5084
2.808	21.881	-35020	1979	-0.74674	0.39235	-0.5082
2.81	21.878	-35020	1978.9	-0.74762	0.39235	-0.50801
2.812	21.879	-35019	1978.9	-0.74771	0.39225	-0.50752
2.814	21.875	-35017	1978.8	-0.74781	0.39216	-0.50703
2.816	21.878	-35017	1978.8	-0.74791	0.39206	-0.50654
2.818	21.878	-35017	1978.7	-0.74801	0.39196	-0.50606
2.82	21.87	-35017	1978.6	-0.7481	0.39186	-0.50557
2.822	21.868	-35016	1978.6	-0.74859	0.39294	-0.50606
2.824	21.865	-35014	1978.6	-0.74908	0.39401	-0.50654
2.826	21.864	-35011	1978.5	-0.74957	0.39508	-0.50703
2.828	21.866	-35011	1978.5	-0.75006	0.39616	-0.50752
2.83	21.871	-35013	1978.4	-0.75054	0.39723	-0.50801
2.832	21.878	-35014	1978.3	-0.75045	0.39557	-0.50781
2.834	21.874	-35013	1978.2	-0.75035	0.39391	-0.50762
2.836	21.878	-35011	1978.2	-0.75025	0.39225	-0.50742
2.838	21.882	-35008	1978.1	-0.75015	0.3906	-0.50723
2.84	21.878	-35006	1978	-0.75006	0.38894	-0.50703
2.842	21.876	-35007	1977.9	-0.75064	0.3903	-0.50732
2.844	21.874	-35012	1977.8	-0.75123	0.39167	-0.50762
2.846	21.875	-35021	1977.6	-0.75181	0.39304	-0.50791
2.848	21.878	-35021	1977.5	-0.7524	0.3944	-0.5082
2.85	21.875	-35013	1977.4	-0.75298	0.39577	-0.5085
2.852	21.868	-35010	1977.2	-0.75347	0.39557	-0.50791
2.854	21.864	-35013	1977	-0.75396	0.39538	-0.50732
2.856	21.864	-35018	1976.9	-0.75445	0.39518	-0.50674
2.858	21.863	-35024	1976.7	-0.75494	0.39499	-0.50615
2.86	21.86	-35025	1976.5	-0.75542	0.39479	-0.50557
2.862	21.858	-35020	1976.3	-0.75474	0.3943	-0.50537
2.864	21.855	-35017	1976.2	-0.75406	0.39382	-0.50518
2.866	21.856	-35018	1976	-0.75337	0.39333	-0.50498
2.868	21.869	-35018	1975.9	-0.75269	0.39284	-0.50479
2.87	21.884	-35018	1975.7	-0.75201	0.39235	-0.50459
2.872	21.883	-35019	1975.6	-0.7523	0.39274	-0.50449
2.874	21.875	-35020	1975.5	-0.75259	0.39313	-0.5044
2.876	21.874	-35022	1975.4	-0.75289	0.39352	-0.5043
2.878	21.874	-35025	1975.3	-0.75318	0.39391	-0.5042
2.88	21.875	-35024	1975.3	-0.75347	0.3943	-0.5041
2.882	21.875	-35017	1975.2	-0.75318	0.3946	-0.50449
2.884	21.87	-35014	1975.1	-0.75289	0.39489	-0.50488
2.886	21.866	-35015	1975	-0.75259	0.39518	-0.50528
2.888	21.863	-35017	1975	-0.7523	0.39548	-0.50567
2.89	21.865	-35020	1975	-0.75201	0.39577	-0.50606
2.892	21.87	-35022	1975	-0.75269	0.39567	-0.50625
2.894	21.866	-35023	1975	-0.75337	0.39557	-0.50645
2.896	21.866	-35023	1974.9	-0.75406	0.39548	-0.50664
2.898	21.861	-35022	1974.9	-0.75474	0.39538	-0.50684
2.9	21.857	-35023	1974.9	-0.75542	0.39528	-0.50703
2.902	21.853	-35025	1974.9	-0.75533	0.39567	-0.50703
2.904	21.843	-35024	1974.9	-0.75523	0.39606	-0.50703
2.906	21.839	-35020	1974.9	-0.75513	0.39645	-0.50703
2.908	21.85	-35017	1974.9	-0.75503	0.39684	-0.50703
2.91	21.867	-35015	1974.9	-0.75494	0.39723	-0.50703
2.912	21.879	-35018	1975	-0.75357	0.39479	-0.50772
2.914	21.879	-35028	1975	-0.7522	0.39235	-0.5084
2.916	21.872	-35031	1975	-0.75084	0.38991	-0.50908
2.918	21.862	-35030	1975	-0.74947	0.38747	-0.50976
2.92	21.856	-35030	1974.9	-0.7481	0.38503	-0.51045
2.922	21.854	-35030	1974.9	-0.7482	0.38601	-0.51045
2.924	21.85	-35033	1974.9	-0.7483	0.38698	-0.51045
2.926	21.847	-35036	1974.9	-0.7484	0.38796	-0.51045
2.928	21.851	-35038	1974.9	-0.74849	0.38894	-0.51045
2.93	21.855	-35037	1974.9	-0.74859	0.38991	-0.51045
2.932	21.855	-35036	1975	-0.74928	0.38991	-0.51103
2.934	21.852	-35036	1975	-0.74996	0.38991	-0.51162
2.936	21.853	-35035	1975	-0.75064	0.38991	-0.5122
2.938	21.855	-35034	1975	-0.75132	0.38991	-0.51279
2.94	21.864	-35036	1975	-0.75201	0.38991	-0.51338
2.942	21.877	-35042	1975	-0.75191	0.38913	-0.51386
2.944	21.881	-35046	1975	-0.75181	0.38835	-0.51435
2.946	21.876	-35048	1975	-0.75172	0.38757	-0.51484
2.948	21.865	-35048	1975	-0.75162	0.38679	-0.51533
2.95	21.858	-35046	1975.1	-0.75152	0.38601	-0.51582
2.952	21.867	-35045	1975.1	-0.75132	0.38728	-0.51396
2.954	21.883	-35045	1975.1	-0.75113	0.38855	-0.51211
2.956	21.886	-35045	1975.1	-0.75093	0.38981	-0.51025
2.958	21.876	-35046	1975.1	-0.75074	0.39108	-0.5084
2.96	21.87	-35045	1975.2	-0.75054	0.39235	-0.50654
2.962	21.872	-35042	1975.2	-0.74976	0.39177	-0.50772
2.964	21.875	-35041	1975.2	-0.74898	0.39118	-0.50889
2.966	21.876	-35041	1975.3	-0.7482	0.3906	-0.51006
2.968	21.878	-35043	1975.3	-0.74742	0.39001	-0.51123
2.97	21.879	-35045	1975.4	-0.74664	0.38942	-0.5124
2.972	21.874	-35047	1975.5	-0.74664	0.38884	-0.51269
2.974	21.866	-35047	1975.5	-0.74664	0.38825	-0.51299
2.976	21.868	-35048	1975.6	-0.74664	0.38767	-0.51328
2.978	21.865	-35050	1975.7	-0.74664	0.38708	-0.51357
2.98	21.864	-35050	1975.7	-0.74664	0.3865	-0.51386
2.982	21.869	-35050	1975.8	-0.74684	0.3862	-0.51455
2.984	21.881	-35049	1975.9	-0.74703	0.38591	-0.51523
2.986	21.88	-35047	1976	-0.74723	0.38562	-0.51591
2.988	21.879	-35047	1976.1	-0.74742	0.38532	-0.5166
2.99	21.884	-35047	1976.2	-0.74762	0.38503	-0.51728
2.992	21.889	-35049	1976.3	-0.74742	0.38484	-0.51689
2.994	21.88	-35051	1976.4	-0.74723	0.38464	-0.5165
2.996	21.878	-35052	1976.5	-0.74703	0.38445	-0.51611
2.998	21.877	-35054	1976.7	-0.74684	0.38425	-0.51572
3	21.869	-35053	1976.8	-0.74664	0.38406	-0.51533
3.002	21.87	-35050	1976.9	-0.74635	0.38308	-0.51386
3.004	21.883	-35048	1977	-0.74605	0.3821	-0.5124
3.006	21.881	-35047	1977.1	-0.74576	0.38113	-0.51094
3.008	21.878	-35050	1977.3	-0.74547	0.38015	-0.50947
3.01	21.874	-35057	1977.4	-0.74518	0.37918	-0.50801
3.012	21.874	-35058	1977.6	-0.74566	0.38005	-0.50928
3.014	21.877	-35053	1977.7	-0.74615	0.38093	-0.51055
3.016	21.88	-35048	1977.8	-0.74664	0.38181	-0.51181
3.018	21.887	-35044	1977.9	-0.74713	0.38269	-0.51308
3.02	21.88	-35044	1978	-0.74762	0.38357	-0.51435
3.022	21.876	-35049	1978.2	-0.74771	0.38298	-0.51357
3.024	21.881	-35052	1978.4	-0.74781	0.3824	-0.51279
3.026	21.884	-35053	1978.5	-0.74791	0.38181	-0.51201
3.028	21.879	-35053	1978.6	-0.74801	0.38123	-0.51123
3.03	21.88	-35054	1978.7	-0.7481	0.38064	-0.51045
3.032	21.884	-35052	1978.8	-0.74742	0.38093	-0.51006
3.034	21.882	-35047	1978.9	-0.74674	0.38123	-0.50967
3.036	21.883	-35045	1979	-0.74605	0.38152	-0.50928
3.038	21.887	-35046	1979.1	-0.74537	0.38181	-0.50889
3.04	21.889	-35049	1979.1	-0.74469	0.3821	-0.5085
3.042	21.89	-35052	1979.2	-0.74635	0.38367	-0.50996
3.044	21.891	-35054	1979.3	-0.74801	0.38523	-0.51142
3.046	21.892	-35054	1979.4	-0.74967	0.38679	-0.51289
3.048	21.893	-35053	1979.4	-0.75132	0.38835	-0.51435
3.05	21.884	-35052	1979.4	-0.75298	0.38991	-0.51582
3.052	21.873	-35052	1979.5	-0.7522	0.38923	-0.51591
3.054	21.873	-35053	1979.6	-0.75142	0.38855	-0.51601
3.056	21.881	-35054	1979.6	-0.75064	0.38786	-0.51611
3.058	21.883	-35054	1979.7	-0.74986	0.38718	-0.51621
3.06	21.89	-35054	1979.7	-0.74908	0.3865	-0.5163
3.062	21.896	-35052	1979.8	-0.74791	0.38679	-0.51513
3.064	21.89	-35051	1979.8	-0.74674	0.38708	-0.51396
3.066	21.886	-35052	1979.9	-0.74557	0.38737	-0.51279
3.068	21.885	-35053	1980	-0.7444	0.38767	-0.51162
3.07	21.883	-35054	1980	-0.74322	0.38796	-0.51045
3.072	21.883	-35053	1980.1	-0.7444	0.38786	-0.51133
3.074	21.886	-35049	1980.1	-0.74557	0.38776	-0.5122
3.076	21.885	-35049	1980.1	-0.74674	0.38767	-0.51308
3.078	21.889	-35052	1980.2	-0.74791	0.38757	-0.51396
3.08	21.891	-35054	1980.2	-0.74908	0.38747	-0.51484
3.082	21.889	-35055	1980.2	-0.74879	0.38776	-0.51367
3.084	21.885	-35057	1980.2	-0.74849	0.38806	-0.5125
3.086	21.884	-35062	1980.2	-0.7482	0.38835	-0.51133
3.088	21.891	-35060	1980.2	-0.74791	0.38864	-0.51016
3.09	21.898	-35053	1980.3	-0.74762	0.38894	-0.50898
3.092	21.897	-35051	1980.3	-0.74684	0.38864	-0.50986
3.094	21.892	-35053	1980.3	-0.74605	0.38835	-0.51074
3.096	21.887	-35055	1980.3	-0.74527	0.38806	-0.51162
3.098	21.887	-35056	1980.4	-0.74449	0.38776	-0.5125
3.1	21.885	-35058	1980.4	-0.74371	0.38747	-0.51338
3.102	21.885	-35060	1980.4	-0.744	0.38806	-0.5123
3.104	21.876	-35061	1980.3	-0.7443	0.38864	-0.51123
3.106	21.872	-35064	1980.3	-0.74459	0.38923	-0.51016
3.108	21.882	-35064	1980.3	-0.74488	0.38981	-0.50908
3.11	21.885	-35063	1980.3	-0.74518	0.3904	-0.50801
3.112	21.884	-35064	1980.2	-0.74605	0.38981	-0.50937
3.114	21.89	-35067	1980.2	-0.74693	0.38923	-0.51074
3.116	21.893	-35069	1980.2	-0.74781	0.38864	-0.51211
3.118	21.889	-35070	1980.1	-0.74869	0.38806	-0.51347
3.12	21.886	-35068	1980.1	-0.74957	0.38747	-0.51484
3.122	21.885	-35061	1980.1	-0.74996	0.38776	-0.51455
3.124	21.888	-35060	1980	-0.75035	0.38806	-0.51425
3.126	21.889	-35065	1980	-0.75074	0.38835	-0.51396
3.128	21.886	-35067	1979.9	-0.75113	0.38864	-0.51367
3.13	21.885	-35066	1979.8	-0.75152	0.38894	-0.51338
3.132	21.888	-35067	1979.8	-0.75132	0.38923	-0.51347
3.134	21.888	-35068	1979.8	-0.75113	0.38952	-0.51357
3.136	21.892	-35070	1979.8	-0.75093	0.38981	-0.51367
3.138	21.902	-35071	1979.7	-0.75074	0.39011	-0.51377
3.14	21.902	-35072	1979.7	-0.75054	0.3904	-0.51386
3.142	21.892	-35072	1979.6	-0.74957	0.38952	-0.51347
3.144	21.885	-35070	1979.6	-0.74859	0.38864	-0.51308
3.146	21.879	-35064	1979.5	-0.74762	0.38776	-0.51269
3.148	21.878	-35064	1979.4	-0.74664	0.38689	-0.5123
3.15	21.871	-35069	1979.4	-0.74566	0.38601	-0.51191
3.152	21.862	-35072	1979.3	-0.74605	0.38591	-0.51211
3.154	21.857	-35074	1979.2	-0.74644	0.38581	-0.5123
3.156	21.853	-35076	1979.1	-0.74684	0.38572	-0.5125
3.158	21.848	-35077	1979.1	-0.74723	0.38562	-0.51269
3.16	21.849	-35078	1979	-0.74762	0.38552	-0.51289
3.162	21.855	-35079	1979	-0.74762	0.38572	-0.51269
3.164	21.868	-35079	1978.9	-0.74762	0.38591	-0.5125
3.166	21.872	-35080	1978.8	-0.74762	0.38611	-0.5123
3.168	21.876	-35080	1978.7	-0.74762	0.3863	-0.51211
3.17	21.874	-35079	1978.6	-0.74762	0.3865	-0.51191
3.172	21.87	-35082	1978.6	-0.74762	0.3865	-0.5124
3.174	21.867	-35087	1978.5	-0.74762	0.3865	-0.51289
3.176	21.861	-35089	1978.4	-0.74762	0.3865	-0.51338
3.178	21.851	-35087	1978.4	-0.74762	0.3865	-0.51386
3.18	21.846	-35087	1978.3	-0.74762	0.3865	-0.51435
3.182	21.837	-35091	1978.2	-0.74674	0.3865	-0.51406
3.184	21.833	-35091	1978.1	-0.74586	0.3865	-0.51377
3.186	21.836	-35088	1978.1	-0.74498	0.3865	-0.51347
3.188	21.838	-35087	1978.1	-0.7441	0.3865	-0.51318
3.19	21.835	-35088	1978	-0.74322	0.3865	-0.51289
3.192	21.839	-35089	1977.9	-0.74332	0.38611	-0.5126
3.194	21.845	-35090	1977.8	-0.74342	0.38572	-0.5123
3.196	21.843	-35090	1977.8	-0.74352	0.38532	-0.51201
3.198	21.839	-35089	1977.7	-0.74361	0.38493	-0.51172
3.2	21.84	-35091	1977.6	-0.74371	0.38454	-0.51142
3.202	21.845	-35096	1977.6	-0.7444	0.38435	-0.51133
3.204	21.841	-35100	1977.6	-0.74508	0.38415	-0.51123
3.206	21.835	-35103	1977.5	-0.74576	0.38396	-0.51113
3.208	21.833	-35104	1977.5	-0.74644	0.38376	-0.51103
3.21	21.833	-35103	1977.4	-0.74713	0.38357	-0.51094
3.212	21.84	-35103	1977.4	-0.74654	0.38435	-0.51123
3.214	21.85	-35103	1977.4	-0.74596	0.38513	-0.51152
3.216	21.857	-35102	1977.4	-0.74537	0.38591	-0.51181
3.218	21.86	-35098	1977.4	-0.74479	0.38669	-0.51211
3.22	21.865	-35097	1977.4	-0.7442	0.38747	-0.5124
3.222	21.872	-35099	1977.4	-0.74469	0.38728	-0.51289
3.224	21.875	-35103	1977.3	-0.74518	0.38708	-0.51338
3.226	21.879	-35109	1977.3	-0.74566	0.38689	-0.51386
3.228	21.887	-35113	1977.2	-0.74615	0.38669	-0.51435
3.23	21.895	-35114	1977.2	-0.74664	0.3865	-0.51484
3.232	21.901	-35113	1977.2	-0.74693	0.3864	-0.51425
3.234	21.904	-35108	1977.3	-0.74723	0.3863	-0.51367
3.236	21.905	-35106	1977.2	-0.74752	0.3862	-0.51308
3.238	21.902	-35107	1977.2	-0.74781	0.38611	-0.5125
3.24	21.9	-35107	1977.2	-0.7481	0.38601	-0.51191
3.242	21.905	-35106	1977.1	-0.7481	0.38591	-0.5122
3.244	21.907	-35110	1977.1	-0.7481	0.38581	-0.5125
3.246	21.911	-35120	1977	-0.7481	0.38572	-0.51279
3.248	21.919	-35125	1977	-0.7481	0.38562	-0.51308
3.25	21.912	-35126	1977	-0.7481	0.38552	-0.51338
3.252	21.901	-35126	1976.9	-0.74859	0.3863	-0.51318
3.254	21.895	-35123	1976.9	-0.74908	0.38708	-0.51299
3.256	21.894	-35120	1976.9	-0.74957	0.38786	-0.51279
3.258	21.901	-35116	1976.8	-0.75006	0.38864	-0.5126
3.26	21.898	-35116	1976.8	-0.75054	0.38942	-0.5124
3.262	21.898	-35121	1976.8	-0.74976	0.38835	-0.51211
3.264	21.895	-35120	1976.8	-0.74898	0.38728	-0.51181
3.266	21.888	-35113	1976.8	-0.7482	0.3862	-0.51152
3.268	21.893	-35112	1976.7	-0.74742	0.38513	-0.51123
3.27	21.902	-35118	1976.7	-0.74664	0.38406	-0.51094
3.272	21.911	-35120	1976.7	-0.74635	0.38454	-0.51133
3.274	21.912	-35118	1976.7	-0.74605	0.38503	-0.51172
3.276	21.909	-35119	1976.7	-0.74576	0.38552	-0.51211
3.278	21.906	-35124	1976.6	-0.74547	0.38601	-0.5125
3.28	21.906	-35125	1976.6	-0.74518	0.3865	-0.51289
3.282	21.909	-35120	1976.6	-0.74586	0.38659	-0.5123
3.284	21.908	-35119	1976.6	-0.74654	0.38669	-0.51172
3.286	21.91	-35121	1976.6	-0.74723	0.38679	-0.51113
3.288	21.918	-35123	1976.6	-0.74791	0.38689	-0.51055
3.29	21.929	-35126	1976.6	-0.74859	0.38698	-0.50996
3.292	21.932	-35131	1976.6	-0.74791	0.38659	-0.50976
3.294	21.928	-35137	1976.6	-0.74723	0.3862	-0.50957
3.296	21.927	-35142	1976.6	-0.74654	0.38581	-0.50937
3.298	21.925	-35144	1976.5	-0.74586	0.38542	-0.50918
3.3	21.906	-35141	1976.5	-0.74518	0.38503	-0.50898
3.302	21.873	-35133	1976.5	-0.74518	0.38523	-0.50957
3.304	21.833	-35131	1976.5	-0.74518	0.38542	-0.51016
3.306	21.781	-35136	1976.5	-0.74518	0.38562	-0.51074
3.308	21.726	-35138	1976.5	-0.74518	0.38581	-0.51133
3.31	21.676	-35139	1976.5	-0.74518	0.38601	-0.51191
3.312	21.618	-35138	1976.5	-0.74596	0.38601	-0.51162
3.314	21.56	-35135	1976.6	-0.74674	0.38601	-0.51133
3.316	21.504	-35135	1976.6	-0.74752	0.38601	-0.51103
3.318	21.434	-35138	1976.5	-0.7483	0.38601	-0.51074
3.32	21.351	-35136	1976.5	-0.74908	0.38601	-0.51045
3.322	21.273	-35131	1976.5	-0.7484	0.38591	-0.51094
3.324	21.226	-35131	1976.5	-0.74771	0.38581	-0.51142
3.326	21.196	-35138	1976.5	-0.74703	0.38572	-0.51191
3.328	21.162	-35141	1976.5	-0.74635	0.38562	-0.5124
3.33	21.152	-35141	1976.5	-0.74566	0.38552	-0.51289
3.332	21.17	-35140	1976.5	-0.74576	0.38601	-0.51191
3.334	21.211	-35137	1976.5	-0.74586	0.3865	-0.51094
3.336	21.269	-35135	1976.5	-0.74596	0.38698	-0.50996
3.338	21.347	-35135	1976.5	-0.74605	0.38747	-0.50898
3.34	21.438	-35138	1976.5	-0.74615	0.38796	-0.50801
3.342	21.544	-35143	1976.5	-0.74654	0.38776	-0.5084
3.344	21.68	-35147	1976.4	-0.74693	0.38757	-0.50879
3.346	21.776	-35149	1976.4	-0.74732	0.38737	-0.50918
3.348	21.836	-35148	1976.4	-0.74771	0.38718	-0.50957
3.35	21.864	-35145	1976.4	-0.7481	0.38698	-0.50996
3.352	21.868	-35143	1976.4	-0.74742	0.38669	-0.50996
3.354	21.869	-35141	1976.4	-0.74674	0.3864	-0.50996
3.356	21.882	-35141	1976.4	-0.74605	0.38611	-0.50996
3.358	21.887	-35142	1976.4	-0.74537	0.38581	-0.50996
3.36	21.892	-35145	1976.4	-0.74469	0.38552	-0.50996
3.362	21.898	-35148	1976.4	-0.74518	0.38523	-0.51084
3.364	21.891	-35149	1976.4	-0.74566	0.38493	-0.51172
3.366	21.883	-35148	1976.3	-0.74615	0.38464	-0.5126
3.368	21.874	-35151	1976.4	-0.74664	0.38435	-0.51347
3.37	21.874	-35156	1976.4	-0.74713	0.38406	-0.51435
3.372	21.881	-35157	1976.4	-0.74684	0.38445	-0.51377
3.374	21.874	-35152	1976.4	-0.74654	0.38484	-0.51318
3.376	21.864	-35151	1976.4	-0.74625	0.38523	-0.5126
3.378	21.861	-35155	1976.4	-0.74596	0.38562	-0.51201
3.38	21.859	-35159	1976.4	-0.74566	0.38601	-0.51142
3.382	21.858	-35163	1976.4	-0.74557	0.38562	-0.51162
3.384	21.855	-35162	1976.5	-0.74547	0.38523	-0.51181
3.386	21.852	-35155	1976.5	-0.74537	0.38484	-0.51201
3.388	21.853	-35153	1976.5	-0.74527	0.38445	-0.5122
3.39	21.855	-35155	1976.5	-0.74518	0.38406	-0.5124
3.392	21.856	-35160	1976.5	-0.74615	0.38493	-0.51347
3.394	21.856	-35168	1976.5	-0.74713	0.38581	-0.51455
3.396	21.855	-35171	1976.6	-0.7481	0.38669	-0.51562
3.398	21.862	-35169	1976.6	-0.74908	0.38757	-0.51669
3.4	21.869	-35165	1976.6	-0.75006	0.38845	-0.51777
3.402	21.861	-35160	1976.6	-0.74947	0.38776	-0.5165
3.404	21.852	-35159	1976.5	-0.74888	0.38708	-0.51523
3.406	21.856	-35164	1976.5	-0.7483	0.3864	-0.51396
3.408	21.857	-35166	1976.5	-0.74771	0.38572	-0.51269
3.41	21.858	-35165	1976.5	-0.74713	0.38503	-0.51142
3.412	21.853	-35164	1976.4	-0.74781	0.3862	-0.51162
3.414	21.849	-35165	1976.3	-0.74849	0.38737	-0.51181
3.416	21.85	-35163	1976.3	-0.74918	0.38855	-0.51201
3.418	21.842	-35156	1976.3	-0.74986	0.38972	-0.5122
3.42	21.841	-35154	1976.2	-0.75054	0.39089	-0.5124
3.422	21.84	-35157	1976.2	-0.74957	0.38991	-0.5125
3.424	21.833	-35159	1976.1	-0.74859	0.38894	-0.5126
3.426	21.832	-35162	1976	-0.74762	0.38796	-0.51269
3.428	21.833	-35165	1975.9	-0.74664	0.38698	-0.51279
3.43	21.838	-35169	1975.8	-0.74566	0.38601	-0.51289
3.432	21.835	-35170	1975.8	-0.74566	0.38562	-0.51299
3.434	21.834	-35168	1975.7	-0.74566	0.38523	-0.51308
3.436	21.839	-35167	1975.7	-0.74566	0.38484	-0.51318
3.438	21.84	-35167	1975.6	-0.74566	0.38445	-0.51328
3.44	21.834	-35168	1975.6	-0.74566	0.38406	-0.51338
3.442	21.83	-35169	1975.6	-0.74596	0.38396	-0.51377
3.444	21.825	-35172	1975.5	-0.74625	0.38386	-0.51416
3.446	21.823	-35175	1975.5	-0.74654	0.38376	-0.51455
3.448	21.823	-35177	1975.5	-0.74684	0.38367	-0.51494
3.45	21.815	-35180	1975.5	-0.74713	0.38357	-0.51533
3.452	21.805	-35179	1975.4	-0.74693	0.38347	-0.51455
3.454	21.801	-35174	1975.4	-0.74674	0.38337	-0.51377
3.456	21.8	-35172	1975.4	-0.74654	0.38328	-0.51299
3.458	21.795	-35174	1975.3	-0.74635	0.38318	-0.5122
3.46	21.79	-35176	1975.3	-0.74615	0.38308	-0.51142
3.462	21.788	-35177	1975.3	-0.74664	0.38298	-0.51181
3.464	21.794	-35179	1975.4	-0.74713	0.38288	-0.5122
3.466	21.8	-35180	1975.4	-0.74762	0.38279	-0.5126
3.468	21.792	-35181	1975.4	-0.7481	0.38269	-0.51299
3.47	21.78	-35180	1975.4	-0.74859	0.38259	-0.51338
3.472	21.774	-35180	1975.5	-0.74967	0.38406	-0.51308
3.474	21.768	-35181	1975.5	-0.75074	0.38552	-0.51279
3.476	21.766	-35184	1975.5	-0.75181	0.38698	-0.5125
3.478	21.769	-35191	1975.5	-0.75289	0.38845	-0.5122
3.48	21.773	-35194	1975.5	-0.75396	0.38991	-0.51191
3.482	21.767	-35193	1975.5	-0.75289	0.38942	-0.5126
3.484	21.759	-35191	1975.5	-0.75181	0.38894	-0.51328
3.486	21.752	-35189	1975.5	-0.75074	0.38845	-0.51396
3.488	21.748	-35189	1975.5	-0.74967	0.38796	-0.51464
3.49	21.75	-35190	1975.5	-0.74859	0.38747	-0.51533
3.492	21.751	-35192	1975.4	-0.7482	0.38776	-0.51455
3.494	21.744	-35195	1975.4	-0.74781	0.38806	-0.51377
3.496	21.739	-35196	1975.4	-0.74742	0.38835	-0.51299
3.498	21.733	-35197	1975.4	-0.74703	0.38864	-0.5122
3.5	21.726	-35197	1975.3	-0.74664	0.38894	-0.51142
3.502	21.716	-35195	1975.3	-0.74674	0.38845	-0.51142
3.504	21.706	-35197	1975.3	-0.74684	0.38796	-0.51142
3.506	21.698	-35205	1975.2	-0.74693	0.38747	-0.51142
3.508	21.697	-35208	1975.3	-0.74703	0.38698	-0.51142
3.51	21.693	-35206	1975.3	-0.74713	0.3865	-0.51142
3.512	21.684	-35202	1975.2	-0.74723	0.38718	-0.51113
3.514	21.675	-35195	1975.1	-0.74732	0.38786	-0.51084
3.516	21.66	-35193	1975.1	-0.74742	0.38855	-0.51055
3.518	21.657	-35196	1975.2	-0.74752	0.38923	-0.51025
3.52	21.66	-35198	1975.2	-0.74762	0.38991	-0.50996
3.522	21.653	-35198	1975.2	-0.74693	0.38923	-0.51016
3.524	21.641	-35197	1975.2	-0.74625	0.38855	-0.51035
3.526	21.639	-35196	1975.2	-0.74557	0.38786	-0.51055
3.528	21.64	-35198	1975.3	-0.74488	0.38718	-0.51074
3.53	21.635	-35203	1975.3	-0.7442	0.3865	-0.51094
3.532	21.627	-35206	1975.4	-0.74449	0.3865	-0.51113
3.534	21.617	-35207	1975.4	-0.74479	0.3865	-0.51133
3.536	21.617	-35207	1975.5	-0.74508	0.3865	-0.51152
3.538	21.617	-35208	1975.6	-0.74537	0.3865	-0.51172
3.54	21.612	-35207	1975.6	-0.74566	0.3865	-0.51191
3.542	21.602	-35204	1975.7	-0.74596	0.38669	-0.51152
3.544	21.596	-35204	1975.7	-0.74625	0.38689	-0.51113
3.546	21.596	-35205	1975.7	-0.74654	0.38708	-0.51074
3.548	21.593	-35204	1975.8	-0.74684	0.38728	-0.51035
3.55	21.586	-35200	1975.9	-0.74713	0.38747	-0.50996
3.552	21.587	-35199	1976	-0.74644	0.38767	-0.51045
3.554	21.592	-35200	1976.1	-0.74576	0.38786	-0.51094
3.556	21.593	-35199	1976.2	-0.74508	0.38806	-0.51142
3.558	21.592	-35196	1976.3	-0.7444	0.38825	-0.51191
3.56	21.59	-35191	1976.3	-0.74371	0.38845	-0.5124
3.562	21.59	-35186	1976.4	-0.74469	0.38825	-0.5124
3.564	21.595	-35184	1976.6	-0.74566	0.38806	-0.5124
3.566	21.601	-35187	1976.6	-0.74664	0.38786	-0.5124
3.568	21.605	-35188	1976.7	-0.74762	0.38767	-0.5124
3.57	21.606	-35188	1976.8	-0.74859	0.38747	-0.5124
3.572	21.607	-35187	1976.9	-0.74918	0.38747	-0.5126
3.574	21.614	-35184	1977	-0.74976	0.38747	-0.51279
3.576	21.619	-35177	1977.1	-0.75035	0.38747	-0.51299
3.578	21.62	-35166	1977.2	-0.75093	0.38747	-0.51318
3.58	21.627	-35162	1977.3	-0.75152	0.38747	-0.51338
3.582	21.641	-35163	1977.4	-0.74996	0.38718	-0.51328
3.584	21.648	-35164	1977.5	-0.7484	0.38689	-0.51318
3.586	21.652	-35164	1977.7	-0.74684	0.38659	-0.51308
3.588	21.653	-35161	1977.8	-0.74527	0.3863	-0.51299
3.59	21.653	-35155	1978	-0.74371	0.38601	-0.51289
3.592	21.667	-35153	1978.2	-0.74449	0.38503	-0.5124
3.594	21.687	-35155	1978.3	-0.74527	0.38406	-0.51191
3.596	21.686	-35157	1978.5	-0.74605	0.38308	-0.51142
3.598	21.692	-35158	1978.7	-0.74684	0.3821	-0.51094
3.6	21.711	-35156	1978.8	-0.74762	0.38113	-0.51045
3.602	21.715	-35152	1979	-0.74713	0.38201	-0.51123
3.604	21.73	-35148	1979.1	-0.74664	0.38288	-0.51201
3.606	21.745	-35145	1979.3	-0.74615	0.38376	-0.51279
3.608	21.749	-35143	1979.4	-0.74566	0.38464	-0.51357
3.61	21.755	-35143	1979.5	-0.74518	0.38552	-0.51435
3.612	21.764	-35142	1979.6	-0.74644	0.38659	-0.51299
3.614	21.769	-35140	1979.7	-0.74771	0.38767	-0.51162
3.616	21.775	-35139	1979.8	-0.74898	0.38874	-0.51025
3.618	21.779	-35137	1979.9	-0.75025	0.38981	-0.50889
3.62	21.787	-35133	1980	-0.75152	0.39089	-0.50752
3.622	21.796	-35127	1980	-0.75084	0.38952	-0.5085
3.624	21.807	-35123	1980.1	-0.75015	0.38816	-0.50947
3.626	21.816	-35121	1980.1	-0.74947	0.38679	-0.51045
3.628	21.821	-35117	1980.2	-0.74879	0.38542	-0.51142
3.63	21.828	-35113	1980.2	-0.7481	0.38406	-0.5124
3.632	21.838	-35113	1980.2	-0.7482	0.38513	-0.51269
3.634	21.839	-35116	1980.2	-0.7483	0.3862	-0.51299
3.636	21.837	-35117	1980.2	-0.7484	0.38728	-0.51328
3.638	21.845	-35117	1980.2	-0.74849	0.38835	-0.51357
3.64	21.852	-35113	1980.2	-0.74859	0.38942	-0.51386
3.642	21.852	-35105	1980.2	-0.74888	0.38962	-0.51386
3.644	21.855	-35103	1980.2	-0.74918	0.38981	-0.51386
3.646	21.861	-35106	1980.2	-0.74947	0.39001	-0.51386
3.648	21.857	-35108	1980.2	-0.74976	0.3902	-0.51386
3.65	21.858	-35109	1980.2	-0.75006	0.3904	-0.51386
3.652	21.868	-35110	1980.1	-0.74976	0.38991	-0.51318
3.654	21.873	-35109	1980.1	-0.74947	0.38942	-0.5125
3.656	21.869	-35108	1980.1	-0.74918	0.38894	-0.51181
3.658	21.865	-35107	1980.1	-0.74888	0.38845	-0.51113
3.66	21.865	-35105	1980.1	-0.74859	0.38796	-0.51045
3.662	21.867	-35103	1980.1	-0.74888	0.38913	-0.50986
3.664	21.871	-35100	1980.1	-0.74918	0.3903	-0.50928
3.666	21.874	-35096	1980	-0.74947	0.39147	-0.50869
3.668	21.872	-35094	1980.1	-0.74976	0.39264	-0.50811
3.67	21.869	-35094	1980.1	-0.75006	0.39382	-0.50752
3.672	21.875	-35093	1980.1	-0.75172	0.39411	-0.50674
3.674	21.877	-35092	1980.1	-0.75337	0.3944	-0.50596
3.676	21.878	-35091	1980.1	-0.75503	0.39469	-0.50518
3.678	21.875	-35090	1980.1	-0.75669	0.39499	-0.5044
3.68	21.88	-35094	1980.1	-0.75835	0.39528	-0.50362
3.682	21.883	-35101	1980.1	-0.75718	0.39538	-0.5043
3.684	21.881	-35106	1980.1	-0.75601	0.39548	-0.50498
3.686	21.875	-35106	1980.1	-0.75484	0.39557	-0.50567
3.688	21.87	-35105	1980	-0.75367	0.39567	-0.50635
3.69	21.874	-35103	1979.9	-0.7525	0.39577	-0.50703
3.692	21.881	-35102	1980	-0.75279	0.39577	-0.50723
3.694	21.879	-35104	1980	-0.75308	0.39577	-0.50742
3.696	21.874	-35105	1979.9	-0.75337	0.39577	-0.50762
3.698	21.873	-35105	1979.9	-0.75367	0.39577	-0.50781
3.7	21.87	-35103	1979.8	-0.75396	0.39577	-0.50801
3.702	21.864	-35100	1979.8	-0.75455	0.3943	-0.5083
3.704	21.862	-35097	1979.7	-0.75513	0.39284	-0.50859
3.706	21.863	-35094	1979.6	-0.75572	0.39138	-0.50889
3.708	21.863	-35093	1979.6	-0.7563	0.38991	-0.50918
3.71	21.866	-35094	1979.5	-0.75689	0.38845	-0.50947
3.712	21.865	-35095	1979.4	-0.75542	0.38855	-0.50937
3.714	21.866	-35098	1979.3	-0.75396	0.38864	-0.50928
3.716	21.868	-35099	1979.3	-0.7525	0.38874	-0.50918
3.718	21.867	-35100	1979.2	-0.75103	0.38884	-0.50908
3.72	21.865	-35099	1979.1	-0.74957	0.38894	-0.50898
3.722	21.867	-35097	1979.1	-0.74801	0.38767	-0.50908
3.724	21.874	-35096	1979	-0.74644	0.3864	-0.50918
3.726	21.882	-35096	1978.9	-0.74488	0.38513	-0.50928
3.728	21.88	-35098	1978.9	-0.74332	0.38386	-0.50937
3.73	21.871	-35101	1978.8	-0.74176	0.38259	-0.50947
3.732	21.87	-35104	1978.8	-0.74244	0.38249	-0.50957
3.734	21.873	-35107	1978.8	-0.74313	0.3824	-0.50967
3.736	21.871	-35108	1978.7	-0.74381	0.3823	-0.50976
3.738	21.865	-35109	1978.7	-0.74449	0.3822	-0.50986
3.74	21.861	-35107	1978.6	-0.74518	0.3821	-0.50996
3.742	21.858	-35102	1978.7	-0.74586	0.38259	-0.50986
3.744	21.856	-35099	1978.7	-0.74654	0.38308	-0.50976
3.746	21.858	-35099	1978.7	-0.74723	0.38357	-0.50967
3.748	21.857	-35100	1978.7	-0.74791	0.38406	-0.50957
3.75	21.859	-35102	1978.7	-0.74859	0.38454	-0.50947
3.752	21.86	-35104	1978.6	-0.7482	0.38454	-0.51016
3.754	21.873	-35105	1978.6	-0.74781	0.38454	-0.51084
3.756	21.881	-35107	1978.6	-0.74742	0.38454	-0.51152
3.758	21.873	-35108	1978.6	-0.74703	0.38454	-0.5122
3.76	21.871	-35108	1978.5	-0.74664	0.38454	-0.51289
3.762	21.866	-35108	1978.5	-0.74644	0.38464	-0.5126
3.764	21.864	-35111	1978.5	-0.74625	0.38474	-0.5123
3.766	21.872	-35115	1978.5	-0.74605	0.38484	-0.51201
3.768	21.875	-35118	1978.4	-0.74586	0.38493	-0.51172
3.77	21.874	-35119	1978.4	-0.74566	0.38503	-0.51142
3.772	21.864	-35117	1978.3	-0.74596	0.38464	-0.51172
3.774	21.864	-35112	1978.3	-0.74625	0.38425	-0.51201
3.776	21.865	-35110	1978.3	-0.74654	0.38386	-0.5123
3.778	21.864	-35110	1978.2	-0.74684	0.38347	-0.5126
3.78	21.868	-35113	1978.2	-0.74713	0.38308	-0.51289
3.782	21.864	-35118	1978.2	-0.7481	0.38406	-0.51347
3.784	21.862	-35121	1978.1	-0.74908	0.38503	-0.51406
3.786	21.864	-35122	1978.1	-0.75006	0.38601	-0.51464
3.788	21.864	-35120	1978.1	-0.75103	0.38698	-0.51523
3.79	21.866	-35117	1978.1	-0.75201	0.38796	-0.51582
3.792	21.863	-35114	1978.1	-0.75113	0.38747	-0.51572
3.794	21.858	-35111	1978.1	-0.75025	0.38698	-0.51562
3.796	21.859	-35112	1978.1	-0.74937	0.3865	-0.51552
3.798	21.864	-35119	1978	-0.74849	0.38601	-0.51543
3.8	21.866	-35121	1978	-0.74762	0.38552	-0.51533
3.802	21.867	-35120	1977.9	-0.74762	0.38532	-0.51523
3.804	21.869	-35120	1977.9	-0.74762	0.38513	-0.51513
3.806	21.872	-35121	1977.9	-0.74762	0.38493	-0.51504
3.808	21.876	-35122	1977.9	-0.74762	0.38474	-0.51494
3.81	21.875	-35123	1977.9	-0.74762	0.38454	-0.51484
3.812	21.871	-35126	1977.9	-0.74869	0.38542	-0.51484
3.814	21.868	-35128	1977.8	-0.74976	0.3863	-0.51484
3.816	21.866	-35130	1977.8	-0.75084	0.38718	-0.51484
3.818	21.864	-35132	1977.8	-0.75191	0.38806	-0.51484
3.82	21.868	-35131	1977.8	-0.75298	0.38894	-0.51484
3.822	21.875	-35127	1977.8	-0.75162	0.38747	-0.51435
3.824	21.875	-35125	1977.8	-0.75025	0.38601	-0.51386
3.826	21.87	-35124	1977.8	-0.74888	0.38454	-0.51338
3.828	21.871	-35123	1977.8	-0.74752	0.38308	-0.51289
3.83	21.875	-35124	1977.8	-0.74615	0.38162	-0.5124
3.832	21.883	-35127	1977.8	-0.74566	0.38162	-0.51191
3.834	21.892	-35132	1977.8	-0.74518	0.38162	-0.51142
3.836	21.894	-35136	1977.8	-0.74469	0.38162	-0.51094
3.838	21.897	-35139	1977.9	-0.7442	0.38162	-0.51045
3.84	21.895	-35144	1977.9	-0.74371	0.38162	-0.50996
3.842	21.884	-35151	1977.9	-0.7441	0.38162	-0.51016
3.844	21.891	-35149	1978	-0.74449	0.38162	-0.51035
3.846	21.895	-35136	1978	-0.74488	0.38162	-0.51055
3.848	21.898	-35133	1978	-0.74527	0.38162	-0.51074
3.85	21.898	-35139	1978	-0.74566	0.38162	-0.51094
3.852	21.891	-35141	1978.1	-0.74557	0.38162	-0.51074
3.854	21.892	-35140	1978.1	-0.74547	0.38162	-0.51055
3.856	21.89	-35140	1978.1	-0.74537	0.38162	-0.51035
3.858	21.896	-35139	1978.2	-0.74527	0.38162	-0.51016
3.86	21.896	-35138	1978.2	-0.74518	0.38162	-0.50996
3.862	21.889	-35138	1978.3	-0.74518	0.38181	-0.50967
3.864	21.89	-35137	1978.4	-0.74518	0.38201	-0.50937
3.866	21.884	-35136	1978.4	-0.74518	0.3822	-0.50908
3.868	21.879	-35137	1978.5	-0.74518	0.3824	-0.50879
3.87	21.886	-35140	1978.5	-0.74518	0.38259	-0.5085
3.872	21.896	-35140	1978.5	-0.74479	0.38376	-0.50928
3.874	21.897	-35140	1978.6	-0.7444	0.38493	-0.51006
3.876	21.904	-35140	1978.6	-0.744	0.38611	-0.51084
3.878	21.912	-35143	1978.7	-0.74361	0.38728	-0.51162
3.88	21.909	-35145	1978.7	-0.74322	0.38845	-0.5124
3.882	21.905	-35147	1978.8	-0.74342	0.38737	-0.5122
3.884	21.902	-35146	1978.8	-0.74361	0.3863	-0.51201
3.886	21.897	-35143	1978.9	-0.74381	0.38523	-0.51181
3.888	21.893	-35138	1978.9	-0.744	0.38415	-0.51162
3.89	21.89	-35131	1978.9	-0.7442	0.38308	-0.51142
3.892	21.888	-35130	1979	-0.74449	0.38308	-0.51162
3.894	21.887	-35133	1979	-0.74479	0.38308	-0.51181
3.896	21.887	-35135	1979.1	-0.74508	0.38308	-0.51201
3.898	21.887	-35138	1979.1	-0.74537	0.38308	-0.5122
3.9	21.884	-35139	1979.2	-0.74566	0.38308	-0.5124
3.902	21.879	-35140	1979.2	-0.74713	0.38415	-0.51328
3.904	21.879	-35138	1979.3	-0.74859	0.38523	-0.51416
3.906	21.886	-35134	1979.3	-0.75006	0.3863	-0.51504
3.908	21.901	-35132	1979.3	-0.75152	0.38737	-0.51591
3.91	21.909	-35132	1979.3	-0.75298	0.38845	-0.51679
3.912	21.912	-35134	1979.3	-0.75132	0.38776	-0.51621
3.914	21.907	-35137	1979.4	-0.74967	0.38708	-0.51562
3.916	21.896	-35138	1979.4	-0.74801	0.3864	-0.51504
3.918	21.897	-35138	1979.4	-0.74635	0.38572	-0.51445
3.92	21.901	-35138	1979.4	-0.74469	0.38503	-0.51386
3.922	21.9	-35137	1979.4	-0.74547	0.3862	-0.51328
3.924	21.906	-35137	1979.4	-0.74625	0.38737	-0.51269
3.926	21.904	-35138	1979.4	-0.74703	0.38855	-0.51211
3.928	21.889	-35138	1979.4	-0.74781	0.38972	-0.51152
3.93	21.89	-35138	1979.4	-0.74859	0.39089	-0.51094
3.932	21.901	-35141	1979.4	-0.7483	0.38933	-0.51103
3.934	21.906	-35146	1979.4	-0.74801	0.38776	-0.51113
3.936	21.907	-35150	1979.3	-0.74771	0.3862	-0.51123
3.938	21.908	-35152	1979.3	-0.74742	0.38464	-0.51133
3.94	21.897	-35151	1979.3	-0.74713	0.38308	-0.51142
3.942	21.899	-35148	1979.3	-0.74654	0.38376	-0.51152
3.944	21.91	-35146	1979.3	-0.74596	0.38445	-0.51162
3.946	21.91	-35146	1979.3	-0.74537	0.38513	-0.51172
3.948	21.907	-35146	1979.2	-0.74479	0.38581	-0.51181
3.95	21.903	-35145	1979.1	-0.7442	0.3865	-0.51191
3.952	21.903	-35144	1979.2	-0.74459	0.38581	-0.51201
3.954	21.902	-35145	1979.2	-0.74498	0.38513	-0.51211
3.956	21.897	-35145	1979.2	-0.74537	0.38445	-0.5122
3.958	21.904	-35142	1979.2	-0.74576	0.38376	-0.5123
3.96	21.914	-35143	1979.1	-0.74615	0.38308	-0.5124
3.962	21.914	-35147	1979.1	-0.74644	0.38357	-0.5124
3.964	21.911	-35150	1979.1	-0.74674	0.38406	-0.5124
3.966	21.903	-35151	1979.1	-0.74703	0.38454	-0.5124
3.968	21.896	-35151	1979.2	-0.74732	0.38503	-0.5124
3.97	21.892	-35151	1979.2	-0.74762	0.38552	-0.5124
3.972	21.891	-35154	1979.1	-0.74693	0.38532	-0.51211
3.974	21.894	-35163	1979.1	-0.74625	0.38513	-0.51181
3.976	21.898	-35161	1979.1	-0.74557	0.38493	-0.51152
3.978	21.899	-35149	1979.1	-0.74488	0.38474	-0.51123
3.98	21.897	-35145	1979.1	-0.7442	0.38454	-0.51094
3.982	21.896	-35147	1979.1	-0.74449	0.38474	-0.51123
3.984	21.9	-35148	1979.1	-0.74479	0.38493	-0.51152
3.986	21.903	-35148	1979.1	-0.74508	0.38513	-0.51181
3.988	21.905	-35151	1979	-0.74537	0.38532	-0.51211
3.99	21.906	-35157	1979	-0.74566	0.38552	-0.5124
3.992	21.903	-35162	1979	-0.74635	0.38601	-0.5123
3.994	21.907	-35164	1979	-0.74703	0.3865	-0.5122
3.996	21.908	-35160	1979	-0.74771	0.38698	-0.51211
3.998	21.906	-35151	1978.9	-0.7484	0.38747	-0.51201
4	21.904	-35150	1978.9	-0.74908	0.38796	-0.51191
4.002	21.905	-35159	1978.9	-0.74918	0.38864	-0.51191
4.004	21.901	-35164	1978.9	-0.74928	0.38933	-0.51191
4.006	21.903	-35167	1978.8	-0.74937	0.39001	-0.51191
4.008	21.903	-35167	1978.8	-0.74947	0.39069	-0.51191
4.01	21.899	-35164	1978.7	-0.74957	0.39138	-0.51191
4.012	21.89	-35164	1978.7	-0.74869	0.38991	-0.51191
4.014	21.881	-35166	1978.6	-0.74781	0.38845	-0.51191
4.016	21.878	-35168	1978.6	-0.74693	0.38698	-0.51191
4.018	21.877	-35169	1978.5	-0.74605	0.38552	-0.51191
4.02	21.869	-35169	1978.4	-0.74518	0.38406	-0.51191
4.022	21.874	-35168	1978.4	-0.74625	0.38542	-0.51084
4.024	21.892	-35169	1978.4	-0.74732	0.38679	-0.50976
4.026	21.896	-35171	1978.3	-0.7484	0.38816	-0.50869
4.028	21.893	-35173	1978.3	-0.74947	0.38952	-0.50762
4.03	21.897	-35175	1978.2	-0.75054	0.39089	-0.50654
4.032	21.91	-35176	1978.2	-0.74996	0.38991	-0.50801
4.034	21.907	-35176	1978.1	-0.74937	0.38894	-0.50947
4.036	21.9	-35175	1978.1	-0.74879	0.38796	-0.51094
4.038	21.893	-35173	1978	-0.7482	0.38698	-0.5124
4.04	21.888	-35172	1978	-0.74762	0.38601	-0.51386
4.042	21.884	-35171	1978	-0.74723	0.38542	-0.51347
4.044	21.868	-35172	1977.9	-0.74684	0.38484	-0.51308
4.046	21.856	-35175	1977.9	-0.74644	0.38425	-0.51269
4.048	21.85	-35180	1977.9	-0.74605	0.38367	-0.5123
4.05	21.843	-35189	1977.8	-0.74566	0.38308	-0.51191
4.052	21.84	-35191	1977.8	-0.74557	0.38308	-0.51162
4.054	21.844	-35187	1977.7	-0.74547	0.38308	-0.51133
4.056	21.854	-35186	1977.6	-0.74537	0.38308	-0.51103
4.058	21.858	-35189	1977.6	-0.74527	0.38308	-0.51074
4.06	21.86	-35189	1977.5	-0.74518	0.38308	-0.51045
4.062	21.87	-35185	1977.5	-0.74596	0.38259	-0.51094
4.064	21.879	-35185	1977.4	-0.74674	0.3821	-0.51142
4.066	21.877	-35189	1977.4	-0.74752	0.38162	-0.51191
4.068	21.868	-35191	1977.3	-0.7483	0.38113	-0.5124
4.07	21.861	-35190	1977.3	-0.74908	0.38064	-0.51289
4.072	21.862	-35187	1977.3	-0.74879	0.38084	-0.51289
4.074	21.862	-35184	1977.2	-0.74849	0.38103	-0.51289
4.076	21.863	-35183	1977.2	-0.7482	0.38123	-0.51289
4.078	21.866	-35184	1977.1	-0.74791	0.38142	-0.51289
4.08	21.868	-35187	1977.1	-0.74762	0.38162	-0.51289
4.082	21.868	-35193	1977	-0.74801	0.3823	-0.51299
4.084	21.88	-35194	1977	-0.7484	0.38298	-0.51308
4.086	21.897	-35190	1976.9	-0.74879	0.38367	-0.51318
4.088	21.9	-35189	1976.9	-0.74918	0.38435	-0.51328
4.09	21.898	-35191	1976.9	-0.74957	0.38503	-0.51338
4.092	21.901	-35194	1976.9	-0.74928	0.38552	-0.5125
4.094	21.907	-35197	1976.8	-0.74898	0.38601	-0.51162
4.096	21.924	-35198	1976.8	-0.74869	0.3865	-0.51074
4.098	21.927	-35199	1976.7	-0.7484	0.38698	-0.50986
4.1	21.921	-35200	1976.7	-0.7481	0.38747	-0.50898
4.102	21.922	-35202	1976.7	-0.74918	0.38864	-0.50889
4.104	21.924	-35201	1976.7	-0.75025	0.38981	-0.50879
4.106	21.924	-35198	1976.7	-0.75132	0.39099	-0.50869
4.108	21.921	-35197	1976.6	-0.7524	0.39216	-0.50859
4.11	21.923	-35198	1976.6	-0.75347	0.39333	-0.5085
4.112	21.928	-35198	1976.6	-0.75211	0.39196	-0.50898
4.114	21.928	-35196	1976.6	-0.75074	0.3906	-0.50947
4.116	21.925	-35199	1976.6	-0.74937	0.38923	-0.50996
4.118	21.929	-35206	1976.6	-0.74801	0.38786	-0.51045
4.12	21.929	-35209	1976.7	-0.74664	0.3865	-0.51094
4.122	21.928	-35207	1976.6	-0.74771	0.38659	-0.51172
4.124	21.927	-35210	1976.6	-0.74879	0.38669	-0.5125
4.126	21.925	-35216	1976.6	-0.74986	0.38679	-0.51328
4.128	21.926	-35217	1976.6	-0.75093	0.38689	-0.51406
4.13	21.934	-35211	1976.6	-0.75201	0.38698	-0.51484
4.132	21.938	-35210	1976.6	-0.75103	0.3863	-0.51455
4.134	21.933	-35213	1976.7	-0.75006	0.38562	-0.51425
4.136	21.932	-35213	1976.7	-0.74908	0.38493	-0.51396
4.138	21.934	-35209	1976.6	-0.7481	0.38425	-0.51367
4.14	21.937	-35207	1976.6	-0.74713	0.38357	-0.51338
4.142	21.942	-35208	1976.6	-0.74752	0.38474	-0.51338
4.144	21.945	-35211	1976.6	-0.74791	0.38591	-0.51338
4.146	21.948	-35216	1976.6	-0.7483	0.38708	-0.51338
4.148	21.944	-35217	1976.5	-0.74869	0.38825	-0.51338
4.15	21.932	-35214	1976.5	-0.74908	0.38942	-0.51338
4.152	21.93	-35217	1976.5	-0.74947	0.38913	-0.51357
4.154	21.938	-35226	1976.5	-0.74986	0.38884	-0.51377
4.156	21.943	-35228	1976.5	-0.75025	0.38855	-0.51396
4.158	21.941	-35225	1976.4	-0.75064	0.38825	-0.51416
4.16	21.939	-35223	1976.4	-0.75103	0.38796	-0.51435
4.162	21.943	-35222	1976.4	-0.75113	0.38786	-0.51455
4.164	21.933	-35222	1976.3	-0.75123	0.38776	-0.51474
4.166	21.906	-35225	1976.3	-0.75132	0.38767	-0.51494
4.168	21.872	-35226	1976.2	-0.75142	0.38757	-0.51513
4.17	21.832	-35227	1976.2	-0.75152	0.38747	-0.51533
4.172	21.782	-35227	1976.1	-0.75113	0.38728	-0.51494
4.174	21.721	-35227	1976.1	-0.75074	0.38708	-0.51455
4.176	21.661	-35228	1976	-0.75035	0.38689	-0.51416
4.178	21.599	-35229	1976	-0.74996	0.38669	-0.51377
4.18	21.528	-35231	1976	-0.74957	0.3865	-0.51338
4.182	21.447	-35236	1975.9	-0.74869	0.38532	-0.51279
4.184	21.366	-35236	1975.9	-0.74781	0.38415	-0.5122
4.186	21.296	-35230	1975.8	-0.74693	0.38298	-0.51162
4.188	21.244	-35224	1975.7	-0.74605	0.38181	-0.51103
4.19	21.211	-35219	1975.6	-0.74518	0.38064	-0.51045
4.192	21.182	-35221	1975.5	-0.74566	0.38113	-0.51045
4.194	21.172	-35228	1975.5	-0.74615	0.38162	-0.51045
4.196	21.182	-35232	1975.4	-0.74664	0.3821	-0.51045
4.198	21.216	-35233	1975.4	-0.74713	0.38259	-0.51045
4.2	21.273	-35233	1975.3	-0.74762	0.38308	-0.51045
4.202	21.347	-35233	1975.3	-0.74713	0.38367	-0.51123
4.204	21.443	-35235	1975.2	-0.74664	0.38425	-0.51201
4.206	21.557	-35238	1975.2	-0.74615	0.38484	-0.51279
4.208	21.687	-35238	1975.2	-0.74566	0.38542	-0.51357
4.21	21.786	-35236	1975.1	-0.74518	0.38601	-0.51435
4.212	21.855	-35235	1975.1	-0.74518	0.38474	-0.51299
4.214	21.886	-35236	1975.1	-0.74518	0.38347	-0.51162
4.216	21.889	-35236	1975.1	-0.74518	0.3822	-0.51025
4.218	21.893	-35235	1975.1	-0.74518	0.38093	-0.50889
4.22	21.905	-35235	1975.1	-0.74518	0.37966	-0.50752
4.222	21.91	-35236	1975	-0.74605	0.38005	-0.50859
4.224	21.91	-35239	1975	-0.74693	0.38044	-0.50967
4.226	21.911	-35243	1974.9	-0.74781	0.38084	-0.51074
4.228	21.91	-35244	1974.9	-0.74869	0.38123	-0.51181
4.23	21.908	-35241	1975	-0.74957	0.38162	-0.51289
4.232	21.903	-35244	1974.9	-0.74869	0.38152	-0.51201
4.234	21.897	-35251	1974.8	-0.74781	0.38142	-0.51113
4.236	21.894	-35250	1974.8	-0.74693	0.38132	-0.51025
4.238	21.897	-35241	1974.9	-0.74605	0.38123	-0.50937
4.24	21.897	-35238	1974.9	-0.74518	0.38113	-0.5085
4.242	21.897	-35243	1974.8	-0.74644	0.38162	-0.5084
4.244	21.896	-35248	1974.8	-0.74771	0.3821	-0.5083
4.246	21.895	-35252	1974.7	-0.74898	0.38259	-0.5082
4.248	21.891	-35250	1974.8	-0.75025	0.38308	-0.50811
4.25	21.886	-35244	1974.8	-0.75152	0.38357	-0.50801
4.252	21.882	-35244	1974.7	-0.75172	0.38425	-0.50928
4.254	21.877	-35250	1974.7	-0.75191	0.38493	-0.51055
4.256	21.875	-35254	1974.7	-0.75211	0.38562	-0.51181
4.258	21.877	-35258	1974.7	-0.7523	0.3863	-0.51308
4.26	21.877	-35259	1974.8	-0.7525	0.38698	-0.51435
4.262	21.885	-35255	1974.7	-0.75201	0.38669	-0.51445
4.264	21.889	-35253	1974.6	-0.75152	0.3864	-0.51455
4.266	21.888	-35253	1974.5	-0.75103	0.38611	-0.51464
4.268	21.886	-35253	1974.5	-0.75054	0.38581	-0.51474
4.27	21.881	-35254	1974.5	-0.75006	0.38552	-0.51484
4.272	21.876	-35256	1974.4	-0.75035	0.38542	-0.51523
4.274	21.879	-35260	1974.4	-0.75064	0.38532	-0.51562
4.276	21.882	-35261	1974.3	-0.75093	0.38523	-0.51601
4.278	21.882	-35260	1974.2	-0.75123	0.38513	-0.5164
4.28	21.879	-35262	1974.2	-0.75152	0.38503	-0.51679
4.282	21.88	-35269	1974.1	-0.75142	0.38542	-0.5164
4.284	21.88	-35270	1974	-0.75132	0.38581	-0.51601
4.286	21.875	-35264	1974	-0.75123	0.3862	-0.51562
4.288	21.868	-35260	1973.9	-0.75113	0.38659	-0.51523
4.29	21.863	-35258	1973.8	-0.75103	0.38698	-0.51484
4.292	21.857	-35257	1973.8	-0.75074	0.38679	-0.51464
4.294	21.852	-35258	1973.7	-0.75045	0.38659	-0.51445
4.296	21.855	-35260	1973.6	-0.75015	0.3864	-0.51425
4.298	21.87	-35263	1973.6	-0.74986	0.3862	-0.51406
4.3	21.872	-35268	1973.5	-0.74957	0.38601	-0.51386
4.302	21.864	-35273	1973.5	-0.74908	0.38552	-0.51377
4.304	21.859	-35275	1973.4	-0.74859	0.38503	-0.51367
4.306	21.861	-35273	1973.4	-0.7481	0.38454	-0.51357
4.308	21.864	-35272	1973.3	-0.74762	0.38406	-0.51347
4.31	21.854	-35271	1973.2	-0.74713	0.38357	-0.51338
4.312	21.844	-35269	1973.2	-0.74625	0.38415	-0.51299
4.314	21.839	-35267	1973.2	-0.74537	0.38474	-0.5126
4.316	21.834	-35265	1973.2	-0.74449	0.38532	-0.5122
4.318	21.831	-35265	1973.2	-0.74361	0.38591	-0.51181
4.32	21.835	-35266	1973.2	-0.74274	0.3865	-0.51142
4.322	21.835	-35269	1973.1	-0.74371	0.38601	-0.51181
4.324	21.829	-35271	1973.1	-0.74469	0.38552	-0.5122
4.326	21.828	-35272	1973	-0.74566	0.38503	-0.5126
4.328	21.822	-35271	1973	-0.74664	0.38454	-0.51299
4.33	21.816	-35270	1973	-0.74762	0.38406	-0.51338
4.332	21.818	-35272	1973	-0.74723	0.38425	-0.51279
4.334	21.814	-35278	1973	-0.74684	0.38445	-0.5122
4.336	21.805	-35282	1973	-0.74644	0.38464	-0.51162
4.338	21.801	-35284	1973.1	-0.74605	0.38484	-0.51103
4.34	21.799	-35284	1973.1	-0.74566	0.38503	-0.51045
4.342	21.795	-35283	1973.1	-0.74693	0.38562	-0.51123
4.344	21.791	-35283	1973.2	-0.7482	0.3862	-0.51201
4.346	21.785	-35284	1973.2	-0.74947	0.38679	-0.51279
4.348	21.78	-35284	1973.2	-0.75074	0.38737	-0.51357
4.35	21.779	-35284	1973.2	-0.75201	0.38796	-0.51435
4.352	21.78	-35284	1973.2	-0.75211	0.38884	-0.51357
4.354	21.776	-35283	1973.2	-0.7522	0.38972	-0.51279
4.356	21.77	-35285	1973.2	-0.7523	0.3906	-0.51201
4.358	21.767	-35290	1973.2	-0.7524	0.39147	-0.51123
4.36	21.759	-35293	1973.3	-0.7525	0.39235	-0.51045
4.362	21.758	-35292	1973.3	-0.75142	0.39099	-0.51142
4.364	21.762	-35291	1973.3	-0.75035	0.38962	-0.5124
4.366	21.748	-35287	1973.3	-0.74928	0.38825	-0.51338
4.368	21.738	-35287	1973.3	-0.7482	0.38689	-0.51435
4.37	21.736	-35290	1973.4	-0.74713	0.38552	-0.51533
4.372	21.726	-35295	1973.4	-0.74742	0.3863	-0.51406
4.374	21.714	-35301	1973.4	-0.74771	0.38708	-0.51279
4.376	21.714	-35305	1973.4	-0.74801	0.38786	-0.51152
4.378	21.709	-35306	1973.5	-0.7483	0.38864	-0.51025
4.38	21.7	-35306	1973.5	-0.74859	0.38942	-0.50898
4.382	21.69	-35303	1973.6	-0.7484	0.38855	-0.51025
4.384	21.683	-35301	1973.7	-0.7482	0.38767	-0.51152
4.386	21.674	-35298	1973.8	-0.74801	0.38679	-0.51279
4.388	21.669	-35300	1973.9	-0.74781	0.38591	-0.51406
4.39	21.67	-35306	1974	-0.74762	0.38503	-0.51533
4.392	21.671	-35308	1974.1	-0.74771	0.38552	-0.51504
4.394	21.665	-35307	1974.2	-0.74781	0.38601	-0.51474
4.396	21.655	-35305	1974.3	-0.74791	0.3865	-0.51445
4.398	21.65	-35302	1974.5	-0.74801	0.38698	-0.51416
4.4	21.647	-35303	1974.6	-0.7481	0.38747	-0.51386
4.402	21.643	-35309	1974.7	-0.7484	0.38757	-0.51386
4.404	21.639	-35310	1974.8	-0.74869	0.38767	-0.51386
4.406	21.639	-35306	1974.9	-0.74898	0.38776	-0.51386
4.408	21.642	-35302	1975	-0.74928	0.38786	-0.51386
4.41	21.643	-35298	1975.1	-0.74957	0.38796	-0.51386
4.412	21.644	-35298	1975.2	-0.74957	0.38698	-0.51425
4.414	21.639	-35302	1975.3	-0.74957	0.38601	-0.51464
4.416	21.626	-35304	1975.4	-0.74957	0.38503	-0.51504
4.418	21.621	-35306	1975.5	-0.74957	0.38406	-0.51543
4.42	21.625	-35306	1975.6	-0.74957	0.38308	-0.51582
4.422	21.623	-35304	1975.7	-0.74937	0.38484	-0.51474
4.424	21.623	-35301	1975.8	-0.74918	0.38659	-0.51367
4.426	21.626	-35296	1975.9	-0.74898	0.38835	-0.5126
4.428	21.628	-35292	1975.9	-0.74879	0.39011	-0.51152
4.43	21.63	-35288	1976	-0.74859	0.39186	-0.51045
4.432	21.63	-35285	1976.1	-0.74869	0.3904	-0.51142
4.434	21.63	-35282	1976.1	-0.74879	0.38894	-0.5124
4.436	21.629	-35282	1976.2	-0.74888	0.38747	-0.51338
4.438	21.63	-35286	1976.3	-0.74898	0.38601	-0.51435
4.44	21.63	-35287	1976.5	-0.74908	0.38454	-0.51533
4.442	21.643	-35286	1976.6	-0.7481	0.38396	-0.51464
4.444	21.658	-35284	1976.7	-0.74713	0.38337	-0.51396
4.446	21.654	-35281	1976.8	-0.74615	0.38279	-0.51328
4.448	21.663	-35276	1976.9	-0.74518	0.3822	-0.5126
4.45	21.676	-35270	1977	-0.7442	0.38162	-0.51191
4.452	21.683	-35266	1977.2	-0.7444	0.38181	-0.51142
4.454	21.687	-35262	1977.3	-0.74459	0.38201	-0.51094
4.456	21.702	-35260	1977.5	-0.74479	0.3822	-0.51045
4.458	21.716	-35258	1977.7	-0.74498	0.3824	-0.50996
4.46	21.725	-35260	1977.9	-0.74518	0.38259	-0.50947
4.462	21.733	-35266	1978.1	-0.74635	0.38279	-0.50957
4.464	21.743	-35267	1978.2	-0.74752	0.38298	-0.50967
4.466	21.757	-35264	1978.4	-0.74869	0.38318	-0.50976
4.468	21.758	-35260	1978.6	-0.74986	0.38337	-0.50986
4.47	21.764	-35255	1978.8	-0.75103	0.38357	-0.50996
4.472	21.775	-35254	1979	-0.74976	0.38259	-0.50967
4.474	21.789	-35255	1979.1	-0.74849	0.38162	-0.50937
4.476	21.8	-35254	1979.3	-0.74723	0.38064	-0.50908
4.478	21.808	-35249	1979.5	-0.74596	0.37966	-0.50879
4.48	21.818	-35245	1979.6	-0.74469	0.37869	-0.5085
4.482	21.831	-35241	1979.7	-0.74518	0.37947	-0.50918
4.484	21.84	-35238	1979.8	-0.74566	0.38025	-0.50986
4.486	21.851	-35236	1979.9	-0.74615	0.38103	-0.51055
4.488	21.86	-35233	1980.1	-0.74664	0.38181	-0.51123
4.49	21.863	-35227	1980.2	-0.74713	0.38259	-0.51191
4.492	21.861	-35225	1980.3	-0.74771	0.38308	-0.51269
4.494	21.864	-35224	1980.3	-0.7483	0.38357	-0.51347
4.496	21.875	-35225	1980.4	-0.74888	0.38406	-0.51425
4.498	21.88	-35226	1980.4	-0.74947	0.38454	-0.51504
4.5	21.88	-35224	1980.4	-0.75006	0.38503	-0.51582
4.502	21.888	-35218	1980.5	-0.74967	0.38591	-0.51523
4.504	21.896	-35217	1980.5	-0.74928	0.38679	-0.51464
4.506	21.897	-35220	1980.5	-0.74888	0.38767	-0.51406
4.508	21.896	-35222	1980.5	-0.74849	0.38855	-0.51347
4.51	21.897	-35223	1980.5	-0.7481	0.38942	-0.51289
4.512	21.902	-35221	1980.5	-0.7483	0.38923	-0.51347
4.514	21.905	-35216	1980.5	-0.74849	0.38903	-0.51406
4.516	21.906	-35213	1980.5	-0.74869	0.38884	-0.51464
4.518	21.91	-35214	1980.5	-0.74888	0.38864	-0.51523
4.52	21.918	-35214	1980.5	-0.74908	0.38845	-0.51582
4.522	21.922	-35213	1980.4	-0.74879	0.38776	-0.51533
4.524	21.909	-35212	1980.4	-0.74849	0.38708	-0.51484
4.526	21.915	-35211	1980.4	-0.7482	0.3864	-0.51435
4.528	21.914	-35210	1980.4	-0.74791	0.38572	-0.51386
4.53	21.909	-35208	1980.5	-0.74762	0.38503	-0.51338
4.532	21.906	-35207	1980.5	-0.74781	0.38572	-0.51299
4.534	21.904	-35207	1980.5	-0.74801	0.3864	-0.5126
4.536	21.912	-35210	1980.5	-0.7482	0.38708	-0.5122
4.538	21.92	-35215	1980.5	-0.7484	0.38776	-0.51181
4.54	21.922	-35213	1980.5	-0.74859	0.38845	-0.51142
4.542	21.918	-35203	1980.5	-0.7483	0.38825	-0.51133
4.544	21.912	-35196	1980.5	-0.74801	0.38806	-0.51123
4.546	21.914	-35191	1980.5	-0.74771	0.38786	-0.51113
4.548	21.928	-35188	1980.6	-0.74742	0.38767	-0.51103
4.55	21.936	-35186	1980.6	-0.74713	0.38747	-0.51094
4.552	21.93	-35191	1980.6	-0.74732	0.38786	-0.51123
4.554	21.924	-35203	1980.6	-0.74752	0.38825	-0.51152
4.556	21.922	-35210	1980.7	-0.74771	0.38864	-0.51181
4.558	21.917	-35210	1980.7	-0.74791	0.38903	-0.51211
4.56	21.918	-35210	1980.8	-0.7481	0.38942	-0.5124
4.562	21.918	-35208	1980.7	-0.74752	0.38894	-0.5124
4.564	21.921	-35204	1980.7	-0.74693	0.38845	-0.5124
4.566	21.925	-35198	1980.7	-0.74635	0.38796	-0.5124
4.568	21.931	-35198	1980.7	-0.74576	0.38747	-0.5124
4.57	21.929	-35203	1980.7	-0.74518	0.38698	-0.5124
4.572	21.921	-35207	1980.7	-0.74547	0.3864	-0.51201
4.574	21.919	-35211	1980.6	-0.74576	0.38581	-0.51162
4.576	21.921	-35210	1980.6	-0.74605	0.38523	-0.51123
4.578	21.921	-35204	1980.5	-0.74635	0.38464	-0.51084
4.58	21.92	-35202	1980.4	-0.74664	0.38406	-0.51045
4.582	21.921	-35204	1980.4	-0.74742	0.38425	-0.51142
4.584	21.923	-35206	1980.3	-0.7482	0.38445	-0.5124
4.586	21.921	-35209	1980.3	-0.74898	0.38464	-0.51338
4.588	21.914	-35209	1980.2	-0.74976	0.38484	-0.51435
4.59	21.912	-35204	1980.1	-0.75054	0.38503	-0.51533
4.592	21.919	-35204	1980.1	-0.75045	0.38523	-0.51474
4.594	21.922	-35210	1980.1	-0.75035	0.38542	-0.51416
4.596	21.917	-35213	1980.1	-0.75025	0.38562	-0.51357
