t	ekg	optical	pressure	accel_x	accel_y	accel_z
0	83.013	-28380	2122.2	-0.85254	0.42846	-0.25083
0.002	83.007	-28380	2122.2	-0.85322	0.42749	-0.25083
0.004	83.007	-28380	2122.2	-0.8539	0.42651	-0.25083
0.006	83.004	-28374	2122.2	-0.85459	0.42554	-0.25083
0.008	82.999	-28368	2122.1	-0.85527	0.42456	-0.25083
0.01	82.995	-28375	2122.1	-0.85595	0.42358	-0.25083
0.012	82.995	-28381	2122.1	-0.85615	0.4231	-0.25112
0.014	83.007	-28377	2122.1	-0.85634	0.42261	-0.25142
0.016	83.014	-28372	2122.1	-0.85654	0.42212	-0.25171
0.018	83.012	-28373	2122	-0.85673	0.42163	-0.252
0.02	83.009	-28375	2122	-0.85693	0.42114	-0.2523
0.022	83.003	-28383	2122	-0.85634	0.42144	-0.25191
0.024	82.995	-28392	2122	-0.85576	0.42173	-0.25152
0.026	82.989	-28391	2121.9	-0.85517	0.42202	-0.25112
0.028	82.993	-28389	2121.9	-0.85459	0.42232	-0.25073
0.03	83	-28383	2121.9	-0.854	0.42261	-0.25034
0.032	82.997	-28377	2121.9	-0.8541	0.42329	-0.25025
0.034	82.988	-28380	2121.8	-0.8542	0.42397	-0.25015
0.036	82.977	-28382	2121.8	-0.85429	0.42466	-0.25005
0.038	82.975	-28389	2121.8	-0.85439	0.42534	-0.24995
0.04	82.973	-28396	2121.8	-0.85449	0.42602	-0.24986
0.042	82.975	-28384	2121.8	-0.85478	0.42593	-0.24976
0.044	82.977	-28372	2121.7	-0.85507	0.42583	-0.24966
0.046	82.98	-28379	2121.7	-0.85537	0.42573	-0.24956
0.048	82.977	-28386	2121.7	-0.85566	0.42563	-0.24947
0.05	82.971	-28388	2121.7	-0.85595	0.42554	-0.24937
0.052	82.966	-28389	2121.6	-0.85537	0.42573	-0.24986
0.054	82.967	-28384	2121.5	-0.85478	0.42593	-0.25034
0.056	82.969	-28378	2121.5	-0.8542	0.42612	-0.25083
0.058	82.968	-28379	2121.5	-0.85361	0.42632	-0.25132
0.06	82.963	-28381	2121.5	-0.85302	0.42651	-0.25181
0.062	82.961	-28388	2121.5	-0.85361	0.42554	-0.25161
0.064	82.963	-28395	2121.5	-0.8542	0.42456	-0.25142
0.066	82.963	-28398	2121.5	-0.85478	0.42358	-0.25122
0.068	82.96	-28401	2121.4	-0.85537	0.42261	-0.25103
0.07	82.961	-28398	2121.4	-0.85595	0.42163	-0.25083
0.072	82.959	-28394	2121.4	-0.85595	0.42124	-0.25083
0.074	82.955	-28394	2121.4	-0.85595	0.42085	-0.25083
0.076	82.955	-28394	2121.4	-0.85595	0.42046	-0.25083
0.078	82.953	-28398	2121.3	-0.85595	0.42007	-0.25083
0.08	82.945	-28401	2121.3	-0.85595	0.41968	-0.25083
0.082	82.936	-28400	2121.3	-0.85449	0.42124	-0.25005
0.084	82.933	-28398	2121.2	-0.85302	0.4228	-0.24927
0.086	82.931	-28396	2121.1	-0.85156	0.42436	-0.24849
0.088	82.925	-28393	2121.1	-0.8501	0.42593	-0.24771
0.09	82.921	-28388	2121.1	-0.84863	0.42749	-0.24693
0.092	82.926	-28383	2121.1	-0.84892	0.42778	-0.24722
0.094	82.923	-28386	2121.1	-0.84922	0.42807	-0.24751
0.096	82.911	-28390	2121	-0.84951	0.42837	-0.24781
0.098	82.904	-28396	2121	-0.8498	0.42866	-0.2481
0.1	82.9	-28403	2121	-0.8501	0.42895	-0.24839
0.102	82.898	-28401	2120.9	-0.85117	0.42778	-0.24898
0.104	82.896	-28399	2120.9	-0.85224	0.42661	-0.24956
0.106	82.891	-28396	2120.8	-0.85332	0.42544	-0.25015
0.108	82.883	-28393	2120.8	-0.85439	0.42427	-0.25073
0.11	82.873	-28394	2120.8	-0.85546	0.4231	-0.25132
0.112	82.866	-28395	2120.8	-0.85615	0.42251	-0.25142
0.114	82.865	-28398	2120.8	-0.85683	0.42192	-0.25152
0.116	82.869	-28401	2120.8	-0.85751	0.42134	-0.25161
0.118	82.864	-28401	2120.8	-0.8582	0.42075	-0.25171
0.12	82.849	-28400	2120.8	-0.85888	0.42017	-0.25181
0.122	82.844	-28403	2120.7	-0.85878	0.42075	-0.25132
0.124	82.837	-28406	2120.7	-0.85868	0.42134	-0.25083
0.126	82.838	-28408	2120.7	-0.85859	0.42192	-0.25034
0.128	82.836	-28409	2120.7	-0.85849	0.42251	-0.24986
0.13	82.823	-28407	2120.7	-0.85839	0.4231	-0.24937
0.132	82.811	-28405	2120.7	-0.85771	0.42261	-0.24995
0.134	82.808	-28403	2120.7	-0.85703	0.42212	-0.25054
0.136	82.804	-28402	2120.8	-0.85634	0.42163	-0.25112
0.138	82.8	-28402	2120.9	-0.85566	0.42114	-0.25171
0.14	82.803	-28402	2121	-0.85498	0.42066	-0.2523
0.142	82.81	-28405	2121.1	-0.85361	0.42192	-0.25093
0.144	82.81	-28407	2121.2	-0.85224	0.42319	-0.24956
0.146	82.805	-28409	2121.3	-0.85088	0.42446	-0.2482
0.148	82.798	-28410	2121.5	-0.84951	0.42573	-0.24683
0.15	82.795	-28409	2121.7	-0.84814	0.427	-0.24546
0.152	82.795	-28408	2121.9	-0.84892	0.4272	-0.24703
0.154	82.796	-28409	2122.1	-0.84971	0.42739	-0.24859
0.156	82.802	-28410	2122.4	-0.85049	0.42759	-0.25015
0.158	82.809	-28406	2122.6	-0.85127	0.42778	-0.25171
0.16	82.812	-28402	2122.8	-0.85205	0.42798	-0.25327
0.162	82.815	-28405	2123	-0.85322	0.4271	-0.25269
0.164	82.817	-28408	2123.2	-0.85439	0.42622	-0.2521
0.166	82.815	-28413	2123.5	-0.85556	0.42534	-0.25152
0.168	82.819	-28417	2123.7	-0.85673	0.42446	-0.25093
0.17	82.826	-28411	2124	-0.8579	0.42358	-0.25034
0.172	82.829	-28404	2124.2	-0.858	0.42329	-0.25152
0.174	82.828	-28403	2124.5	-0.8581	0.423	-0.25269
0.176	82.825	-28403	2124.7	-0.8582	0.42271	-0.25386
0.178	82.823	-28403	2125	-0.85829	0.42241	-0.25503
0.18	82.821	-28403	2125.2	-0.85839	0.42212	-0.2562
0.182	82.822	-28403	2125.4	-0.85781	0.42163	-0.25571
0.184	82.826	-28403	2125.6	-0.85722	0.42114	-0.25522
0.186	82.831	-28410	2125.8	-0.85664	0.42066	-0.25474
0.188	82.836	-28416	2126	-0.85605	0.42017	-0.25425
0.19	82.846	-28420	2126.3	-0.85546	0.41968	-0.25376
0.192	82.852	-28423	2126.5	-0.85488	0.42036	-0.25396
0.194	82.863	-28411	2126.7	-0.85429	0.42105	-0.25415
0.196	82.875	-28399	2126.9	-0.85371	0.42173	-0.25435
0.198	82.883	-28401	2127.1	-0.85312	0.42241	-0.25454
0.2	82.887	-28403	2127.3	-0.85254	0.4231	-0.25474
0.202	82.894	-28402	2127.5	-0.85234	0.42261	-0.25493
0.204	82.907	-28402	2127.7	-0.85215	0.42212	-0.25513
0.206	82.918	-28401	2127.9	-0.85195	0.42163	-0.25532
0.208	82.925	-28400	2128.2	-0.85176	0.42114	-0.25552
0.21	82.927	-28401	2128.4	-0.85156	0.42066	-0.25571
0.212	82.935	-28402	2128.6	-0.85107	0.42085	-0.25591
0.214	82.944	-28401	2128.8	-0.85058	0.42105	-0.2561
0.216	82.951	-28400	2129	-0.8501	0.42124	-0.2563
0.218	82.954	-28399	2129.2	-0.84961	0.42144	-0.25649
0.22	82.964	-28398	2129.4	-0.84912	0.42163	-0.25669
0.222	82.978	-28399	2129.5	-0.8501	0.42114	-0.25649
0.224	82.985	-28400	2129.7	-0.85107	0.42066	-0.2563
0.226	82.991	-28400	2129.9	-0.85205	0.42017	-0.2561
0.228	82.999	-28399	2130	-0.85302	0.41968	-0.25591
0.23	83	-28393	2130.2	-0.854	0.41919	-0.25571
0.232	82.994	-28386	2130.3	-0.85488	0.41968	-0.25542
0.234	82.996	-28388	2130.4	-0.85576	0.42017	-0.25513
0.236	83.001	-28390	2130.5	-0.85664	0.42066	-0.25483
0.238	83.009	-28392	2130.5	-0.85751	0.42114	-0.25454
0.24	83.022	-28393	2130.6	-0.85839	0.42163	-0.25425
0.242	83.029	-28391	2130.7	-0.85771	0.42153	-0.25415
0.244	83.029	-28389	2130.7	-0.85703	0.42144	-0.25405
0.246	83.029	-28385	2130.8	-0.85634	0.42134	-0.25396
0.248	83.027	-28381	2130.8	-0.85566	0.42124	-0.25386
0.25	83.026	-28379	2130.8	-0.85498	0.42114	-0.25376
0.252	83.029	-28376	2130.8	-0.85537	0.42114	-0.25347
0.254	83.032	-28376	2130.8	-0.85576	0.42114	-0.25317
0.256	83.038	-28377	2130.8	-0.85615	0.42114	-0.25288
0.258	83.044	-28377	2130.7	-0.85654	0.42114	-0.25259
0.26	83.049	-28376	2130.7	-0.85693	0.42114	-0.2523
0.262	83.051	-28376	2130.7	-0.85712	0.42114	-0.2521
0.264	83.05	-28376	2130.7	-0.85732	0.42114	-0.25191
0.266	83.049	-28376	2130.6	-0.85751	0.42114	-0.25171
0.268	83.045	-28376	2130.6	-0.85771	0.42114	-0.25152
0.27	83.041	-28375	2130.5	-0.8579	0.42114	-0.25132
0.272	83.04	-28374	2130.5	-0.85683	0.423	-0.25171
0.274	83.043	-28372	2130.5	-0.85576	0.42485	-0.2521
0.276	83.047	-28371	2130.4	-0.85468	0.42671	-0.25249
0.278	83.045	-28370	2130.3	-0.85361	0.42856	-0.25288
0.28	83.041	-28370	2130.2	-0.85254	0.43042	-0.25327
0.282	83.04	-28376	2130.2	-0.85293	0.42924	-0.25288
0.284	83.044	-28382	2130.1	-0.85332	0.42807	-0.25249
0.286	83.041	-28382	2130	-0.85371	0.4269	-0.2521
0.288	83.038	-28381	2130	-0.8541	0.42573	-0.25171
0.29	83.039	-28378	2129.9	-0.85449	0.42456	-0.25132
0.292	83.041	-28375	2129.8	-0.85371	0.42563	-0.25142
0.294	83.041	-28374	2129.8	-0.85293	0.42671	-0.25152
0.296	83.04	-28373	2129.7	-0.85215	0.42778	-0.25161
0.298	83.044	-28372	2129.6	-0.85136	0.42885	-0.25171
0.3	83.04	-28372	2129.5	-0.85058	0.42993	-0.25181
0.302	83.039	-28372	2129.4	-0.85136	0.42905	-0.25122
0.304	83.037	-28373	2129.3	-0.85215	0.42817	-0.25064
0.306	83.038	-28369	2129.3	-0.85293	0.42729	-0.25005
0.308	83.038	-28365	2129.2	-0.85371	0.42641	-0.24947
0.31	83.037	-28361	2129.1	-0.85449	0.42554	-0.24888
0.312	83.037	-28357	2129	-0.8542	0.42622	-0.24966
0.314	83.035	-28361	2128.9	-0.8539	0.4269	-0.25044
0.316	83.033	-28364	2128.9	-0.85361	0.42759	-0.25122
0.318	83.029	-28364	2128.8	-0.85332	0.42827	-0.252
0.32	83.022	-28363	2128.7	-0.85302	0.42895	-0.25278
0.322	83.017	-28364	2128.6	-0.85341	0.42788	-0.25249
0.324	83.017	-28366	2128.5	-0.8538	0.4268	-0.2522
0.326	83.023	-28365	2128.4	-0.8542	0.42573	-0.25191
0.328	83.029	-28364	2128.3	-0.85459	0.42466	-0.25161
0.33	83.028	-28369	2128.2	-0.85498	0.42358	-0.25132
0.332	83.03	-28375	2128.1	-0.85468	0.42466	-0.25249
0.334	83.04	-28368	2128	-0.85439	0.42573	-0.25366
0.336	83.044	-28360	2127.9	-0.8541	0.4268	-0.25483
0.338	83.041	-28366	2127.8	-0.8538	0.42788	-0.256
0.34	83.036	-28372	2127.8	-0.85351	0.42895	-0.25718
0.342	83.035	-28373	2127.7	-0.85439	0.42817	-0.25571
0.344	83.04	-28374	2127.6	-0.85527	0.42739	-0.25425
0.346	83.042	-28367	2127.5	-0.85615	0.42661	-0.25278
0.348	83.04	-28360	2127.4	-0.85703	0.42583	-0.25132
0.35	83.039	-28359	2127.3	-0.8579	0.42505	-0.24986
0.352	83.04	-28358	2127.2	-0.85664	0.42495	-0.25005
0.354	83.039	-28359	2127.1	-0.85537	0.42485	-0.25025
0.356	83.042	-28359	2127	-0.8541	0.42476	-0.25044
0.358	83.042	-28355	2126.9	-0.85283	0.42466	-0.25064
0.36	83.037	-28352	2126.8	-0.85156	0.42456	-0.25083
0.362	83.039	-28355	2126.7	-0.85185	0.42397	-0.25073
0.364	83.037	-28359	2126.6	-0.85215	0.42339	-0.25064
0.366	83.038	-28360	2126.5	-0.85244	0.4228	-0.25054
0.368	83.039	-28361	2126.4	-0.85273	0.42222	-0.25044
0.37	83.043	-28360	2126.3	-0.85302	0.42163	-0.25034
0.372	83.041	-28359	2126.3	-0.85332	0.42173	-0.24976
0.374	83.042	-28358	2126.2	-0.85361	0.42183	-0.24917
0.376	83.046	-28357	2126.1	-0.8539	0.42192	-0.24859
0.378	83.035	-28358	2126	-0.8542	0.42202	-0.248
0.38	83.032	-28359	2126	-0.85449	0.42212	-0.24742
0.382	83.039	-28366	2125.9	-0.8539	0.4231	-0.248
0.384	83.043	-28373	2125.9	-0.85332	0.42407	-0.24859
0.386	83.043	-28371	2125.8	-0.85273	0.42505	-0.24917
0.388	83.049	-28368	2125.8	-0.85215	0.42602	-0.24976
0.39	83.048	-28364	2125.7	-0.85156	0.427	-0.25034
0.392	83.042	-28359	2125.7	-0.85156	0.42671	-0.25025
0.394	83.034	-28369	2125.6	-0.85156	0.42641	-0.25015
0.396	83.034	-28380	2125.6	-0.85156	0.42612	-0.25005
0.398	83.037	-28381	2125.6	-0.85156	0.42583	-0.24995
0.4	83.041	-28383	2125.6	-0.85156	0.42554	-0.24986
0.402	83.035	-28378	2125.6	-0.85195	0.42456	-0.25015
0.404	83.037	-28374	2125.6	-0.85234	0.42358	-0.25044
0.406	83.044	-28368	2125.5	-0.85273	0.42261	-0.25073
0.408	83.049	-28363	2125.5	-0.85312	0.42163	-0.25103
0.41	83.054	-28370	2125.5	-0.85351	0.42066	-0.25132
0.412	83.055	-28376	2125.6	-0.8542	0.42007	-0.25249
0.414	83.053	-28378	2125.6	-0.85488	0.41948	-0.25366
0.416	83.051	-28379	2125.6	-0.85556	0.4189	-0.25483
0.418	83.05	-28373	2125.6	-0.85624	0.41831	-0.256
0.42	83.053	-28368	2125.6	-0.85693	0.41773	-0.25718
0.422	83.058	-28370	2125.6	-0.85683	0.41831	-0.2564
0.424	83.062	-28372	2125.7	-0.85673	0.4189	-0.25561
0.426	83.062	-28374	2125.7	-0.85664	0.41948	-0.25483
0.428	83.055	-28375	2125.7	-0.85654	0.42007	-0.25405
0.43	83.05	-28374	2125.7	-0.85644	0.42066	-0.25327
0.432	83.057	-28373	2125.7	-0.85683	0.42046	-0.25356
0.434	83.063	-28373	2125.7	-0.85722	0.42027	-0.25386
0.436	83.07	-28374	2125.7	-0.85761	0.42007	-0.25415
0.438	83.074	-28371	2125.8	-0.858	0.41988	-0.25444
0.44	83.074	-28368	2125.8	-0.85839	0.41968	-0.25474
0.442	83.072	-28373	2125.9	-0.85829	0.41997	-0.25474
0.444	83.07	-28379	2125.9	-0.8582	0.42027	-0.25474
0.446	83.064	-28376	2125.9	-0.8581	0.42056	-0.25474
0.448	83.062	-28374	2125.9	-0.858	0.42085	-0.25474
0.45	83.068	-28376	2125.9	-0.8579	0.42114	-0.25474
0.452	83.071	-28378	2125.9	-0.85761	0.42124	-0.25386
0.454	83.074	-28375	2125.9	-0.85732	0.42134	-0.25298
0.456	83.079	-28372	2125.9	-0.85703	0.42144	-0.2521
0.458	83.075	-28369	2126	-0.85673	0.42153	-0.25122
0.46	83.075	-28366	2126.1	-0.85644	0.42163	-0.25034
0.462	83.069	-28370	2126.1	-0.85693	0.42144	-0.25142
0.464	83.071	-28373	2126.1	-0.85742	0.42124	-0.25249
0.466	83.073	-28368	2126.1	-0.8579	0.42105	-0.25356
0.468	83.076	-28363	2126.2	-0.85839	0.42085	-0.25464
0.47	83.077	-28369	2126.2	-0.85888	0.42066	-0.25571
0.472	83.082	-28375	2126.2	-0.85908	0.42134	-0.25474
0.474	83.084	-28371	2126.2	-0.85927	0.42202	-0.25376
0.476	83.083	-28368	2126.2	-0.85947	0.42271	-0.25278
0.478	83.083	-28367	2126.3	-0.85966	0.42339	-0.25181
0.48	83.08	-28366	2126.3	-0.85986	0.42407	-0.25083
0.482	83.075	-28370	2126.3	-0.85956	0.42368	-0.25103
0.484	83.081	-28375	2126.4	-0.85927	0.42329	-0.25122
0.486	83.087	-28372	2126.4	-0.85898	0.4229	-0.25142
0.488	83.09	-28368	2126.4	-0.85868	0.42251	-0.25161
0.49	83.081	-28372	2126.4	-0.85839	0.42212	-0.25181
0.492	83.072	-28377	2126.4	-0.8581	0.42241	-0.252
0.494	83.077	-28374	2126.4	-0.85781	0.42271	-0.2522
0.496	83.082	-28371	2126.5	-0.85751	0.423	-0.25239
0.498	83.082	-28373	2126.5	-0.85722	0.42329	-0.25259
0.5	83.083	-28375	2126.6	-0.85693	0.42358	-0.25278
0.502	83.087	-28370	2126.6	-0.85703	0.42329	-0.25337
0.504	83.092	-28364	2126.6	-0.85712	0.423	-0.25396
0.506	83.102	-28371	2126.7	-0.85722	0.42271	-0.25454
0.508	83.106	-28379	2126.7	-0.85732	0.42241	-0.25513
0.51	83.095	-28373	2126.8	-0.85742	0.42212	-0.25571
0.512	83.085	-28368	2126.8	-0.85761	0.42212	-0.25522
0.514	83.082	-28366	2126.8	-0.85781	0.42212	-0.25474
0.516	83.077	-28365	2126.8	-0.858	0.42212	-0.25425
0.518	83.078	-28361	2126.9	-0.8582	0.42212	-0.25376
0.52	83.085	-28358	2126.9	-0.85839	0.42212	-0.25327
0.522	83.087	-28362	2126.9	-0.858	0.42173	-0.25376
0.524	83.081	-28366	2126.9	-0.85761	0.42134	-0.25425
0.526	83.061	-28366	2126.9	-0.85722	0.42095	-0.25474
0.528	83.049	-28365	2126.9	-0.85683	0.42056	-0.25522
0.53	83.053	-28372	2127	-0.85644	0.42017	-0.25571
0.532	83.067	-28378	2127	-0.85634	0.42027	-0.2561
0.534	83.078	-28377	2127	-0.85624	0.42036	-0.25649
0.536	83.084	-28376	2127.1	-0.85615	0.42046	-0.25688
0.538	83.089	-28381	2127.1	-0.85605	0.42056	-0.25727
0.54	83.086	-28387	2127.1	-0.85595	0.42066	-0.25766
0.542	83.086	-28383	2127.1	-0.85576	0.42114	-0.25679
0.544	83.08	-28379	2127.1	-0.85556	0.42163	-0.25591
0.546	83.08	-28375	2127.1	-0.85537	0.42212	-0.25503
0.548	83.062	-28371	2127.1	-0.85517	0.42261	-0.25415
0.55	83.057	-28370	2127.1	-0.85498	0.4231	-0.25327
0.552	83.051	-28369	2127.2	-0.85546	0.4231	-0.25308
0.554	83.059	-28367	2127.2	-0.85595	0.4231	-0.25288
0.556	83.071	-28365	2127.2	-0.85644	0.4231	-0.25269
0.558	83.087	-28362	2127.2	-0.85693	0.4231	-0.25249
0.56	83.093	-28359	2127.1	-0.85742	0.4231	-0.2523
0.562	83.092	-28361	2127	-0.85683	0.423	-0.25239
0.564	83.088	-28363	2127	-0.85624	0.4229	-0.25249
0.566	83.073	-28364	2127	-0.85566	0.4228	-0.25259
0.568	83.06	-28364	2127	-0.85507	0.42271	-0.25269
0.57	83.053	-28369	2126.9	-0.85449	0.42261	-0.25278
0.572	83.051	-28374	2126.9	-0.85517	0.42212	-0.25347
0.574	83.055	-28368	2126.8	-0.85585	0.42163	-0.25415
0.576	83.065	-28362	2126.7	-0.85654	0.42114	-0.25483
0.578	83.073	-28374	2126.7	-0.85722	0.42066	-0.25552
0.58	83.072	-28386	2126.7	-0.8579	0.42017	-0.2562
0.582	83.083	-28387	2126.6	-0.85771	0.42007	-0.25581
0.584	83.098	-28389	2126.5	-0.85751	0.41997	-0.25542
0.586	83.101	-28385	2126.4	-0.85732	0.41988	-0.25503
0.588	83.097	-28380	2126.3	-0.85712	0.41978	-0.25464
0.59	83.096	-28383	2126.3	-0.85693	0.41968	-0.25425
0.592	83.108	-28385	2126.3	-0.85644	0.42095	-0.25308
0.594	83.126	-28384	2126.2	-0.85595	0.42222	-0.25191
0.596	83.138	-28384	2126.2	-0.85546	0.42349	-0.25073
0.598	83.146	-28383	2126.1	-0.85498	0.42476	-0.24956
0.6	83.152	-28383	2126	-0.85449	0.42602	-0.24839
0.602	83.156	-28381	2125.9	-0.8541	0.42602	-0.24868
0.604	83.155	-28380	2125.9	-0.85371	0.42602	-0.24898
0.606	83.151	-28380	2125.8	-0.85332	0.42602	-0.24927
0.608	83.155	-28380	2125.8	-0.85293	0.42602	-0.24956
0.61	83.161	-28379	2125.7	-0.85254	0.42602	-0.24986
0.612	83.16	-28379	2125.7	-0.85205	0.42651	-0.25034
0.614	83.155	-28380	2125.6	-0.85156	0.427	-0.25083
0.616	83.148	-28382	2125.6	-0.85107	0.42749	-0.25132
0.618	83.143	-28375	2125.5	-0.85058	0.42798	-0.25181
0.62	83.144	-28368	2125.4	-0.8501	0.42846	-0.2523
0.622	83.145	-28369	2125.4	-0.85058	0.42807	-0.2522
0.624	83.145	-28369	2125.4	-0.85107	0.42768	-0.2521
0.626	83.15	-28370	2125.3	-0.85156	0.42729	-0.252
0.628	83.148	-28370	2125.4	-0.85205	0.4269	-0.25191
0.63	83.156	-28374	2125.4	-0.85254	0.42651	-0.25181
0.632	83.162	-28377	2125.3	-0.85244	0.42612	-0.25122
0.634	83.164	-28373	2125.2	-0.85234	0.42573	-0.25064
0.636	83.17	-28369	2125.2	-0.85224	0.42534	-0.25005
0.638	83.168	-28374	2125.2	-0.85215	0.42495	-0.24947
0.64	83.167	-28379	2125.2	-0.85205	0.42456	-0.24888
0.642	83.17	-28380	2125.2	-0.85185	0.42515	-0.24956
0.644	83.166	-28381	2125.2	-0.85166	0.42573	-0.25025
0.646	83.17	-28381	2125.1	-0.85146	0.42632	-0.25093
0.648	83.174	-28381	2125	-0.85127	0.4269	-0.25161
0.65	83.175	-28378	2125	-0.85107	0.42749	-0.2523
0.652	83.173	-28376	2125	-0.85136	0.42798	-0.25308
0.654	83.17	-28375	2125	-0.85166	0.42846	-0.25386
0.656	83.165	-28374	2124.9	-0.85195	0.42895	-0.25464
0.658	83.173	-28375	2124.8	-0.85224	0.42944	-0.25542
0.66	83.178	-28375	2124.8	-0.85254	0.42993	-0.2562
0.662	83.178	-28378	2124.7	-0.85234	0.42895	-0.25454
0.664	83.178	-28380	2124.7	-0.85215	0.42798	-0.25288
0.666	83.181	-28384	2124.7	-0.85195	0.427	-0.25122
0.668	83.173	-28388	2124.6	-0.85176	0.42602	-0.24956
0.67	83.154	-28389	2124.6	-0.85156	0.42505	-0.2479
0.672	83.129	-28391	2124.6	-0.85136	0.42495	-0.24839
0.674	83.091	-28387	2124.6	-0.85117	0.42485	-0.24888
0.676	83.041	-28384	2124.5	-0.85097	0.42476	-0.24937
0.678	82.992	-28383	2124.5	-0.85078	0.42466	-0.24986
0.68	82.943	-28382	2124.4	-0.85058	0.42456	-0.25034
0.682	82.895	-28385	2124.4	-0.85068	0.42534	-0.25025
0.684	82.848	-28387	2124.3	-0.85078	0.42612	-0.25015
0.686	82.798	-28387	2124.2	-0.85088	0.4269	-0.25005
0.688	82.733	-28386	2124.2	-0.85097	0.42768	-0.24995
0.69	82.661	-28381	2124.1	-0.85107	0.42846	-0.24986
0.692	82.608	-28375	2124.1	-0.85254	0.42788	-0.25034
0.694	82.579	-28378	2124	-0.854	0.42729	-0.25083
0.696	82.557	-28380	2123.9	-0.85546	0.42671	-0.25132
0.698	82.528	-28387	2123.9	-0.85693	0.42612	-0.25181
0.7	82.521	-28393	2123.8	-0.85839	0.42554	-0.2523
0.702	82.557	-28388	2123.8	-0.85712	0.42593	-0.252
0.704	82.627	-28384	2123.8	-0.85585	0.42632	-0.25171
0.706	82.704	-28380	2123.8	-0.85459	0.42671	-0.25142
0.708	82.787	-28376	2123.7	-0.85332	0.4271	-0.25112
0.71	82.888	-28379	2123.7	-0.85205	0.42749	-0.25083
0.712	82.996	-28381	2123.7	-0.85224	0.427	-0.25044
0.714	83.095	-28383	2123.7	-0.85244	0.42651	-0.25005
0.716	83.16	-28385	2123.6	-0.85263	0.42602	-0.24966
0.718	83.191	-28388	2123.5	-0.85283	0.42554	-0.24927
0.72	83.199	-28391	2123.5	-0.85302	0.42505	-0.24888
0.722	83.201	-28389	2123.4	-0.85273	0.42476	-0.24868
0.724	83.204	-28388	2123.4	-0.85244	0.42446	-0.24849
0.726	83.214	-28387	2123.4	-0.85215	0.42417	-0.24829
0.728	83.223	-28386	2123.4	-0.85185	0.42388	-0.2481
0.73	83.217	-28388	2123.4	-0.85156	0.42358	-0.2479
0.732	83.211	-28390	2123.4	-0.85156	0.42349	-0.2482
0.734	83.201	-28390	2123.5	-0.85156	0.42339	-0.24849
0.736	83.183	-28390	2123.5	-0.85156	0.42329	-0.24878
0.738	83.172	-28392	2123.4	-0.85156	0.42319	-0.24908
0.74	83.171	-28395	2123.4	-0.85156	0.4231	-0.24937
0.742	83.172	-28394	2123.4	-0.85205	0.42378	-0.24956
0.744	83.173	-28394	2123.4	-0.85254	0.42446	-0.24976
0.746	83.17	-28398	2123.4	-0.85302	0.42515	-0.24995
0.748	83.166	-28402	2123.4	-0.85351	0.42583	-0.25015
0.75	83.162	-28405	2123.4	-0.854	0.42651	-0.25034
0.752	83.162	-28408	2123.4	-0.85312	0.42651	-0.25015
0.754	83.164	-28405	2123.3	-0.85224	0.42651	-0.24995
0.756	83.169	-28403	2123.3	-0.85136	0.42651	-0.24976
0.758	83.171	-28398	2123.4	-0.85049	0.42651	-0.24956
0.76	83.165	-28394	2123.4	-0.84961	0.42651	-0.24937
0.762	83.157	-28396	2123.4	-0.85029	0.42602	-0.24966
0.764	83.155	-28398	2123.4	-0.85097	0.42554	-0.24995
0.766	83.155	-28399	2123.4	-0.85166	0.42505	-0.25025
0.768	83.148	-28401	2123.4	-0.85234	0.42456	-0.25054
0.77	83.145	-28399	2123.4	-0.85302	0.42407	-0.25083
0.772	83.153	-28397	2123.5	-0.85302	0.42378	-0.25044
0.774	83.165	-28396	2123.5	-0.85302	0.42349	-0.25005
0.776	83.174	-28395	2123.5	-0.85302	0.42319	-0.24966
0.778	83.174	-28396	2123.5	-0.85302	0.4229	-0.24927
0.78	83.178	-28397	2123.5	-0.85302	0.42261	-0.24888
0.782	83.183	-28399	2123.5	-0.85341	0.42222	-0.24937
0.784	83.178	-28400	2123.5	-0.8538	0.42183	-0.24986
0.786	83.168	-28401	2123.5	-0.8542	0.42144	-0.25034
0.788	83.165	-28402	2123.5	-0.85459	0.42105	-0.25083
0.79	83.166	-28403	2123.5	-0.85498	0.42066	-0.25132
0.792	83.164	-28404	2123.5	-0.85576	0.42173	-0.25093
0.794	83.164	-28404	2123.4	-0.85654	0.4228	-0.25054
0.796	83.165	-28403	2123.4	-0.85732	0.42388	-0.25015
0.798	83.165	-28403	2123.4	-0.8581	0.42495	-0.24976
0.8	83.161	-28403	2123.4	-0.85888	0.42602	-0.24937
0.802	83.158	-28403	2123.3	-0.85829	0.42495	-0.25064
0.804	83.157	-28403	2123.3	-0.85771	0.42388	-0.25191
0.806	83.154	-28405	2123.3	-0.85712	0.4228	-0.25317
0.808	83.153	-28406	2123.3	-0.85654	0.42173	-0.25444
0.81	83.15	-28402	2123.3	-0.85595	0.42066	-0.25571
0.812	83.157	-28397	2123.3	-0.85585	0.42046	-0.25532
0.814	83.167	-28398	2123.2	-0.85576	0.42027	-0.25493
0.816	83.162	-28399	2123.2	-0.85566	0.42007	-0.25454
0.818	83.153	-28405	2123.1	-0.85556	0.41988	-0.25415
0.82	83.153	-28410	2123.1	-0.85546	0.41968	-0.25376
0.822	83.152	-28409	2123.1	-0.85537	0.41997	-0.25386
0.824	83.147	-28408	2123.1	-0.85527	0.42027	-0.25396
0.826	83.141	-28409	2123	-0.85517	0.42056	-0.25405
0.828	83.142	-28409	2123	-0.85507	0.42085	-0.25415
0.83	83.143	-28404	2123	-0.85498	0.42114	-0.25425
0.832	83.144	-28399	2123	-0.85439	0.42124	-0.25425
0.834	83.143	-28399	2123	-0.8538	0.42134	-0.25425
0.836	83.141	-28399	2123	-0.85322	0.42144	-0.25425
0.838	83.14	-28402	2122.9	-0.85263	0.42153	-0.25425
0.84	83.136	-28404	2122.9	-0.85205	0.42163	-0.25425
0.842	83.128	-28407	2122.9	-0.85215	0.42144	-0.25366
0.844	83.124	-28409	2122.9	-0.85224	0.42124	-0.25308
0.846	83.128	-28410	2122.9	-0.85234	0.42105	-0.25249
0.848	83.127	-28412	2122.9	-0.85244	0.42085	-0.25191
0.85	83.122	-28413	2122.9	-0.85254	0.42066	-0.25132
0.852	83.119	-28413	2122.9	-0.85351	0.42085	-0.25161
0.854	83.117	-28411	2122.9	-0.85449	0.42105	-0.25191
0.856	83.116	-28410	2122.9	-0.85546	0.42124	-0.2522
0.858	83.114	-28409	2122.9	-0.85644	0.42144	-0.25249
0.86	83.109	-28409	2122.9	-0.85742	0.42163	-0.25278
0.862	83.105	-28409	2122.9	-0.8579	0.42192	-0.25269
0.864	83.103	-28410	2122.9	-0.85839	0.42222	-0.25259
0.866	83.095	-28411	2122.9	-0.85888	0.42251	-0.25249
0.868	83.087	-28413	2122.9	-0.85937	0.4228	-0.25239
0.87	83.082	-28415	2122.8	-0.85986	0.4231	-0.2523
0.872	83.08	-28418	2122.9	-0.85849	0.42319	-0.25132
0.874	83.077	-28416	2122.9	-0.85712	0.42329	-0.25034
0.876	83.073	-28414	2122.9	-0.85576	0.42339	-0.24937
0.878	83.07	-28411	2122.9	-0.85439	0.42349	-0.24839
0.88	83.068	-28409	2122.9	-0.85302	0.42358	-0.24742
0.882	83.065	-28413	2123	-0.85361	0.42349	-0.2481
0.884	83.062	-28416	2123.1	-0.8542	0.42339	-0.24878
0.886	83.062	-28416	2123.3	-0.85478	0.42329	-0.24947
0.888	83.06	-28417	2123.4	-0.85537	0.42319	-0.25015
0.89	83.063	-28416	2123.5	-0.85595	0.4231	-0.25083
0.892	83.055	-28416	2123.7	-0.85605	0.42319	-0.25044
0.894	83.046	-28420	2123.9	-0.85615	0.42329	-0.25005
0.896	83.051	-28423	2124.1	-0.85624	0.42339	-0.24966
0.898	83.053	-28426	2124.3	-0.85634	0.42349	-0.24927
0.9	83.055	-28428	2124.5	-0.85644	0.42358	-0.24888
0.902	83.053	-28427	2124.7	-0.85566	0.42349	-0.24908
0.904	83.051	-28426	2125	-0.85488	0.42339	-0.24927
0.906	83.05	-28427	2125.2	-0.8541	0.42329	-0.24947
0.908	83.055	-28429	2125.5	-0.85332	0.42319	-0.24966
0.91	83.066	-28428	2125.7	-0.85254	0.4231	-0.24986
0.912	83.073	-28426	2125.9	-0.85332	0.42271	-0.25025
0.914	83.075	-28418	2126.1	-0.8541	0.42232	-0.25064
0.916	83.075	-28410	2126.4	-0.85488	0.42192	-0.25103
0.918	83.077	-28408	2126.6	-0.85566	0.42153	-0.25142
0.92	83.075	-28406	2126.9	-0.85644	0.42114	-0.25181
0.922	83.078	-28411	2127.1	-0.85634	0.42105	-0.252
0.924	83.089	-28416	2127.4	-0.85624	0.42095	-0.2522
0.926	83.099	-28418	2127.7	-0.85615	0.42085	-0.25239
0.928	83.109	-28420	2127.9	-0.85605	0.42075	-0.25259
0.93	83.125	-28418	2128.1	-0.85595	0.42066	-0.25278
0.932	83.14	-28415	2128.3	-0.85537	0.42144	-0.25337
0.934	83.15	-28414	2128.5	-0.85478	0.42222	-0.25396
0.936	83.16	-28414	2128.8	-0.8542	0.423	-0.25454
0.938	83.167	-28413	2129	-0.85361	0.42378	-0.25513
0.94	83.175	-28412	2129.2	-0.85302	0.42456	-0.25571
0.942	83.186	-28413	2129.5	-0.85302	0.42378	-0.25581
0.944	83.198	-28415	2129.7	-0.85302	0.423	-0.25591
0.946	83.213	-28416	2129.9	-0.85302	0.42222	-0.256
0.948	83.223	-28416	2130.2	-0.85302	0.42144	-0.2561
0.95	83.231	-28412	2130.4	-0.85302	0.42066	-0.2562
0.952	83.242	-28408	2130.6	-0.85312	0.42007	-0.2562
0.954	83.257	-28404	2130.8	-0.85322	0.41948	-0.2562
0.956	83.259	-28400	2131	-0.85332	0.4189	-0.2562
0.958	83.258	-28405	2131.2	-0.85341	0.41831	-0.2562
0.96	83.27	-28410	2131.4	-0.85351	0.41773	-0.2562
0.962	83.285	-28408	2131.6	-0.85293	0.41851	-0.2562
0.964	83.291	-28406	2131.7	-0.85234	0.41929	-0.2562
0.966	83.293	-28402	2131.9	-0.85176	0.42007	-0.2562
0.968	83.307	-28398	2132.1	-0.85117	0.42085	-0.2562
0.97	83.322	-28400	2132.3	-0.85058	0.42163	-0.2562
0.972	83.341	-28401	2132.4	-0.85097	0.42124	-0.2562
0.974	83.341	-28401	2132.5	-0.85136	0.42085	-0.2562
0.976	83.343	-28401	2132.6	-0.85176	0.42046	-0.2562
0.978	83.348	-28404	2132.7	-0.85215	0.42007	-0.2562
0.98	83.356	-28407	2132.8	-0.85254	0.41968	-0.2562
0.982	83.359	-28407	2132.9	-0.85263	0.42027	-0.25581
0.984	83.363	-28406	2132.9	-0.85273	0.42085	-0.25542
0.986	83.366	-28402	2133	-0.85283	0.42144	-0.25503
0.988	83.363	-28398	2133	-0.85293	0.42202	-0.25464
0.99	83.362	-28398	2133.1	-0.85302	0.42261	-0.25425
0.992	83.371	-28398	2133.1	-0.85361	0.42271	-0.25356
0.994	83.381	-28393	2133.1	-0.8542	0.4228	-0.25288
0.996	83.393	-28389	2133.1	-0.85478	0.4229	-0.2522
0.998	83.404	-28388	2133.1	-0.85537	0.423	-0.25152
1	83.404	-28387	2133.2	-0.85595	0.4231	-0.25083
1.002	83.405	-28387	2133.1	-0.85527	0.42339	-0.25034
1.004	83.409	-28386	2133.1	-0.85459	0.42368	-0.24986
1.006	83.414	-28388	2133	-0.8539	0.42397	-0.24937
1.008	83.42	-28391	2133	-0.85322	0.42427	-0.24888
1.01	83.429	-28390	2133	-0.85254	0.42456	-0.24839
1.012	83.434	-28389	2133	-0.85244	0.42476	-0.24868
1.014	83.435	-28389	2133	-0.85234	0.42495	-0.24898
1.016	83.43	-28388	2132.9	-0.85224	0.42515	-0.24927
1.018	83.422	-28385	2132.8	-0.85215	0.42534	-0.24956
1.02	83.418	-28382	2132.8	-0.85205	0.42554	-0.24986
1.022	83.42	-28382	2132.8	-0.85146	0.4272	-0.25181
1.024	83.424	-28382	2132.7	-0.85088	0.42885	-0.25376
1.026	83.431	-28379	2132.7	-0.85029	0.43051	-0.25571
1.028	83.435	-28376	2132.7	-0.84971	0.43217	-0.25766
1.03	83.436	-28380	2132.7	-0.84912	0.43383	-0.25962
1.032	83.436	-28384	2132.6	-0.84971	0.43383	-0.25903
1.034	83.433	-28385	2132.5	-0.85029	0.43383	-0.25844
1.036	83.435	-28385	2132.4	-0.85088	0.43383	-0.25786
1.038	83.441	-28382	2132.4	-0.85146	0.43383	-0.25727
1.04	83.448	-28379	2132.3	-0.85205	0.43383	-0.25669
1.042	83.453	-28382	2132.2	-0.85215	0.43334	-0.25679
1.044	83.448	-28386	2132.2	-0.85224	0.43286	-0.25688
1.046	83.447	-28386	2132.1	-0.85234	0.43237	-0.25698
1.048	83.45	-28386	2132	-0.85244	0.43188	-0.25708
1.05	83.457	-28384	2131.9	-0.85254	0.43139	-0.25718
1.052	83.452	-28383	2131.9	-0.85322	0.43003	-0.25581
1.054	83.45	-28377	2131.8	-0.8539	0.42866	-0.25444
1.056	83.455	-28370	2131.8	-0.85459	0.42729	-0.25308
1.058	83.461	-28376	2131.7	-0.85527	0.42593	-0.25171
1.06	83.46	-28382	2131.6	-0.85595	0.42456	-0.25034
1.062	83.455	-28374	2131.5	-0.85527	0.42476	-0.24986
1.064	83.454	-28366	2131.4	-0.85459	0.42495	-0.24937
1.066	83.459	-28370	2131.4	-0.8539	0.42515	-0.24888
1.068	83.464	-28374	2131.3	-0.85322	0.42534	-0.24839
1.07	83.461	-28373	2131.2	-0.85254	0.42554	-0.2479
1.072	83.466	-28373	2131.1	-0.85322	0.42515	-0.24888
1.074	83.467	-28370	2131.1	-0.8539	0.42476	-0.24986
1.076	83.468	-28367	2131	-0.85459	0.42436	-0.25083
1.078	83.473	-28370	2131	-0.85527	0.42397	-0.25181
1.08	83.476	-28372	2130.9	-0.85595	0.42358	-0.25278
1.082	83.475	-28368	2130.8	-0.85615	0.42319	-0.25317
1.084	83.478	-28365	2130.7	-0.85634	0.4228	-0.25356
1.086	83.479	-28371	2130.7	-0.85654	0.42241	-0.25396
1.088	83.474	-28377	2130.6	-0.85673	0.42202	-0.25435
1.09	83.478	-28374	2130.5	-0.85693	0.42163	-0.25474
1.092	83.478	-28371	2130.5	-0.85712	0.42085	-0.25503
1.094	83.478	-28368	2130.5	-0.85732	0.42007	-0.25532
1.096	83.485	-28365	2130.4	-0.85751	0.41929	-0.25561
1.098	83.495	-28369	2130.3	-0.85771	0.41851	-0.25591
1.1	83.497	-28372	2130.2	-0.8579	0.41773	-0.2562
1.102	83.496	-28374	2130.1	-0.8581	0.41822	-0.25591
1.104	83.5	-28375	2130	-0.85829	0.4187	-0.25561
1.106	83.504	-28379	2129.9	-0.85849	0.41919	-0.25532
1.108	83.504	-28383	2129.9	-0.85868	0.41968	-0.25503
1.11	83.505	-28373	2129.8	-0.85888	0.42017	-0.25474
1.112	83.506	-28363	2129.8	-0.85956	0.42036	-0.25405
1.114	83.504	-28364	2129.7	-0.86025	0.42056	-0.25337
1.116	83.501	-28366	2129.6	-0.86093	0.42075	-0.25269
1.118	83.504	-28365	2129.5	-0.86161	0.42095	-0.252
1.12	83.511	-28365	2129.5	-0.8623	0.42114	-0.25132
1.122	83.517	-28372	2129.4	-0.86112	0.42075	-0.25142
1.124	83.523	-28378	2129.3	-0.85995	0.42036	-0.25152
1.126	83.529	-28376	2129.3	-0.85878	0.41997	-0.25161
1.128	83.53	-28375	2129.2	-0.85761	0.41958	-0.25171
1.13	83.526	-28375	2129.2	-0.85644	0.41919	-0.25181
1.132	83.525	-28374	2129.2	-0.85615	0.42027	-0.25122
1.134	83.525	-28371	2129.2	-0.85585	0.42134	-0.25064
1.136	83.529	-28368	2129.2	-0.85556	0.42241	-0.25005
1.138	83.534	-28374	2129.1	-0.85527	0.42349	-0.24947
1.14	83.534	-28380	2129.1	-0.85498	0.42456	-0.24888
1.142	83.529	-28379	2129.1	-0.85439	0.42466	-0.24859
1.144	83.524	-28378	2129.1	-0.8538	0.42476	-0.24829
1.146	83.53	-28374	2129.1	-0.85322	0.42485	-0.248
1.148	83.544	-28371	2129.1	-0.85263	0.42495	-0.24771
1.15	83.55	-28373	2129.1	-0.85205	0.42505	-0.24742
1.152	83.551	-28374	2129.1	-0.85166	0.42476	-0.24751
1.154	83.555	-28375	2129	-0.85127	0.42446	-0.24761
1.156	83.559	-28375	2129	-0.85088	0.42417	-0.24771
1.158	83.559	-28375	2129.1	-0.85049	0.42388	-0.24781
1.16	83.565	-28376	2129.2	-0.8501	0.42358	-0.2479
1.162	83.564	-28379	2129.2	-0.85185	0.42319	-0.24868
1.164	83.567	-28383	2129.1	-0.85361	0.4228	-0.24947
1.166	83.573	-28383	2129.1	-0.85537	0.42241	-0.25025
1.168	83.578	-28384	2129.1	-0.85712	0.42202	-0.25103
1.17	83.578	-28384	2129.1	-0.85888	0.42163	-0.25181
1.172	83.582	-28384	2129.1	-0.85859	0.42173	-0.25239
1.174	83.587	-28381	2129.1	-0.85829	0.42183	-0.25298
1.176	83.597	-28377	2129.1	-0.858	0.42192	-0.25356
1.178	83.608	-28380	2129.2	-0.85771	0.42202	-0.25415
1.18	83.61	-28383	2129.2	-0.85742	0.42212	-0.25474
1.182	83.61	-28377	2129.2	-0.85615	0.42192	-0.25522
1.184	83.617	-28372	2129.2	-0.85488	0.42173	-0.25571
1.186	83.623	-28375	2129.2	-0.85361	0.42153	-0.2562
1.188	83.622	-28379	2129.2	-0.85234	0.42134	-0.25669
1.19	83.617	-28376	2129.2	-0.85107	0.42114	-0.25718
1.192	83.62	-28374	2129.3	-0.85146	0.42134	-0.2564
1.194	83.628	-28372	2129.3	-0.85185	0.42153	-0.25561
1.196	83.634	-28371	2129.4	-0.85224	0.42173	-0.25483
1.198	83.632	-28372	2129.4	-0.85263	0.42192	-0.25405
1.2	83.629	-28374	2129.4	-0.85302	0.42212	-0.25327
1.202	83.63	-28372	2129.4	-0.85351	0.42163	-0.25376
1.204	83.635	-28371	2129.4	-0.854	0.42114	-0.25425
1.206	83.641	-28372	2129.5	-0.85449	0.42066	-0.25474
1.208	83.646	-28373	2129.5	-0.85498	0.42017	-0.25522
1.21	83.649	-28373	2129.6	-0.85546	0.41968	-0.25571
1.212	83.65	-28374	2129.6	-0.85546	0.41988	-0.25561
1.214	83.652	-28380	2129.6	-0.85546	0.42007	-0.25552
1.216	83.656	-28385	2129.7	-0.85546	0.42027	-0.25542
1.218	83.655	-28382	2129.7	-0.85546	0.42046	-0.25532
1.22	83.651	-28378	2129.8	-0.85546	0.42066	-0.25522
1.222	83.652	-28372	2129.8	-0.85478	0.42036	-0.25581
1.224	83.652	-28365	2129.8	-0.8541	0.42007	-0.2564
1.226	83.66	-28374	2129.9	-0.85341	0.41978	-0.25698
1.228	83.662	-28383	2130	-0.85273	0.41948	-0.25757
1.23	83.663	-28381	2130	-0.85205	0.41919	-0.25815
1.232	83.673	-28379	2130	-0.85273	0.41909	-0.25698
1.234	83.682	-28379	2130	-0.85341	0.419	-0.25581
1.236	83.682	-28378	2130.1	-0.8541	0.4189	-0.25464
1.238	83.685	-28380	2130.1	-0.85478	0.4188	-0.25347
1.24	83.694	-28381	2130.2	-0.85546	0.4187	-0.2523
1.242	83.704	-28374	2130.2	-0.85615	0.41958	-0.25259
1.244	83.706	-28368	2130.1	-0.85683	0.42046	-0.25288
1.246	83.701	-28366	2130.2	-0.85751	0.42134	-0.25317
1.248	83.695	-28364	2130.2	-0.8582	0.42222	-0.25347
1.25	83.691	-28370	2130.3	-0.85888	0.4231	-0.25376
1.252	83.695	-28375	2130.3	-0.85829	0.4228	-0.25356
1.254	83.7	-28379	2130.4	-0.85771	0.42251	-0.25337
1.256	83.698	-28383	2130.4	-0.85712	0.42222	-0.25317
1.258	83.697	-28383	2130.4	-0.85654	0.42192	-0.25298
1.26	83.699	-28384	2130.4	-0.85595	0.42163	-0.25278
1.262	83.702	-28384	2130.5	-0.85634	0.42124	-0.25298
1.264	83.703	-28384	2130.5	-0.85673	0.42085	-0.25317
1.266	83.701	-28377	2130.5	-0.85712	0.42046	-0.25337
1.268	83.704	-28371	2130.5	-0.85751	0.42007	-0.25356
1.27	83.709	-28375	2130.5	-0.8579	0.41968	-0.25376
1.272	83.713	-28378	2130.5	-0.85761	0.42036	-0.25366
1.274	83.713	-28376	2130.5	-0.85732	0.42105	-0.25356
1.276	83.716	-28374	2130.5	-0.85703	0.42173	-0.25347
1.278	83.725	-28375	2130.5	-0.85673	0.42241	-0.25337
1.28	83.73	-28377	2130.6	-0.85644	0.4231	-0.25327
1.282	83.728	-28373	2130.6	-0.85566	0.42261	-0.25269
1.284	83.727	-28369	2130.6	-0.85488	0.42212	-0.2521
1.286	83.725	-28371	2130.6	-0.8541	0.42163	-0.25152
1.288	83.714	-28374	2130.7	-0.85332	0.42114	-0.25093
1.29	83.701	-28378	2130.7	-0.85254	0.42066	-0.25034
1.292	83.703	-28383	2130.7	-0.85263	0.42232	-0.25073
1.294	83.714	-28381	2130.7	-0.85273	0.42397	-0.25112
1.296	83.725	-28380	2130.7	-0.85283	0.42563	-0.25152
1.298	83.736	-28378	2130.6	-0.85293	0.42729	-0.25191
1.3	83.744	-28376	2130.6	-0.85302	0.42895	-0.2523
1.302	83.749	-28378	2130.6	-0.85302	0.42856	-0.252
1.304	83.754	-28380	2130.6	-0.85302	0.42817	-0.25171
1.306	83.758	-28375	2130.6	-0.85302	0.42778	-0.25142
1.308	83.755	-28370	2130.6	-0.85302	0.42739	-0.25112
1.31	83.749	-28376	2130.6	-0.85302	0.427	-0.25083
1.312	83.744	-28381	2130.6	-0.85302	0.4272	-0.25083
1.314	83.735	-28381	2130.6	-0.85302	0.42739	-0.25083
1.316	83.737	-28381	2130.6	-0.85302	0.42759	-0.25083
1.318	83.741	-28380	2130.6	-0.85302	0.42778	-0.25083
1.32	83.749	-28379	2130.5	-0.85302	0.42798	-0.25083
1.322	83.754	-28377	2130.5	-0.85195	0.42807	-0.25083
1.324	83.763	-28375	2130.5	-0.85088	0.42817	-0.25083
1.326	83.776	-28381	2130.5	-0.8498	0.42827	-0.25083
1.328	83.786	-28387	2130.4	-0.84873	0.42837	-0.25083
1.33	83.8	-28384	2130.4	-0.84766	0.42846	-0.25083
1.332	83.817	-28381	2130.3	-0.84795	0.42817	-0.25044
1.334	83.825	-28381	2130.3	-0.84824	0.42788	-0.25005
1.336	83.835	-28381	2130.2	-0.84853	0.42759	-0.24966
1.338	83.84	-28384	2130.2	-0.84883	0.42729	-0.24927
1.34	83.845	-28386	2130.2	-0.84912	0.427	-0.24888
1.342	83.848	-28383	2130.2	-0.84961	0.42641	-0.24859
1.344	83.849	-28379	2130.1	-0.8501	0.42583	-0.24829
1.346	83.852	-28378	2130.1	-0.85058	0.42524	-0.248
1.348	83.856	-28377	2130.1	-0.85107	0.42466	-0.24771
1.35	83.861	-28383	2130.1	-0.85156	0.42407	-0.24742
1.352	83.868	-28388	2130	-0.85166	0.42446	-0.2479
1.354	83.886	-28385	2130	-0.85176	0.42485	-0.24839
1.356	83.905	-28383	2130	-0.85185	0.42524	-0.24888
1.358	83.907	-28382	2130	-0.85195	0.42563	-0.24937
1.36	83.903	-28382	2130	-0.85205	0.42602	-0.24986
1.362	83.908	-28385	2130	-0.85215	0.42544	-0.24986
1.364	83.912	-28388	2130	-0.85224	0.42485	-0.24986
1.366	83.909	-28389	2130	-0.85234	0.42427	-0.24986
1.368	83.907	-28391	2130	-0.85244	0.42368	-0.24986
1.37	83.91	-28388	2130	-0.85254	0.4231	-0.24986
1.372	83.915	-28385	2130	-0.85224	0.42417	-0.25044
1.374	83.92	-28380	2130	-0.85195	0.42524	-0.25103
1.376	83.925	-28376	2130	-0.85166	0.42632	-0.25161
1.378	83.93	-28375	2130	-0.85136	0.42739	-0.2522
1.38	83.934	-28373	2130.1	-0.85107	0.42846	-0.25278
1.382	83.934	-28374	2130	-0.85029	0.42778	-0.25142
1.384	83.927	-28375	2130	-0.84951	0.4271	-0.25005
1.386	83.932	-28379	2130	-0.84873	0.42641	-0.24868
1.388	83.938	-28382	2130	-0.84795	0.42573	-0.24732
1.39	83.941	-28384	2130	-0.84717	0.42505	-0.24595
1.392	83.948	-28386	2130	-0.84785	0.42515	-0.24664
1.394	83.949	-28386	2129.9	-0.84853	0.42524	-0.24732
1.396	83.949	-28386	2129.9	-0.84922	0.42534	-0.248
1.398	83.949	-28385	2129.9	-0.8499	0.42544	-0.24868
1.4	83.954	-28385	2129.9	-0.85058	0.42554	-0.24937
1.402	83.964	-28388	2129.9	-0.85088	0.42583	-0.24966
1.404	83.973	-28390	2129.9	-0.85117	0.42612	-0.24995
1.406	83.967	-28392	2129.9	-0.85146	0.42641	-0.25025
1.408	83.974	-28393	2129.8	-0.85176	0.42671	-0.25054
1.41	83.973	-28390	2129.8	-0.85205	0.427	-0.25083
1.412	83.951	-28388	2129.8	-0.85195	0.4271	-0.25093
1.414	83.913	-28389	2129.7	-0.85185	0.4272	-0.25103
1.416	83.866	-28390	2129.7	-0.85176	0.42729	-0.25112
1.418	83.821	-28392	2129.6	-0.85166	0.42739	-0.25122
1.42	83.774	-28394	2129.6	-0.85156	0.42749	-0.25132
1.422	83.725	-28394	2129.5	-0.85166	0.4268	-0.25132
1.424	83.672	-28394	2129.5	-0.85176	0.42612	-0.25132
1.426	83.621	-28394	2129.5	-0.85185	0.42544	-0.25132
1.428	83.562	-28394	2129.4	-0.85195	0.42476	-0.25132
1.43	83.491	-28393	2129.4	-0.85205	0.42407	-0.25132
1.432	83.422	-28392	2129.4	-0.85254	0.42446	-0.25064
1.434	83.383	-28390	2129.4	-0.85302	0.42485	-0.24995
1.436	83.364	-28389	2129.3	-0.85351	0.42524	-0.24927
1.438	83.348	-28386	2129.3	-0.854	0.42563	-0.24859
1.44	83.345	-28384	2129.3	-0.85449	0.42602	-0.2479
1.442	83.368	-28389	2129.2	-0.85361	0.42632	-0.2479
1.444	83.42	-28394	2129.2	-0.85273	0.42661	-0.2479
1.446	83.492	-28393	2129.1	-0.85185	0.4269	-0.2479
1.448	83.576	-28393	2129.1	-0.85097	0.4272	-0.2479
1.45	83.677	-28387	2129.1	-0.8501	0.42749	-0.2479
1.452	83.785	-28380	2129	-0.85039	0.42729	-0.24829
1.454	83.893	-28381	2129	-0.85068	0.4271	-0.24868
1.456	83.978	-28382	2129	-0.85097	0.4269	-0.24908
1.458	84.021	-28385	2129	-0.85127	0.42671	-0.24947
1.46	84.034	-28387	2129	-0.85156	0.42651	-0.24986
1.462	84.032	-28390	2128.9	-0.85166	0.42583	-0.24947
1.464	84.039	-28393	2128.9	-0.85176	0.42515	-0.24908
1.466	84.052	-28397	2128.9	-0.85185	0.42446	-0.24868
1.468	84.06	-28400	2128.9	-0.85195	0.42378	-0.24829
1.47	84.058	-28399	2128.9	-0.85205	0.4231	-0.2479
1.472	84.053	-28397	2128.9	-0.85068	0.42349	-0.248
1.474	84.042	-28397	2128.8	-0.84932	0.42388	-0.2481
1.476	84.029	-28397	2128.8	-0.84795	0.42427	-0.2482
1.478	84.021	-28398	2128.8	-0.84658	0.42466	-0.24829
1.48	84.02	-28399	2128.8	-0.84522	0.42505	-0.24839
1.482	84.024	-28396	2128.8	-0.84697	0.42515	-0.24859
1.484	84.025	-28393	2128.8	-0.84873	0.42524	-0.24878
1.486	84.022	-28395	2128.7	-0.85049	0.42534	-0.24898
1.488	84.019	-28396	2128.7	-0.85224	0.42544	-0.24917
1.49	84.021	-28397	2128.7	-0.854	0.42554	-0.24937
1.492	84.024	-28399	2128.7	-0.85498	0.42427	-0.24976
1.494	84.035	-28399	2128.7	-0.85595	0.423	-0.25015
1.496	84.035	-28398	2128.7	-0.85693	0.42173	-0.25054
1.498	84.033	-28399	2128.7	-0.8579	0.42046	-0.25093
1.5	84.031	-28400	2128.7	-0.85888	0.41919	-0.25132
1.502	84.032	-28402	2128.6	-0.85781	0.41978	-0.25034
1.504	84.035	-28404	2128.6	-0.85673	0.42036	-0.24937
1.506	84.038	-28405	2128.6	-0.85566	0.42095	-0.24839
1.508	84.039	-28406	2128.6	-0.85459	0.42153	-0.24742
1.51	84.041	-28402	2128.6	-0.85351	0.42212	-0.24644
1.512	84.042	-28399	2128.6	-0.8542	0.42202	-0.24742
1.514	84.048	-28402	2128.5	-0.85488	0.42192	-0.24839
1.516	84.052	-28405	2128.5	-0.85556	0.42183	-0.24937
1.518	84.051	-28404	2128.5	-0.85624	0.42173	-0.25034
1.52	84.054	-28402	2128.5	-0.85693	0.42163	-0.25132
1.522	84.061	-28401	2128.5	-0.85683	0.42114	-0.2521
1.524	84.065	-28400	2128.5	-0.85673	0.42066	-0.25288
1.526	84.063	-28400	2128.4	-0.85664	0.42017	-0.25366
1.528	84.06	-28400	2128.4	-0.85654	0.41968	-0.25444
1.53	84.061	-28400	2128.4	-0.85644	0.41919	-0.25522
1.532	84.062	-28400	2128.3	-0.85634	0.4188	-0.25591
1.534	84.059	-28401	2128.3	-0.85624	0.41841	-0.25659
1.536	84.056	-28403	2128.3	-0.85615	0.41802	-0.25727
1.538	84.06	-28401	2128.2	-0.85605	0.41763	-0.25796
1.54	84.066	-28399	2128.2	-0.85595	0.41724	-0.25864
1.542	84.068	-28400	2128.1	-0.85556	0.41802	-0.25786
1.544	84.069	-28400	2128.1	-0.85517	0.4188	-0.25708
1.546	84.07	-28403	2128	-0.85478	0.41958	-0.2563
1.548	84.071	-28406	2128	-0.85439	0.42036	-0.25552
1.55	84.073	-28403	2128	-0.854	0.42114	-0.25474
1.552	84.073	-28400	2127.9	-0.8538	0.42114	-0.25454
1.554	84.067	-28402	2127.9	-0.85361	0.42114	-0.25435
1.556	84.06	-28403	2127.8	-0.85341	0.42114	-0.25415
1.558	84.062	-28403	2127.8	-0.85322	0.42114	-0.25396
1.56	84.067	-28402	2127.7	-0.85302	0.42114	-0.25376
1.562	84.065	-28406	2127.6	-0.85254	0.42153	-0.25259
1.564	84.064	-28410	2127.6	-0.85205	0.42192	-0.25142
1.566	84.068	-28412	2127.6	-0.85156	0.42232	-0.25025
1.568	84.059	-28415	2127.5	-0.85107	0.42271	-0.24908
1.57	84.056	-28419	2127.5	-0.85058	0.4231	-0.2479
1.572	84.065	-28424	2127.4	-0.85088	0.42339	-0.24849
1.574	84.069	-28419	2127.4	-0.85117	0.42368	-0.24908
1.576	84.069	-28414	2127.3	-0.85146	0.42397	-0.24966
1.578	84.064	-28417	2127.3	-0.85176	0.42427	-0.25025
1.58	84.064	-28421	2127.2	-0.85205	0.42456	-0.25083
1.582	84.064	-28414	2127.2	-0.85185	0.42524	-0.25044
1.584	84.062	-28406	2127.1	-0.85166	0.42593	-0.25005
1.586	84.056	-28406	2127.1	-0.85146	0.42661	-0.24966
1.588	84.043	-28406	2127	-0.85127	0.42729	-0.24927
1.59	84.036	-28407	2127	-0.85107	0.42798	-0.24888
1.592	84.035	-28407	2126.9	-0.85097	0.42759	-0.24868
1.594	84.025	-28407	2126.9	-0.85088	0.4272	-0.24849
1.596	84.014	-28406	2126.8	-0.85078	0.4268	-0.24829
1.598	84.008	-28414	2126.8	-0.85068	0.42641	-0.2481
1.6	84.016	-28421	2126.7	-0.85058	0.42602	-0.2479
1.602	84.029	-28422	2126.7	-0.85088	0.42583	-0.2481
1.604	84.027	-28423	2126.7	-0.85117	0.42563	-0.24829
1.606	84.012	-28425	2126.6	-0.85146	0.42544	-0.24849
1.608	84.001	-28427	2126.6	-0.85176	0.42524	-0.24868
1.61	84.001	-28420	2126.6	-0.85205	0.42505	-0.24888
1.612	84.005	-28413	2126.6	-0.85283	0.42495	-0.24917
1.614	84.003	-28411	2126.6	-0.85361	0.42485	-0.24947
1.616	84.003	-28410	2126.6	-0.85439	0.42476	-0.24976
1.618	84.002	-28418	2126.5	-0.85517	0.42466	-0.25005
1.62	83.998	-28426	2126.5	-0.85595	0.42456	-0.25034
1.622	84.003	-28426	2126.6	-0.85507	0.42573	-0.25054
1.624	84	-28427	2126.6	-0.8542	0.4269	-0.25073
1.626	83.989	-28429	2126.7	-0.85332	0.42807	-0.25093
1.628	83.981	-28431	2126.8	-0.85244	0.42924	-0.25112
1.63	83.979	-28428	2126.9	-0.85156	0.43042	-0.25132
1.632	83.978	-28424	2127.1	-0.85254	0.42915	-0.25073
1.634	83.981	-28426	2127.2	-0.85351	0.42788	-0.25015
1.636	83.989	-28427	2127.4	-0.85449	0.42661	-0.24956
1.638	83.997	-28423	2127.5	-0.85546	0.42534	-0.24898
1.64	84.004	-28420	2127.7	-0.85644	0.42407	-0.24839
1.642	84.004	-28417	2127.9	-0.85507	0.42544	-0.24868
1.644	84.003	-28413	2128.1	-0.85371	0.4268	-0.24898
1.646	84.008	-28414	2128.3	-0.85234	0.42817	-0.24927
1.648	84.012	-28415	2128.5	-0.85097	0.42954	-0.24956
1.65	84.008	-28418	2128.8	-0.84961	0.4309	-0.24986
1.652	84.007	-28421	2129	-0.85107	0.43051	-0.25005
1.654	84.003	-28427	2129.3	-0.85254	0.43012	-0.25025
1.656	84.008	-28434	2129.6	-0.854	0.42973	-0.25044
1.658	84.019	-28427	2129.8	-0.85546	0.42934	-0.25064
1.66	84.025	-28421	2130.1	-0.85693	0.42895	-0.25083
1.662	84.034	-28424	2130.3	-0.85595	0.42759	-0.25064
1.664	84.038	-28427	2130.5	-0.85498	0.42622	-0.25044
1.666	84.036	-28426	2130.8	-0.854	0.42485	-0.25025
1.668	84.039	-28424	2131	-0.85302	0.42349	-0.25005
1.67	84.045	-28425	2131.2	-0.85205	0.42212	-0.24986
1.672	84.054	-28426	2131.4	-0.85185	0.42378	-0.25112
1.674	84.057	-28423	2131.6	-0.85166	0.42544	-0.25239
1.676	84.067	-28420	2131.8	-0.85146	0.4271	-0.25366
1.678	84.078	-28427	2132	-0.85127	0.42876	-0.25493
1.68	84.082	-28434	2132.2	-0.85107	0.43042	-0.2562
1.682	84.087	-28435	2132.4	-0.85185	0.42827	-0.25513
1.684	84.092	-28436	2132.6	-0.85263	0.42612	-0.25405
1.686	84.101	-28424	2132.8	-0.85341	0.42397	-0.25298
1.688	84.106	-28413	2133	-0.8542	0.42183	-0.25191
1.69	84.112	-28420	2133.2	-0.85498	0.41968	-0.25083
1.692	84.124	-28427	2133.4	-0.85312	0.42105	-0.25025
1.694	84.14	-28426	2133.6	-0.85127	0.42241	-0.24966
1.696	84.156	-28425	2133.8	-0.84941	0.42378	-0.24908
1.698	84.164	-28423	2134	-0.84756	0.42515	-0.24849
1.7	84.166	-28421	2134.1	-0.8457	0.42651	-0.2479
1.702	84.175	-28419	2134.3	-0.84707	0.42583	-0.24849
1.704	84.189	-28417	2134.4	-0.84844	0.42515	-0.24908
1.706	84.203	-28422	2134.6	-0.8498	0.42446	-0.24966
1.708	84.216	-28427	2134.8	-0.85117	0.42378	-0.25025
1.71	84.224	-28422	2135	-0.85254	0.4231	-0.25083
1.712	84.23	-28416	2135.1	-0.85039	0.4228	-0.24995
1.714	84.233	-28420	2135.2	-0.84824	0.42251	-0.24908
1.716	84.237	-28423	2135.3	-0.84609	0.42222	-0.2482
1.718	84.237	-28419	2135.5	-0.84395	0.42192	-0.24732
1.72	84.241	-28415	2135.6	-0.8418	0.42163	-0.24644
1.722	84.257	-28417	2135.7	-0.84336	0.42329	-0.24722
1.724	84.274	-28420	2135.8	-0.84492	0.42495	-0.248
1.726	84.279	-28418	2135.8	-0.84648	0.42661	-0.24878
1.728	84.28	-28415	2135.9	-0.84805	0.42827	-0.24956
1.73	84.28	-28416	2136	-0.84961	0.42993	-0.25034
1.732	84.287	-28418	2136	-0.85029	0.42846	-0.25005
1.734	84.293	-28424	2136.1	-0.85097	0.427	-0.24976
1.736	84.293	-28431	2136.1	-0.85166	0.42554	-0.24947
1.738	84.29	-28430	2136.1	-0.85234	0.42407	-0.24917
1.74	84.284	-28429	2136.1	-0.85302	0.42261	-0.24888
1.742	84.278	-28427	2136.1	-0.85254	0.42436	-0.24927
1.744	84.28	-28425	2136	-0.85205	0.42612	-0.24966
1.746	84.285	-28427	2136	-0.85156	0.42788	-0.25005
1.748	84.29	-28428	2136	-0.85107	0.42964	-0.25044
1.75	84.297	-28425	2136	-0.85058	0.43139	-0.25083
1.752	84.298	-28422	2135.9	-0.85156	0.43042	-0.25093
1.754	84.299	-28424	2135.9	-0.85254	0.42944	-0.25103
1.756	84.296	-28425	2135.8	-0.85351	0.42846	-0.25112
1.758	84.298	-28425	2135.7	-0.85449	0.42749	-0.25122
1.76	84.296	-28425	2135.7	-0.85546	0.42651	-0.25132
1.762	84.296	-28426	2135.6	-0.85556	0.42651	-0.25142
1.764	84.294	-28427	2135.6	-0.85566	0.42651	-0.25152
1.766	84.288	-28426	2135.5	-0.85576	0.42651	-0.25161
1.768	84.288	-28425	2135.4	-0.85585	0.42651	-0.25171
1.77	84.298	-28420	2135.3	-0.85595	0.42651	-0.25181
1.772	84.304	-28415	2135.3	-0.85459	0.4272	-0.25191
1.774	84.306	-28408	2135.2	-0.85322	0.42788	-0.252
1.776	84.305	-28401	2135.1	-0.85185	0.42856	-0.2521
1.778	84.305	-28404	2135	-0.85049	0.42924	-0.2522
1.78	84.309	-28407	2134.9	-0.84912	0.42993	-0.2523
1.782	84.309	-28409	2134.8	-0.85049	0.42934	-0.25191
1.784	84.307	-28412	2134.7	-0.85185	0.42876	-0.25152
1.786	84.31	-28413	2134.6	-0.85322	0.42817	-0.25112
1.788	84.308	-28414	2134.5	-0.85459	0.42759	-0.25073
1.79	84.301	-28411	2134.4	-0.85595	0.427	-0.25034
1.792	84.299	-28408	2134.3	-0.85527	0.42749	-0.25044
1.794	84.3	-28408	2134.3	-0.85459	0.42798	-0.25054
1.796	84.302	-28409	2134.2	-0.8539	0.42846	-0.25064
1.798	84.31	-28410	2134.1	-0.85322	0.42895	-0.25073
1.8	84.315	-28410	2134	-0.85254	0.42944	-0.25083
1.802	84.314	-28412	2133.9	-0.85254	0.42944	-0.25132
1.804	84.308	-28413	2133.8	-0.85254	0.42944	-0.25181
1.806	84.303	-28413	2133.7	-0.85254	0.42944	-0.2523
1.808	84.301	-28414	2133.6	-0.85254	0.42944	-0.25278
1.81	84.3	-28411	2133.5	-0.85254	0.42944	-0.25327
1.812	84.304	-28409	2133.4	-0.85351	0.42837	-0.25278
1.814	84.299	-28408	2133.3	-0.85449	0.42729	-0.2523
1.816	84.302	-28408	2133.3	-0.85546	0.42622	-0.25181
1.818	84.304	-28409	2133.2	-0.85644	0.42515	-0.25132
1.82	84.313	-28410	2133	-0.85742	0.42407	-0.25083
1.822	84.324	-28408	2133	-0.85615	0.42505	-0.25044
1.824	84.319	-28405	2132.9	-0.85488	0.42602	-0.25005
1.826	84.323	-28409	2132.8	-0.85361	0.427	-0.24966
1.828	84.335	-28412	2132.7	-0.85234	0.42798	-0.24927
1.83	84.328	-28418	2132.5	-0.85107	0.42895	-0.24888
1.832	84.317	-28424	2132.5	-0.85078	0.42905	-0.24859
1.834	84.309	-28419	2132.4	-0.85049	0.42915	-0.24829
1.836	84.315	-28415	2132.3	-0.85019	0.42924	-0.248
1.838	84.319	-28414	2132.2	-0.8499	0.42934	-0.24771
1.84	84.318	-28412	2132.1	-0.84961	0.42944	-0.24742
1.842	84.321	-28412	2132	-0.84941	0.42924	-0.248
1.844	84.327	-28412	2131.9	-0.84922	0.42905	-0.24859
1.846	84.318	-28414	2131.8	-0.84902	0.42885	-0.24917
1.848	84.313	-28415	2131.7	-0.84883	0.42866	-0.24976
1.85	84.311	-28410	2131.6	-0.84863	0.42846	-0.25034
1.852	84.312	-28406	2131.5	-0.84902	0.42759	-0.24995
1.854	84.315	-28407	2131.4	-0.84941	0.42671	-0.24956
1.856	84.317	-28408	2131.3	-0.8498	0.42583	-0.24917
1.858	84.318	-28406	2131.3	-0.85019	0.42495	-0.24878
1.86	84.316	-28404	2131.2	-0.85058	0.42407	-0.24839
1.862	84.321	-28399	2131.1	-0.85088	0.42476	-0.24849
1.864	84.326	-28394	2131	-0.85117	0.42544	-0.24859
1.866	84.325	-28396	2131	-0.85146	0.42612	-0.24868
1.868	84.326	-28398	2130.9	-0.85176	0.4268	-0.24878
1.87	84.328	-28399	2130.8	-0.85205	0.42749	-0.24888
1.872	84.33	-28400	2130.7	-0.85215	0.4271	-0.24898
1.874	84.332	-28401	2130.7	-0.85224	0.42671	-0.24908
1.876	84.333	-28403	2130.6	-0.85234	0.42632	-0.24917
1.878	84.333	-28399	2130.6	-0.85244	0.42593	-0.24927
1.88	84.336	-28396	2130.5	-0.85254	0.42554	-0.24937
1.882	84.341	-28400	2130.5	-0.85117	0.42495	-0.24888
1.884	84.344	-28403	2130.5	-0.8498	0.42436	-0.24839
1.886	84.349	-28400	2130.4	-0.84844	0.42378	-0.2479
1.888	84.351	-28396	2130.4	-0.84707	0.42319	-0.24742
1.89	84.345	-28402	2130.4	-0.8457	0.42261	-0.24693
1.892	84.34	-28408	2130.4	-0.84531	0.4231	-0.24722
1.894	84.342	-28405	2130.4	-0.84492	0.42358	-0.24751
1.896	84.343	-28403	2130.4	-0.84453	0.42407	-0.24781
1.898	84.35	-28403	2130.3	-0.84414	0.42456	-0.2481
1.9	84.353	-28402	2130.3	-0.84375	0.42505	-0.24839
1.902	84.352	-28402	2130.3	-0.84453	0.42632	-0.24917
1.904	84.348	-28401	2130.3	-0.84531	0.42759	-0.24995
1.906	84.353	-28399	2130.3	-0.84609	0.42885	-0.25073
1.908	84.366	-28396	2130.3	-0.84688	0.43012	-0.25152
1.91	84.368	-28400	2130.2	-0.84766	0.43139	-0.2523
1.912	84.365	-28404	2130.2	-0.84863	0.43042	-0.25161
1.914	84.365	-28411	2130.3	-0.84961	0.42944	-0.25093
1.916	84.366	-28418	2130.3	-0.85058	0.42846	-0.25025
1.918	84.361	-28407	2130.3	-0.85156	0.42749	-0.24956
1.92	84.36	-28397	2130.3	-0.85254	0.42651	-0.24888
1.922	84.364	-28394	2130.2	-0.85195	0.4271	-0.24947
1.924	84.37	-28391	2130.2	-0.85136	0.42768	-0.25005
1.926	84.375	-28396	2130.2	-0.85078	0.42827	-0.25064
1.928	84.377	-28400	2130.3	-0.85019	0.42885	-0.25122
1.93	84.382	-28404	2130.3	-0.84961	0.42944	-0.25181
1.932	84.383	-28408	2130.3	-0.85078	0.427	-0.252
1.934	84.383	-28409	2130.3	-0.85195	0.42456	-0.2522
1.936	84.385	-28410	2130.2	-0.85312	0.42212	-0.25239
1.938	84.385	-28406	2130.2	-0.85429	0.41968	-0.25259
1.94	84.38	-28402	2130.2	-0.85546	0.41724	-0.25278
1.942	84.374	-28408	2130.2	-0.85546	0.41812	-0.25259
1.944	84.373	-28415	2130.3	-0.85546	0.419	-0.25239
1.946	84.375	-28411	2130.3	-0.85546	0.41988	-0.2522
1.948	84.379	-28408	2130.3	-0.85546	0.42075	-0.252
1.95	84.379	-28411	2130.3	-0.85546	0.42163	-0.25181
1.952	84.377	-28414	2130.4	-0.85478	0.42192	-0.25112
1.954	84.379	-28414	2130.4	-0.8541	0.42222	-0.25044
1.956	84.381	-28414	2130.4	-0.85341	0.42251	-0.24976
1.958	84.382	-28411	2130.4	-0.85273	0.4228	-0.24908
1.96	84.38	-28407	2130.4	-0.85205	0.4231	-0.24839
1.962	84.38	-28409	2130.5	-0.85195	0.42446	-0.24898
1.964	84.385	-28410	2130.5	-0.85185	0.42583	-0.24956
1.966	84.383	-28413	2130.5	-0.85176	0.4272	-0.25015
1.968	84.383	-28417	2130.5	-0.85166	0.42856	-0.25073
1.97	84.391	-28417	2130.5	-0.85156	0.42993	-0.25132
1.972	84.39	-28417	2130.6	-0.85068	0.42934	-0.25054
1.974	84.391	-28416	2130.6	-0.8498	0.42876	-0.24976
1.976	84.395	-28415	2130.7	-0.84892	0.42817	-0.24898
1.978	84.388	-28418	2130.7	-0.84805	0.42759	-0.2482
1.98	84.377	-28422	2130.7	-0.84717	0.427	-0.24742
1.982	84.373	-28414	2130.7	-0.84932	0.4269	-0.24849
1.984	84.366	-28407	2130.7	-0.85146	0.4268	-0.24956
1.986	84.363	-28409	2130.7	-0.85361	0.42671	-0.25064
1.988	84.349	-28412	2130.7	-0.85576	0.42661	-0.25171
1.99	84.346	-28411	2130.7	-0.8579	0.42651	-0.25278
1.992	84.347	-28411	2130.8	-0.85703	0.42661	-0.2522
1.994	84.352	-28410	2130.8	-0.85615	0.42671	-0.25161
1.996	84.345	-28408	2130.8	-0.85527	0.4268	-0.25103
1.998	84.341	-28414	2130.8	-0.85439	0.4269	-0.25044
2	84.345	-28419	2130.8	-0.85351	0.427	-0.24986
2.002	84.343	-28418	2130.8	-0.85312	0.4268	-0.24995
2.004	84.338	-28418	2130.8	-0.85273	0.42661	-0.25005
2.006	84.341	-28419	2130.9	-0.85234	0.42641	-0.25015
2.008	84.347	-28421	2130.8	-0.85195	0.42622	-0.25025
2.01	84.35	-28419	2130.8	-0.85156	0.42602	-0.25034
2.012	84.343	-28417	2130.9	-0.85127	0.42632	-0.24986
2.014	84.333	-28412	2130.9	-0.85097	0.42661	-0.24937
2.016	84.339	-28407	2130.9	-0.85068	0.4269	-0.24888
2.018	84.351	-28413	2130.9	-0.85039	0.4272	-0.24839
2.02	84.355	-28418	2130.9	-0.8501	0.42749	-0.2479
2.022	84.355	-28419	2131	-0.85058	0.42749	-0.2481
2.024	84.36	-28419	2131	-0.85107	0.42749	-0.24829
2.026	84.371	-28418	2131	-0.85156	0.42749	-0.24849
2.028	84.375	-28416	2131	-0.85205	0.42749	-0.24868
2.03	84.372	-28412	2131	-0.85254	0.42749	-0.24888
2.032	84.375	-28407	2131	-0.85332	0.42729	-0.24898
2.034	84.375	-28408	2131	-0.8541	0.4271	-0.24908
2.036	84.364	-28410	2131	-0.85488	0.4269	-0.24917
2.038	84.357	-28415	2131	-0.85566	0.42671	-0.24927
2.04	84.358	-28420	2131	-0.85644	0.42651	-0.24937
2.042	84.359	-28416	2131	-0.85537	0.427	-0.24947
2.044	84.362	-28413	2131	-0.85429	0.42749	-0.24956
2.046	84.372	-28413	2130.9	-0.85322	0.42798	-0.24966
2.048	84.381	-28413	2130.9	-0.85215	0.42846	-0.24976
2.05	84.386	-28413	2130.9	-0.85107	0.42895	-0.24986
2.052	84.39	-28414	2130.9	-0.85107	0.42817	-0.24966
2.054	84.391	-28416	2130.9	-0.85107	0.42739	-0.24947
2.056	84.398	-28418	2130.9	-0.85107	0.42661	-0.24927
2.058	84.402	-28417	2130.8	-0.85107	0.42583	-0.24908
2.06	84.408	-28416	2130.7	-0.85107	0.42505	-0.24888
2.062	84.416	-28417	2130.7	-0.85127	0.42515	-0.24878
2.064	84.42	-28417	2130.7	-0.85146	0.42524	-0.24868
2.066	84.418	-28417	2130.7	-0.85166	0.42534	-0.24859
2.068	84.417	-28417	2130.6	-0.85185	0.42544	-0.24849
2.07	84.423	-28416	2130.6	-0.85205	0.42554	-0.24839
2.072	84.43	-28415	2130.5	-0.85234	0.42563	-0.24908
2.074	84.435	-28415	2130.5	-0.85263	0.42573	-0.24976
2.076	84.434	-28416	2130.5	-0.85293	0.42583	-0.25044
2.078	84.432	-28415	2130.4	-0.85322	0.42593	-0.25112
2.08	84.433	-28414	2130.3	-0.85351	0.42602	-0.25181
2.082	84.43	-28418	2130.3	-0.85459	0.42534	-0.25161
2.084	84.437	-28421	2130.2	-0.85566	0.42466	-0.25142
2.086	84.436	-28423	2130.2	-0.85673	0.42397	-0.25122
2.088	84.424	-28424	2130.1	-0.85781	0.42329	-0.25103
2.09	84.426	-28423	2130	-0.85888	0.42261	-0.25083
2.092	84.432	-28421	2130	-0.85615	0.42368	-0.24966
2.094	84.434	-28420	2129.9	-0.85341	0.42476	-0.24849
2.096	84.429	-28419	2129.9	-0.85068	0.42583	-0.24732
2.098	84.423	-28419	2129.8	-0.84795	0.4269	-0.24615
2.1	84.425	-28419	2129.7	-0.84522	0.42798	-0.24498
2.102	84.426	-28423	2129.6	-0.84483	0.4271	-0.24527
2.104	84.426	-28427	2129.6	-0.84444	0.42622	-0.24556
2.106	84.425	-28424	2129.6	-0.84404	0.42534	-0.24585
2.108	84.429	-28421	2129.5	-0.84365	0.42446	-0.24615
2.11	84.435	-28420	2129.4	-0.84326	0.42358	-0.24644
2.112	84.436	-28419	2129.3	-0.84365	0.42349	-0.24664
2.114	84.44	-28426	2129.3	-0.84404	0.42339	-0.24683
2.116	84.442	-28433	2129.3	-0.84444	0.42329	-0.24703
2.118	84.445	-28432	2129.2	-0.84483	0.42319	-0.24722
2.12	84.443	-28430	2129.1	-0.84522	0.4231	-0.24742
2.122	84.443	-28429	2129	-0.8459	0.42427	-0.24742
2.124	84.446	-28427	2129	-0.84658	0.42544	-0.24742
2.126	84.448	-28425	2128.9	-0.84727	0.42661	-0.24742
2.128	84.453	-28424	2128.9	-0.84795	0.42778	-0.24742
2.13	84.466	-28418	2128.9	-0.84863	0.42895	-0.24742
2.132	84.472	-28413	2128.8	-0.8498	0.42846	-0.248
2.134	84.461	-28414	2128.8	-0.85097	0.42798	-0.24859
2.136	84.441	-28414	2128.8	-0.85215	0.42749	-0.24917
2.138	84.417	-28419	2128.8	-0.85332	0.427	-0.24976
2.14	84.375	-28424	2128.7	-0.85449	0.42651	-0.25034
2.142	84.323	-28425	2128.7	-0.8541	0.4272	-0.25103
2.144	84.276	-28427	2128.7	-0.85371	0.42788	-0.25171
2.146	84.229	-28432	2128.7	-0.85332	0.42856	-0.25239
2.148	84.173	-28436	2128.6	-0.85293	0.42924	-0.25308
2.15	84.12	-28433	2128.5	-0.85254	0.42993	-0.25376
2.152	84.068	-28431	2128.5	-0.85244	0.42856	-0.25269
2.154	84.01	-28429	2128.5	-0.85234	0.4272	-0.25161
2.156	83.962	-28428	2128.5	-0.85224	0.42583	-0.25054
2.158	83.915	-28428	2128.4	-0.85215	0.42446	-0.24947
2.16	83.878	-28427	2128.4	-0.85205	0.4231	-0.24839
2.162	83.867	-28434	2128.3	-0.85322	0.42349	-0.24927
2.164	83.873	-28440	2128.3	-0.85439	0.42388	-0.25015
2.166	83.892	-28437	2128.2	-0.85556	0.42427	-0.25103
2.168	83.944	-28435	2128.2	-0.85673	0.42466	-0.25191
2.17	83.988	-28431	2128.2	-0.8579	0.42505	-0.25278
2.172	84.021	-28428	2128.1	-0.85703	0.42612	-0.25259
2.174	84.085	-28434	2128.1	-0.85615	0.4272	-0.25239
2.176	84.179	-28440	2128	-0.85527	0.42827	-0.2522
2.178	84.292	-28438	2128	-0.85439	0.42934	-0.252
2.18	84.392	-28436	2127.9	-0.85351	0.43042	-0.25181
2.182	84.435	-28434	2127.9	-0.85273	0.43042	-0.25152
2.184	84.448	-28432	2127.8	-0.85195	0.43042	-0.25122
2.186	84.443	-28435	2127.8	-0.85117	0.43042	-0.25093
2.188	84.435	-28438	2127.8	-0.85039	0.43042	-0.25064
2.19	84.428	-28439	2127.8	-0.84961	0.43042	-0.25034
2.192	84.422	-28440	2127.7	-0.84961	0.42973	-0.25025
2.194	84.416	-28440	2127.7	-0.84961	0.42905	-0.25015
2.196	84.41	-28440	2127.6	-0.84961	0.42837	-0.25005
2.198	84.411	-28440	2127.5	-0.84961	0.42768	-0.24995
2.2	84.413	-28440	2127.4	-0.84961	0.427	-0.24986
2.202	84.413	-28442	2127.4	-0.84951	0.42788	-0.24995
2.204	84.403	-28443	2127.4	-0.84941	0.42876	-0.25005
2.206	84.392	-28445	2127.4	-0.84932	0.42964	-0.25015
2.208	84.388	-28446	2127.4	-0.84922	0.43051	-0.25025
2.21	84.39	-28445	2127.4	-0.84912	0.43139	-0.25034
2.212	84.386	-28444	2127.4	-0.85019	0.43051	-0.25044
2.214	84.379	-28447	2127.4	-0.85127	0.42964	-0.25054
2.216	84.375	-28450	2127.3	-0.85234	0.42876	-0.25064
2.218	84.375	-28449	2127.3	-0.85341	0.42788	-0.25073
2.22	84.377	-28447	2127.2	-0.85449	0.427	-0.25083
2.222	84.378	-28447	2127.2	-0.8539	0.42768	-0.25073
2.224	84.379	-28446	2127.2	-0.85332	0.42837	-0.25064
2.226	84.376	-28444	2127.2	-0.85273	0.42905	-0.25054
2.228	84.37	-28442	2127.2	-0.85215	0.42973	-0.25044
2.23	84.372	-28446	2127.1	-0.85156	0.43042	-0.25034
2.232	84.375	-28450	2127.1	-0.85185	0.42983	-0.25015
2.234	84.377	-28451	2127.1	-0.85215	0.42924	-0.24995
2.236	84.378	-28451	2127	-0.85244	0.42866	-0.24976
2.238	84.377	-28448	2127	-0.85273	0.42807	-0.24956
2.24	84.375	-28445	2127	-0.85302	0.42749	-0.24937
2.242	84.369	-28447	2126.9	-0.85156	0.42778	-0.24888
2.244	84.363	-28448	2126.8	-0.8501	0.42807	-0.24839
2.246	84.362	-28449	2126.7	-0.84863	0.42837	-0.2479
2.248	84.361	-28449	2126.7	-0.84717	0.42866	-0.24742
2.25	84.352	-28444	2126.6	-0.8457	0.42895	-0.24693
2.252	84.351	-28438	2126.6	-0.84697	0.42827	-0.24712
2.254	84.345	-28442	2126.6	-0.84824	0.42759	-0.24732
2.256	84.341	-28447	2126.5	-0.84951	0.4269	-0.24751
2.258	84.348	-28444	2126.4	-0.85078	0.42622	-0.24771
2.26	84.347	-28441	2126.3	-0.85205	0.42554	-0.2479
2.262	84.343	-28446	2126.3	-0.85136	0.42622	-0.24781
2.264	84.33	-28450	2126.2	-0.85068	0.4269	-0.24771
2.266	84.325	-28449	2126.2	-0.85	0.42759	-0.24761
2.268	84.324	-28447	2126.1	-0.84932	0.42827	-0.24751
2.27	84.325	-28449	2126.1	-0.84863	0.42895	-0.24742
2.272	84.326	-28452	2126.1	-0.84814	0.42905	-0.24703
2.274	84.328	-28456	2126.1	-0.84766	0.42915	-0.24664
2.276	84.333	-28460	2126.1	-0.84717	0.42924	-0.24624
2.278	84.341	-28453	2126.1	-0.84668	0.42934	-0.24585
2.28	84.338	-28446	2126.1	-0.84619	0.42944	-0.24546
2.282	84.33	-28452	2126	-0.84697	0.42964	-0.24624
2.284	84.326	-28458	2125.9	-0.84775	0.42983	-0.24703
2.286	84.324	-28456	2125.8	-0.84853	0.43003	-0.24781
2.288	84.317	-28454	2125.8	-0.84932	0.43022	-0.24859
2.29	84.316	-28455	2125.8	-0.8501	0.43042	-0.24937
2.292	84.321	-28457	2125.7	-0.85058	0.43032	-0.24995
2.294	84.321	-28456	2125.7	-0.85107	0.43022	-0.25054
2.296	84.315	-28456	2125.6	-0.85156	0.43012	-0.25112
2.298	84.309	-28458	2125.6	-0.85205	0.43003	-0.25171
2.3	84.307	-28460	2125.5	-0.85254	0.42993	-0.2523
2.302	84.303	-28458	2125.5	-0.85078	0.42846	-0.25103
2.304	84.295	-28456	2125.5	-0.84902	0.427	-0.24976
2.306	84.286	-28458	2125.5	-0.84727	0.42554	-0.24849
2.308	84.28	-28460	2125.4	-0.84551	0.42407	-0.24722
2.31	84.276	-28461	2125.4	-0.84375	0.42261	-0.24595
2.312	84.271	-28461	2125.3	-0.84668	0.42368	-0.24712
2.314	84.265	-28458	2125.3	-0.84961	0.42476	-0.24829
2.316	84.261	-28455	2125.2	-0.85254	0.42583	-0.24947
2.318	84.256	-28462	2125.2	-0.85546	0.4269	-0.25064
2.32	84.255	-28468	2125.1	-0.85839	0.42798	-0.25181
2.322	84.252	-28466	2125.1	-0.85722	0.42749	-0.25103
2.324	84.248	-28465	2125.1	-0.85605	0.427	-0.25025
2.326	84.241	-28462	2125	-0.85488	0.42651	-0.24947
2.328	84.232	-28458	2125	-0.85371	0.42602	-0.24868
2.33	84.23	-28458	2124.9	-0.85254	0.42554	-0.2479
2.332	84.22	-28459	2124.9	-0.85302	0.42632	-0.24849
2.334	84.212	-28456	2124.9	-0.85351	0.4271	-0.24908
2.336	84.21	-28453	2124.8	-0.854	0.42788	-0.24966
2.338	84.207	-28463	2124.8	-0.85449	0.42866	-0.25025
2.34	84.206	-28474	2124.8	-0.85498	0.42944	-0.25083
2.342	84.207	-28469	2124.8	-0.85517	0.42807	-0.25044
2.344	84.202	-28464	2124.8	-0.85537	0.42671	-0.25005
2.346	84.189	-28468	2124.8	-0.85556	0.42534	-0.24966
2.348	84.172	-28471	2124.8	-0.85576	0.42397	-0.24927
2.35	84.174	-28471	2124.9	-0.85595	0.42261	-0.24888
2.352	84.174	-28470	2124.9	-0.85566	0.42261	-0.24868
2.354	84.179	-28472	2125	-0.85537	0.42261	-0.24849
2.356	84.173	-28474	2125	-0.85507	0.42261	-0.24829
2.358	84.17	-28470	2125.1	-0.85478	0.42261	-0.2481
2.36	84.169	-28466	2125.2	-0.85449	0.42261	-0.2479
2.362	84.166	-28468	2125.4	-0.85459	0.42378	-0.24859
2.364	84.163	-28469	2125.5	-0.85468	0.42495	-0.24927
2.366	84.164	-28472	2125.7	-0.85478	0.42612	-0.24995
2.368	84.17	-28475	2125.9	-0.85488	0.42729	-0.25064
2.37	84.174	-28473	2126.1	-0.85498	0.42846	-0.25132
2.372	84.169	-28472	2126.3	-0.85429	0.42856	-0.25122
2.374	84.161	-28479	2126.5	-0.85361	0.42866	-0.25112
2.376	84.153	-28487	2126.7	-0.85293	0.42876	-0.25103
2.378	84.148	-28484	2126.9	-0.85224	0.42885	-0.25093
2.38	84.153	-28481	2127	-0.85156	0.42895	-0.25083
2.382	84.16	-28476	2127.2	-0.85049	0.42866	-0.25005
2.384	84.165	-28472	2127.4	-0.84941	0.42837	-0.24927
2.386	84.171	-28481	2127.6	-0.84834	0.42807	-0.24849
2.388	84.18	-28490	2127.7	-0.84727	0.42778	-0.24771
2.39	84.19	-28484	2127.9	-0.84619	0.42749	-0.24693
2.392	84.197	-28478	2128.1	-0.84746	0.42661	-0.24644
2.394	84.201	-28482	2128.3	-0.84873	0.42573	-0.24595
2.396	84.205	-28485	2128.5	-0.85	0.42485	-0.24546
2.398	84.208	-28480	2128.6	-0.85127	0.42397	-0.24498
2.4	84.213	-28476	2128.7	-0.85254	0.4231	-0.24449
2.402	84.216	-28474	2128.9	-0.85176	0.42436	-0.24517
2.404	84.224	-28472	2129.1	-0.85097	0.42563	-0.24585
2.406	84.236	-28463	2129.3	-0.85019	0.4269	-0.24654
2.408	84.237	-28455	2129.4	-0.84941	0.42817	-0.24722
2.41	84.246	-28461	2129.6	-0.84863	0.42944	-0.2479
2.412	84.258	-28468	2129.8	-0.84922	0.42856	-0.2482
2.414	84.266	-28467	2129.9	-0.8498	0.42768	-0.24849
2.416	84.273	-28467	2130.1	-0.85039	0.4268	-0.24878
2.418	84.281	-28461	2130.3	-0.85097	0.42593	-0.24908
2.42	84.286	-28456	2130.4	-0.85156	0.42505	-0.24937
2.422	84.291	-28454	2130.6	-0.8499	0.42534	-0.24849
2.424	84.29	-28451	2130.8	-0.84824	0.42563	-0.24761
2.426	84.295	-28459	2130.9	-0.84658	0.42593	-0.24673
2.428	84.31	-28466	2131.1	-0.84492	0.42622	-0.24585
2.43	84.32	-28465	2131.2	-0.84326	0.42651	-0.24498
2.432	84.324	-28464	2131.4	-0.84395	0.42641	-0.24566
2.434	84.32	-28462	2131.6	-0.84463	0.42632	-0.24634
2.436	84.323	-28460	2131.7	-0.84531	0.42622	-0.24703
2.438	84.331	-28463	2131.8	-0.846	0.42612	-0.24771
2.44	84.342	-28465	2131.9	-0.84668	0.42602	-0.24839
2.442	84.351	-28464	2132	-0.84727	0.42661	-0.2482
2.444	84.357	-28462	2132.1	-0.84785	0.4272	-0.248
2.446	84.353	-28460	2132.2	-0.84844	0.42778	-0.24781
2.448	84.348	-28458	2132.3	-0.84902	0.42837	-0.24761
2.45	84.344	-28457	2132.3	-0.84961	0.42895	-0.24742
2.452	84.348	-28456	2132.4	-0.85029	0.42895	-0.24761
2.454	84.352	-28453	2132.5	-0.85097	0.42895	-0.24781
2.456	84.359	-28450	2132.6	-0.85166	0.42895	-0.248
2.458	84.366	-28448	2132.6	-0.85234	0.42895	-0.2482
2.46	84.363	-28445	2132.6	-0.85302	0.42895	-0.24839
2.462	84.364	-28448	2132.6	-0.85185	0.42876	-0.24839
2.464	84.367	-28450	2132.7	-0.85068	0.42856	-0.24839
2.466	84.37	-28449	2132.7	-0.84951	0.42837	-0.24839
2.468	84.374	-28449	2132.7	-0.84834	0.42817	-0.24839
2.47	84.379	-28448	2132.6	-0.84717	0.42798	-0.24839
2.472	84.383	-28446	2132.6	-0.84892	0.42827	-0.24888
2.474	84.386	-28454	2132.6	-0.85068	0.42856	-0.24937
2.476	84.388	-28461	2132.6	-0.85244	0.42885	-0.24986
2.478	84.388	-28450	2132.6	-0.8542	0.42915	-0.25034
2.48	84.387	-28440	2132.6	-0.85595	0.42944	-0.25083
2.482	84.382	-28443	2132.5	-0.85537	0.42944	-0.25112
2.484	84.379	-28445	2132.4	-0.85478	0.42944	-0.25142
2.486	84.381	-28448	2132.4	-0.8542	0.42944	-0.25171
2.488	84.388	-28451	2132.3	-0.85361	0.42944	-0.252
2.49	84.394	-28446	2132.3	-0.85302	0.42944	-0.2523
2.492	84.394	-28442	2132.3	-0.85234	0.42915	-0.25142
2.494	84.397	-28442	2132.2	-0.85166	0.42885	-0.25054
2.496	84.394	-28442	2132.2	-0.85097	0.42856	-0.24966
2.498	84.384	-28438	2132.1	-0.85029	0.42827	-0.24878
2.5	84.378	-28434	2132.1	-0.84961	0.42798	-0.2479
2.502	84.381	-28434	2132	-0.85029	0.42817	-0.248
2.504	84.386	-28434	2131.9	-0.85097	0.42837	-0.2481
2.506	84.389	-28442	2131.9	-0.85166	0.42856	-0.2482
2.508	84.383	-28450	2131.8	-0.85234	0.42876	-0.24829
2.51	84.376	-28444	2131.8	-0.85302	0.42895	-0.24839
2.512	84.372	-28438	2131.7	-0.85341	0.42788	-0.24878
2.514	84.361	-28436	2131.6	-0.8538	0.4268	-0.24917
2.516	84.354	-28434	2131.5	-0.8542	0.42573	-0.24956
2.518	84.351	-28436	2131.3	-0.85459	0.42466	-0.24995
2.52	84.352	-28438	2131.2	-0.85498	0.42358	-0.25034
2.522	84.359	-28430	2131.2	-0.8539	0.42495	-0.25093
2.524	84.367	-28421	2131.1	-0.85283	0.42632	-0.25152
2.526	84.37	-28430	2131	-0.85176	0.42768	-0.2521
2.528	84.375	-28440	2130.8	-0.85068	0.42905	-0.25269
2.53	84.373	-28439	2130.7	-0.84961	0.43042	-0.25327
2.532	84.369	-28437	2130.6	-0.85	0.43042	-0.25269
2.534	84.368	-28432	2130.5	-0.85039	0.43042	-0.2521
2.536	84.36	-28426	2130.3	-0.85078	0.43042	-0.25152
2.538	84.356	-28429	2130.2	-0.85117	0.43042	-0.25093
2.54	84.359	-28432	2130.1	-0.85156	0.43042	-0.25034
2.542	84.367	-28433	2130	-0.85078	0.43003	-0.24995
2.544	84.366	-28435	2129.9	-0.85	0.42964	-0.24956
2.546	84.364	-28434	2129.8	-0.84922	0.42924	-0.24917
2.548	84.366	-28434	2129.7	-0.84844	0.42885	-0.24878
2.55	84.36	-28435	2129.5	-0.84766	0.42846	-0.24839
2.552	84.353	-28436	2129.4	-0.84824	0.42817	-0.24849
2.554	84.355	-28440	2129.3	-0.84883	0.42788	-0.24859
2.556	84.358	-28443	2129.2	-0.84941	0.42759	-0.24868
2.558	84.357	-28440	2129.1	-0.85	0.42729	-0.24878
2.56	84.357	-28437	2129	-0.85058	0.427	-0.24888
2.562	84.356	-28438	2128.9	-0.84892	0.42641	-0.2481
2.564	84.355	-28439	2128.8	-0.84727	0.42583	-0.24732
2.566	84.361	-28437	2128.7	-0.84561	0.42524	-0.24654
2.568	84.364	-28435	2128.6	-0.84395	0.42466	-0.24576
2.57	84.362	-28437	2128.5	-0.84229	0.42407	-0.24498
2.572	84.363	-28439	2128.4	-0.84248	0.42378	-0.24517
2.574	84.372	-28437	2128.3	-0.84268	0.42349	-0.24537
2.576	84.381	-28434	2128.2	-0.84287	0.42319	-0.24556
2.578	84.379	-28442	2128.1	-0.84307	0.4229	-0.24576
2.58	84.367	-28450	2128	-0.84326	0.42261	-0.24595
2.582	84.358	-28447	2127.9	-0.84473	0.42368	-0.24556
2.584	84.359	-28445	2127.9	-0.84619	0.42476	-0.24517
2.586	84.359	-28437	2127.8	-0.84766	0.42583	-0.24478
2.588	84.355	-28429	2127.7	-0.84912	0.4269	-0.24439
2.59	84.356	-28433	2127.5	-0.85058	0.42798	-0.244
2.592	84.353	-28438	2127.4	-0.84971	0.42778	-0.24429
2.594	84.35	-28439	2127.3	-0.84883	0.42759	-0.24459
2.596	84.359	-28440	2127.3	-0.84795	0.42739	-0.24488
2.598	84.364	-28441	2127.2	-0.84707	0.4272	-0.24517
2.6	84.366	-28442	2127.2	-0.84619	0.427	-0.24546
2.602	84.367	-28440	2127.1	-0.84609	0.4268	-0.24546
2.604	84.369	-28438	2127.1	-0.846	0.42661	-0.24546
2.606	84.367	-28439	2127	-0.8459	0.42641	-0.24546
2.608	84.366	-28439	2127	-0.8458	0.42622	-0.24546
2.61	84.364	-28442	2126.9	-0.8457	0.42602	-0.24546
2.612	84.363	-28445	2126.9	-0.84541	0.42602	-0.24556
2.614	84.367	-28441	2126.9	-0.84512	0.42602	-0.24566
2.616	84.368	-28436	2126.8	-0.84483	0.42602	-0.24576
2.618	84.365	-28440	2126.8	-0.84453	0.42602	-0.24585
2.62	84.36	-28443	2126.8	-0.84424	0.42602	-0.24595
2.622	84.358	-28447	2126.7	-0.84629	0.42593	-0.24683
2.624	84.359	-28451	2126.7	-0.84834	0.42583	-0.24771
2.626	84.368	-28443	2126.7	-0.85039	0.42573	-0.24859
2.628	84.376	-28435	2126.7	-0.85244	0.42563	-0.24947
2.63	84.376	-28437	2126.7	-0.85449	0.42554	-0.25034
2.632	84.376	-28438	2126.6	-0.85293	0.42632	-0.25015
2.634	84.373	-28436	2126.6	-0.85136	0.4271	-0.24995
2.636	84.367	-28434	2126.6	-0.8498	0.42788	-0.24976
2.638	84.364	-28435	2126.6	-0.84824	0.42866	-0.24956
2.64	84.365	-28437	2126.6	-0.84668	0.42944	-0.24937
2.642	84.367	-28439	2126.6	-0.84697	0.42915	-0.24937
2.644	84.368	-28442	2126.7	-0.84727	0.42885	-0.24937
2.646	84.368	-28456	2126.7	-0.84756	0.42856	-0.24937
2.648	84.362	-28469	2126.8	-0.84785	0.42827	-0.24937
2.65	84.358	-28463	2126.8	-0.84814	0.42798	-0.24937
2.652	84.364	-28457	2126.8	-0.84873	0.42768	-0.24908
2.654	84.374	-28453	2126.8	-0.84932	0.42739	-0.24878
2.656	84.377	-28449	2126.8	-0.8499	0.4271	-0.24849
2.658	84.371	-28447	2126.9	-0.85049	0.4268	-0.2482
2.66	84.367	-28446	2126.9	-0.85107	0.42651	-0.2479
2.662	84.367	-28444	2126.9	-0.85078	0.42749	-0.24859
2.664	84.367	-28441	2126.9	-0.85049	0.42846	-0.24927
2.666	84.374	-28443	2127	-0.85019	0.42944	-0.24995
2.668	84.377	-28445	2127	-0.8499	0.43042	-0.25064
2.67	84.37	-28444	2127	-0.84961	0.43139	-0.25132
2.672	84.368	-28443	2127	-0.84883	0.43081	-0.25054
2.674	84.371	-28445	2127	-0.84805	0.43022	-0.24976
2.676	84.372	-28447	2127	-0.84727	0.42964	-0.24898
2.678	84.368	-28443	2127.1	-0.84648	0.42905	-0.2482
2.68	84.358	-28438	2127.1	-0.8457	0.42846	-0.24742
2.682	84.354	-28441	2127.1	-0.84512	0.4271	-0.24703
2.684	84.348	-28444	2127.1	-0.84453	0.42573	-0.24664
2.686	84.338	-28448	2127.1	-0.84395	0.42436	-0.24624
2.688	84.337	-28452	2127	-0.84336	0.423	-0.24585
2.69	84.336	-28452	2127	-0.84278	0.42163	-0.24546
2.692	84.338	-28453	2127	-0.84404	0.423	-0.24585
2.694	84.338	-28454	2127	-0.84531	0.42436	-0.24624
2.696	84.35	-28455	2127	-0.84658	0.42573	-0.24664
2.698	84.355	-28456	2127	-0.84785	0.4271	-0.24703
2.7	84.35	-28457	2127	-0.84912	0.42846	-0.24742
2.702	84.344	-28455	2127	-0.84951	0.42827	-0.24761
2.704	84.342	-28454	2127	-0.8499	0.42807	-0.24781
2.706	84.339	-28451	2127	-0.85029	0.42788	-0.248
2.708	84.335	-28449	2127	-0.85068	0.42768	-0.2482
2.71	84.332	-28448	2127	-0.85107	0.42749	-0.24839
2.712	84.322	-28446	2126.9	-0.8499	0.42759	-0.24732
2.714	84.315	-28446	2126.9	-0.84873	0.42768	-0.24624
2.716	84.313	-28446	2126.9	-0.84756	0.42778	-0.24517
2.718	84.315	-28449	2126.9	-0.84639	0.42788	-0.2441
2.72	84.319	-28452	2126.9	-0.84522	0.42798	-0.24302
2.722	84.326	-28455	2126.9	-0.84658	0.42798	-0.24429
2.724	84.328	-28458	2126.9	-0.84795	0.42798	-0.24556
2.726	84.325	-28450	2126.9	-0.84932	0.42798	-0.24683
2.728	84.322	-28442	2126.9	-0.85068	0.42798	-0.2481
2.73	84.319	-28443	2126.9	-0.85205	0.42798	-0.24937
2.732	84.324	-28443	2126.8	-0.85146	0.42817	-0.24868
2.734	84.332	-28446	2126.8	-0.85088	0.42837	-0.248
2.736	84.324	-28449	2126.8	-0.85029	0.42856	-0.24732
2.738	84.316	-28449	2126.8	-0.84971	0.42876	-0.24664
2.74	84.322	-28450	2126.8	-0.84912	0.42895	-0.24595
2.742	84.333	-28453	2126.8	-0.84951	0.42846	-0.24624
2.744	84.34	-28456	2126.8	-0.8499	0.42798	-0.24654
2.746	84.346	-28458	2126.8	-0.85029	0.42749	-0.24683
2.748	84.345	-28461	2126.7	-0.85068	0.427	-0.24712
2.75	84.346	-28460	2126.7	-0.85107	0.42651	-0.24742
2.752	84.352	-28458	2126.6	-0.85058	0.4272	-0.24742
2.754	84.363	-28454	2126.6	-0.8501	0.42788	-0.24742
2.756	84.371	-28449	2126.6	-0.84961	0.42856	-0.24742
2.758	84.382	-28448	2126.5	-0.84912	0.42924	-0.24742
2.76	84.391	-28447	2126.5	-0.84863	0.42993	-0.24742
2.762	84.396	-28454	2126.4	-0.84932	0.42964	-0.24781
2.764	84.397	-28460	2126.4	-0.85	0.42934	-0.2482
2.766	84.388	-28461	2126.3	-0.85068	0.42905	-0.24859
2.768	84.381	-28462	2126.3	-0.85136	0.42876	-0.24898
2.77	84.38	-28463	2126.3	-0.85205	0.42846	-0.24937
2.772	84.38	-28463	2126.2	-0.85127	0.42905	-0.24986
2.774	84.395	-28460	2126.2	-0.85049	0.42964	-0.25034
2.776	84.401	-28457	2126.1	-0.84971	0.43022	-0.25083
2.778	84.398	-28457	2126.1	-0.84892	0.43081	-0.25132
2.78	84.394	-28457	2126	-0.84814	0.43139	-0.25181
2.782	84.393	-28457	2126	-0.84805	0.4309	-0.25132
2.784	84.392	-28457	2125.9	-0.84795	0.43042	-0.25083
2.786	84.389	-28461	2125.8	-0.84785	0.42993	-0.25034
2.788	84.383	-28466	2125.8	-0.84775	0.42944	-0.24986
2.79	84.379	-28466	2125.8	-0.84766	0.42895	-0.24937
2.792	84.379	-28466	2125.7	-0.84785	0.42876	-0.24898
2.794	84.376	-28461	2125.6	-0.84805	0.42856	-0.24859
2.796	84.375	-28455	2125.5	-0.84824	0.42837	-0.2482
2.798	84.38	-28456	2125.5	-0.84844	0.42817	-0.24781
2.8	84.383	-28458	2125.4	-0.84863	0.42798	-0.24742
2.802	84.377	-28458	2125.4	-0.84805	0.42759	-0.24683
2.804	84.372	-28459	2125.3	-0.84746	0.4272	-0.24624
2.806	84.375	-28458	2125.2	-0.84688	0.4268	-0.24566
2.808	84.382	-28458	2125.1	-0.84629	0.42641	-0.24507
2.81	84.389	-28456	2125	-0.8457	0.42602	-0.24449
2.812	84.386	-28455	2124.9	-0.84551	0.42641	-0.24507
2.814	84.378	-28453	2124.8	-0.84531	0.4268	-0.24566
2.816	84.379	-28452	2124.8	-0.84512	0.4272	-0.24624
2.818	84.387	-28454	2124.7	-0.84492	0.42759	-0.24683
2.82	84.387	-28456	2124.7	-0.84473	0.42798	-0.24742
2.822	84.384	-28458	2124.5	-0.84678	0.42807	-0.24829
2.824	84.384	-28460	2124.4	-0.84883	0.42817	-0.24917
2.826	84.387	-28456	2124.3	-0.85088	0.42827	-0.25005
2.828	84.385	-28452	2124.3	-0.85293	0.42837	-0.25093
2.83	84.377	-28454	2124.3	-0.85498	0.42846	-0.25181
2.832	84.363	-28455	2124.1	-0.85322	0.42856	-0.25073
2.834	84.342	-28460	2124	-0.85146	0.42866	-0.24966
2.836	84.313	-28465	2123.9	-0.84971	0.42876	-0.24859
2.838	84.272	-28466	2123.9	-0.84795	0.42885	-0.24751
2.84	84.229	-28467	2123.8	-0.84619	0.42895	-0.24644
2.842	84.191	-28467	2123.7	-0.84795	0.42866	-0.24693
2.844	84.147	-28466	2123.7	-0.84971	0.42837	-0.24742
2.846	84.092	-28466	2123.6	-0.85146	0.42807	-0.2479
2.848	84.043	-28465	2123.5	-0.85322	0.42778	-0.24839
2.85	83.991	-28466	2123.4	-0.85498	0.42749	-0.24888
2.852	83.923	-28467	2123.3	-0.854	0.42807	-0.24917
2.854	83.871	-28466	2123.2	-0.85302	0.42866	-0.24947
2.856	83.832	-28465	2123.1	-0.85205	0.42924	-0.24976
2.858	83.808	-28465	2123	-0.85107	0.42983	-0.25005
2.86	83.797	-28465	2123	-0.8501	0.43042	-0.25034
2.862	83.808	-28468	2122.9	-0.85058	0.43012	-0.25054
2.864	83.842	-28471	2122.9	-0.85107	0.42983	-0.25073
2.866	83.896	-28468	2122.8	-0.85156	0.42954	-0.25093
2.868	83.936	-28465	2122.7	-0.85205	0.42924	-0.25112
2.87	83.986	-28462	2122.7	-0.85254	0.42895	-0.25132
2.872	84.055	-28459	2122.6	-0.85215	0.42866	-0.25034
2.874	84.148	-28464	2122.5	-0.85176	0.42837	-0.24937
2.876	84.258	-28468	2122.4	-0.85136	0.42807	-0.24839
2.878	84.335	-28465	2122.4	-0.85097	0.42778	-0.24742
2.88	84.369	-28463	2122.4	-0.85058	0.42749	-0.24644
2.882	84.375	-28467	2122.3	-0.85127	0.4272	-0.24693
2.884	84.368	-28472	2122.2	-0.85195	0.4269	-0.24742
2.886	84.366	-28475	2122.2	-0.85263	0.42661	-0.2479
2.888	84.37	-28479	2122.2	-0.85332	0.42632	-0.24839
2.89	84.368	-28477	2122.1	-0.854	0.42602	-0.24888
2.892	84.36	-28476	2122	-0.854	0.42602	-0.24917
2.894	84.351	-28480	2122	-0.854	0.42602	-0.24947
2.896	84.342	-28485	2121.9	-0.854	0.42602	-0.24976
2.898	84.334	-28486	2121.9	-0.854	0.42602	-0.25005
2.9	84.331	-28488	2121.8	-0.854	0.42602	-0.25034
2.902	84.331	-28486	2121.8	-0.85283	0.4268	-0.25044
2.904	84.331	-28483	2121.7	-0.85166	0.42759	-0.25054
2.906	84.326	-28479	2121.6	-0.85049	0.42837	-0.25064
2.908	84.32	-28474	2121.6	-0.84932	0.42915	-0.25073
2.91	84.31	-28473	2121.5	-0.84814	0.42993	-0.25083
2.912	84.302	-28472	2121.4	-0.84834	0.42993	-0.25025
2.914	84.294	-28474	2121.4	-0.84853	0.42993	-0.24966
2.916	84.288	-28475	2121.3	-0.84873	0.42993	-0.24908
2.918	84.286	-28474	2121.3	-0.84892	0.42993	-0.24849
2.92	84.287	-28473	2121.2	-0.84912	0.42993	-0.2479
2.922	84.289	-28475	2121.2	-0.84922	0.42924	-0.24742
2.924	84.291	-28477	2121.1	-0.84932	0.42856	-0.24693
2.926	84.292	-28482	2121.1	-0.84941	0.42788	-0.24644
2.928	84.293	-28488	2121	-0.84951	0.4272	-0.24595
2.93	84.286	-28481	2120.9	-0.84961	0.42651	-0.24546
2.932	84.275	-28475	2120.9	-0.84883	0.42661	-0.24566
2.934	84.275	-28474	2120.8	-0.84805	0.42671	-0.24585
2.936	84.283	-28473	2120.8	-0.84727	0.4268	-0.24605
2.938	84.278	-28479	2120.7	-0.84648	0.4269	-0.24624
2.94	84.271	-28486	2120.7	-0.8457	0.427	-0.24644
2.942	84.266	-28487	2120.6	-0.84688	0.42661	-0.24654
2.944	84.265	-28488	2120.6	-0.84805	0.42622	-0.24664
2.946	84.258	-28493	2120.5	-0.84922	0.42583	-0.24673
2.948	84.255	-28498	2120.5	-0.85039	0.42544	-0.24683
2.95	84.247	-28493	2120.4	-0.85156	0.42505	-0.24693
2.952	84.25	-28487	2120.4	-0.85312	0.42544	-0.24761
2.954	84.258	-28484	2120.3	-0.85468	0.42583	-0.24829
2.956	84.259	-28481	2120.2	-0.85624	0.42622	-0.24898
2.958	84.262	-28481	2120.1	-0.85781	0.42661	-0.24966
2.96	84.263	-28481	2120.1	-0.85937	0.427	-0.25034
2.962	84.261	-28478	2120	-0.85732	0.42768	-0.25005
2.964	84.255	-28474	2120	-0.85527	0.42837	-0.24976
2.966	84.249	-28479	2119.9	-0.85322	0.42905	-0.24947
2.968	84.243	-28483	2119.9	-0.85117	0.42973	-0.24917
2.97	84.237	-28490	2119.8	-0.84912	0.43042	-0.24888
2.972	84.231	-28497	2119.8	-0.84932	0.43051	-0.24878
2.974	84.23	-28489	2119.8	-0.84951	0.43061	-0.24868
2.976	84.231	-28482	2119.7	-0.84971	0.43071	-0.24859
2.978	84.23	-28482	2119.7	-0.8499	0.43081	-0.24849
2.98	84.225	-28481	2119.6	-0.8501	0.4309	-0.24839
2.982	84.219	-28487	2119.6	-0.84961	0.43022	-0.24771
2.984	84.217	-28493	2119.5	-0.84912	0.42954	-0.24703
2.986	84.215	-28494	2119.5	-0.84863	0.42885	-0.24634
2.988	84.214	-28494	2119.4	-0.84814	0.42817	-0.24566
2.99	84.211	-28494	2119.3	-0.84766	0.42749	-0.24498
2.992	84.205	-28494	2119.3	-0.84756	0.42768	-0.24585
2.994	84.206	-28496	2119.3	-0.84746	0.42788	-0.24673
2.996	84.204	-28499	2119.2	-0.84736	0.42807	-0.24761
2.998	84.198	-28496	2119.1	-0.84727	0.42827	-0.24849
3	84.191	-28493	2119.1	-0.84717	0.42846	-0.24937
3.002	84.18	-28495	2119	-0.84824	0.42778	-0.24927
3.004	84.165	-28496	2119	-0.84932	0.4271	-0.24917
3.006	84.161	-28494	2119	-0.85039	0.42641	-0.24908
3.008	84.162	-28493	2118.9	-0.85146	0.42573	-0.24898
3.01	84.164	-28495	2118.9	-0.85254	0.42505	-0.24888
3.012	84.161	-28496	2118.8	-0.85254	0.42554	-0.24956
3.014	84.152	-28495	2118.8	-0.85254	0.42602	-0.25025
3.016	84.152	-28494	2118.8	-0.85254	0.42651	-0.25093
3.018	84.149	-28495	2118.7	-0.85254	0.427	-0.25161
3.02	84.144	-28496	2118.7	-0.85254	0.42749	-0.2523
3.022	84.136	-28498	2118.7	-0.85215	0.42729	-0.25142
3.024	84.129	-28500	2118.7	-0.85176	0.4271	-0.25054
3.026	84.118	-28501	2118.6	-0.85136	0.4269	-0.24966
3.028	84.106	-28502	2118.6	-0.85097	0.42671	-0.24878
3.03	84.097	-28500	2118.6	-0.85058	0.42651	-0.2479
3.032	84.09	-28499	2118.5	-0.85107	0.42622	-0.24761
3.034	84.086	-28500	2118.5	-0.85156	0.42593	-0.24732
3.036	84.09	-28500	2118.5	-0.85205	0.42563	-0.24703
3.038	84.086	-28501	2118.5	-0.85254	0.42534	-0.24673
3.04	84.077	-28502	2118.5	-0.85302	0.42505	-0.24644
3.042	84.072	-28501	2118.4	-0.85312	0.42554	-0.24693
3.044	84.071	-28500	2118.4	-0.85322	0.42602	-0.24742
3.046	84.067	-28501	2118.4	-0.85332	0.42651	-0.2479
3.048	84.059	-28502	2118.3	-0.85341	0.427	-0.24839
3.05	84.049	-28506	2118.3	-0.85351	0.42749	-0.24888
3.052	84.044	-28509	2118.4	-0.85332	0.4272	-0.24917
3.054	84.042	-28509	2118.5	-0.85312	0.4269	-0.24947
3.056	84.041	-28508	2118.6	-0.85293	0.42661	-0.24976
3.058	84.043	-28505	2118.7	-0.85273	0.42632	-0.25005
3.06	84.047	-28502	2118.7	-0.85254	0.42602	-0.25034
3.062	84.047	-28501	2118.9	-0.85302	0.42661	-0.25054
3.064	84.045	-28499	2119	-0.85351	0.4272	-0.25073
3.066	84.042	-28504	2119.2	-0.854	0.42778	-0.25093
3.068	84.04	-28508	2119.3	-0.85449	0.42837	-0.25112
3.07	84.043	-28510	2119.4	-0.85498	0.42895	-0.25132
3.072	84.045	-28512	2119.6	-0.85371	0.42905	-0.25044
3.074	84.05	-28512	2119.8	-0.85244	0.42915	-0.24956
3.076	84.061	-28512	2120	-0.85117	0.42924	-0.24868
3.078	84.067	-28507	2120.1	-0.8499	0.42934	-0.24781
3.08	84.062	-28502	2120.3	-0.84863	0.42944	-0.24693
3.082	84.056	-28503	2120.4	-0.84883	0.42924	-0.24722
3.084	84.057	-28503	2120.6	-0.84902	0.42905	-0.24751
3.086	84.06	-28505	2120.8	-0.84922	0.42885	-0.24781
3.088	84.067	-28506	2121	-0.84941	0.42866	-0.2481
3.09	84.069	-28506	2121.1	-0.84961	0.42846	-0.24839
3.092	84.068	-28507	2121.3	-0.85	0.42749	-0.2481
3.094	84.08	-28510	2121.4	-0.85039	0.42651	-0.24781
3.096	84.092	-28514	2121.6	-0.85078	0.42554	-0.24751
3.098	84.102	-28512	2121.8	-0.85117	0.42456	-0.24722
3.1	84.11	-28511	2121.9	-0.85156	0.42358	-0.24693
3.102	84.118	-28513	2122	-0.85136	0.42427	-0.24771
3.104	84.122	-28514	2122.1	-0.85117	0.42495	-0.24849
3.106	84.129	-28508	2122.3	-0.85097	0.42563	-0.24927
3.108	84.138	-28501	2122.5	-0.85078	0.42632	-0.25005
3.11	84.14	-28503	2122.6	-0.85058	0.427	-0.25083
3.112	84.142	-28504	2122.8	-0.85	0.4272	-0.25044
3.114	84.145	-28508	2122.9	-0.84941	0.42739	-0.25005
3.116	84.154	-28513	2123.1	-0.84883	0.42759	-0.24966
3.118	84.162	-28507	2123.3	-0.84824	0.42778	-0.24927
3.12	84.175	-28501	2123.4	-0.84766	0.42798	-0.24888
3.122	84.177	-28503	2123.6	-0.84805	0.42739	-0.24908
3.124	84.184	-28505	2123.7	-0.84844	0.4268	-0.24927
3.126	84.193	-28503	2123.9	-0.84883	0.42622	-0.24947
3.128	84.194	-28501	2124	-0.84922	0.42563	-0.24966
3.13	84.196	-28500	2124.1	-0.84961	0.42505	-0.24986
3.132	84.199	-28500	2124.3	-0.84814	0.42515	-0.24917
3.134	84.201	-28498	2124.5	-0.84668	0.42524	-0.24849
3.136	84.207	-28497	2124.6	-0.84522	0.42534	-0.24781
3.138	84.212	-28494	2124.7	-0.84375	0.42544	-0.24712
3.14	84.214	-28492	2124.8	-0.84229	0.42554	-0.24644
3.142	84.214	-28496	2124.9	-0.84404	0.42563	-0.24722
3.144	84.211	-28501	2125	-0.8458	0.42573	-0.248
3.146	84.216	-28500	2125.1	-0.84756	0.42583	-0.24878
3.148	84.219	-28499	2125.1	-0.84932	0.42593	-0.24956
3.15	84.215	-28494	2125.2	-0.85107	0.42602	-0.25034
3.152	84.214	-28489	2125.2	-0.85097	0.42583	-0.24976
3.154	84.214	-28489	2125.3	-0.85088	0.42563	-0.24917
3.156	84.214	-28490	2125.4	-0.85078	0.42544	-0.24859
3.158	84.221	-28494	2125.4	-0.85068	0.42524	-0.248
3.16	84.231	-28497	2125.4	-0.85058	0.42505	-0.24742
3.162	84.239	-28490	2125.4	-0.85127	0.42524	-0.24859
3.164	84.246	-28482	2125.4	-0.85195	0.42544	-0.24976
3.166	84.248	-28484	2125.3	-0.85263	0.42563	-0.25093
3.168	84.243	-28485	2125.3	-0.85332	0.42583	-0.2521
3.17	84.244	-28486	2125.3	-0.854	0.42602	-0.25327
3.172	84.249	-28486	2125.2	-0.8538	0.4269	-0.25317
3.174	84.252	-28484	2125.2	-0.85361	0.42778	-0.25308
3.176	84.252	-28483	2125.1	-0.85341	0.42866	-0.25298
3.178	84.254	-28482	2125.1	-0.85322	0.42954	-0.25288
3.18	84.248	-28482	2125.1	-0.85302	0.43042	-0.25278
3.182	84.249	-28478	2125	-0.85224	0.43032	-0.25161
3.184	84.256	-28475	2125	-0.85146	0.43022	-0.25044
3.186	84.258	-28479	2124.9	-0.85068	0.43012	-0.24927
3.188	84.259	-28483	2124.8	-0.8499	0.43003	-0.2481
3.19	84.251	-28481	2124.7	-0.84912	0.42993	-0.24693
3.192	84.246	-28479	2124.7	-0.85058	0.42944	-0.248
3.194	84.244	-28476	2124.6	-0.85205	0.42895	-0.24908
3.196	84.242	-28474	2124.5	-0.85351	0.42846	-0.25015
3.198	84.236	-28476	2124.5	-0.85498	0.42798	-0.25122
3.2	84.233	-28478	2124.4	-0.85644	0.42749	-0.2523
3.202	84.224	-28480	2124.3	-0.85644	0.42749	-0.2521
3.204	84.222	-28482	2124.2	-0.85644	0.42749	-0.25191
3.206	84.232	-28481	2124.1	-0.85644	0.42749	-0.25171
3.208	84.237	-28480	2124	-0.85644	0.42749	-0.25152
3.21	84.237	-28475	2123.9	-0.85644	0.42749	-0.25132
3.212	84.236	-28470	2123.8	-0.85585	0.42798	-0.25161
3.214	84.232	-28470	2123.8	-0.85527	0.42846	-0.25191
3.216	84.229	-28471	2123.7	-0.85468	0.42895	-0.2522
3.218	84.23	-28468	2123.6	-0.8541	0.42944	-0.25249
3.22	84.234	-28464	2123.5	-0.85351	0.42993	-0.25278
3.222	84.233	-28472	2123.3	-0.85205	0.42964	-0.2521
3.224	84.231	-28480	2123.2	-0.85058	0.42934	-0.25142
3.226	84.226	-28472	2123.1	-0.84912	0.42905	-0.25073
3.228	84.218	-28464	2123	-0.84766	0.42876	-0.25005
3.23	84.213	-28469	2122.9	-0.84619	0.42846	-0.24937
3.232	84.211	-28475	2122.9	-0.84746	0.42798	-0.24927
3.234	84.213	-28476	2122.8	-0.84873	0.42749	-0.24917
3.236	84.219	-28477	2122.7	-0.85	0.427	-0.24908
3.238	84.223	-28473	2122.7	-0.85127	0.42651	-0.24898
3.24	84.222	-28469	2122.6	-0.85254	0.42602	-0.24888
3.242	84.218	-28469	2122.5	-0.85156	0.42651	-0.24888
3.244	84.218	-28469	2122.4	-0.85058	0.427	-0.24888
3.246	84.221	-28471	2122.3	-0.84961	0.42749	-0.24888
3.248	84.222	-28473	2122.3	-0.84863	0.42798	-0.24888
3.25	84.22	-28471	2122.2	-0.84766	0.42846	-0.24888
3.252	84.216	-28469	2122.2	-0.84775	0.42876	-0.24868
3.254	84.209	-28472	2122.1	-0.84785	0.42905	-0.24849
3.256	84.204	-28475	2122	-0.84795	0.42934	-0.24829
3.258	84.205	-28478	2122	-0.84805	0.42964	-0.2481
3.26	84.212	-28481	2121.9	-0.84814	0.42993	-0.2479
3.262	84.211	-28478	2121.8	-0.84883	0.42866	-0.2479
3.264	84.203	-28475	2121.8	-0.84951	0.42739	-0.2479
3.266	84.198	-28472	2121.7	-0.85019	0.42612	-0.2479
3.268	84.204	-28469	2121.6	-0.85088	0.42485	-0.2479
3.27	84.211	-28470	2121.5	-0.85156	0.42358	-0.2479
3.272	84.218	-28472	2121.4	-0.85088	0.42388	-0.24771
3.274	84.218	-28474	2121.3	-0.85019	0.42417	-0.24751
3.276	84.213	-28475	2121.2	-0.84951	0.42446	-0.24732
3.278	84.215	-28471	2121.1	-0.84883	0.42476	-0.24712
3.28	84.214	-28466	2121	-0.84814	0.42505	-0.24693
3.282	84.22	-28471	2120.9	-0.84814	0.42505	-0.24664
3.284	84.217	-28476	2120.8	-0.84814	0.42505	-0.24634
3.286	84.207	-28476	2120.7	-0.84814	0.42505	-0.24605
3.288	84.204	-28477	2120.6	-0.84814	0.42505	-0.24576
3.29	84.197	-28478	2120.6	-0.84814	0.42505	-0.24546
3.292	84.198	-28480	2120.5	-0.84707	0.42456	-0.24498
3.294	84.201	-28476	2120.4	-0.846	0.42407	-0.24449
3.296	84.202	-28471	2120.3	-0.84492	0.42358	-0.244
3.298	84.206	-28471	2120.2	-0.84385	0.4231	-0.24351
3.3	84.207	-28472	2120.2	-0.84278	0.42261	-0.24302
3.302	84.197	-28469	2120.1	-0.84385	0.4228	-0.2438
3.304	84.192	-28467	2120	-0.84492	0.423	-0.24459
3.306	84.195	-28471	2120	-0.846	0.42319	-0.24537
3.308	84.2	-28476	2119.9	-0.84707	0.42339	-0.24615
3.31	84.205	-28477	2119.9	-0.84814	0.42358	-0.24693
3.312	84.209	-28478	2119.8	-0.84785	0.42456	-0.24732
3.314	84.209	-28478	2119.8	-0.84756	0.42554	-0.24771
3.316	84.205	-28477	2119.8	-0.84727	0.42651	-0.2481
3.318	84.203	-28480	2119.8	-0.84697	0.42749	-0.24849
3.32	84.21	-28482	2119.7	-0.84668	0.42846	-0.24888
3.322	84.218	-28479	2119.7	-0.84629	0.42817	-0.24839
3.324	84.216	-28477	2119.7	-0.8459	0.42788	-0.2479
3.326	84.212	-28476	2119.7	-0.84551	0.42759	-0.24742
3.328	84.209	-28475	2119.7	-0.84512	0.42729	-0.24693
3.33	84.209	-28478	2119.7	-0.84473	0.427	-0.24644
3.332	84.211	-28480	2119.7	-0.8459	0.4268	-0.24693
3.334	84.211	-28480	2119.7	-0.84707	0.42661	-0.24742
3.336	84.207	-28481	2119.7	-0.84824	0.42641	-0.2479
3.338	84.204	-28476	2119.7	-0.84941	0.42622	-0.24839
3.34	84.204	-28471	2119.7	-0.85058	0.42602	-0.24888
3.342	84.21	-28472	2119.7	-0.8499	0.42641	-0.24878
3.344	84.214	-28472	2119.7	-0.84922	0.4268	-0.24868
3.346	84.213	-28473	2119.7	-0.84853	0.4272	-0.24859
3.348	84.209	-28473	2119.7	-0.84785	0.42759	-0.24849
3.35	84.212	-28470	2119.6	-0.84717	0.42798	-0.24839
3.352	84.214	-28466	2119.7	-0.84844	0.4271	-0.24849
3.354	84.207	-28466	2119.7	-0.84971	0.42622	-0.24859
3.356	84.202	-28466	2119.7	-0.85097	0.42534	-0.24868
3.358	84.203	-28468	2119.7	-0.85224	0.42446	-0.24878
3.36	84.208	-28470	2119.6	-0.85351	0.42358	-0.24888
3.362	84.211	-28478	2119.7	-0.85254	0.42417	-0.24859
3.364	84.207	-28486	2119.7	-0.85156	0.42476	-0.24829
3.366	84.202	-28488	2119.7	-0.85058	0.42534	-0.248
3.368	84.203	-28490	2119.8	-0.84961	0.42593	-0.24771
3.37	84.198	-28491	2119.8	-0.84863	0.42651	-0.24742
3.372	84.186	-28492	2119.8	-0.84863	0.4268	-0.2479
3.374	84.178	-28487	2119.9	-0.84863	0.4271	-0.24839
3.376	84.173	-28483	2119.9	-0.84863	0.42739	-0.24888
3.378	84.164	-28481	2119.9	-0.84863	0.42768	-0.24937
3.38	84.165	-28480	2119.9	-0.84863	0.42798	-0.24986
3.382	84.167	-28480	2119.9	-0.84922	0.42788	-0.24986
3.384	84.166	-28479	2120	-0.8498	0.42778	-0.24986
3.386	84.161	-28481	2120	-0.85039	0.42768	-0.24986
3.388	84.167	-28483	2119.9	-0.85097	0.42759	-0.24986
3.39	84.175	-28485	2119.9	-0.85156	0.42749	-0.24986
3.392	84.181	-28487	2119.9	-0.85136	0.42798	-0.25005
3.394	84.177	-28488	2119.9	-0.85117	0.42846	-0.25025
3.396	84.167	-28488	2119.9	-0.85097	0.42895	-0.25044
3.398	84.16	-28488	2119.9	-0.85078	0.42944	-0.25064
3.4	84.155	-28488	2119.8	-0.85058	0.42993	-0.25083
3.402	84.15	-28486	2119.9	-0.85068	0.42876	-0.25054
3.404	84.147	-28484	2119.9	-0.85078	0.42759	-0.25025
3.406	84.148	-28484	2119.9	-0.85088	0.42641	-0.24995
3.408	84.155	-28483	2119.9	-0.85097	0.42524	-0.24966
3.41	84.166	-28484	2119.8	-0.85107	0.42407	-0.24937
3.412	84.172	-28486	2119.8	-0.85136	0.42515	-0.24986
3.414	84.17	-28483	2119.7	-0.85166	0.42622	-0.25034
3.416	84.161	-28479	2119.7	-0.85195	0.42729	-0.25083
3.418	84.151	-28479	2119.8	-0.85224	0.42837	-0.25132
3.42	84.149	-28478	2119.8	-0.85254	0.42944	-0.25181
3.422	84.147	-28479	2119.8	-0.85244	0.42895	-0.25142
3.424	84.144	-28479	2119.8	-0.85234	0.42846	-0.25103
3.426	84.147	-28483	2119.8	-0.85224	0.42798	-0.25064
3.428	84.151	-28486	2119.8	-0.85215	0.42749	-0.25025
3.43	84.155	-28488	2119.8	-0.85205	0.427	-0.24986
3.432	84.17	-28490	2119.8	-0.85088	0.427	-0.24966
3.434	84.174	-28488	2119.7	-0.84971	0.427	-0.24947
3.436	84.17	-28487	2119.7	-0.84853	0.427	-0.24927
3.438	84.175	-28489	2119.7	-0.84736	0.427	-0.24908
3.44	84.186	-28491	2119.6	-0.84619	0.427	-0.24888
3.442	84.199	-28492	2119.7	-0.84805	0.4271	-0.24927
3.444	84.218	-28493	2119.7	-0.8499	0.4272	-0.24966
3.446	84.228	-28490	2119.7	-0.85176	0.42729	-0.25005
3.448	84.222	-28488	2119.7	-0.85361	0.42739	-0.25044
3.45	84.212	-28487	2119.7	-0.85546	0.42749	-0.25083
3.452	84.217	-28486	2119.7	-0.85546	0.4268	-0.25064
3.454	84.224	-28487	2119.7	-0.85546	0.42612	-0.25044
3.456	84.228	-28489	2119.7	-0.85546	0.42544	-0.25025
3.458	84.224	-28489	2119.6	-0.85546	0.42476	-0.25005
3.46	84.225	-28488	2119.6	-0.85546	0.42407	-0.24986
3.462	84.223	-28483	2119.6	-0.85498	0.42456	-0.24986
3.464	84.215	-28477	2119.6	-0.85449	0.42505	-0.24986
3.466	84.212	-28474	2119.5	-0.854	0.42554	-0.24986
3.468	84.214	-28471	2119.5	-0.85351	0.42602	-0.24986
3.47	84.216	-28481	2119.5	-0.85302	0.42651	-0.24986
3.472	84.217	-28491	2119.4	-0.85234	0.42641	-0.24917
3.474	84.222	-28492	2119.4	-0.85166	0.42632	-0.24849
3.476	84.223	-28494	2119.3	-0.85097	0.42622	-0.24781
3.478	84.215	-28493	2119.3	-0.85029	0.42612	-0.24712
3.48	84.214	-28493	2119.2	-0.84961	0.42602	-0.24644
3.482	84.222	-28487	2119.2	-0.8498	0.42602	-0.24654
3.484	84.227	-28480	2119.2	-0.85	0.42602	-0.24664
3.486	84.227	-28481	2119.1	-0.85019	0.42602	-0.24673
3.488	84.229	-28481	2119.1	-0.85039	0.42602	-0.24683
3.49	84.223	-28483	2119	-0.85058	0.42602	-0.24693
3.492	84.216	-28485	2119	-0.85156	0.42554	-0.24742
3.494	84.213	-28484	2118.9	-0.85254	0.42505	-0.2479
3.496	84.213	-28484	2118.9	-0.85351	0.42456	-0.24839
3.498	84.216	-28488	2118.9	-0.85449	0.42407	-0.24888
3.5	84.218	-28491	2118.8	-0.85546	0.42358	-0.24937
3.502	84.216	-28491	2118.8	-0.85556	0.42388	-0.24976
3.504	84.215	-28491	2118.7	-0.85566	0.42417	-0.25015
3.506	84.22	-28488	2118.7	-0.85576	0.42446	-0.25054
3.508	84.223	-28484	2118.6	-0.85585	0.42476	-0.25093
3.51	84.219	-28485	2118.5	-0.85595	0.42505	-0.25132
3.512	84.222	-28485	2118.4	-0.85556	0.42476	-0.25073
3.514	84.218	-28486	2118.3	-0.85517	0.42446	-0.25015
3.516	84.203	-28487	2118.3	-0.85478	0.42417	-0.24956
3.518	84.187	-28487	2118.2	-0.85439	0.42388	-0.24898
3.52	84.166	-28487	2118.2	-0.854	0.42358	-0.24839
3.522	84.128	-28492	2118.1	-0.85332	0.42446	-0.24859
3.524	84.087	-28497	2118	-0.85263	0.42534	-0.24878
3.526	84.042	-28496	2117.9	-0.85195	0.42622	-0.24898
3.528	84.004	-28495	2117.9	-0.85127	0.4271	-0.24917
3.53	83.961	-28490	2117.8	-0.85058	0.42798	-0.24937
3.532	83.901	-28485	2117.7	-0.85049	0.42749	-0.24859
3.534	83.84	-28487	2117.6	-0.85039	0.427	-0.24781
3.536	83.777	-28489	2117.6	-0.85029	0.42651	-0.24703
3.538	83.711	-28488	2117.5	-0.85019	0.42602	-0.24624
3.54	83.659	-28486	2117.4	-0.8501	0.42554	-0.24546
3.542	83.616	-28488	2117.3	-0.85029	0.42583	-0.24585
3.544	83.596	-28490	2117.2	-0.85049	0.42612	-0.24624
3.546	83.592	-28488	2117.1	-0.85068	0.42641	-0.24664
3.548	83.6	-28485	2117.1	-0.85088	0.42671	-0.24703
3.55	83.624	-28491	2117	-0.85107	0.427	-0.24742
3.552	83.666	-28497	2117	-0.85097	0.4268	-0.24742
3.554	83.712	-28493	2116.9	-0.85088	0.42661	-0.24742
3.556	83.778	-28489	2116.9	-0.85078	0.42641	-0.24742
3.558	83.869	-28491	2116.8	-0.85068	0.42622	-0.24742
3.56	83.98	-28494	2116.7	-0.85058	0.42602	-0.24742
3.562	84.087	-28493	2116.6	-0.85136	0.42612	-0.2479
3.564	84.156	-28493	2116.5	-0.85215	0.42622	-0.24839
3.566	84.181	-28492	2116.5	-0.85293	0.42632	-0.24888
3.568	84.179	-28491	2116.4	-0.85371	0.42641	-0.24937
3.57	84.169	-28497	2116.3	-0.85449	0.42651	-0.24986
3.572	84.168	-28504	2116.3	-0.85361	0.4268	-0.24956
3.574	84.173	-28496	2116.2	-0.85273	0.4271	-0.24927
3.576	84.173	-28488	2116.2	-0.85185	0.42739	-0.24898
3.578	84.169	-28492	2116.2	-0.85097	0.42768	-0.24868
3.58	84.168	-28496	2116.1	-0.8501	0.42798	-0.24839
3.582	84.168	-28492	2116	-0.85146	0.427	-0.24898
3.584	84.158	-28488	2116	-0.85283	0.42602	-0.24956
3.586	84.146	-28489	2115.9	-0.8542	0.42505	-0.25015
3.588	84.142	-28490	2115.9	-0.85556	0.42407	-0.25073
3.59	84.137	-28491	2115.8	-0.85693	0.4231	-0.25132
3.592	84.132	-28491	2115.8	-0.85537	0.42397	-0.25073
3.594	84.125	-28492	2115.8	-0.8538	0.42485	-0.25015
3.596	84.119	-28492	2115.7	-0.85224	0.42573	-0.24956
3.598	84.109	-28490	2115.6	-0.85068	0.42661	-0.24898
3.6	84.101	-28489	2115.6	-0.84912	0.42749	-0.24839
3.602	84.1	-28491	2115.5	-0.8499	0.42651	-0.24878
3.604	84.098	-28494	2115.5	-0.85068	0.42554	-0.24917
3.606	84.098	-28497	2115.4	-0.85146	0.42456	-0.24956
3.608	84.099	-28499	2115.4	-0.85224	0.42358	-0.24995
3.61	84.103	-28499	2115.3	-0.85302	0.42261	-0.25034
3.612	84.111	-28498	2115.3	-0.85283	0.4229	-0.25015
3.614	84.108	-28500	2115.3	-0.85263	0.42319	-0.24995
3.616	84.105	-28501	2115.2	-0.85244	0.42349	-0.24976
3.618	84.1	-28507	2115.2	-0.85224	0.42378	-0.24956
3.62	84.095	-28513	2115.1	-0.85205	0.42407	-0.24937
3.622	84.092	-28506	2115.1	-0.85293	0.42515	-0.25034
3.624	84.089	-28499	2115	-0.8538	0.42622	-0.25132
3.626	84.084	-28499	2115	-0.85468	0.42729	-0.2523
3.628	84.083	-28500	2114.9	-0.85556	0.42837	-0.25327
3.63	84.082	-28501	2114.9	-0.85644	0.42944	-0.25425
3.632	84.076	-28503	2114.8	-0.85429	0.42866	-0.2523
3.634	84.066	-28506	2114.7	-0.85215	0.42788	-0.25034
3.636	84.065	-28510	2114.7	-0.85	0.4271	-0.24839
3.638	84.063	-28508	2114.6	-0.84785	0.42632	-0.24644
3.64	84.063	-28507	2114.5	-0.8457	0.42554	-0.24449
3.642	84.068	-28511	2114.5	-0.846	0.42593	-0.24488
3.644	84.072	-28515	2114.4	-0.84629	0.42632	-0.24527
3.646	84.08	-28507	2114.4	-0.84658	0.42671	-0.24566
3.648	84.079	-28499	2114.3	-0.84688	0.4271	-0.24605
3.65	84.067	-28504	2114.3	-0.84717	0.42749	-0.24644
3.652	84.056	-28510	2114.3	-0.84941	0.42671	-0.24712
3.654	84.051	-28514	2114.2	-0.85166	0.42593	-0.24781
3.656	84.044	-28518	2114.2	-0.8539	0.42515	-0.24849
3.658	84.036	-28515	2114.2	-0.85615	0.42436	-0.24917
3.66	84.035	-28513	2114.1	-0.85839	0.42358	-0.24986
3.662	84.034	-28509	2114.1	-0.85732	0.42319	-0.24986
3.664	84.028	-28506	2114	-0.85624	0.4228	-0.24986
3.666	84.022	-28509	2113.9	-0.85517	0.42241	-0.24986
3.668	84.016	-28512	2113.8	-0.8541	0.42202	-0.24986
3.67	84.009	-28517	2113.8	-0.85302	0.42163	-0.24986
3.672	84.006	-28522	2113.7	-0.85312	0.42232	-0.25034
3.674	84.008	-28519	2113.7	-0.85322	0.423	-0.25083
3.676	84.006	-28516	2113.6	-0.85332	0.42368	-0.25132
3.678	84.003	-28517	2113.6	-0.85341	0.42436	-0.25181
3.68	83.997	-28518	2113.5	-0.85351	0.42505	-0.2523
3.682	83.987	-28514	2113.5	-0.85176	0.42515	-0.25161
3.684	83.988	-28510	2113.4	-0.85	0.42524	-0.25093
3.686	83.996	-28513	2113.4	-0.84824	0.42534	-0.25025
3.688	83.999	-28515	2113.4	-0.84648	0.42544	-0.24956
3.69	83.986	-28515	2113.4	-0.84473	0.42554	-0.24888
3.692	83.972	-28514	2113.3	-0.84502	0.42515	-0.24849
3.694	83.97	-28518	2113.3	-0.84531	0.42476	-0.2481
3.696	83.977	-28522	2113.3	-0.84561	0.42436	-0.24771
3.698	83.979	-28520	2113.3	-0.8459	0.42397	-0.24732
3.7	83.972	-28519	2113.2	-0.84619	0.42358	-0.24693
3.702	83.955	-28520	2113.3	-0.84814	0.42329	-0.24781
3.704	83.948	-28520	2113.3	-0.8501	0.423	-0.24868
3.706	83.936	-28515	2113.3	-0.85205	0.42271	-0.24956
3.708	83.924	-28510	2113.3	-0.854	0.42241	-0.25044
3.71	83.924	-28517	2113.3	-0.85595	0.42212	-0.25132
3.712	83.922	-28524	2113.3	-0.85712	0.42319	-0.25152
3.714	83.911	-28523	2113.3	-0.85829	0.42427	-0.25171
3.716	83.898	-28522	2113.2	-0.85947	0.42534	-0.25191
3.718	83.886	-28522	2113.2	-0.86064	0.42641	-0.2521
3.72	83.882	-28521	2113.2	-0.86181	0.42749	-0.2523
3.722	83.878	-28529	2113.2	-0.85966	0.4268	-0.25132
3.724	83.875	-28537	2113.1	-0.85751	0.42612	-0.25034
3.726	83.873	-28530	2113.1	-0.85537	0.42544	-0.24937
3.728	83.871	-28523	2113.2	-0.85322	0.42476	-0.24839
3.73	83.868	-28523	2113.2	-0.85107	0.42407	-0.24742
3.732	83.859	-28523	2113.2	-0.85127	0.42397	-0.24751
3.734	83.847	-28526	2113.2	-0.85146	0.42388	-0.24761
3.736	83.841	-28529	2113.3	-0.85166	0.42378	-0.24771
3.738	83.84	-28528	2113.3	-0.85185	0.42368	-0.24781
3.74	83.842	-28527	2113.4	-0.85205	0.42358	-0.2479
3.742	83.843	-28528	2113.5	-0.85312	0.42388	-0.24849
3.744	83.841	-28530	2113.6	-0.8542	0.42417	-0.24908
3.746	83.84	-28529	2113.7	-0.85527	0.42446	-0.24966
3.748	83.841	-28528	2113.9	-0.85634	0.42476	-0.25025
3.75	83.839	-28527	2114	-0.85742	0.42505	-0.25083
3.752	83.837	-28526	2114.2	-0.85742	0.42466	-0.25073
3.754	83.836	-28525	2114.3	-0.85742	0.42427	-0.25064
3.756	83.839	-28524	2114.5	-0.85742	0.42388	-0.25054
3.758	83.844	-28522	2114.7	-0.85742	0.42349	-0.25044
3.76	83.839	-28520	2114.9	-0.85742	0.4231	-0.25034
3.762	83.836	-28527	2115.1	-0.85732	0.4228	-0.25083
3.764	83.843	-28534	2115.3	-0.85722	0.42251	-0.25132
3.766	83.854	-28532	2115.5	-0.85712	0.42222	-0.25181
3.768	83.858	-28529	2115.7	-0.85703	0.42192	-0.2523
3.77	83.855	-28531	2115.9	-0.85693	0.42163	-0.25278
3.772	83.847	-28532	2116	-0.85732	0.42173	-0.25288
3.774	83.852	-28527	2116.2	-0.85771	0.42183	-0.25298
3.776	83.864	-28522	2116.4	-0.8581	0.42192	-0.25308
3.778	83.874	-28529	2116.6	-0.85849	0.42202	-0.25317
3.78	83.873	-28536	2116.8	-0.85888	0.42212	-0.25327
3.782	83.88	-28531	2116.9	-0.85742	0.42134	-0.25396
3.784	83.895	-28525	2117.1	-0.85595	0.42056	-0.25464
3.786	83.904	-28530	2117.3	-0.85449	0.41978	-0.25532
3.788	83.909	-28536	2117.4	-0.85302	0.419	-0.256
3.79	83.914	-28530	2117.6	-0.85156	0.41822	-0.25669
3.792	83.923	-28524	2117.7	-0.85195	0.41841	-0.2563
3.794	83.932	-28524	2117.8	-0.85234	0.41861	-0.25591
3.796	83.939	-28525	2118	-0.85273	0.4188	-0.25552
3.798	83.946	-28518	2118.1	-0.85312	0.419	-0.25513
3.8	83.956	-28512	2118.2	-0.85351	0.41919	-0.25474
3.802	83.956	-28519	2118.4	-0.8539	0.41988	-0.25396
3.804	83.959	-28525	2118.6	-0.85429	0.42056	-0.25317
3.806	83.957	-28523	2118.8	-0.85468	0.42124	-0.25239
3.808	83.962	-28520	2118.9	-0.85507	0.42192	-0.25161
3.81	83.977	-28520	2119	-0.85546	0.42261	-0.25083
3.812	83.992	-28520	2119.2	-0.85507	0.42183	-0.252
3.814	83.996	-28518	2119.3	-0.85468	0.42105	-0.25317
3.816	83.993	-28516	2119.4	-0.85429	0.42027	-0.25435
3.818	83.994	-28512	2119.6	-0.8539	0.41948	-0.25552
3.82	83.993	-28509	2119.7	-0.85351	0.4187	-0.25669
3.822	83.991	-28508	2119.8	-0.85371	0.41948	-0.2561
3.824	83.994	-28506	2119.9	-0.8539	0.42027	-0.25552
3.826	84.002	-28507	2120	-0.8541	0.42105	-0.25493
3.828	84.012	-28507	2120.1	-0.85429	0.42183	-0.25435
3.83	84.023	-28506	2120.2	-0.85449	0.42261	-0.25376
3.832	84.029	-28505	2120.2	-0.85361	0.42319	-0.25249
3.834	84.029	-28511	2120.3	-0.85273	0.42378	-0.25122
3.836	84.028	-28516	2120.4	-0.85185	0.42436	-0.24995
3.838	84.023	-28509	2120.4	-0.85097	0.42495	-0.24868
3.84	84.019	-28503	2120.5	-0.8501	0.42554	-0.24742
3.842	84.02	-28501	2120.5	-0.85078	0.42495	-0.24781
3.844	84.025	-28499	2120.5	-0.85146	0.42436	-0.2482
3.846	84.029	-28504	2120.5	-0.85215	0.42378	-0.24859
3.848	84.029	-28510	2120.5	-0.85283	0.42319	-0.24898
3.85	84.027	-28508	2120.5	-0.85351	0.42261	-0.24937
3.852	84.024	-28506	2120.5	-0.85302	0.42349	-0.24947
3.854	84.023	-28506	2120.5	-0.85254	0.42436	-0.24956
3.856	84.023	-28506	2120.5	-0.85205	0.42524	-0.24966
3.858	84.024	-28495	2120.5	-0.85156	0.42612	-0.24976
3.86	84.029	-28484	2120.5	-0.85107	0.427	-0.24986
3.862	84.038	-28491	2120.4	-0.85166	0.42671	-0.24995
3.864	84.041	-28497	2120.4	-0.85224	0.42641	-0.25005
3.866	84.046	-28495	2120.3	-0.85283	0.42612	-0.25015
3.868	84.052	-28492	2120.3	-0.85341	0.42583	-0.25025
3.87	84.041	-28500	2120.2	-0.854	0.42554	-0.25034
3.872	84.033	-28507	2120.2	-0.85361	0.42573	-0.25005
3.874	84.026	-28502	2120.1	-0.85322	0.42593	-0.24976
3.876	84.027	-28497	2120	-0.85283	0.42612	-0.24947
3.878	84.031	-28496	2120	-0.85244	0.42632	-0.24917
3.88	84.025	-28495	2120	-0.85205	0.42651	-0.24888
3.882	84.016	-28494	2119.9	-0.85332	0.42632	-0.24917
3.884	84.025	-28494	2119.8	-0.85459	0.42612	-0.24947
3.886	84.024	-28492	2119.8	-0.85585	0.42593	-0.24976
3.888	84.022	-28490	2119.7	-0.85712	0.42573	-0.25005
3.89	84.035	-28489	2119.7	-0.85839	0.42554	-0.25034
3.892	84.044	-28487	2119.6	-0.8579	0.42573	-0.25083
3.894	84.045	-28484	2119.6	-0.85742	0.42593	-0.25132
3.896	84.04	-28481	2119.5	-0.85693	0.42612	-0.25181
3.898	84.033	-28481	2119.4	-0.85644	0.42632	-0.2523
3.9	84.027	-28482	2119.4	-0.85595	0.42651	-0.25278
3.902	84.024	-28486	2119.3	-0.85605	0.42612	-0.25259
3.904	84.024	-28491	2119.2	-0.85615	0.42573	-0.25239
3.906	84.027	-28489	2119.1	-0.85624	0.42534	-0.2522
3.908	84.027	-28488	2119.1	-0.85634	0.42495	-0.252
3.91	84.028	-28492	2119	-0.85644	0.42456	-0.25181
3.912	84.024	-28495	2118.9	-0.85566	0.42476	-0.25171
3.914	84.017	-28493	2118.9	-0.85488	0.42495	-0.25161
3.916	84.015	-28490	2118.8	-0.8541	0.42515	-0.25152
3.918	84.019	-28484	2118.7	-0.85332	0.42534	-0.25142
3.92	84.022	-28478	2118.6	-0.85254	0.42554	-0.25132
3.922	84.021	-28480	2118.6	-0.85341	0.42466	-0.25152
3.924	84.016	-28482	2118.6	-0.85429	0.42378	-0.25171
3.926	84.012	-28486	2118.5	-0.85517	0.4229	-0.25191
3.928	84.008	-28490	2118.4	-0.85605	0.42202	-0.2521
3.93	84.003	-28481	2118.3	-0.85693	0.42114	-0.2523
3.932	83.999	-28473	2118.3	-0.85654	0.42124	-0.25181
3.934	83.998	-28476	2118.2	-0.85615	0.42134	-0.25132
3.936	83.998	-28478	2118.1	-0.85576	0.42144	-0.25083
3.938	84.001	-28482	2118	-0.85537	0.42153	-0.25034
3.94	84.005	-28487	2118	-0.85498	0.42163	-0.24986
3.942	84.002	-28486	2117.9	-0.85585	0.42192	-0.25034
3.944	83.999	-28486	2117.8	-0.85673	0.42222	-0.25083
3.946	83.999	-28487	2117.7	-0.85761	0.42251	-0.25132
3.948	83.997	-28488	2117.6	-0.85849	0.4228	-0.25181
3.95	83.996	-28485	2117.5	-0.85937	0.4231	-0.2523
3.952	83.997	-28481	2117.4	-0.85888	0.42251	-0.25298
3.954	84.006	-28481	2117.3	-0.85839	0.42192	-0.25366
3.956	84.005	-28481	2117.2	-0.8579	0.42134	-0.25435
3.958	83.998	-28484	2117.1	-0.85742	0.42075	-0.25503
3.96	83.999	-28487	2117	-0.85693	0.42017	-0.25571
3.962	83.996	-28485	2116.9	-0.85722	0.41988	-0.25561
3.964	83.992	-28483	2116.8	-0.85751	0.41958	-0.25552
3.966	83.986	-28483	2116.7	-0.85781	0.41929	-0.25542
3.968	83.984	-28483	2116.6	-0.8581	0.419	-0.25532
3.97	83.988	-28485	2116.4	-0.85839	0.4187	-0.25522
3.972	83.992	-28487	2116.4	-0.85732	0.41851	-0.25561
3.974	83.99	-28486	2116.3	-0.85624	0.41831	-0.256
3.976	83.991	-28484	2116.2	-0.85517	0.41812	-0.2564
3.978	83.994	-28481	2116.1	-0.8541	0.41792	-0.25679
3.98	83.999	-28477	2116.1	-0.85302	0.41773	-0.25718
3.982	83.996	-28484	2116	-0.85429	0.41851	-0.2561
3.984	83.993	-28490	2115.9	-0.85556	0.41929	-0.25503
3.986	83.993	-28488	2115.8	-0.85683	0.42007	-0.25396
3.988	83.991	-28486	2115.8	-0.8581	0.42085	-0.25288
3.99	83.99	-28485	2115.7	-0.85937	0.42163	-0.25181
3.992	83.986	-28484	2115.7	-0.85859	0.42105	-0.25259
3.994	83.983	-28483	2115.6	-0.85781	0.42046	-0.25337
3.996	83.985	-28482	2115.6	-0.85703	0.41988	-0.25415
3.998	83.99	-28483	2115.6	-0.85624	0.41929	-0.25493
4	83.993	-28483	2115.5	-0.85546	0.4187	-0.25571
4.002	83.992	-28485	2115.5	-0.85537	0.41929	-0.25542
4.004	83.993	-28487	2115.5	-0.85527	0.41988	-0.25513
4.006	84.004	-28485	2115.5	-0.85517	0.42046	-0.25483
4.008	84.011	-28483	2115.5	-0.85507	0.42105	-0.25454
4.01	84.001	-28484	2115.4	-0.85498	0.42163	-0.25425
4.012	83.993	-28485	2115.4	-0.85527	0.42124	-0.25444
4.014	83.998	-28485	2115.5	-0.85556	0.42085	-0.25464
4.016	84.009	-28485	2115.5	-0.85585	0.42046	-0.25483
4.018	84.009	-28485	2115.5	-0.85615	0.42007	-0.25503
4.02	84.001	-28484	2115.5	-0.85644	0.41968	-0.25522
4.022	84.001	-28490	2115.5	-0.85615	0.41997	-0.25513
4.024	84.005	-28495	2115.5	-0.85585	0.42027	-0.25503
4.026	84.005	-28496	2115.5	-0.85556	0.42056	-0.25493
4.028	84.007	-28497	2115.5	-0.85527	0.42085	-0.25483
4.03	84.011	-28496	2115.5	-0.85498	0.42114	-0.25474
4.032	84.012	-28494	2115.5	-0.85459	0.42114	-0.25425
4.034	84.018	-28490	2115.5	-0.8542	0.42114	-0.25376
4.036	84.014	-28485	2115.5	-0.8538	0.42114	-0.25327
4.038	84.003	-28486	2115.6	-0.85341	0.42114	-0.25278
4.04	83.999	-28487	2115.6	-0.85302	0.42114	-0.2523
4.042	83.995	-28487	2115.7	-0.854	0.42105	-0.252
4.044	83.994	-28486	2115.7	-0.85498	0.42095	-0.25171
4.046	84.004	-28486	2115.8	-0.85595	0.42085	-0.25142
4.048	84.003	-28486	2115.8	-0.85693	0.42075	-0.25112
4.05	84.002	-28486	2115.8	-0.8579	0.42066	-0.25083
4.052	84.003	-28487	2115.9	-0.8579	0.42085	-0.25083
4.054	84.004	-28488	2115.9	-0.8579	0.42105	-0.25083
4.056	84.006	-28489	2115.9	-0.8579	0.42124	-0.25083
4.058	84.005	-28487	2116	-0.8579	0.42144	-0.25083
4.06	84.006	-28486	2116	-0.8579	0.42163	-0.25083
4.062	84.009	-28489	2116	-0.85722	0.42144	-0.25112
4.064	84.011	-28492	2116	-0.85654	0.42124	-0.25142
4.066	84.01	-28494	2116.1	-0.85585	0.42105	-0.25171
4.068	84.009	-28497	2116.1	-0.85517	0.42085	-0.252
4.07	84.003	-28495	2116.2	-0.85449	0.42066	-0.2523
4.072	83.996	-28492	2116.2	-0.85527	0.42056	-0.25269
4.074	83.993	-28489	2116.2	-0.85605	0.42046	-0.25308
4.076	83.99	-28486	2116.2	-0.85683	0.42036	-0.25347
4.078	83.983	-28483	2116.3	-0.85761	0.42027	-0.25386
4.08	83.986	-28480	2116.4	-0.85839	0.42017	-0.25425
4.082	83.996	-28486	2116.4	-0.85761	0.42027	-0.25483
4.084	83.997	-28491	2116.5	-0.85683	0.42036	-0.25542
4.086	83.99	-28492	2116.5	-0.85605	0.42046	-0.256
4.088	83.984	-28492	2116.5	-0.85527	0.42056	-0.25659
4.09	83.98	-28490	2116.5	-0.85449	0.42066	-0.25718
4.092	83.974	-28489	2116.5	-0.85546	0.42075	-0.2562
4.094	83.97	-28493	2116.5	-0.85644	0.42085	-0.25522
4.096	83.971	-28497	2116.5	-0.85742	0.42095	-0.25425
4.098	83.976	-28496	2116.6	-0.85839	0.42105	-0.25327
4.1	83.973	-28495	2116.7	-0.85937	0.42114	-0.2523
4.102	83.964	-28491	2116.7	-0.85898	0.42105	-0.25278
4.104	83.955	-28487	2116.7	-0.85859	0.42095	-0.25327
4.106	83.954	-28490	2116.7	-0.8582	0.42085	-0.25376
4.108	83.95	-28493	2116.8	-0.85781	0.42075	-0.25425
4.11	83.94	-28493	2116.8	-0.85742	0.42066	-0.25474
4.112	83.939	-28492	2116.8	-0.85781	0.42114	-0.25415
4.114	83.94	-28491	2116.8	-0.8582	0.42163	-0.25356
4.116	83.942	-28489	2116.8	-0.85859	0.42212	-0.25298
4.118	83.95	-28488	2116.8	-0.85898	0.42261	-0.25239
4.12	83.958	-28488	2116.8	-0.85937	0.4231	-0.25181
4.122	83.966	-28487	2116.8	-0.85888	0.42271	-0.25181
4.124	83.969	-28487	2116.8	-0.85839	0.42232	-0.25181
4.126	83.966	-28488	2116.8	-0.8579	0.42192	-0.25181
4.128	83.962	-28490	2116.8	-0.85742	0.42153	-0.25181
4.13	83.953	-28490	2116.8	-0.85693	0.42114	-0.25181
4.132	83.947	-28490	2116.8	-0.85673	0.42085	-0.2523
4.134	83.933	-28489	2116.8	-0.85654	0.42056	-0.25278
4.136	83.933	-28488	2116.8	-0.85634	0.42027	-0.25327
4.138	83.94	-28487	2116.8	-0.85615	0.41997	-0.25376
4.14	83.943	-28486	2116.8	-0.85595	0.41968	-0.25425
4.142	83.944	-28487	2116.8	-0.85546	0.42056	-0.25425
4.144	83.955	-28488	2116.8	-0.85498	0.42144	-0.25425
4.146	83.962	-28489	2116.7	-0.85449	0.42232	-0.25425
4.148	83.966	-28491	2116.7	-0.854	0.42319	-0.25425
4.15	83.978	-28491	2116.7	-0.85351	0.42407	-0.25425
4.152	83.99	-28492	2116.7	-0.8542	0.42349	-0.25415
4.154	84.001	-28494	2116.7	-0.85488	0.4229	-0.25405
4.156	84.013	-28495	2116.6	-0.85556	0.42232	-0.25396
4.158	84.021	-28491	2116.6	-0.85624	0.42173	-0.25386
4.16	84.024	-28487	2116.5	-0.85693	0.42114	-0.25376
4.162	84.026	-28483	2116.5	-0.85634	0.42095	-0.25366
4.164	84.025	-28479	2116.5	-0.85576	0.42075	-0.25356
4.166	84.024	-28486	2116.5	-0.85517	0.42056	-0.25347
4.168	84.023	-28493	2116.5	-0.85459	0.42036	-0.25337
4.17	84.02	-28496	2116.5	-0.854	0.42017	-0.25327
4.172	84.018	-28499	2116.4	-0.8542	0.42066	-0.25278
4.174	84.02	-28495	2116.4	-0.85439	0.42114	-0.2523
4.176	84.02	-28491	2116.3	-0.85459	0.42163	-0.25181
4.178	84.015	-28490	2116.3	-0.85478	0.42212	-0.25132
4.18	84.01	-28489	2116.3	-0.85498	0.42261	-0.25083
4.182	84.011	-28488	2116.2	-0.85507	0.42192	-0.2521
4.184	84.016	-28488	2116.2	-0.85517	0.42124	-0.25337
4.186	84.026	-28489	2116.2	-0.85527	0.42056	-0.25464
4.188	84.033	-28491	2116.1	-0.85537	0.41988	-0.25591
4.19	84.03	-28497	2116.1	-0.85546	0.41919	-0.25718
4.192	84.022	-28504	2116.1	-0.85576	0.41968	-0.2561
4.194	84.017	-28499	2116	-0.85605	0.42017	-0.25503
4.196	84.018	-28495	2116	-0.85634	0.42066	-0.25396
4.198	84.022	-28490	2115.9	-0.85664	0.42114	-0.25288
4.2	84.022	-28484	2115.9	-0.85693	0.42163	-0.25181
4.202	84.017	-28487	2115.9	-0.85703	0.42192	-0.25171
4.204	84.016	-28489	2115.8	-0.85712	0.42222	-0.25161
4.206	84.016	-28487	2115.8	-0.85722	0.42251	-0.25152
4.208	84.017	-28485	2115.7	-0.85732	0.4228	-0.25142
4.21	84.014	-28489	2115.6	-0.85742	0.4231	-0.25132
4.212	84.014	-28493	2115.6	-0.85712	0.42319	-0.25132
4.214	84.016	-28495	2115.5	-0.85683	0.42329	-0.25132
4.216	84.013	-28497	2115.5	-0.85654	0.42339	-0.25132
4.218	84.018	-28494	2115.4	-0.85624	0.42349	-0.25132
4.22	84.03	-28491	2115.4	-0.85595	0.42358	-0.25132
4.222	84.035	-28491	2115.3	-0.85634	0.42368	-0.25142
4.224	84.028	-28492	2115.3	-0.85673	0.42378	-0.25152
4.226	84.021	-28500	2115.2	-0.85712	0.42388	-0.25161
4.228	84.02	-28508	2115.2	-0.85751	0.42397	-0.25171
4.23	84.01	-28502	2115.1	-0.8579	0.42407	-0.25181
4.232	83.981	-28496	2115.1	-0.85859	0.42368	-0.252
4.234	83.955	-28494	2115	-0.85927	0.42329	-0.2522
4.236	83.923	-28493	2114.9	-0.85995	0.4229	-0.25239
4.238	83.879	-28496	2114.9	-0.86064	0.42251	-0.25259
4.24	83.83	-28500	2114.8	-0.86132	0.42212	-0.25278
4.242	83.782	-28500	2114.8	-0.86054	0.42319	-0.25317
4.244	83.729	-28500	2114.7	-0.85976	0.42427	-0.25356
4.246	83.674	-28496	2114.7	-0.85898	0.42534	-0.25396
4.248	83.615	-28491	2114.6	-0.8582	0.42641	-0.25435
4.25	83.553	-28489	2114.5	-0.85742	0.42749	-0.25474
4.252	83.494	-28488	2114.5	-0.85644	0.42759	-0.25415
4.254	83.445	-28489	2114.4	-0.85546	0.42768	-0.25356
4.256	83.409	-28490	2114.4	-0.85449	0.42778	-0.25298
4.258	83.388	-28491	2114.4	-0.85351	0.42788	-0.25239
4.26	83.384	-28493	2114.3	-0.85254	0.42798	-0.25181
4.262	83.397	-28495	2114.3	-0.85234	0.427	-0.25152
4.264	83.424	-28497	2114.2	-0.85215	0.42602	-0.25122
4.266	83.471	-28500	2114.2	-0.85195	0.42505	-0.25093
4.268	83.535	-28503	2114.2	-0.85176	0.42407	-0.25064
4.27	83.62	-28502	2114.2	-0.85156	0.4231	-0.25034
4.272	83.718	-28502	2114.1	-0.85254	0.42358	-0.25054
4.274	83.819	-28502	2114.1	-0.85351	0.42407	-0.25073
4.276	83.917	-28502	2114	-0.85449	0.42456	-0.25093
4.278	83.978	-28502	2114	-0.85546	0.42505	-0.25112
4.28	83.999	-28501	2114	-0.85644	0.42554	-0.25132
4.282	84	-28502	2113.9	-0.85585	0.42534	-0.25142
4.284	83.998	-28503	2113.9	-0.85527	0.42515	-0.25152
4.286	84.004	-28504	2113.9	-0.85468	0.42495	-0.25161
4.288	84.007	-28506	2113.9	-0.8541	0.42476	-0.25171
4.29	83.998	-28507	2113.8	-0.85351	0.42456	-0.25181
4.292	83.993	-28508	2113.8	-0.85371	0.42446	-0.25161
4.294	83.979	-28503	2113.8	-0.8539	0.42436	-0.25142
4.296	83.962	-28497	2113.8	-0.8541	0.42427	-0.25122
4.298	83.954	-28499	2113.8	-0.85429	0.42417	-0.25103
4.3	83.956	-28501	2113.7	-0.85449	0.42407	-0.25083
4.302	83.963	-28498	2113.7	-0.85429	0.42358	-0.25191
4.304	83.963	-28495	2113.7	-0.8541	0.4231	-0.25298
4.306	83.953	-28495	2113.7	-0.8539	0.42261	-0.25405
4.308	83.937	-28495	2113.7	-0.85371	0.42212	-0.25513
4.31	83.936	-28500	2113.7	-0.85351	0.42163	-0.2562
4.312	83.936	-28505	2113.6	-0.8541	0.42153	-0.25532
4.314	83.929	-28506	2113.6	-0.85468	0.42144	-0.25444
4.316	83.93	-28507	2113.6	-0.85527	0.42134	-0.25356
4.318	83.932	-28503	2113.6	-0.85585	0.42124	-0.25269
4.32	83.929	-28498	2113.5	-0.85644	0.42114	-0.25181
4.322	83.931	-28501	2113.5	-0.85664	0.42134	-0.25171
4.324	83.933	-28504	2113.4	-0.85683	0.42153	-0.25161
4.326	83.94	-28499	2113.4	-0.85703	0.42173	-0.25152
4.328	83.941	-28494	2113.4	-0.85722	0.42192	-0.25142
4.33	83.937	-28499	2113.4	-0.85742	0.42212	-0.25132
4.332	83.93	-28504	2113.3	-0.85722	0.42173	-0.25152
4.334	83.919	-28503	2113.3	-0.85703	0.42134	-0.25171
4.336	83.912	-28502	2113.2	-0.85683	0.42095	-0.25191
4.338	83.913	-28503	2113.2	-0.85664	0.42056	-0.2521
4.34	83.914	-28504	2113.1	-0.85644	0.42017	-0.2523
4.342	83.912	-28504	2113.1	-0.85634	0.42056	-0.25269
4.344	83.91	-28503	2113	-0.85624	0.42095	-0.25308
4.346	83.908	-28506	2112.9	-0.85615	0.42134	-0.25347
4.348	83.904	-28508	2112.9	-0.85605	0.42173	-0.25386
4.35	83.897	-28502	2112.9	-0.85595	0.42212	-0.25425
4.352	83.892	-28497	2112.8	-0.85605	0.42192	-0.25337
4.354	83.891	-28501	2112.8	-0.85615	0.42173	-0.25249
4.356	83.89	-28505	2112.7	-0.85624	0.42153	-0.25161
4.358	83.887	-28508	2112.7	-0.85634	0.42134	-0.25073
4.36	83.89	-28510	2112.6	-0.85644	0.42114	-0.24986
4.362	83.894	-28504	2112.5	-0.85644	0.42163	-0.24976
4.364	83.893	-28499	2112.5	-0.85644	0.42212	-0.24966
4.366	83.885	-28501	2112.4	-0.85644	0.42261	-0.24956
4.368	83.88	-28503	2112.4	-0.85644	0.4231	-0.24947
4.37	83.882	-28503	2112.5	-0.85644	0.42358	-0.24937
4.372	83.885	-28503	2112.5	-0.85615	0.42261	-0.25054
4.374	83.88	-28506	2112.5	-0.85585	0.42163	-0.25171
4.376	83.872	-28509	2112.4	-0.85556	0.42066	-0.25288
4.378	83.865	-28509	2112.4	-0.85527	0.41968	-0.25405
4.38	83.872	-28509	2112.3	-0.85498	0.4187	-0.25522
4.382	83.872	-28512	2112.3	-0.85449	0.41909	-0.25522
4.384	83.859	-28515	2112.3	-0.854	0.41948	-0.25522
4.386	83.85	-28516	2112.3	-0.85351	0.41988	-0.25522
4.388	83.843	-28518	2112.3	-0.85302	0.42027	-0.25522
4.39	83.847	-28515	2112.3	-0.85254	0.42066	-0.25522
4.392	83.855	-28512	2112.3	-0.85312	0.42046	-0.25513
4.394	83.849	-28507	2112.3	-0.85371	0.42027	-0.25503
4.396	83.841	-28503	2112.3	-0.85429	0.42007	-0.25493
4.398	83.839	-28503	2112.2	-0.85488	0.41988	-0.25483
4.4	83.837	-28503	2112.2	-0.85546	0.41968	-0.25474
4.402	83.829	-28509	2112.2	-0.85459	0.42056	-0.25396
4.404	83.823	-28516	2112.2	-0.85371	0.42144	-0.25317
4.406	83.809	-28513	2112.2	-0.85283	0.42232	-0.25239
4.408	83.8	-28511	2112.3	-0.85195	0.42319	-0.25161
4.41	83.797	-28513	2112.3	-0.85107	0.42407	-0.25083
4.412	83.803	-28514	2112.3	-0.85176	0.42319	-0.25171
4.414	83.802	-28517	2112.2	-0.85244	0.42232	-0.25259
4.416	83.796	-28519	2112.1	-0.85312	0.42144	-0.25347
4.418	83.789	-28516	2112.1	-0.8538	0.42056	-0.25435
4.42	83.776	-28513	2112.1	-0.85449	0.41968	-0.25522
4.422	83.767	-28518	2112.2	-0.85478	0.41948	-0.25552
4.424	83.761	-28524	2112.2	-0.85507	0.41929	-0.25581
4.426	83.755	-28524	2112.2	-0.85537	0.41909	-0.2561
4.428	83.748	-28525	2112.1	-0.85566	0.4189	-0.2564
4.43	83.742	-28522	2112.1	-0.85595	0.4187	-0.25669
4.432	83.74	-28519	2112.1	-0.85634	0.41968	-0.25552
4.434	83.737	-28518	2112.1	-0.85673	0.42066	-0.25435
4.436	83.734	-28517	2112.1	-0.85712	0.42163	-0.25317
4.438	83.728	-28517	2112.1	-0.85751	0.42261	-0.252
4.44	83.72	-28518	2112.1	-0.8579	0.42358	-0.25083
4.442	83.717	-28517	2112.1	-0.85859	0.42417	-0.25171
4.444	83.713	-28517	2112.2	-0.85927	0.42476	-0.25259
4.446	83.71	-28521	2112.2	-0.85995	0.42534	-0.25347
4.448	83.705	-28524	2112.3	-0.86064	0.42593	-0.25435
4.45	83.7	-28525	2112.4	-0.86132	0.42651	-0.25522
4.452	83.695	-28527	2112.5	-0.86025	0.42563	-0.25444
4.454	83.688	-28524	2112.6	-0.85917	0.42476	-0.25366
4.456	83.678	-28521	2112.8	-0.8581	0.42388	-0.25288
4.458	83.673	-28518	2112.9	-0.85703	0.423	-0.2521
4.46	83.678	-28515	2113	-0.85595	0.42212	-0.25132
4.462	83.687	-28519	2113.2	-0.85605	0.42241	-0.25171
4.464	83.699	-28523	2113.4	-0.85615	0.42271	-0.2521
4.466	83.699	-28518	2113.6	-0.85624	0.423	-0.25249
4.468	83.698	-28513	2113.8	-0.85634	0.42329	-0.25288
4.47	83.694	-28517	2114	-0.85644	0.42358	-0.25327
4.472	83.695	-28522	2114.2	-0.85576	0.4231	-0.25405
4.474	83.699	-28522	2114.5	-0.85507	0.42261	-0.25483
4.476	83.706	-28522	2114.7	-0.85439	0.42212	-0.25561
4.478	83.704	-28522	2114.9	-0.85371	0.42163	-0.2564
4.48	83.712	-28523	2115.1	-0.85302	0.42114	-0.25718
4.482	83.717	-28520	2115.3	-0.85371	0.42066	-0.25659
4.484	83.72	-28517	2115.6	-0.85439	0.42017	-0.256
4.486	83.724	-28517	2115.8	-0.85507	0.41968	-0.25542
4.488	83.726	-28517	2116	-0.85576	0.41919	-0.25483
4.49	83.728	-28519	2116.2	-0.85644	0.4187	-0.25425
4.492	83.73	-28521	2116.4	-0.85585	0.4189	-0.25474
4.494	83.735	-28518	2116.6	-0.85527	0.41909	-0.25522
4.496	83.743	-28514	2116.8	-0.85468	0.41929	-0.25571
4.498	83.748	-28515	2117	-0.8541	0.41948	-0.2562
4.5	83.753	-28517	2117.2	-0.85351	0.41968	-0.25669
4.502	83.756	-28517	2117.3	-0.85351	0.41968	-0.2564
4.504	83.764	-28518	2117.5	-0.85351	0.41968	-0.2561
4.506	83.773	-28512	2117.6	-0.85351	0.41968	-0.25581
4.508	83.779	-28506	2117.8	-0.85351	0.41968	-0.25552
4.51	83.785	-28508	2118	-0.85351	0.41968	-0.25522
4.512	83.795	-28509	2118.1	-0.85361	0.41978	-0.25542
4.514	83.805	-28511	2118.3	-0.85371	0.41988	-0.25561
4.516	83.81	-28512	2118.5	-0.8538	0.41997	-0.25581
4.518	83.813	-28512	2118.7	-0.8539	0.42007	-0.256
4.52	83.818	-28512	2118.9	-0.854	0.42017	-0.2562
4.522	83.825	-28513	2119	-0.8539	0.42066	-0.25561
4.524	83.831	-28513	2119.1	-0.8538	0.42114	-0.25503
4.526	83.837	-28509	2119.2	-0.85371	0.42163	-0.25444
4.528	83.839	-28505	2119.3	-0.85361	0.42212	-0.25386
4.53	83.84	-28504	2119.5	-0.85351	0.42261	-0.25327
4.532	83.843	-28503	2119.6	-0.85361	0.42202	-0.25386
4.534	83.853	-28503	2119.7	-0.85371	0.42144	-0.25444
4.536	83.864	-28504	2119.8	-0.8538	0.42085	-0.25503
4.538	83.878	-28503	2119.9	-0.8539	0.42027	-0.25561
4.54	83.887	-28501	2120	-0.854	0.41968	-0.2562
4.542	83.89	-28496	2120.1	-0.85293	0.42144	-0.25649
4.544	83.889	-28490	2120.2	-0.85185	0.42319	-0.25679
4.546	83.889	-28495	2120.3	-0.85078	0.42495	-0.25708
4.548	83.888	-28500	2120.4	-0.84971	0.42671	-0.25737
4.55	83.881	-28498	2120.4	-0.84863	0.42846	-0.25766
4.552	83.881	-28497	2120.4	-0.84805	0.42846	-0.25766
4.554	83.885	-28496	2120.4	-0.84746	0.42846	-0.25766
4.556	83.895	-28495	2120.4	-0.84688	0.42846	-0.25766
4.558	83.902	-28497	2120.4	-0.84629	0.42846	-0.25766
4.56	83.901	-28499	2120.4	-0.8457	0.42846	-0.25766
4.562	83.896	-28499	2120.4	-0.84502	0.42895	-0.25835
4.564	83.898	-28500	2120.4	-0.84434	0.42944	-0.25903
4.566	83.899	-28499	2120.4	-0.84365	0.42993	-0.25971
4.568	83.894	-28499	2120.4	-0.84297	0.43042	-0.2604
4.57	83.89	-28500	2120.4	-0.84229	0.4309	-0.26108
4.572	83.899	-28502	2120.4	-0.84385	0.4312	-0.26079
4.574	83.907	-28498	2120.3	-0.84541	0.43149	-0.26049
4.576	83.908	-28493	2120.3	-0.84697	0.43178	-0.2602
4.578	83.913	-28490	2120.2	-0.84853	0.43208	-0.25991
4.58	83.92	-28486	2120.1	-0.8501	0.43237	-0.25962
4.582	83.922	-28487	2120.1	-0.84892	0.43208	-0.25981
4.584	83.919	-28489	2120	-0.84775	0.43178	-0.26001
4.586	83.914	-28482	2120	-0.84658	0.43149	-0.2602
4.588	83.913	-28476	2119.9	-0.84541	0.4312	-0.2604
4.59	83.912	-28480	2119.8	-0.84424	0.4309	-0.26059
4.592	83.909	-28484	2119.7	-0.84463	0.4312	-0.2602
4.594	83.906	-28483	2119.7	-0.84502	0.43149	-0.25981
4.596	83.902	-28482	2119.6	-0.84541	0.43178	-0.25942
4.598	83.901	-28480	2119.5	-0.8458	0.43208	-0.25903
4.6	83.904	-28478	2119.4	-0.84619	0.43237	-0.25864
4.602	83.909	-28482	2119.3	-0.84619	0.43237	-0.25874
4.604	83.911	-28487	2119.2	-0.84619	0.43237	-0.25884
