t	ekg	optical	pressure	accel_x	accel_y	accel_z
5.6843e-14	21.459	-38436	2148.6	-0.11761	-0.244	0.95258
0.002	21.47	-38435	2148.6	-0.11771	-0.24351	0.95199
0.004	21.45	-38434	2148.6	-0.1178	-0.24302	0.9514
0.006	21.404	-38433	2148.6	-0.1179	-0.24254	0.95082
0.008	21.379	-38433	2148.6	-0.118	-0.24205	0.95023
0.01	21.376	-38435	2148.6	-0.1181	-0.24156	0.94965
0.012	21.379	-38434	2148.6	-0.11771	-0.24176	0.95014
0.014	21.393	-38431	2148.6	-0.11732	-0.24195	0.95062
0.016	21.429	-38429	2148.5	-0.11692	-0.24215	0.95111
0.018	21.474	-38426	2148.5	-0.11653	-0.24234	0.9516
0.02	21.47	-38428	2148.4	-0.11614	-0.24254	0.95209
0.022	21.423	-38435	2148.4	-0.11634	-0.24273	0.95121
0.024	21.436	-38441	2148.5	-0.11653	-0.24293	0.95033
0.026	21.475	-38446	2148.4	-0.11673	-0.24312	0.94945
0.028	21.44	-38449	2148.3	-0.11692	-0.24332	0.94857
0.03	21.401	-38450	2148.2	-0.11712	-0.24351	0.9477
0.032	21.414	-38450	2148.2	-0.11575	-0.24312	0.94731
0.034	21.449	-38447	2148.2	-0.11439	-0.24273	0.94692
0.036	21.47	-38447	2148.2	-0.11302	-0.24234	0.94652
0.038	21.453	-38447	2148.2	-0.11165	-0.24195	0.94613
0.04	21.426	-38448	2148.2	-0.11029	-0.24156	0.94574
0.042	21.394	-38448	2148.2	-0.11068	-0.24146	0.94643
0.044	21.373	-38451	2148.2	-0.11107	-0.24136	0.94711
0.046	21.407	-38456	2148.1	-0.11146	-0.24127	0.94779
0.048	21.424	-38458	2148.1	-0.11185	-0.24117	0.94848
0.05	21.439	-38457	2148	-0.11224	-0.24107	0.94916
0.052	21.466	-38455	2148	-0.11214	-0.24136	0.94896
0.054	21.502	-38453	2147.9	-0.11204	-0.24166	0.94877
0.056	21.424	-38454	2147.9	-0.11195	-0.24195	0.94857
0.058	21.409	-38459	2147.9	-0.11185	-0.24224	0.94838
0.06	21.413	-38464	2147.8	-0.11175	-0.24254	0.94818
0.062	21.381	-38469	2147.8	-0.11361	-0.24361	0.94848
0.064	21.37	-38470	2147.7	-0.11546	-0.24468	0.94877
0.066	21.348	-38466	2147.7	-0.11732	-0.24576	0.94906
0.068	21.361	-38463	2147.6	-0.11917	-0.24683	0.94936
0.07	21.353	-38461	2147.5	-0.12102	-0.2479	0.94965
0.072	21.382	-38461	2147.5	-0.12112	-0.2479	0.94965
0.074	21.414	-38463	2147.4	-0.12122	-0.2479	0.94965
0.076	21.452	-38466	2147.4	-0.12132	-0.2479	0.94965
0.078	21.379	-38470	2147.4	-0.12141	-0.2479	0.94965
0.08	21.327	-38472	2147.4	-0.12151	-0.2479	0.94965
0.082	21.307	-38473	2147.4	-0.11829	-0.2479	0.94809
0.084	21.322	-38474	2147.5	-0.11507	-0.2479	0.94652
0.086	21.379	-38474	2147.5	-0.11185	-0.2479	0.94496
0.088	21.415	-38474	2147.5	-0.10863	-0.2479	0.9434
0.09	21.394	-38475	2147.5	-0.10541	-0.2479	0.94184
0.092	21.364	-38475	2147.5	-0.10697	-0.24742	0.94233
0.094	21.388	-38474	2147.5	-0.10853	-0.24693	0.94282
0.096	21.395	-38475	2147.6	-0.11009	-0.24644	0.9433
0.098	21.378	-38477	2147.6	-0.11165	-0.24595	0.94379
0.1	21.391	-38479	2147.6	-0.11322	-0.24546	0.94428
0.102	21.426	-38480	2147.6	-0.11341	-0.24468	0.94584
0.104	21.434	-38481	2147.6	-0.11361	-0.2439	0.9474
0.106	21.406	-38481	2147.6	-0.1138	-0.24312	0.94896
0.108	21.396	-38484	2147.6	-0.114	-0.24234	0.95053
0.11	21.405	-38489	2147.6	-0.11419	-0.24156	0.95209
0.112	21.368	-38492	2147.6	-0.11468	-0.24185	0.95199
0.114	21.296	-38491	2147.7	-0.11517	-0.24215	0.95189
0.116	21.262	-38493	2147.7	-0.11566	-0.24244	0.9518
0.118	21.249	-38497	2147.6	-0.11614	-0.24273	0.9517
0.12	21.244	-38498	2147.6	-0.11663	-0.24302	0.9516
0.122	21.306	-38495	2147.5	-0.11644	-0.24332	0.95189
0.124	21.393	-38495	2147.5	-0.11624	-0.24361	0.95219
0.126	21.437	-38498	2147.4	-0.11605	-0.2439	0.95248
0.128	21.394	-38500	2147.3	-0.11585	-0.2442	0.95277
0.13	21.346	-38500	2147.2	-0.11566	-0.24449	0.95306
0.132	21.301	-38500	2147.2	-0.11575	-0.24459	0.95199
0.134	21.243	-38501	2147.2	-0.11585	-0.24468	0.95092
0.136	21.296	-38501	2147.2	-0.11595	-0.24478	0.94984
0.138	21.338	-38501	2147.1	-0.11605	-0.24488	0.94877
0.14	21.322	-38502	2147.1	-0.11614	-0.24498	0.9477
0.142	21.317	-38503	2146.9	-0.11448	-0.24595	0.94721
0.144	21.256	-38506	2146.8	-0.11283	-0.24693	0.94672
0.146	21.248	-38511	2146.8	-0.11117	-0.2479	0.94623
0.148	21.245	-38512	2146.9	-0.10951	-0.24888	0.94574
0.15	21.176	-38510	2146.9	-0.10785	-0.24986	0.94526
0.152	21.237	-38509	2146.9	-0.10902	-0.24917	0.94613
0.154	21.327	-38508	2147	-0.11019	-0.24849	0.94701
0.156	21.336	-38511	2147	-0.11136	-0.24781	0.94789
0.158	21.309	-38516	2147.1	-0.11253	-0.24712	0.94877
0.16	21.386	-38518	2147.2	-0.1137	-0.24644	0.94965
0.162	21.309	-38516	2147.4	-0.11361	-0.24556	0.94916
0.164	21.229	-38517	2147.5	-0.11351	-0.24468	0.94867
0.166	21.26	-38521	2147.7	-0.11341	-0.2438	0.94818
0.168	21.318	-38525	2147.8	-0.11331	-0.24293	0.9477
0.17	21.265	-38528	2147.9	-0.11322	-0.24205	0.94721
0.172	21.231	-38528	2148.1	-0.1139	-0.24234	0.94779
0.174	21.248	-38525	2148.3	-0.11458	-0.24263	0.94838
0.176	21.243	-38523	2148.5	-0.11527	-0.24293	0.94896
0.178	21.22	-38520	2148.7	-0.11595	-0.24322	0.94955
0.18	21.204	-38518	2148.9	-0.11663	-0.24351	0.95014
0.182	21.213	-38515	2149.2	-0.11644	-0.24341	0.95082
0.184	21.267	-38520	2149.5	-0.11624	-0.24332	0.9515
0.186	21.279	-38533	2149.7	-0.11605	-0.24322	0.95219
0.188	21.22	-38538	2149.9	-0.11585	-0.24312	0.95287
0.19	21.183	-38536	2150.1	-0.11566	-0.24302	0.95355
0.192	21.172	-38535	2150.4	-0.11614	-0.24371	0.95394
0.194	21.172	-38534	2150.6	-0.11663	-0.24439	0.95433
0.196	21.211	-38535	2150.8	-0.11712	-0.24507	0.95472
0.198	21.207	-38536	2151	-0.11761	-0.24576	0.95511
0.2	21.142	-38539	2151.2	-0.1181	-0.24644	0.9555
0.202	21.114	-38543	2151.4	-0.11897	-0.24712	0.95375
0.204	21.149	-38546	2151.6	-0.11985	-0.24781	0.95199
0.206	21.177	-38546	2151.9	-0.12073	-0.24849	0.95023
0.208	21.175	-38545	2152.1	-0.12161	-0.24917	0.94848
0.21	21.178	-38542	2152.4	-0.12249	-0.24986	0.94672
0.212	21.162	-38540	2152.7	-0.12063	-0.24908	0.94682
0.214	21.148	-38539	2153	-0.11878	-0.24829	0.94692
0.216	21.134	-38539	2153.3	-0.11692	-0.24751	0.94701
0.218	21.141	-38540	2153.5	-0.11507	-0.24673	0.94711
0.22	21.172	-38540	2153.8	-0.11322	-0.24595	0.94721
0.222	21.163	-38540	2154.1	-0.11497	-0.24703	0.94682
0.224	21.208	-38541	2154.3	-0.11673	-0.2481	0.94643
0.226	21.221	-38542	2154.6	-0.11849	-0.24917	0.94604
0.228	21.273	-38541	2155	-0.12024	-0.25025	0.94565
0.23	21.29	-38538	2155.3	-0.122	-0.25132	0.94526
0.232	21.258	-38536	2155.7	-0.12464	-0.25073	0.94613
0.234	21.231	-38537	2156	-0.12727	-0.25015	0.94701
0.236	21.255	-38536	2156.3	-0.12991	-0.24956	0.94789
0.238	21.287	-38533	2156.6	-0.13254	-0.24898	0.94877
0.24	21.301	-38530	2156.8	-0.13518	-0.24839	0.94965
0.242	21.315	-38527	2157	-0.13488	-0.24898	0.94926
0.244	21.286	-38525	2157.3	-0.13459	-0.24956	0.94887
0.246	21.247	-38524	2157.5	-0.1343	-0.25015	0.94848
0.248	21.282	-38528	2157.8	-0.134	-0.25073	0.94809
0.25	21.297	-38537	2158	-0.13371	-0.25132	0.9477
0.252	21.276	-38538	2158.2	-0.13371	-0.25083	0.94848
0.254	21.291	-38531	2158.4	-0.13371	-0.25034	0.94926
0.256	21.321	-38526	2158.6	-0.13371	-0.24986	0.95004
0.258	21.349	-38523	2158.9	-0.13371	-0.24937	0.95082
0.26	21.342	-38520	2159.2	-0.13371	-0.24888	0.9516
0.262	21.357	-38517	2159.4	-0.13244	-0.24917	0.95014
0.264	21.343	-38513	2159.6	-0.13117	-0.24947	0.94867
0.266	21.307	-38508	2159.8	-0.12991	-0.24976	0.94721
0.268	21.345	-38504	2160	-0.12864	-0.25005	0.94574
0.27	21.423	-38502	2160.2	-0.12737	-0.25034	0.94428
0.272	21.441	-38501	2160.3	-0.12834	-0.24947	0.94565
0.274	21.389	-38500	2160.5	-0.12932	-0.24859	0.94701
0.276	21.34	-38496	2160.6	-0.1303	-0.24771	0.94838
0.278	21.344	-38491	2160.7	-0.13127	-0.24683	0.94975
0.28	21.352	-38485	2160.8	-0.13225	-0.24595	0.95111
0.282	21.331	-38479	2160.9	-0.13117	-0.24624	0.95053
0.284	21.335	-38475	2161	-0.1301	-0.24654	0.94994
0.286	21.377	-38473	2161.1	-0.12903	-0.24683	0.94936
0.288	21.409	-38474	2161.2	-0.12795	-0.24712	0.94877
0.29	21.427	-38477	2161.3	-0.12688	-0.24742	0.94818
0.292	21.423	-38480	2161.4	-0.1261	-0.248	0.94799
0.294	21.379	-38480	2161.4	-0.12532	-0.24859	0.94779
0.296	21.375	-38481	2161.5	-0.12454	-0.24917	0.9476
0.298	21.378	-38481	2161.5	-0.12376	-0.24976	0.9474
0.3	21.36	-38475	2161.6	-0.12298	-0.25034	0.94721
0.302	21.44	-38462	2161.6	-0.12259	-0.25034	0.94731
0.304	21.515	-38456	2161.7	-0.1222	-0.25034	0.9474
0.306	21.447	-38457	2161.7	-0.1218	-0.25034	0.9475
0.308	21.408	-38458	2161.7	-0.12141	-0.25034	0.9476
0.31	21.421	-38457	2161.7	-0.12102	-0.25034	0.9477
0.312	21.419	-38455	2161.8	-0.12063	-0.24986	0.9474
0.314	21.382	-38450	2161.8	-0.12024	-0.24937	0.94711
0.316	21.395	-38447	2161.8	-0.11985	-0.24888	0.94682
0.318	21.422	-38446	2161.8	-0.11946	-0.24839	0.94652
0.32	21.48	-38445	2161.8	-0.11907	-0.2479	0.94623
0.322	21.459	-38444	2161.8	-0.1181	-0.2482	0.94555
0.324	21.432	-38441	2161.8	-0.11712	-0.24849	0.94487
0.326	21.44	-38437	2161.8	-0.11614	-0.24878	0.94418
0.328	21.447	-38436	2161.8	-0.11517	-0.24908	0.9435
0.33	21.413	-38439	2161.8	-0.11419	-0.24937	0.94282
0.332	21.417	-38435	2161.9	-0.1137	-0.24868	0.94389
0.334	21.479	-38424	2161.9	-0.11322	-0.248	0.94496
0.336	21.452	-38420	2162	-0.11273	-0.24732	0.94604
0.338	21.397	-38425	2162	-0.11224	-0.24664	0.94711
0.34	21.397	-38427	2162	-0.11175	-0.24595	0.94818
0.342	21.397	-38426	2162.1	-0.1098	-0.24664	0.9475
0.344	21.408	-38426	2162.1	-0.10785	-0.24732	0.94682
0.346	21.423	-38425	2162.1	-0.1059	-0.248	0.94613
0.348	21.398	-38424	2162.1	-0.10394	-0.24868	0.94545
0.35	21.368	-38421	2162.1	-0.10199	-0.24937	0.94477
0.352	21.366	-38417	2162.1	-0.10287	-0.24917	0.94506
0.354	21.344	-38410	2162.1	-0.10375	-0.24898	0.94535
0.356	21.293	-38404	2162.1	-0.10463	-0.24878	0.94565
0.358	21.303	-38400	2162.2	-0.10551	-0.24859	0.94594
0.36	21.43	-38400	2162.2	-0.10638	-0.24839	0.94623
0.362	21.531	-38402	2162.2	-0.10814	-0.24673	0.94633
0.364	21.485	-38401	2162.2	-0.1099	-0.24507	0.94643
0.366	21.402	-38398	2162.2	-0.11165	-0.24341	0.94652
0.368	21.403	-38396	2162.2	-0.11341	-0.24176	0.94662
0.37	21.477	-38394	2162.1	-0.11517	-0.2401	0.94672
0.372	21.484	-38391	2162	-0.11536	-0.2401	0.94633
0.374	21.437	-38385	2161.9	-0.11556	-0.2401	0.94594
0.376	21.437	-38379	2161.8	-0.11575	-0.2401	0.94555
0.378	21.425	-38372	2161.7	-0.11595	-0.2401	0.94516
0.38	21.37	-38370	2161.7	-0.11614	-0.2401	0.94477
0.382	21.348	-38374	2161.6	-0.11595	-0.24039	0.94516
0.384	21.318	-38375	2161.5	-0.11575	-0.24068	0.94555
0.386	21.408	-38374	2161.4	-0.11556	-0.24097	0.94594
0.388	21.497	-38370	2161.3	-0.11536	-0.24127	0.94633
0.39	21.502	-38363	2161.3	-0.11517	-0.24156	0.94672
0.392	21.436	-38359	2161.2	-0.11478	-0.24166	0.94643
0.394	21.407	-38360	2161.1	-0.11439	-0.24176	0.94613
0.396	21.421	-38361	2161	-0.114	-0.24185	0.94584
0.398	21.436	-38364	2161	-0.11361	-0.24195	0.94555
0.4	21.445	-38367	2160.9	-0.11322	-0.24205	0.94526
0.402	21.324	-38370	2160.8	-0.11273	-0.24215	0.94506
0.404	21.331	-38370	2160.8	-0.11224	-0.24224	0.94487
0.406	21.393	-38367	2160.7	-0.11175	-0.24234	0.94467
0.408	21.489	-38365	2160.6	-0.11126	-0.24244	0.94448
0.41	21.484	-38362	2160.6	-0.11078	-0.24254	0.94428
0.412	21.46	-38359	2160.5	-0.11263	-0.24312	0.94555
0.414	21.419	-38356	2160.4	-0.11448	-0.24371	0.94682
0.416	21.375	-38357	2160.4	-0.11634	-0.24429	0.94809
0.418	21.4	-38361	2160.3	-0.11819	-0.24488	0.94936
0.42	21.409	-38360	2160.3	-0.12005	-0.24546	0.95062
0.422	21.389	-38354	2160.2	-0.11995	-0.24654	0.95092
0.424	21.368	-38350	2160.1	-0.11985	-0.24761	0.95121
0.426	21.377	-38348	2160.1	-0.11976	-0.24868	0.9515
0.428	21.385	-38348	2160.1	-0.11966	-0.24976	0.9518
0.43	21.387	-38352	2160.1	-0.11956	-0.25083	0.95209
0.432	21.355	-38355	2160	-0.11897	-0.25073	0.95092
0.434	21.312	-38357	2160	-0.11839	-0.25064	0.94975
0.436	21.33	-38355	2160	-0.1178	-0.25054	0.94857
0.438	21.36	-38349	2160	-0.11722	-0.25044	0.9474
0.44	21.4	-38347	2160	-0.11663	-0.25034	0.94623
0.442	21.475	-38350	2159.9	-0.11653	-0.25054	0.94565
0.444	21.511	-38350	2159.9	-0.11644	-0.25073	0.94506
0.446	21.477	-38349	2159.9	-0.11634	-0.25093	0.94448
0.448	21.416	-38346	2159.8	-0.11624	-0.25112	0.94389
0.45	21.377	-38341	2159.8	-0.11614	-0.25132	0.9433
0.452	21.395	-38341	2159.7	-0.1178	-0.25142	0.94408
0.454	21.428	-38345	2159.6	-0.11946	-0.25152	0.94487
0.456	21.431	-38346	2159.5	-0.12112	-0.25161	0.94565
0.458	21.412	-38342	2159.3	-0.12278	-0.25171	0.94643
0.46	21.372	-38338	2159.2	-0.12444	-0.25181	0.94721
0.462	21.391	-38335	2159.1	-0.12464	-0.2521	0.94789
0.464	21.484	-38333	2158.9	-0.12483	-0.25239	0.94857
0.466	21.503	-38332	2158.9	-0.12503	-0.25269	0.94926
0.468	21.425	-38336	2158.8	-0.12522	-0.25298	0.94994
0.47	21.367	-38345	2158.8	-0.12542	-0.25327	0.95062
0.472	21.375	-38349	2158.7	-0.12473	-0.25308	0.95092
0.474	21.418	-38349	2158.7	-0.12405	-0.25288	0.95121
0.476	21.462	-38350	2158.6	-0.12337	-0.25269	0.9515
0.478	21.446	-38351	2158.5	-0.12268	-0.25249	0.9518
0.48	21.449	-38348	2158.5	-0.122	-0.2523	0.95209
0.482	21.452	-38341	2158.4	-0.12171	-0.25191	0.9515
0.484	21.432	-38337	2158.4	-0.12141	-0.25152	0.95092
0.486	21.401	-38335	2158.3	-0.12112	-0.25112	0.95033
0.488	21.397	-38335	2158.3	-0.12083	-0.25073	0.94975
0.49	21.426	-38338	2158.3	-0.12054	-0.25034	0.94916
0.492	21.427	-38339	2158.2	-0.12034	-0.25034	0.94984
0.494	21.396	-38337	2158.2	-0.12015	-0.25034	0.95053
0.496	21.412	-38335	2158.2	-0.11995	-0.25034	0.95121
0.498	21.427	-38333	2158.2	-0.11976	-0.25034	0.95189
0.5	21.402	-38332	2158.2	-0.11956	-0.25034	0.95258
0.502	21.365	-38333	2158.2	-0.11849	-0.24927	0.95306
0.504	21.387	-38333	2158.2	-0.11741	-0.2482	0.95355
0.506	21.438	-38334	2158.2	-0.11634	-0.24712	0.95404
0.508	21.449	-38333	2158.3	-0.11527	-0.24605	0.95453
0.51	21.398	-38330	2158.3	-0.11419	-0.24498	0.95502
0.512	21.326	-38329	2158.5	-0.1139	-0.24527	0.95472
0.514	21.361	-38329	2158.6	-0.11361	-0.24556	0.95443
0.516	21.401	-38332	2158.7	-0.11331	-0.24585	0.95414
0.518	21.418	-38336	2158.7	-0.11302	-0.24615	0.95384
0.52	21.466	-38340	2158.8	-0.11273	-0.24644	0.95355
0.522	21.506	-38343	2158.9	-0.11146	-0.24742	0.95345
0.524	21.484	-38341	2159	-0.11019	-0.24839	0.95336
0.526	21.438	-38332	2159.1	-0.10892	-0.24937	0.95326
0.528	21.399	-38329	2159.2	-0.10765	-0.25034	0.95316
0.53	21.338	-38330	2159.4	-0.10638	-0.25132	0.95306
0.532	21.262	-38331	2159.5	-0.10765	-0.25034	0.95326
0.534	21.217	-38333	2159.6	-0.10892	-0.24937	0.95345
0.536	21.265	-38334	2159.7	-0.11019	-0.24839	0.95365
0.538	21.364	-38334	2159.8	-0.11146	-0.24742	0.95384
0.54	21.413	-38334	2159.9	-0.11273	-0.24644	0.95404
0.542	21.456	-38333	2160	-0.11204	-0.24644	0.95511
0.544	21.456	-38332	2160.2	-0.11136	-0.24644	0.95619
0.546	21.509	-38333	2160.3	-0.11068	-0.24644	0.95726
0.548	21.546	-38334	2160.3	-0.11	-0.24644	0.95833
0.55	21.534	-38335	2160.3	-0.10931	-0.24644	0.95941
0.552	21.482	-38334	2160.3	-0.10931	-0.24634	0.95951
0.554	21.453	-38331	2160.3	-0.10931	-0.24624	0.9596
0.556	21.457	-38329	2160.3	-0.10931	-0.24615	0.9597
0.558	21.44	-38326	2160.3	-0.10931	-0.24605	0.9598
0.56	21.378	-38326	2160.3	-0.10931	-0.24595	0.9599
0.562	21.333	-38328	2160.3	-0.1098	-0.24624	0.96009
0.564	21.347	-38327	2160.3	-0.11029	-0.24654	0.96029
0.566	21.455	-38325	2160.2	-0.11078	-0.24683	0.96048
0.568	21.49	-38323	2160.2	-0.11126	-0.24712	0.96068
0.57	21.481	-38320	2160.1	-0.11175	-0.24742	0.96087
0.572	21.454	-38320	2160.1	-0.11331	-0.24595	0.95882
0.574	21.464	-38322	2160.1	-0.11488	-0.24449	0.95677
0.576	21.47	-38325	2160	-0.11644	-0.24302	0.95472
0.578	21.443	-38327	2159.9	-0.118	-0.24156	0.95267
0.58	21.443	-38326	2159.8	-0.11956	-0.2401	0.95062
0.582	21.403	-38322	2159.8	-0.11888	-0.24136	0.95189
0.584	21.376	-38320	2159.8	-0.11819	-0.24263	0.95316
0.586	21.392	-38321	2159.7	-0.11751	-0.2439	0.95443
0.588	21.426	-38323	2159.7	-0.11683	-0.24517	0.9557
0.59	21.406	-38324	2159.6	-0.11614	-0.24644	0.95697
0.592	21.423	-38324	2159.6	-0.11878	-0.24595	0.9555
0.594	21.419	-38323	2159.6	-0.12141	-0.24546	0.95404
0.596	21.416	-38321	2159.6	-0.12405	-0.24498	0.95258
0.598	21.412	-38320	2159.6	-0.12668	-0.24449	0.95111
0.6	21.406	-38321	2159.6	-0.12932	-0.244	0.94965
0.602	21.393	-38323	2159.6	-0.12747	-0.24517	0.94848
0.604	21.373	-38325	2159.5	-0.12561	-0.24634	0.94731
0.606	21.385	-38324	2159.5	-0.12376	-0.24751	0.94613
0.608	21.397	-38322	2159.6	-0.1219	-0.24868	0.94496
0.61	21.37	-38318	2159.6	-0.12005	-0.24986	0.94379
0.612	21.346	-38317	2159.6	-0.11917	-0.24849	0.94262
0.614	21.357	-38319	2159.6	-0.11829	-0.24712	0.94145
0.616	21.376	-38321	2159.6	-0.11741	-0.24576	0.94028
0.618	21.369	-38322	2159.7	-0.11653	-0.24439	0.93911
0.62	21.331	-38321	2159.8	-0.11566	-0.24302	0.93794
0.622	21.304	-38318	2159.9	-0.11556	-0.2438	0.93862
0.624	21.314	-38318	2160	-0.11546	-0.24459	0.9393
0.626	21.329	-38321	2160	-0.11536	-0.24537	0.93999
0.628	21.324	-38323	2160.1	-0.11527	-0.24615	0.94067
0.63	21.334	-38326	2160.1	-0.11517	-0.24693	0.94135
0.632	21.362	-38327	2160.1	-0.1139	-0.24664	0.94213
0.634	21.387	-38326	2160.1	-0.11263	-0.24634	0.94291
0.636	21.436	-38325	2160.1	-0.11136	-0.24605	0.94369
0.638	21.476	-38325	2160.2	-0.11009	-0.24576	0.94448
0.64	21.445	-38324	2160.2	-0.10882	-0.24546	0.94526
0.642	21.418	-38324	2160.2	-0.10921	-0.2441	0.94516
0.644	21.367	-38325	2160.3	-0.1096	-0.24273	0.94506
0.646	21.349	-38325	2160.2	-0.11	-0.24136	0.94496
0.648	21.409	-38325	2160.2	-0.11039	-0.24	0.94487
0.65	21.444	-38325	2160.1	-0.11078	-0.23863	0.94477
0.652	21.456	-38326	2160	-0.11263	-0.23932	0.94555
0.654	21.454	-38329	2159.9	-0.11448	-0.24	0.94633
0.656	21.387	-38332	2159.8	-0.11634	-0.24068	0.94711
0.658	21.357	-38336	2159.6	-0.11819	-0.24136	0.94789
0.66	21.371	-38336	2159.5	-0.12005	-0.24205	0.94867
0.662	21.426	-38332	2159.4	-0.12054	-0.24293	0.94838
0.664	21.467	-38330	2159.3	-0.12102	-0.2438	0.94809
0.666	21.469	-38330	2159.1	-0.12151	-0.24468	0.94779
0.668	21.456	-38331	2159	-0.122	-0.24556	0.9475
0.67	21.447	-38333	2158.9	-0.12249	-0.24644	0.94721
0.672	21.456	-38334	2158.8	-0.12239	-0.24703	0.9476
0.674	21.455	-38335	2158.7	-0.12229	-0.24761	0.94799
0.676	21.435	-38338	2158.6	-0.1222	-0.2482	0.94838
0.678	21.421	-38342	2158.5	-0.1221	-0.24878	0.94877
0.68	21.413	-38343	2158.4	-0.122	-0.24937	0.94916
0.682	21.424	-38340	2158.3	-0.12015	-0.24878	0.94838
0.684	21.473	-38340	2158.3	-0.11829	-0.2482	0.9476
0.686	21.452	-38342	2158.2	-0.11644	-0.24761	0.94682
0.688	21.418	-38344	2158.1	-0.11458	-0.24703	0.94604
0.69	21.413	-38348	2158	-0.11273	-0.24644	0.94526
0.692	21.387	-38349	2158	-0.11302	-0.24742	0.94291
0.694	21.353	-38349	2158	-0.11331	-0.24839	0.94057
0.696	21.342	-38349	2158.1	-0.11361	-0.24937	0.93823
0.698	21.357	-38349	2158.2	-0.1139	-0.25034	0.93589
0.7	21.359	-38352	2158.2	-0.11419	-0.25132	0.93354
0.702	21.37	-38355	2158.3	-0.11341	-0.25093	0.93364
0.704	21.441	-38357	2158.3	-0.11263	-0.25054	0.93374
0.706	21.485	-38359	2158.3	-0.11185	-0.25015	0.93384
0.708	21.492	-38357	2158.3	-0.11107	-0.24976	0.93393
0.71	21.515	-38352	2158.2	-0.11029	-0.24937	0.93403
0.712	21.452	-38349	2158.2	-0.1098	-0.24947	0.93393
0.714	21.377	-38348	2158.2	-0.10931	-0.24956	0.93384
0.716	21.382	-38350	2158.2	-0.10882	-0.24966	0.93374
0.718	21.426	-38356	2158.2	-0.10834	-0.24976	0.93364
0.72	21.46	-38359	2158.2	-0.10785	-0.24986	0.93354
0.722	21.426	-38358	2158.2	-0.10551	-0.24878	0.93559
0.724	21.341	-38356	2158.2	-0.10316	-0.24771	0.93764
0.726	21.406	-38355	2158.2	-0.10082	-0.24664	0.93969
0.728	21.515	-38355	2158.2	-0.098478	-0.24556	0.94174
0.73	21.504	-38358	2158.1	-0.096136	-0.24449	0.94379
0.732	21.493	-38359	2158.2	-0.099357	-0.2442	0.94535
0.734	21.465	-38358	2158.3	-0.10258	-0.2439	0.94692
0.736	21.442	-38358	2158.3	-0.1058	-0.24361	0.94848
0.738	21.42	-38359	2158.3	-0.10902	-0.24332	0.95004
0.74	21.37	-38363	2158.3	-0.11224	-0.24302	0.9516
0.742	21.335	-38371	2158.3	-0.11302	-0.24283	0.95092
0.744	21.319	-38374	2158.2	-0.1138	-0.24263	0.95023
0.746	21.319	-38374	2158.2	-0.11458	-0.24244	0.94955
0.748	21.258	-38374	2158.1	-0.11536	-0.24224	0.94887
0.75	21.184	-38376	2158.1	-0.11614	-0.24205	0.94818
0.752	21.114	-38374	2158	-0.11575	-0.24283	0.95053
0.754	21.094	-38367	2157.9	-0.11536	-0.24361	0.95287
0.756	21.108	-38365	2157.9	-0.11497	-0.24439	0.95521
0.758	21.067	-38367	2157.9	-0.11458	-0.24517	0.95755
0.76	21.004	-38371	2157.9	-0.11419	-0.24595	0.9599
0.762	20.9	-38376	2157.9	-0.11409	-0.24585	0.95912
0.764	20.855	-38378	2157.8	-0.114	-0.24576	0.95833
0.766	20.887	-38378	2157.7	-0.1139	-0.24566	0.95755
0.768	20.967	-38378	2157.6	-0.1138	-0.24556	0.95677
0.77	21.032	-38380	2157.5	-0.1137	-0.24546	0.95599
0.772	21.049	-38380	2157.3	-0.11488	-0.24537	0.95531
0.774	21.085	-38379	2157.1	-0.11605	-0.24527	0.95463
0.776	21.165	-38381	2157	-0.11722	-0.24517	0.95394
0.778	21.205	-38384	2156.9	-0.11839	-0.24507	0.95326
0.78	21.241	-38386	2156.8	-0.11956	-0.24498	0.95258
0.782	21.325	-38386	2156.7	-0.12093	-0.24527	0.95267
0.784	21.378	-38388	2156.5	-0.12229	-0.24556	0.95277
0.786	21.381	-38393	2156.4	-0.12366	-0.24585	0.95287
0.788	21.383	-38396	2156.3	-0.12503	-0.24615	0.95297
0.79	21.412	-38398	2156.1	-0.12639	-0.24644	0.95306
0.792	21.461	-38395	2156.1	-0.12639	-0.24498	0.9517
0.794	21.476	-38388	2156	-0.12639	-0.24351	0.95033
0.796	21.473	-38388	2156	-0.12639	-0.24205	0.94896
0.798	21.47	-38393	2155.9	-0.12639	-0.24058	0.9476
0.8	21.428	-38394	2155.9	-0.12639	-0.23912	0.94623
0.802	21.398	-38390	2155.9	-0.12561	-0.24029	0.9477
0.804	21.416	-38392	2156	-0.12483	-0.24146	0.94916
0.806	21.425	-38399	2156	-0.12405	-0.24263	0.95062
0.808	21.434	-38403	2155.9	-0.12327	-0.2438	0.95209
0.81	21.429	-38402	2155.9	-0.12249	-0.24498	0.95355
0.812	21.376	-38403	2155.9	-0.1222	-0.24468	0.95531
0.814	21.299	-38406	2155.9	-0.1219	-0.24439	0.95707
0.816	21.286	-38406	2155.9	-0.12161	-0.2441	0.95882
0.818	21.34	-38404	2155.9	-0.12132	-0.2438	0.96058
0.82	21.409	-38405	2155.9	-0.12102	-0.24351	0.96234
0.822	21.431	-38408	2156	-0.1221	-0.24322	0.96273
0.824	21.462	-38413	2156	-0.12317	-0.24293	0.96312
0.826	21.453	-38421	2156.1	-0.12424	-0.24263	0.96351
0.828	21.39	-38427	2156.2	-0.12532	-0.24234	0.9639
0.83	21.4	-38430	2156.3	-0.12639	-0.24205	0.96429
0.832	21.435	-38427	2156.3	-0.12581	-0.24341	0.96439
0.834	21.387	-38416	2156.3	-0.12522	-0.24478	0.96448
0.836	21.386	-38411	2156.3	-0.12464	-0.24615	0.96458
0.838	21.325	-38414	2156.3	-0.12405	-0.24751	0.96468
0.84	21.3	-38417	2156.3	-0.12346	-0.24888	0.96478
0.842	21.357	-38418	2156.2	-0.12249	-0.24878	0.9638
0.844	21.412	-38420	2156.1	-0.12151	-0.24868	0.96282
0.846	21.456	-38421	2156	-0.12054	-0.24859	0.96185
0.848	21.44	-38421	2155.9	-0.11956	-0.24849	0.96087
0.85	21.386	-38420	2155.8	-0.11858	-0.24839	0.9599
0.852	21.412	-38420	2155.7	-0.11712	-0.24771	0.9599
0.854	21.454	-38421	2155.6	-0.11566	-0.24703	0.9599
0.856	21.433	-38424	2155.6	-0.11419	-0.24634	0.9599
0.858	21.377	-38429	2155.5	-0.11273	-0.24566	0.9599
0.86	21.36	-38432	2155.5	-0.11126	-0.24498	0.9599
0.862	21.36	-38431	2155.4	-0.11312	-0.24468	0.95785
0.864	21.324	-38429	2155.3	-0.11497	-0.24439	0.9558
0.866	21.322	-38426	2155.2	-0.11683	-0.2441	0.95375
0.868	21.391	-38427	2155.1	-0.11868	-0.2438	0.9517
0.87	21.417	-38432	2155	-0.12054	-0.24351	0.94965
0.872	21.392	-38436	2155	-0.12015	-0.24361	0.94906
0.874	21.399	-38440	2154.9	-0.11976	-0.24371	0.94848
0.876	21.41	-38442	2154.9	-0.11936	-0.2438	0.94789
0.878	21.391	-38443	2154.9	-0.11897	-0.2439	0.94731
0.88	21.369	-38443	2154.9	-0.11858	-0.244	0.94672
0.882	21.379	-38442	2154.9	-0.11888	-0.24459	0.94682
0.884	21.41	-38442	2154.9	-0.11917	-0.24517	0.94692
0.886	21.412	-38443	2155	-0.11946	-0.24576	0.94701
0.888	21.398	-38443	2155	-0.11976	-0.24634	0.94711
0.89	21.35	-38441	2155	-0.12005	-0.24693	0.94721
0.892	21.299	-38442	2155	-0.11907	-0.24595	0.94682
0.894	21.29	-38445	2154.9	-0.1181	-0.24498	0.94643
0.896	21.325	-38446	2154.9	-0.11712	-0.244	0.94604
0.898	21.344	-38444	2155	-0.11614	-0.24302	0.94565
0.9	21.34	-38442	2155.1	-0.11517	-0.24205	0.94526
0.902	21.344	-38441	2155.2	-0.11488	-0.24234	0.94555
0.904	21.376	-38442	2155.2	-0.11458	-0.24263	0.94584
0.906	21.397	-38446	2155.2	-0.11429	-0.24293	0.94613
0.908	21.384	-38451	2155.1	-0.114	-0.24322	0.94643
0.91	21.345	-38456	2155.1	-0.1137	-0.24351	0.94672
0.912	21.305	-38458	2155	-0.11361	-0.24351	0.94692
0.914	21.323	-38459	2154.9	-0.11351	-0.24351	0.94711
0.916	21.361	-38461	2154.8	-0.11341	-0.24351	0.94731
0.918	21.34	-38463	2154.6	-0.11331	-0.24351	0.9475
0.92	21.264	-38465	2154.5	-0.11322	-0.24351	0.9477
0.922	21.298	-38466	2154.4	-0.11312	-0.24351	0.9474
0.924	21.334	-38467	2154.3	-0.11302	-0.24351	0.94711
0.926	21.351	-38467	2154.2	-0.11292	-0.24351	0.94682
0.928	21.334	-38467	2154.1	-0.11283	-0.24351	0.94652
0.93	21.232	-38466	2154	-0.11273	-0.24351	0.94623
0.932	21.179	-38466	2154	-0.11234	-0.24429	0.94555
0.934	21.167	-38467	2153.9	-0.11195	-0.24507	0.94487
0.936	21.231	-38468	2153.9	-0.11156	-0.24585	0.94418
0.938	21.309	-38469	2153.8	-0.11117	-0.24664	0.9435
0.94	21.291	-38468	2153.8	-0.11078	-0.24742	0.94282
0.942	21.267	-38465	2153.9	-0.11165	-0.24673	0.94204
0.944	21.275	-38468	2153.9	-0.11253	-0.24605	0.94125
0.946	21.293	-38478	2153.9	-0.11341	-0.24537	0.94047
0.948	21.304	-38481	2153.9	-0.11429	-0.24468	0.93969
0.95	21.306	-38479	2154	-0.11517	-0.244	0.93891
0.952	21.266	-38477	2154	-0.11546	-0.24439	0.9392
0.954	21.211	-38476	2154.1	-0.11575	-0.24478	0.9395
0.956	21.191	-38474	2154.1	-0.11605	-0.24517	0.93979
0.958	21.182	-38473	2154.2	-0.11634	-0.24556	0.94008
0.96	21.185	-38478	2154.3	-0.11663	-0.24595	0.94038
0.962	21.218	-38489	2154.4	-0.11527	-0.24546	0.94135
0.964	21.255	-38495	2154.6	-0.1139	-0.24498	0.94233
0.966	21.284	-38495	2154.7	-0.11253	-0.24449	0.9433
0.968	21.27	-38494	2154.8	-0.11117	-0.244	0.94428
0.97	21.251	-38492	2154.9	-0.1098	-0.24351	0.94526
0.972	21.234	-38490	2155.1	-0.11146	-0.24254	0.94594
0.974	21.242	-38488	2155.2	-0.11312	-0.24156	0.94662
0.976	21.255	-38490	2155.3	-0.11478	-0.24058	0.94731
0.978	21.23	-38495	2155.4	-0.11644	-0.23961	0.94799
0.98	21.191	-38498	2155.5	-0.1181	-0.23863	0.94867
0.982	21.155	-38499	2155.6	-0.11761	-0.2399	0.94994
0.984	21.197	-38498	2155.7	-0.11712	-0.24117	0.95121
0.986	21.243	-38496	2155.8	-0.11663	-0.24244	0.95248
0.988	21.242	-38496	2155.9	-0.11614	-0.24371	0.95375
0.99	21.204	-38498	2156	-0.11566	-0.24498	0.95502
0.992	21.207	-38499	2156.1	-0.11683	-0.24566	0.95463
0.994	21.203	-38500	2156.3	-0.118	-0.24634	0.95424
0.996	21.202	-38504	2156.4	-0.11917	-0.24703	0.95384
0.998	21.215	-38509	2156.6	-0.12034	-0.24771	0.95345
1	21.233	-38505	2156.7	-0.12151	-0.24839	0.95306
1.002	21.159	-38494	2156.9	-0.1222	-0.24859	0.95248
1.004	21.153	-38486	2157	-0.12288	-0.24878	0.95189
1.006	21.191	-38481	2157.2	-0.12356	-0.24898	0.95131
1.008	21.227	-38482	2157.3	-0.12424	-0.24917	0.95072
1.01	21.242	-38488	2157.4	-0.12493	-0.24937	0.95014
1.012	21.237	-38489	2157.6	-0.12346	-0.24966	0.94906
1.014	21.214	-38484	2157.7	-0.122	-0.24995	0.94799
1.016	21.193	-38483	2157.9	-0.12054	-0.25025	0.94692
1.018	21.168	-38484	2158	-0.11907	-0.25054	0.94584
1.02	21.116	-38490	2158.2	-0.11761	-0.25083	0.94477
1.022	21.078	-38501	2158.3	-0.11702	-0.25064	0.94496
1.024	21.139	-38504	2158.4	-0.11644	-0.25044	0.94516
1.026	21.198	-38498	2158.6	-0.11585	-0.25025	0.94535
1.028	21.276	-38494	2158.8	-0.11527	-0.25005	0.94555
1.03	21.347	-38493	2158.9	-0.11468	-0.24986	0.94574
1.032	21.323	-38490	2159.1	-0.11322	-0.25044	0.94526
1.034	21.305	-38486	2159.3	-0.11175	-0.25103	0.94477
1.036	21.322	-38483	2159.5	-0.11029	-0.25161	0.94428
1.038	21.326	-38480	2159.7	-0.10882	-0.2522	0.94379
1.04	21.328	-38476	2159.9	-0.10736	-0.25278	0.9433
1.042	21.327	-38472	2160.1	-0.10756	-0.25259	0.9433
1.044	21.321	-38469	2160.3	-0.10775	-0.25239	0.9433
1.046	21.329	-38468	2160.5	-0.10795	-0.2522	0.9433
1.048	21.349	-38467	2160.7	-0.10814	-0.252	0.9433
1.05	21.367	-38466	2160.8	-0.10834	-0.25181	0.9433
1.052	21.342	-38465	2161	-0.10834	-0.25152	0.94389
1.054	21.25	-38463	2161.2	-0.10834	-0.25122	0.94448
1.056	21.229	-38457	2161.4	-0.10834	-0.25093	0.94506
1.058	21.317	-38448	2161.5	-0.10834	-0.25064	0.94565
1.06	21.414	-38446	2161.7	-0.10834	-0.25034	0.94623
1.062	21.5	-38451	2161.9	-0.10951	-0.24966	0.94838
1.064	21.476	-38452	2162.1	-0.11068	-0.24898	0.95053
1.066	21.424	-38452	2162.3	-0.11185	-0.24829	0.95267
1.068	21.418	-38451	2162.4	-0.11302	-0.24761	0.95482
1.07	21.391	-38451	2162.6	-0.11419	-0.24693	0.95697
1.072	21.396	-38450	2162.7	-0.1139	-0.24732	0.95648
1.074	21.408	-38447	2162.8	-0.11361	-0.24771	0.95599
1.076	21.449	-38445	2162.8	-0.11331	-0.2481	0.9555
1.078	21.423	-38444	2162.9	-0.11302	-0.24849	0.95502
1.08	21.419	-38440	2163	-0.11273	-0.24888	0.95453
1.082	21.385	-38435	2163	-0.11351	-0.24917	0.95365
1.084	21.34	-38430	2163.1	-0.11429	-0.24947	0.95277
1.086	21.271	-38426	2163.2	-0.11507	-0.24976	0.95189
1.088	21.292	-38423	2163.3	-0.11585	-0.25005	0.95101
1.09	21.4	-38421	2163.5	-0.11663	-0.25034	0.95014
1.092	21.469	-38419	2163.6	-0.11605	-0.25034	0.94809
1.094	21.492	-38418	2163.8	-0.11546	-0.25034	0.94604
1.096	21.461	-38417	2163.9	-0.11488	-0.25034	0.94399
1.098	21.451	-38416	2164	-0.11429	-0.25034	0.94194
1.1	21.449	-38417	2164.2	-0.1137	-0.25034	0.93989
1.102	21.457	-38420	2164.2	-0.1139	-0.24976	0.93999
1.104	21.4	-38419	2164.2	-0.11409	-0.24917	0.94008
1.106	21.296	-38414	2164.3	-0.11429	-0.24859	0.94018
1.108	21.29	-38407	2164.3	-0.11448	-0.248	0.94028
1.11	21.333	-38398	2164.4	-0.11468	-0.24742	0.94038
1.112	21.431	-38396	2164.4	-0.1181	-0.24751	0.94223
1.114	21.521	-38400	2164.4	-0.12151	-0.24761	0.94408
1.116	21.507	-38401	2164.4	-0.12493	-0.24771	0.94594
1.118	21.445	-38398	2164.4	-0.12834	-0.24781	0.94779
1.12	21.44	-38393	2164.4	-0.13176	-0.2479	0.94965
1.122	21.477	-38387	2164.4	-0.13137	-0.24742	0.94994
1.124	21.473	-38383	2164.5	-0.13098	-0.24693	0.95023
1.126	21.427	-38383	2164.5	-0.13059	-0.24644	0.95053
1.128	21.395	-38380	2164.4	-0.1302	-0.24595	0.95082
1.13	21.387	-38374	2164.4	-0.12981	-0.24546	0.95111
1.132	21.393	-38374	2164.3	-0.1301	-0.24507	0.95092
1.134	21.411	-38379	2164.3	-0.13039	-0.24468	0.95072
1.136	21.429	-38381	2164.3	-0.13069	-0.24429	0.95053
1.138	21.458	-38378	2164.4	-0.13098	-0.2439	0.95033
1.14	21.492	-38374	2164.5	-0.13127	-0.24351	0.95014
1.142	21.457	-38369	2164.5	-0.13147	-0.2442	0.95004
1.144	21.4	-38364	2164.6	-0.13166	-0.24488	0.94994
1.146	21.362	-38358	2164.6	-0.13186	-0.24556	0.94984
1.148	21.389	-38354	2164.7	-0.13205	-0.24624	0.94975
1.15	21.449	-38352	2164.8	-0.13225	-0.24693	0.94965
1.152	21.462	-38354	2164.8	-0.13235	-0.24751	0.94945
1.154	21.432	-38359	2164.8	-0.13244	-0.2481	0.94926
1.156	21.424	-38359	2164.8	-0.13254	-0.24868	0.94906
1.158	21.424	-38353	2164.8	-0.13264	-0.24927	0.94887
1.16	21.431	-38348	2164.8	-0.13274	-0.24986	0.94867
1.162	21.38	-38344	2164.8	-0.13166	-0.24976	0.94916
1.164	21.333	-38343	2164.7	-0.13059	-0.24966	0.94965
1.166	21.316	-38347	2164.7	-0.12952	-0.24956	0.95014
1.168	21.282	-38348	2164.8	-0.12844	-0.24947	0.95062
1.17	21.325	-38345	2164.8	-0.12737	-0.24937	0.95111
1.172	21.496	-38341	2164.9	-0.12376	-0.24947	0.94926
1.174	21.573	-38334	2165	-0.12015	-0.24956	0.9474
1.176	21.472	-38331	2165.1	-0.11653	-0.24966	0.94555
1.178	21.384	-38330	2165.1	-0.11292	-0.24976	0.94369
1.18	21.352	-38330	2165.2	-0.10931	-0.24986	0.94184
1.182	21.362	-38331	2165.1	-0.10882	-0.25064	0.94213
1.184	21.431	-38329	2165.1	-0.10834	-0.25142	0.94243
1.186	21.48	-38325	2165.1	-0.10785	-0.2522	0.94272
1.188	21.545	-38319	2165	-0.10736	-0.25298	0.94301
1.19	21.452	-38312	2165	-0.10687	-0.25376	0.9433
1.192	21.341	-38312	2164.9	-0.10697	-0.25376	0.94369
1.194	21.313	-38319	2164.9	-0.10707	-0.25376	0.94408
1.196	21.373	-38318	2164.8	-0.10716	-0.25376	0.94448
1.198	21.405	-38311	2164.8	-0.10726	-0.25376	0.94487
1.2	21.397	-38308	2164.8	-0.10736	-0.25376	0.94526
1.202	21.411	-38307	2164.7	-0.10795	-0.2523	0.94662
1.204	21.43	-38309	2164.7	-0.10853	-0.25083	0.94799
1.206	21.451	-38313	2164.6	-0.10912	-0.24937	0.94936
1.208	21.454	-38314	2164.6	-0.1097	-0.2479	0.95072
1.21	21.433	-38314	2164.6	-0.11029	-0.24644	0.95209
1.212	21.428	-38313	2164.6	-0.10921	-0.24761	0.95355
1.214	21.432	-38310	2164.6	-0.10814	-0.24878	0.95502
1.216	21.428	-38308	2164.6	-0.10707	-0.24995	0.95648
1.218	21.438	-38305	2164.5	-0.10599	-0.25112	0.95794
1.22	21.436	-38301	2164.4	-0.10492	-0.2523	0.95941
1.222	21.407	-38295	2164.4	-0.10433	-0.25171	0.9596
1.224	21.383	-38293	2164.3	-0.10375	-0.25112	0.9598
1.226	21.365	-38293	2164.3	-0.10316	-0.25054	0.95999
1.228	21.341	-38290	2164.1	-0.10258	-0.24995	0.96019
1.23	21.376	-38285	2164	-0.10199	-0.24937	0.96038
1.232	21.444	-38284	2164	-0.1018	-0.24927	0.9598
1.234	21.422	-38288	2163.9	-0.1016	-0.24917	0.95921
1.236	21.41	-38290	2163.8	-0.10141	-0.24908	0.95863
1.238	21.424	-38290	2163.8	-0.10121	-0.24898	0.95804
1.24	21.455	-38289	2163.7	-0.10102	-0.24888	0.95746
1.242	21.465	-38287	2163.6	-0.10238	-0.25054	0.9556
1.244	21.446	-38287	2163.5	-0.10375	-0.2522	0.95375
1.246	21.383	-38287	2163.4	-0.10512	-0.25386	0.95189
1.248	21.361	-38282	2163.3	-0.10648	-0.25552	0.95004
1.25	21.37	-38271	2163.2	-0.10785	-0.25718	0.94818
1.252	21.431	-38269	2163.2	-0.10873	-0.25513	0.94926
1.254	21.486	-38274	2163.1	-0.1096	-0.25308	0.95033
1.256	21.42	-38278	2163	-0.11048	-0.25103	0.9514
1.258	21.421	-38280	2163	-0.11136	-0.24898	0.95248
1.26	21.473	-38278	2163	-0.11224	-0.24693	0.95355
1.262	21.409	-38274	2163	-0.11097	-0.24751	0.95404
1.264	21.41	-38272	2163.1	-0.1097	-0.2481	0.95453
1.266	21.452	-38273	2163	-0.10843	-0.24868	0.95502
1.268	21.51	-38270	2163	-0.10716	-0.24927	0.9555
1.27	21.444	-38266	2163	-0.1059	-0.24986	0.95599
1.272	21.328	-38264	2163	-0.10502	-0.24947	0.95619
1.274	21.279	-38264	2163.1	-0.10414	-0.24908	0.95638
1.276	21.288	-38267	2163.1	-0.10326	-0.24868	0.95658
1.278	21.307	-38272	2163.2	-0.10238	-0.24829	0.95677
1.28	21.415	-38271	2163.4	-0.1015	-0.2479	0.95697
1.282	21.537	-38265	2163.5	-0.10189	-0.24742	0.95707
1.284	21.519	-38261	2163.6	-0.10228	-0.24693	0.95716
1.286	21.472	-38260	2163.7	-0.10268	-0.24644	0.95726
1.288	21.465	-38259	2163.7	-0.10307	-0.24595	0.95736
1.29	21.484	-38260	2163.8	-0.10346	-0.24546	0.95746
1.292	21.494	-38261	2163.8	-0.10424	-0.24576	0.95716
1.294	21.469	-38261	2163.8	-0.10502	-0.24605	0.95687
1.296	21.472	-38258	2163.8	-0.1058	-0.24634	0.95658
1.298	21.479	-38252	2163.8	-0.10658	-0.24664	0.95628
1.3	21.441	-38249	2163.9	-0.10736	-0.24693	0.95599
1.302	21.416	-38250	2164	-0.10814	-0.24634	0.9558
1.304	21.414	-38252	2164	-0.10892	-0.24576	0.9556
1.306	21.409	-38255	2164.1	-0.1097	-0.24517	0.95541
1.308	21.411	-38256	2164.2	-0.11048	-0.24459	0.95521
1.31	21.399	-38256	2164.3	-0.11126	-0.244	0.95502
1.312	21.359	-38256	2164.4	-0.11107	-0.24517	0.95482
1.314	21.347	-38256	2164.4	-0.11087	-0.24634	0.95463
1.316	21.373	-38255	2164.5	-0.11068	-0.24751	0.95443
1.318	21.417	-38253	2164.5	-0.11048	-0.24868	0.95424
1.32	21.448	-38252	2164.6	-0.11029	-0.24986	0.95404
1.322	21.473	-38251	2164.7	-0.11165	-0.24947	0.95219
1.324	21.453	-38251	2164.8	-0.11302	-0.24908	0.95033
1.326	21.442	-38252	2164.8	-0.11439	-0.24868	0.94848
1.328	21.414	-38251	2164.9	-0.11575	-0.24829	0.94662
1.33	21.349	-38250	2164.9	-0.11712	-0.2479	0.94477
1.332	21.403	-38247	2165	-0.11527	-0.24849	0.94389
1.334	21.394	-38242	2165	-0.11341	-0.24908	0.94301
1.336	21.355	-38239	2165.1	-0.11156	-0.24966	0.94213
1.338	21.343	-38237	2165.1	-0.1097	-0.25025	0.94125
1.34	21.393	-38238	2165.2	-0.10785	-0.25083	0.94038
1.342	21.414	-38242	2165.3	-0.10912	-0.25034	0.94116
1.344	21.481	-38243	2165.3	-0.11039	-0.24986	0.94194
1.346	21.488	-38241	2165.4	-0.11165	-0.24937	0.94272
1.348	21.418	-38239	2165.5	-0.11292	-0.24888	0.9435
1.35	21.37	-38237	2165.5	-0.11419	-0.24839	0.94428
1.352	21.376	-38235	2165.7	-0.11497	-0.24868	0.94477
1.354	21.466	-38234	2165.8	-0.11575	-0.24898	0.94526
1.356	21.464	-38233	2165.9	-0.11653	-0.24927	0.94574
1.358	21.433	-38234	2166	-0.11732	-0.24956	0.94623
1.36	21.416	-38234	2166.1	-0.1181	-0.24986	0.94672
1.362	21.397	-38233	2166.3	-0.118	-0.25034	0.94643
1.364	21.41	-38231	2166.4	-0.1179	-0.25083	0.94613
1.366	21.438	-38225	2166.4	-0.1178	-0.25132	0.94584
1.368	21.441	-38224	2166.5	-0.11771	-0.25181	0.94555
1.37	21.428	-38227	2166.5	-0.11761	-0.2523	0.94526
1.372	21.443	-38228	2166.5	-0.11849	-0.25191	0.94633
1.374	21.469	-38229	2166.5	-0.11936	-0.25152	0.9474
1.376	21.464	-38227	2166.5	-0.12024	-0.25112	0.94848
1.378	21.437	-38224	2166.4	-0.12112	-0.25073	0.94955
1.38	21.405	-38225	2166.3	-0.122	-0.25034	0.95062
1.382	21.404	-38228	2166.3	-0.12337	-0.24927	0.95043
1.384	21.399	-38230	2166.2	-0.12473	-0.2482	0.95023
1.386	21.384	-38231	2166.1	-0.1261	-0.24712	0.95004
1.388	21.397	-38230	2165.9	-0.12747	-0.24605	0.94984
1.39	21.377	-38226	2165.8	-0.12883	-0.24498	0.94965
1.392	21.366	-38226	2165.7	-0.1301	-0.24566	0.94965
1.394	21.422	-38230	2165.6	-0.13137	-0.24634	0.94965
1.396	21.452	-38233	2165.5	-0.13264	-0.24703	0.94965
1.398	21.455	-38234	2165.4	-0.13391	-0.24771	0.94965
1.4	21.426	-38233	2165.4	-0.13518	-0.24839	0.94965
1.402	21.388	-38229	2165.3	-0.134	-0.24771	0.94916
1.404	21.35	-38226	2165.3	-0.13283	-0.24703	0.94867
1.406	21.356	-38224	2165.2	-0.13166	-0.24634	0.94818
1.408	21.317	-38223	2165.1	-0.13049	-0.24566	0.9477
1.41	21.256	-38222	2165	-0.12932	-0.24498	0.94721
1.412	21.304	-38222	2165	-0.12737	-0.24517	0.94662
1.414	21.311	-38224	2165	-0.12542	-0.24537	0.94604
1.416	21.289	-38225	2165	-0.12346	-0.24556	0.94545
1.418	21.381	-38225	2165	-0.12151	-0.24576	0.94487
1.42	21.488	-38226	2165	-0.11956	-0.24595	0.94428
1.422	21.526	-38228	2165	-0.11985	-0.24664	0.9436
1.424	21.481	-38229	2165.1	-0.12015	-0.24732	0.94291
1.426	21.402	-38227	2165.1	-0.12044	-0.248	0.94223
1.428	21.428	-38226	2165.1	-0.12073	-0.24868	0.94155
1.43	21.449	-38226	2165	-0.12102	-0.24937	0.94086
1.432	21.46	-38228	2164.9	-0.12015	-0.24868	0.94213
1.434	21.431	-38231	2164.8	-0.11927	-0.248	0.9434
1.436	21.404	-38232	2164.8	-0.11839	-0.24732	0.94467
1.438	21.418	-38232	2164.8	-0.11751	-0.24664	0.94594
1.44	21.471	-38230	2164.8	-0.11663	-0.24595	0.94721
1.442	21.514	-38227	2164.8	-0.1179	-0.24664	0.94779
1.444	21.502	-38225	2164.8	-0.11917	-0.24732	0.94838
1.446	21.482	-38225	2164.8	-0.12044	-0.248	0.94896
1.448	21.443	-38225	2164.8	-0.12171	-0.24868	0.94955
1.45	21.465	-38226	2164.8	-0.12298	-0.24937	0.95014
1.452	21.507	-38227	2164.7	-0.1221	-0.24771	0.94945
1.454	21.502	-38229	2164.6	-0.12122	-0.24605	0.94877
1.456	21.494	-38233	2164.5	-0.12034	-0.24439	0.94809
1.458	21.48	-38239	2164.5	-0.11946	-0.24273	0.9474
1.46	21.453	-38241	2164.4	-0.11858	-0.24107	0.94672
1.462	21.447	-38238	2164.4	-0.11897	-0.24224	0.9477
1.464	21.485	-38235	2164.4	-0.11936	-0.24341	0.94867
1.466	21.49	-38231	2164.4	-0.11976	-0.24459	0.94965
1.468	21.458	-38230	2164.3	-0.12015	-0.24576	0.95062
1.47	21.467	-38231	2164.3	-0.12054	-0.24693	0.9516
1.472	21.486	-38234	2164.2	-0.11966	-0.24566	0.95121
1.474	21.466	-38239	2164.2	-0.11878	-0.24439	0.95082
1.476	21.422	-38242	2164.1	-0.1179	-0.24312	0.95043
1.478	21.401	-38242	2164	-0.11702	-0.24185	0.95004
1.48	21.42	-38243	2163.9	-0.11614	-0.24058	0.94965
1.482	21.42	-38244	2163.9	-0.11673	-0.24166	0.95033
1.484	21.389	-38246	2163.8	-0.11732	-0.24273	0.95101
1.486	21.416	-38248	2163.7	-0.1179	-0.2438	0.9517
1.488	21.45	-38249	2163.7	-0.11849	-0.24488	0.95238
1.49	21.462	-38249	2163.7	-0.11907	-0.24595	0.95306
1.492	21.427	-38248	2163.6	-0.11878	-0.24595	0.95219
1.494	21.394	-38246	2163.5	-0.11849	-0.24595	0.95131
1.496	21.412	-38247	2163.5	-0.11819	-0.24595	0.95043
1.498	21.405	-38250	2163.5	-0.1179	-0.24595	0.94955
1.5	21.421	-38251	2163.5	-0.11761	-0.24595	0.94867
1.502	21.448	-38250	2163.3	-0.11732	-0.24498	0.94818
1.504	21.445	-38249	2163.2	-0.11702	-0.244	0.9477
1.506	21.446	-38246	2163.2	-0.11673	-0.24302	0.94721
1.508	21.445	-38247	2163.2	-0.11644	-0.24205	0.94672
1.51	21.427	-38252	2163.2	-0.11614	-0.24107	0.94623
1.512	21.46	-38256	2163.1	-0.11507	-0.24146	0.94701
1.514	21.425	-38259	2163	-0.114	-0.24185	0.94779
1.516	21.318	-38259	2162.9	-0.11292	-0.24224	0.94857
1.518	21.215	-38255	2162.9	-0.11185	-0.24263	0.94936
1.52	21.167	-38254	2163	-0.11078	-0.24302	0.95014
1.522	21.122	-38256	2162.9	-0.10892	-0.24273	0.94906
1.524	21.086	-38260	2162.8	-0.10707	-0.24244	0.94799
1.526	21.05	-38266	2162.7	-0.10521	-0.24215	0.94692
1.528	20.98	-38267	2162.6	-0.10336	-0.24185	0.94584
1.53	20.915	-38262	2162.5	-0.1015	-0.24156	0.94477
1.532	20.904	-38262	2162.5	-0.10268	-0.24273	0.94535
1.534	20.942	-38267	2162.4	-0.10385	-0.2439	0.94594
1.536	20.962	-38266	2162.4	-0.10502	-0.24507	0.94652
1.538	20.936	-38260	2162.3	-0.10619	-0.24624	0.94711
1.54	20.96	-38260	2162.2	-0.10736	-0.24742	0.9477
1.542	21.065	-38267	2162.2	-0.10873	-0.24654	0.94701
1.544	21.148	-38271	2162.2	-0.11009	-0.24566	0.94633
1.546	21.198	-38273	2162.2	-0.11146	-0.24478	0.94565
1.548	21.227	-38273	2162.2	-0.11283	-0.2439	0.94496
1.55	21.286	-38272	2162.2	-0.11419	-0.24302	0.94428
1.552	21.355	-38273	2162.2	-0.114	-0.24263	0.9436
1.554	21.348	-38277	2162.1	-0.1138	-0.24224	0.94291
1.556	21.331	-38277	2162.1	-0.11361	-0.24185	0.94223
1.558	21.366	-38274	2162.1	-0.11341	-0.24146	0.94155
1.56	21.392	-38271	2162.2	-0.11322	-0.24107	0.94086
1.562	21.411	-38269	2162.1	-0.114	-0.24166	0.94038
1.564	21.425	-38272	2162.1	-0.11478	-0.24224	0.93989
1.566	21.401	-38280	2162.1	-0.11556	-0.24283	0.9394
1.568	21.392	-38286	2162.1	-0.11634	-0.24341	0.93891
1.57	21.4	-38291	2162	-0.11712	-0.244	0.93842
1.572	21.431	-38295	2162	-0.11663	-0.24468	0.9394
1.574	21.422	-38298	2162	-0.11614	-0.24537	0.94038
1.576	21.405	-38296	2162	-0.11566	-0.24605	0.94135
1.578	21.413	-38289	2162	-0.11517	-0.24673	0.94233
1.58	21.471	-38289	2162	-0.11468	-0.24742	0.9433
1.582	21.466	-38297	2161.9	-0.11536	-0.24751	0.9433
1.584	21.421	-38300	2161.9	-0.11605	-0.24761	0.9433
1.586	21.41	-38299	2161.8	-0.11673	-0.24771	0.9433
1.588	21.408	-38299	2161.8	-0.11741	-0.24781	0.9433
1.59	21.458	-38301	2161.8	-0.1181	-0.2479	0.9433
1.592	21.449	-38300	2161.8	-0.11819	-0.24898	0.94272
1.594	21.414	-38297	2161.8	-0.11829	-0.25005	0.94213
1.596	21.422	-38299	2161.8	-0.11839	-0.25112	0.94155
1.598	21.419	-38306	2161.7	-0.11849	-0.2522	0.94096
1.6	21.375	-38307	2161.7	-0.11858	-0.25327	0.94038
1.602	21.315	-38303	2161.6	-0.11976	-0.25278	0.94047
1.604	21.292	-38302	2161.6	-0.12093	-0.2523	0.94057
1.606	21.35	-38305	2161.5	-0.1221	-0.25181	0.94067
1.608	21.434	-38307	2161.4	-0.12327	-0.25132	0.94077
1.61	21.486	-38307	2161.3	-0.12444	-0.25083	0.94086
1.612	21.516	-38307	2161.3	-0.12464	-0.25103	0.94135
1.614	21.477	-38307	2161.2	-0.12483	-0.25122	0.94184
1.616	21.428	-38305	2161.1	-0.12503	-0.25142	0.94233
1.618	21.432	-38300	2161	-0.12522	-0.25161	0.94282
1.62	21.406	-38302	2161	-0.12542	-0.25181	0.9433
1.622	21.409	-38310	2160.8	-0.12522	-0.25171	0.9433
1.624	21.455	-38314	2160.7	-0.12503	-0.25161	0.9433
1.626	21.462	-38314	2160.6	-0.12483	-0.25152	0.9433
1.628	21.423	-38312	2160.4	-0.12464	-0.25142	0.9433
1.63	21.38	-38310	2160.3	-0.12444	-0.25132	0.9433
1.632	21.38	-38311	2160.2	-0.12483	-0.24995	0.94369
1.634	21.411	-38315	2160.2	-0.12522	-0.24859	0.94408
1.636	21.424	-38318	2160.1	-0.12561	-0.24722	0.94448
1.638	21.401	-38319	2160	-0.126	-0.24585	0.94487
1.64	21.396	-38319	2160	-0.12639	-0.24449	0.94526
1.642	21.407	-38318	2159.9	-0.12542	-0.24537	0.94526
1.644	21.372	-38318	2159.9	-0.12444	-0.24624	0.94526
1.646	21.336	-38319	2159.8	-0.12346	-0.24712	0.94526
1.648	21.34	-38320	2159.8	-0.12249	-0.248	0.94526
1.65	21.354	-38321	2159.7	-0.12151	-0.24888	0.94526
1.652	21.349	-38323	2159.7	-0.12161	-0.24956	0.94389
1.654	21.343	-38327	2159.8	-0.12171	-0.25025	0.94252
1.656	21.351	-38330	2159.7	-0.1218	-0.25093	0.94116
1.658	21.365	-38331	2159.6	-0.1219	-0.25161	0.93979
1.66	21.38	-38329	2159.6	-0.122	-0.2523	0.93842
1.662	21.382	-38322	2159.4	-0.11936	-0.25132	0.93979
1.664	21.401	-38320	2159.3	-0.11673	-0.25034	0.94116
1.666	21.442	-38323	2159.2	-0.11409	-0.24937	0.94252
1.668	21.438	-38325	2159.1	-0.11146	-0.24839	0.94389
1.67	21.384	-38326	2159.1	-0.10882	-0.24742	0.94526
1.672	21.368	-38328	2158.9	-0.1099	-0.24742	0.94496
1.674	21.357	-38332	2158.8	-0.11097	-0.24742	0.94467
1.676	21.307	-38332	2158.7	-0.11204	-0.24742	0.94438
1.678	21.276	-38329	2158.6	-0.11312	-0.24742	0.94408
1.68	21.261	-38332	2158.6	-0.11419	-0.24742	0.94379
1.682	21.258	-38341	2158.5	-0.11497	-0.24722	0.94496
1.684	21.243	-38344	2158.4	-0.11575	-0.24703	0.94613
1.686	21.302	-38339	2158.3	-0.11653	-0.24683	0.94731
1.688	21.304	-38335	2158.2	-0.11732	-0.24664	0.94848
1.69	21.329	-38333	2158.1	-0.1181	-0.24644	0.94965
1.692	21.404	-38335	2158.1	-0.11741	-0.24664	0.9517
1.694	21.482	-38340	2158.1	-0.11673	-0.24683	0.95375
1.696	21.405	-38343	2158.1	-0.11605	-0.24703	0.9558
1.698	21.339	-38343	2158.2	-0.11536	-0.24722	0.95785
1.7	21.323	-38344	2158.3	-0.11468	-0.24742	0.9599
1.702	21.305	-38347	2158.4	-0.11634	-0.2479	0.96048
1.704	21.29	-38351	2158.4	-0.118	-0.24839	0.96107
1.706	21.273	-38355	2158.5	-0.11966	-0.24888	0.96165
1.708	21.244	-38356	2158.5	-0.12132	-0.24937	0.96224
1.71	21.233	-38355	2158.5	-0.12298	-0.24986	0.96282
1.712	21.267	-38357	2158.5	-0.12151	-0.24878	0.96263
1.714	21.286	-38362	2158.5	-0.12005	-0.24771	0.96243
1.716	21.24	-38363	2158.6	-0.11858	-0.24664	0.96224
1.718	21.228	-38358	2158.7	-0.11712	-0.24556	0.96204
1.72	21.306	-38356	2158.8	-0.11566	-0.24449	0.96185
1.722	21.321	-38355	2158.9	-0.11468	-0.2439	0.96097
1.724	21.259	-38355	2159	-0.1137	-0.24332	0.96009
1.726	21.237	-38355	2159.1	-0.11273	-0.24273	0.95921
1.728	21.242	-38359	2159.2	-0.11175	-0.24215	0.95833
1.73	21.23	-38368	2159.3	-0.11078	-0.24156	0.95746
1.732	21.202	-38371	2159.4	-0.11195	-0.24224	0.95775
1.734	21.19	-38366	2159.5	-0.11312	-0.24293	0.95804
1.736	21.198	-38363	2159.6	-0.11429	-0.24361	0.95833
1.738	21.213	-38363	2159.8	-0.11546	-0.24429	0.95863
1.74	21.254	-38366	2159.9	-0.11663	-0.24498	0.95892
1.742	21.264	-38373	2160.1	-0.11585	-0.24507	0.95921
1.744	21.245	-38372	2160.3	-0.11507	-0.24517	0.95951
1.746	21.208	-38365	2160.5	-0.11429	-0.24527	0.9598
1.748	21.153	-38365	2160.8	-0.11351	-0.24537	0.96009
1.75	21.168	-38370	2161	-0.11273	-0.24546	0.96038
1.752	21.188	-38372	2161.2	-0.11312	-0.24527	0.96097
1.754	21.267	-38370	2161.5	-0.11351	-0.24507	0.96156
1.756	21.287	-38369	2161.7	-0.1139	-0.24488	0.96214
1.758	21.253	-38368	2162	-0.11429	-0.24468	0.96273
1.76	21.216	-38365	2162.2	-0.11468	-0.24449	0.96331
1.762	21.247	-38360	2162.5	-0.11458	-0.24517	0.96243
1.764	21.22	-38359	2162.7	-0.11448	-0.24585	0.96156
1.766	21.197	-38364	2162.9	-0.11439	-0.24654	0.96068
1.768	21.127	-38365	2163.1	-0.11429	-0.24722	0.9598
1.77	21.117	-38362	2163.3	-0.11419	-0.2479	0.95892
1.772	21.167	-38360	2163.5	-0.11195	-0.24781	0.95863
1.774	21.22	-38359	2163.6	-0.1097	-0.24771	0.95833
1.776	21.228	-38361	2163.8	-0.10746	-0.24761	0.95804
1.778	21.151	-38367	2164	-0.10521	-0.24751	0.95775
1.78	21.134	-38366	2164.2	-0.10297	-0.24742	0.95746
1.782	21.205	-38357	2164.7	-0.10394	-0.2479	0.95687
1.784	21.228	-38353	2165.2	-0.10492	-0.24839	0.95628
1.786	21.224	-38354	2165.6	-0.1059	-0.24888	0.9557
1.788	21.179	-38354	2166.1	-0.10687	-0.24937	0.95511
1.79	21.214	-38355	2166.5	-0.10785	-0.24986	0.95453
1.792	21.313	-38355	2166.8	-0.10834	-0.25005	0.95502
1.794	21.358	-38353	2167	-0.10882	-0.25025	0.9555
1.796	21.358	-38351	2167.3	-0.10931	-0.25044	0.95599
1.798	21.355	-38348	2167.6	-0.1098	-0.25064	0.95648
1.8	21.336	-38343	2167.9	-0.11029	-0.25083	0.95697
1.802	21.316	-38336	2168.1	-0.11253	-0.25132	0.95746
1.804	21.3	-38335	2168.4	-0.11478	-0.25181	0.95794
1.806	21.303	-38342	2168.7	-0.11702	-0.2523	0.95843
1.808	21.323	-38342	2169	-0.11927	-0.25278	0.95892
1.81	21.334	-38336	2169.2	-0.12151	-0.25327	0.95941
1.812	21.309	-38332	2169.5	-0.12015	-0.2521	0.95951
1.814	21.267	-38331	2169.8	-0.11878	-0.25093	0.9596
1.816	21.293	-38331	2170	-0.11741	-0.24976	0.9597
1.818	21.349	-38330	2170.2	-0.11605	-0.24859	0.9598
1.82	21.347	-38330	2170.4	-0.11468	-0.24742	0.9599
1.822	21.335	-38329	2170.6	-0.11566	-0.248	0.95833
1.824	21.314	-38327	2170.8	-0.11663	-0.24859	0.95677
1.826	21.314	-38324	2171	-0.11761	-0.24917	0.95521
1.828	21.37	-38321	2171.1	-0.11858	-0.24976	0.95365
1.83	21.404	-38320	2171.3	-0.11956	-0.25034	0.95209
1.832	21.416	-38317	2171.4	-0.12132	-0.24976	0.9516
1.834	21.438	-38313	2171.5	-0.12307	-0.24917	0.95111
1.836	21.451	-38310	2171.6	-0.12483	-0.24859	0.95062
1.838	21.38	-38309	2171.7	-0.12659	-0.248	0.95014
1.84	21.34	-38309	2171.8	-0.12834	-0.24742	0.94965
1.842	21.368	-38309	2171.9	-0.12717	-0.24859	0.94731
1.844	21.428	-38307	2172	-0.126	-0.24976	0.94496
1.846	21.523	-38304	2172	-0.12483	-0.25093	0.94262
1.848	21.463	-38299	2172.1	-0.12366	-0.2521	0.94028
1.85	21.402	-38293	2172.1	-0.12249	-0.25327	0.93794
1.852	21.421	-38290	2172.2	-0.12337	-0.25152	0.93813
1.854	21.464	-38291	2172.2	-0.12424	-0.24976	0.93833
1.856	21.457	-38288	2172.2	-0.12512	-0.248	0.93852
1.858	21.428	-38282	2172.2	-0.126	-0.24624	0.93872
1.86	21.352	-38280	2172.2	-0.12688	-0.24449	0.93891
1.862	21.327	-38280	2172.2	-0.12503	-0.24546	0.9394
1.864	21.391	-38279	2172.3	-0.12317	-0.24644	0.93989
1.866	21.464	-38277	2172.3	-0.12132	-0.24742	0.94038
1.868	21.446	-38277	2172.4	-0.11946	-0.24839	0.94086
1.87	21.428	-38278	2172.5	-0.11761	-0.24937	0.94135
1.872	21.398	-38275	2172.6	-0.1181	-0.24927	0.94155
1.874	21.434	-38266	2172.7	-0.11858	-0.24917	0.94174
1.876	21.498	-38262	2172.8	-0.11907	-0.24908	0.94194
1.878	21.49	-38262	2172.8	-0.11956	-0.24898	0.94213
1.88	21.391	-38260	2172.9	-0.12005	-0.24888	0.94233
1.882	21.351	-38255	2172.9	-0.1218	-0.24761	0.94389
1.884	21.387	-38251	2172.9	-0.12356	-0.24634	0.94545
1.886	21.43	-38249	2173	-0.12532	-0.24507	0.94701
1.888	21.426	-38249	2173.1	-0.12708	-0.2438	0.94857
1.89	21.43	-38252	2173.2	-0.12883	-0.24254	0.95014
1.892	21.478	-38252	2173.2	-0.12903	-0.24244	0.95092
1.894	21.498	-38248	2173.3	-0.12922	-0.24234	0.9517
1.896	21.454	-38244	2173.3	-0.12942	-0.24224	0.95248
1.898	21.356	-38241	2173.4	-0.12961	-0.24215	0.95326
1.9	21.295	-38235	2173.5	-0.12981	-0.24205	0.95404
1.902	21.343	-38226	2173.5	-0.13088	-0.24263	0.95316
1.904	21.378	-38223	2173.6	-0.13196	-0.24322	0.95228
1.906	21.362	-38223	2173.7	-0.13303	-0.2438	0.9514
1.908	21.362	-38223	2173.8	-0.1341	-0.24439	0.95053
1.91	21.436	-38221	2173.8	-0.13518	-0.24498	0.94965
1.912	21.518	-38220	2173.8	-0.13283	-0.24576	0.94906
1.914	21.445	-38219	2173.9	-0.13049	-0.24654	0.94848
1.916	21.384	-38217	2173.9	-0.12815	-0.24732	0.94789
1.918	21.411	-38215	2173.9	-0.12581	-0.2481	0.94731
1.92	21.401	-38211	2173.9	-0.12346	-0.24888	0.94672
1.922	21.361	-38205	2173.9	-0.12054	-0.24878	0.94584
1.924	21.36	-38200	2173.9	-0.11761	-0.24868	0.94496
1.926	21.419	-38195	2173.8	-0.11468	-0.24859	0.94408
1.928	21.457	-38193	2173.8	-0.11175	-0.24849	0.94321
1.93	21.458	-38191	2173.8	-0.10882	-0.24839	0.94233
1.932	21.417	-38186	2173.7	-0.10824	-0.24878	0.94311
1.934	21.469	-38177	2173.7	-0.10765	-0.24917	0.94389
1.936	21.512	-38175	2173.7	-0.10707	-0.24956	0.94467
1.938	21.477	-38180	2173.7	-0.10648	-0.24995	0.94545
1.94	21.411	-38183	2173.8	-0.1059	-0.25034	0.94623
1.942	21.432	-38183	2173.8	-0.1058	-0.24976	0.94613
1.944	21.415	-38179	2173.7	-0.1057	-0.24917	0.94604
1.946	21.349	-38173	2173.7	-0.1056	-0.24859	0.94594
1.948	21.379	-38170	2173.8	-0.10551	-0.248	0.94584
1.95	21.376	-38170	2173.8	-0.10541	-0.24742	0.94574
1.952	21.381	-38168	2173.8	-0.10746	-0.24683	0.94633
1.954	21.415	-38166	2173.8	-0.10951	-0.24624	0.94692
1.956	21.484	-38161	2173.8	-0.11156	-0.24566	0.9475
1.958	21.498	-38154	2173.8	-0.11361	-0.24507	0.94809
1.96	21.465	-38151	2173.8	-0.11566	-0.24449	0.94867
1.962	21.408	-38153	2173.8	-0.11556	-0.2441	0.94945
1.964	21.363	-38153	2173.8	-0.11546	-0.24371	0.95023
1.966	21.34	-38150	2173.8	-0.11536	-0.24332	0.95101
1.968	21.366	-38151	2173.8	-0.11527	-0.24293	0.9518
1.97	21.417	-38156	2173.8	-0.11517	-0.24254	0.95258
1.972	21.435	-38157	2173.7	-0.11517	-0.24224	0.9518
1.974	21.4	-38152	2173.7	-0.11517	-0.24195	0.95101
1.976	21.365	-38150	2173.6	-0.11517	-0.24166	0.95023
1.978	21.373	-38149	2173.6	-0.11517	-0.24136	0.94945
1.98	21.404	-38146	2173.5	-0.11517	-0.24107	0.94867
1.982	21.415	-38141	2173.5	-0.11527	-0.24146	0.94838
1.984	21.403	-38137	2173.5	-0.11536	-0.24185	0.94809
1.986	21.391	-38134	2173.5	-0.11546	-0.24224	0.94779
1.988	21.378	-38133	2173.4	-0.11556	-0.24263	0.9475
1.99	21.369	-38133	2173.4	-0.11566	-0.24302	0.94721
1.992	21.362	-38133	2173.3	-0.11595	-0.2438	0.94809
1.994	21.331	-38133	2173.3	-0.11624	-0.24459	0.94896
1.996	21.344	-38132	2173.2	-0.11653	-0.24537	0.94984
1.998	21.399	-38131	2173.1	-0.11683	-0.24615	0.95072
2	21.431	-38128	2173.1	-0.11712	-0.24693	0.9516
2.002	21.458	-38124	2173.1	-0.11644	-0.24605	0.9515
2.004	21.415	-38121	2173.1	-0.11575	-0.24517	0.9514
2.006	21.425	-38120	2173.1	-0.11507	-0.24429	0.95131
2.008	21.409	-38118	2173.1	-0.11439	-0.24341	0.95121
2.01	21.385	-38115	2173.1	-0.1137	-0.24254	0.95111
2.012	21.371	-38116	2173.1	-0.11283	-0.24273	0.95004
2.014	21.395	-38121	2173.1	-0.11195	-0.24293	0.94896
2.016	21.428	-38123	2173.1	-0.11107	-0.24312	0.94789
2.018	21.466	-38121	2173.1	-0.11019	-0.24332	0.94682
2.02	21.466	-38118	2173.1	-0.10931	-0.24351	0.94574
2.022	21.396	-38114	2173.1	-0.11019	-0.24341	0.9476
2.024	21.397	-38111	2173.1	-0.11107	-0.24332	0.94945
2.026	21.409	-38109	2173.2	-0.11195	-0.24322	0.95131
2.028	21.432	-38109	2173.4	-0.11283	-0.24312	0.95316
2.03	21.435	-38110	2173.6	-0.1137	-0.24302	0.95502
2.032	21.467	-38111	2173.8	-0.11488	-0.24341	0.9558
2.034	21.437	-38113	2173.9	-0.11605	-0.2438	0.95658
2.036	21.388	-38111	2174.1	-0.11722	-0.2442	0.95736
2.038	21.382	-38106	2174.3	-0.11839	-0.24459	0.95814
2.04	21.405	-38102	2174.6	-0.11956	-0.24498	0.95892
2.042	21.426	-38100	2174.7	-0.11946	-0.24576	0.95912
2.044	21.415	-38099	2174.8	-0.11936	-0.24654	0.95931
2.046	21.429	-38100	2174.8	-0.11927	-0.24732	0.95951
2.048	21.458	-38095	2174.9	-0.11917	-0.2481	0.9597
2.05	21.424	-38085	2174.9	-0.11907	-0.24888	0.9599
2.052	21.401	-38081	2175.1	-0.11878	-0.24839	0.95941
2.054	21.423	-38082	2175.2	-0.11849	-0.2479	0.95892
2.056	21.42	-38085	2175.3	-0.11819	-0.24742	0.95843
2.058	21.406	-38090	2175.3	-0.1179	-0.24693	0.95794
2.06	21.407	-38091	2175.3	-0.11761	-0.24644	0.95746
2.062	21.38	-38088	2175.3	-0.1181	-0.24615	0.95628
2.064	21.379	-38087	2175.3	-0.11858	-0.24585	0.95511
2.066	21.403	-38089	2175.3	-0.11907	-0.24556	0.95394
2.068	21.384	-38091	2175.3	-0.11956	-0.24527	0.95277
2.07	21.371	-38091	2175.3	-0.12005	-0.24498	0.9516
2.072	21.378	-38090	2175.3	-0.12171	-0.24517	0.9514
2.074	21.354	-38086	2175.3	-0.12337	-0.24537	0.95121
2.076	21.33	-38084	2175.3	-0.12503	-0.24556	0.95101
2.078	21.37	-38086	2175.3	-0.12668	-0.24576	0.95082
2.08	21.469	-38087	2175.3	-0.12834	-0.24595	0.95062
2.082	21.507	-38088	2175.3	-0.1261	-0.24576	0.94936
2.084	21.435	-38087	2175.4	-0.12385	-0.24556	0.94809
2.086	21.403	-38086	2175.4	-0.12161	-0.24537	0.94682
2.088	21.437	-38085	2175.4	-0.11936	-0.24517	0.94555
2.09	21.437	-38085	2175.4	-0.11712	-0.24498	0.94428
2.092	21.436	-38084	2175.4	-0.11683	-0.24478	0.94438
2.094	21.485	-38082	2175.4	-0.11653	-0.24459	0.94448
2.096	21.468	-38083	2175.4	-0.11624	-0.24439	0.94457
2.098	21.434	-38086	2175.4	-0.11595	-0.2442	0.94467
2.1	21.385	-38087	2175.4	-0.11566	-0.244	0.94477
2.102	21.362	-38086	2175.4	-0.11614	-0.24351	0.94311
2.104	21.398	-38083	2175.4	-0.11663	-0.24302	0.94145
2.106	21.438	-38078	2175.5	-0.11712	-0.24254	0.93979
2.108	21.47	-38072	2175.6	-0.11761	-0.24205	0.93813
2.11	21.396	-38063	2175.6	-0.1181	-0.24156	0.93647
2.112	21.322	-38058	2175.7	-0.11751	-0.24176	0.93803
2.114	21.34	-38057	2175.7	-0.11692	-0.24195	0.9396
2.116	21.418	-38056	2175.8	-0.11634	-0.24215	0.94116
2.118	21.435	-38056	2175.9	-0.11575	-0.24234	0.94272
2.12	21.485	-38057	2175.9	-0.11517	-0.24254	0.94428
2.122	21.474	-38062	2176	-0.11468	-0.24205	0.94321
2.124	21.406	-38064	2176	-0.11419	-0.24156	0.94213
2.126	21.405	-38063	2176.1	-0.1137	-0.24107	0.94106
2.128	21.437	-38061	2176.1	-0.11322	-0.24058	0.93999
2.13	21.45	-38056	2176.2	-0.11273	-0.2401	0.93891
2.132	21.439	-38056	2176.2	-0.11361	-0.24078	0.93969
2.134	21.443	-38059	2176.2	-0.11448	-0.24146	0.94047
2.136	21.439	-38060	2176.3	-0.11536	-0.24215	0.94125
2.138	21.426	-38059	2176.3	-0.11624	-0.24283	0.94204
2.14	21.411	-38058	2176.4	-0.11712	-0.24351	0.94282
2.142	21.403	-38057	2176.4	-0.11605	-0.24273	0.94184
2.144	21.375	-38056	2176.4	-0.11497	-0.24195	0.94086
2.146	21.353	-38056	2176.5	-0.1139	-0.24117	0.93989
2.148	21.377	-38055	2176.6	-0.11283	-0.24039	0.93891
2.15	21.393	-38054	2176.8	-0.11175	-0.23961	0.93794
2.152	21.366	-38055	2176.7	-0.11341	-0.24185	0.93784
2.154	21.362	-38058	2176.7	-0.11507	-0.2441	0.93774
2.156	21.413	-38060	2176.7	-0.11673	-0.24634	0.93764
2.158	21.448	-38061	2176.7	-0.11839	-0.24859	0.93755
2.16	21.422	-38061	2176.7	-0.12005	-0.25083	0.93745
2.162	21.388	-38059	2176.7	-0.12073	-0.25083	0.93579
2.164	21.349	-38058	2176.6	-0.12141	-0.25083	0.93413
2.166	21.345	-38058	2176.6	-0.1221	-0.25083	0.93247
2.168	21.392	-38058	2176.5	-0.12278	-0.25083	0.93081
2.17	21.414	-38057	2176.5	-0.12346	-0.25083	0.92915
2.172	21.4	-38057	2176.4	-0.12132	-0.24966	0.93169
2.174	21.412	-38057	2176.4	-0.11917	-0.24849	0.93423
2.176	21.428	-38058	2176.4	-0.11702	-0.24732	0.93676
2.178	21.444	-38058	2176.5	-0.11488	-0.24615	0.9393
2.18	21.437	-38061	2176.7	-0.11273	-0.24498	0.94184
2.182	21.382	-38066	2176.9	-0.1138	-0.24449	0.94018
2.184	21.355	-38068	2177.1	-0.11488	-0.244	0.93852
2.186	21.295	-38066	2177.1	-0.11595	-0.24351	0.93686
2.188	21.28	-38064	2177	-0.11702	-0.24302	0.9352
2.19	21.291	-38061	2176.9	-0.1181	-0.24254	0.93354
2.192	21.323	-38060	2177.1	-0.11819	-0.24351	0.93706
2.194	21.343	-38060	2177.3	-0.11829	-0.24449	0.94057
2.196	21.422	-38061	2177.6	-0.11839	-0.24546	0.94408
2.198	21.489	-38062	2177.9	-0.11849	-0.24644	0.9476
2.2	21.499	-38064	2178.2	-0.11858	-0.24742	0.95111
2.202	21.436	-38065	2178.3	-0.12073	-0.24595	0.95053
2.204	21.371	-38063	2178.4	-0.12288	-0.24449	0.94994
2.206	21.327	-38060	2178.5	-0.12503	-0.24302	0.94936
2.208	21.301	-38057	2178.4	-0.12717	-0.24156	0.94877
2.21	21.341	-38056	2178.3	-0.12932	-0.2401	0.94818
2.212	21.406	-38058	2178.1	-0.12776	-0.24283	0.95014
2.214	21.393	-38065	2178	-0.1262	-0.24556	0.95209
2.216	21.377	-38069	2177.9	-0.12464	-0.24829	0.95404
2.218	21.386	-38071	2177.8	-0.12307	-0.25103	0.95599
2.22	21.41	-38070	2177.8	-0.12151	-0.25376	0.95794
2.222	21.447	-38066	2177.9	-0.12024	-0.25161	0.95785
2.224	21.459	-38067	2178	-0.11897	-0.24947	0.95775
2.226	21.442	-38073	2178.1	-0.11771	-0.24732	0.95765
2.228	21.416	-38077	2178	-0.11644	-0.24517	0.95755
2.23	21.406	-38078	2178	-0.11517	-0.24302	0.95746
2.232	21.434	-38078	2177.9	-0.11517	-0.24283	0.95726
2.234	21.44	-38076	2177.8	-0.11517	-0.24263	0.95707
2.236	21.412	-38076	2177.7	-0.11517	-0.24244	0.95687
2.238	21.412	-38078	2177.6	-0.11517	-0.24224	0.95668
2.24	21.445	-38080	2177.4	-0.11517	-0.24205	0.95648
2.242	21.453	-38082	2177.3	-0.114	-0.24302	0.95687
2.244	21.405	-38086	2177.2	-0.11283	-0.244	0.95726
2.246	21.334	-38089	2177.1	-0.11165	-0.24498	0.95765
2.248	21.301	-38089	2177	-0.11048	-0.24595	0.95804
2.25	21.363	-38086	2176.8	-0.10931	-0.24693	0.95843
2.252	21.448	-38084	2176.7	-0.11009	-0.24673	0.95843
2.254	21.492	-38083	2176.6	-0.11087	-0.24654	0.95843
2.256	21.476	-38081	2176.5	-0.11165	-0.24634	0.95843
2.258	21.411	-38078	2176.3	-0.11244	-0.24615	0.95843
2.26	21.418	-38082	2176.2	-0.11322	-0.24595	0.95843
2.262	21.397	-38094	2176.1	-0.11302	-0.24595	0.95853
2.264	21.401	-38097	2175.9	-0.11283	-0.24595	0.95863
2.266	21.476	-38093	2175.8	-0.11263	-0.24595	0.95872
2.268	21.549	-38089	2175.6	-0.11244	-0.24595	0.95882
2.27	21.508	-38087	2175.4	-0.11224	-0.24595	0.95892
2.272	21.458	-38089	2175.3	-0.11175	-0.24576	0.95833
2.274	21.401	-38094	2175.2	-0.11126	-0.24556	0.95775
2.276	21.335	-38095	2175.1	-0.11078	-0.24537	0.95716
2.278	21.322	-38090	2175.1	-0.11029	-0.24517	0.95658
2.28	21.385	-38089	2175	-0.1098	-0.24498	0.95599
2.282	21.378	-38091	2175	-0.11117	-0.24566	0.95687
2.284	21.453	-38092	2175	-0.11253	-0.24634	0.95775
2.286	21.439	-38093	2174.9	-0.1139	-0.24703	0.95863
2.288	21.376	-38095	2174.9	-0.11527	-0.24771	0.95951
2.29	21.446	-38100	2174.9	-0.11663	-0.24839	0.96038
2.292	21.528	-38104	2174.8	-0.11712	-0.24937	0.9596
2.294	21.517	-38108	2174.7	-0.11761	-0.25034	0.95882
2.296	21.5	-38109	2174.7	-0.1181	-0.25132	0.95804
2.298	21.482	-38106	2174.6	-0.11858	-0.2523	0.95726
2.3	21.443	-38107	2174.6	-0.11907	-0.25327	0.95648
2.302	21.386	-38112	2174.6	-0.12112	-0.25103	0.95541
2.304	21.367	-38111	2174.6	-0.12317	-0.24878	0.95433
2.306	21.381	-38105	2174.7	-0.12522	-0.24654	0.95326
2.308	21.381	-38102	2174.7	-0.12727	-0.24429	0.95219
2.31	21.294	-38101	2174.8	-0.12932	-0.24205	0.95111
2.312	21.197	-38104	2174.8	-0.12854	-0.24263	0.95043
2.314	21.126	-38110	2174.9	-0.12776	-0.24322	0.94975
2.316	21.055	-38114	2175	-0.12698	-0.2438	0.94906
2.318	21.005	-38115	2175	-0.1262	-0.24439	0.94838
2.32	20.961	-38116	2175	-0.12542	-0.24498	0.9477
2.322	20.911	-38117	2175.1	-0.12376	-0.24468	0.94926
2.324	20.881	-38119	2175.1	-0.1221	-0.24439	0.95082
2.326	20.89	-38121	2175.2	-0.12044	-0.2441	0.95238
2.328	20.883	-38121	2175.2	-0.11878	-0.2438	0.95394
2.33	20.819	-38119	2175.3	-0.11712	-0.24351	0.9555
2.332	20.81	-38119	2175.3	-0.11741	-0.2441	0.95521
2.334	20.896	-38122	2175.3	-0.11771	-0.24468	0.95492
2.336	20.958	-38124	2175.3	-0.118	-0.24527	0.95463
2.338	20.944	-38128	2175.3	-0.11829	-0.24585	0.95433
2.34	21.005	-38126	2175.4	-0.11858	-0.24644	0.95404
2.342	21.111	-38121	2175.3	-0.11849	-0.24703	0.95463
2.344	21.224	-38122	2175.3	-0.11839	-0.24761	0.95521
2.346	21.336	-38129	2175.3	-0.11829	-0.2482	0.9558
2.348	21.392	-38133	2175.3	-0.11819	-0.24878	0.95638
2.35	21.391	-38134	2175.3	-0.1181	-0.24937	0.95697
2.352	21.371	-38133	2175.4	-0.1181	-0.24908	0.95658
2.354	21.317	-38131	2175.4	-0.1181	-0.24878	0.95619
2.356	21.336	-38133	2175.4	-0.1181	-0.24849	0.9558
2.358	21.359	-38138	2175.3	-0.1181	-0.2482	0.95541
2.36	21.374	-38142	2175.3	-0.1181	-0.2479	0.95502
2.362	21.395	-38147	2175.2	-0.11966	-0.24654	0.95306
2.364	21.446	-38147	2175.2	-0.12122	-0.24517	0.95111
2.366	21.446	-38144	2175.1	-0.12278	-0.2438	0.94916
2.368	21.409	-38145	2175.1	-0.12434	-0.24244	0.94721
2.37	21.345	-38152	2175	-0.1259	-0.24107	0.94526
2.372	21.389	-38152	2175	-0.12356	-0.24107	0.94428
2.374	21.422	-38145	2175	-0.12122	-0.24107	0.9433
2.376	21.416	-38144	2175.1	-0.11888	-0.24107	0.94233
2.378	21.409	-38147	2175.1	-0.11653	-0.24107	0.94135
2.38	21.407	-38149	2175.2	-0.11419	-0.24107	0.94038
2.382	21.385	-38152	2175.2	-0.11458	-0.24146	0.94067
2.384	21.39	-38151	2175.3	-0.11497	-0.24185	0.94096
2.386	21.453	-38148	2175.3	-0.11536	-0.24224	0.94125
2.388	21.425	-38147	2175.4	-0.11575	-0.24263	0.94155
2.39	21.38	-38150	2175.5	-0.11614	-0.24302	0.94184
2.392	21.405	-38153	2175.6	-0.11556	-0.24156	0.94106
2.394	21.389	-38156	2175.6	-0.11497	-0.2401	0.94028
2.396	21.304	-38157	2175.6	-0.11439	-0.23863	0.9395
2.398	21.28	-38155	2175.7	-0.1138	-0.23717	0.93872
2.4	21.318	-38155	2175.8	-0.11322	-0.2357	0.93794
2.402	21.39	-38157	2175.8	-0.11244	-0.23697	0.9394
2.404	21.414	-38159	2175.8	-0.11165	-0.23824	0.94086
2.406	21.369	-38160	2175.8	-0.11087	-0.23951	0.94233
2.408	21.398	-38161	2175.8	-0.11009	-0.24078	0.94379
2.41	21.474	-38160	2175.9	-0.10931	-0.24205	0.94526
2.412	21.467	-38159	2175.8	-0.11204	-0.24185	0.94594
2.414	21.411	-38156	2175.8	-0.11478	-0.24166	0.94662
2.416	21.369	-38158	2175.8	-0.11751	-0.24146	0.94731
2.418	21.339	-38167	2175.8	-0.12024	-0.24127	0.94799
2.42	21.32	-38171	2175.8	-0.12298	-0.24107	0.94867
2.422	21.336	-38169	2175.8	-0.12298	-0.24136	0.94916
2.424	21.382	-38168	2175.8	-0.12298	-0.24166	0.94965
2.426	21.387	-38169	2175.7	-0.12298	-0.24195	0.95014
2.428	21.364	-38170	2175.6	-0.12298	-0.24224	0.95062
2.43	21.37	-38172	2175.5	-0.12298	-0.24254	0.95111
2.432	21.389	-38172	2175.4	-0.12278	-0.24302	0.95023
2.434	21.364	-38170	2175.4	-0.12259	-0.24351	0.94936
2.436	21.333	-38172	2175.3	-0.12239	-0.244	0.94848
2.438	21.332	-38177	2175.1	-0.1222	-0.24449	0.9476
2.44	21.358	-38180	2175	-0.122	-0.24498	0.94672
2.442	21.357	-38183	2174.9	-0.12132	-0.24468	0.94682
2.444	21.334	-38184	2174.7	-0.12063	-0.24439	0.94692
2.446	21.298	-38183	2174.6	-0.11995	-0.2441	0.94701
2.448	21.332	-38182	2174.5	-0.11927	-0.2438	0.94711
2.45	21.315	-38181	2174.5	-0.11858	-0.24351	0.94721
2.452	21.304	-38180	2174.4	-0.11956	-0.24322	0.94652
2.454	21.335	-38178	2174.4	-0.12054	-0.24293	0.94584
2.456	21.412	-38182	2174.3	-0.12151	-0.24263	0.94516
2.458	21.402	-38191	2174.3	-0.12249	-0.24234	0.94448
2.46	21.282	-38193	2174.3	-0.12346	-0.24205	0.94379
2.462	21.231	-38188	2174.3	-0.12346	-0.24254	0.94418
2.464	21.253	-38188	2174.3	-0.12346	-0.24302	0.94457
2.466	21.287	-38192	2174.3	-0.12346	-0.24351	0.94496
2.468	21.335	-38190	2174.3	-0.12346	-0.244	0.94535
2.47	21.341	-38184	2174.4	-0.12346	-0.24449	0.94574
2.472	21.313	-38183	2174.4	-0.12298	-0.24488	0.94584
2.474	21.338	-38188	2174.4	-0.12249	-0.24527	0.94594
2.476	21.349	-38193	2174.4	-0.122	-0.24566	0.94604
2.478	21.336	-38198	2174.4	-0.12151	-0.24605	0.94613
2.48	21.34	-38200	2174.4	-0.12102	-0.24644	0.94623
2.482	21.328	-38201	2174.4	-0.12132	-0.24673	0.94692
2.484	21.251	-38202	2174.4	-0.12161	-0.24703	0.9476
2.486	21.188	-38205	2174.4	-0.1219	-0.24732	0.94828
2.488	21.213	-38207	2174.5	-0.1222	-0.24761	0.94896
2.49	21.288	-38208	2174.5	-0.12249	-0.2479	0.94965
2.492	21.33	-38207	2174.5	-0.1221	-0.2481	0.95053
2.494	21.322	-38203	2174.5	-0.12171	-0.24829	0.9514
2.496	21.299	-38200	2174.5	-0.12132	-0.24849	0.95228
2.498	21.285	-38197	2174.5	-0.12093	-0.24868	0.95316
2.5	21.281	-38199	2174.5	-0.12054	-0.24888	0.95404
2.502	21.249	-38204	2174.5	-0.12005	-0.248	0.95394
2.504	21.221	-38210	2174.5	-0.11956	-0.24712	0.95384
2.506	21.25	-38217	2174.5	-0.11907	-0.24624	0.95375
2.508	21.297	-38218	2174.5	-0.11858	-0.24537	0.95365
2.51	21.296	-38213	2174.5	-0.1181	-0.24449	0.95355
2.512	21.256	-38212	2174.6	-0.11897	-0.24527	0.95345
2.514	21.194	-38216	2174.8	-0.11985	-0.24605	0.95336
2.516	21.185	-38219	2174.9	-0.12073	-0.24683	0.95326
2.518	21.208	-38221	2175.1	-0.12161	-0.24761	0.95316
2.52	21.234	-38221	2175.2	-0.12249	-0.24839	0.95306
2.522	21.218	-38219	2175.3	-0.12249	-0.2479	0.9517
2.524	21.212	-38218	2175.4	-0.12249	-0.24742	0.95033
2.526	21.179	-38218	2175.6	-0.12249	-0.24693	0.94896
2.528	21.167	-38219	2175.7	-0.12249	-0.24644	0.9476
2.53	21.229	-38222	2175.9	-0.12249	-0.24595	0.94623
2.532	21.162	-38225	2176.1	-0.12239	-0.24595	0.94594
2.534	21.091	-38229	2176.3	-0.12229	-0.24595	0.94565
2.536	21.044	-38229	2176.5	-0.1222	-0.24595	0.94535
2.538	21.04	-38226	2176.7	-0.1221	-0.24595	0.94506
2.54	21.157	-38223	2176.9	-0.122	-0.24595	0.94477
2.542	21.247	-38220	2177.1	-0.12356	-0.24517	0.94506
2.544	21.328	-38217	2177.3	-0.12512	-0.24439	0.94535
2.546	21.3	-38214	2177.5	-0.12668	-0.24361	0.94565
2.548	21.244	-38215	2177.7	-0.12825	-0.24283	0.94594
2.55	21.116	-38222	2177.8	-0.12981	-0.24205	0.94623
2.552	21.038	-38226	2178	-0.12961	-0.24195	0.94721
2.554	21.036	-38227	2178.2	-0.12942	-0.24185	0.94818
2.556	21.173	-38227	2178.4	-0.12922	-0.24176	0.94916
2.558	21.246	-38227	2178.6	-0.12903	-0.24166	0.95014
2.56	21.212	-38225	2178.8	-0.12883	-0.24156	0.95111
2.562	21.209	-38222	2179	-0.12727	-0.24283	0.9515
2.564	21.244	-38218	2179.2	-0.12571	-0.2441	0.95189
2.566	21.228	-38215	2179.5	-0.12415	-0.24537	0.95228
2.568	21.173	-38215	2179.7	-0.12259	-0.24664	0.95267
2.57	21.117	-38217	2179.8	-0.12102	-0.2479	0.95306
2.572	21.109	-38216	2180.1	-0.12073	-0.24683	0.95267
2.574	21.147	-38213	2180.3	-0.12044	-0.24576	0.95228
2.576	21.165	-38211	2180.5	-0.12015	-0.24468	0.95189
2.578	21.172	-38209	2180.7	-0.11985	-0.24361	0.9515
2.58	21.194	-38208	2180.8	-0.11956	-0.24254	0.95111
2.582	21.199	-38206	2181	-0.11858	-0.24254	0.9517
2.584	21.214	-38201	2181.1	-0.11761	-0.24254	0.95228
2.586	21.255	-38193	2181.3	-0.11663	-0.24254	0.95287
2.588	21.245	-38189	2181.5	-0.11566	-0.24254	0.95345
2.59	21.229	-38189	2181.7	-0.11468	-0.24254	0.95404
2.592	21.28	-38188	2181.8	-0.11653	-0.24429	0.95375
2.594	21.308	-38186	2181.9	-0.11839	-0.24605	0.95345
2.596	21.286	-38186	2182.1	-0.12024	-0.24781	0.95316
2.598	21.277	-38187	2182.2	-0.1221	-0.24956	0.95287
2.6	21.273	-38188	2182.3	-0.12395	-0.25132	0.95258
2.602	21.253	-38190	2182.4	-0.122	-0.25142	0.95062
2.604	21.26	-38185	2182.5	-0.12005	-0.25152	0.94867
2.606	21.256	-38175	2182.7	-0.1181	-0.25161	0.94672
2.608	21.23	-38170	2182.8	-0.11614	-0.25171	0.94477
2.61	21.222	-38171	2182.9	-0.11419	-0.25181	0.94282
2.612	21.279	-38171	2183.1	-0.11546	-0.25142	0.9434
2.614	21.313	-38171	2183.3	-0.11673	-0.25103	0.94399
2.616	21.294	-38168	2183.4	-0.118	-0.25064	0.94457
2.618	21.365	-38161	2183.5	-0.11927	-0.25025	0.94516
2.62	21.376	-38157	2183.6	-0.12054	-0.24986	0.94574
2.622	21.355	-38157	2183.7	-0.11966	-0.24995	0.94545
2.624	21.303	-38154	2183.9	-0.11878	-0.25005	0.94516
2.626	21.334	-38149	2184	-0.1179	-0.25015	0.94487
2.628	21.359	-38144	2184.1	-0.11702	-0.25025	0.94457
2.63	21.371	-38137	2184.2	-0.11614	-0.25034	0.94428
2.632	21.366	-38133	2184.4	-0.11507	-0.24898	0.94418
2.634	21.332	-38132	2184.5	-0.114	-0.24761	0.94408
2.636	21.349	-38132	2184.6	-0.11292	-0.24624	0.94399
2.638	21.368	-38135	2184.7	-0.11185	-0.24488	0.94389
2.64	21.405	-38133	2184.8	-0.11078	-0.24351	0.94379
2.642	21.365	-38128	2185	-0.11283	-0.24439	0.94555
2.644	21.262	-38123	2185.2	-0.11488	-0.24527	0.94731
2.646	21.244	-38118	2185.4	-0.11692	-0.24615	0.94906
2.648	21.341	-38114	2185.5	-0.11897	-0.24703	0.95082
2.65	21.458	-38111	2185.6	-0.12102	-0.2479	0.95258
2.652	21.398	-38105	2185.8	-0.12073	-0.24751	0.95248
2.654	21.304	-38098	2186	-0.12044	-0.24712	0.95238
2.656	21.305	-38093	2186.1	-0.12015	-0.24673	0.95228
2.658	21.325	-38090	2186.2	-0.11985	-0.24634	0.95219
2.66	21.362	-38087	2186.3	-0.11956	-0.24595	0.95209
2.662	21.428	-38083	2186.4	-0.11897	-0.24556	0.95297
2.664	21.418	-38081	2186.5	-0.11839	-0.24517	0.95384
2.666	21.375	-38081	2186.6	-0.1178	-0.24478	0.95472
2.668	21.411	-38081	2186.7	-0.11722	-0.24439	0.9556
2.67	21.432	-38080	2186.9	-0.11663	-0.244	0.95648
2.672	21.402	-38078	2186.9	-0.11722	-0.24439	0.95609
2.674	21.387	-38074	2187	-0.1178	-0.24478	0.9557
2.676	21.391	-38070	2187	-0.11839	-0.24517	0.95531
2.678	21.404	-38065	2187.1	-0.11897	-0.24556	0.95492
2.68	21.391	-38059	2187.2	-0.11956	-0.24595	0.95453
2.682	21.363	-38051	2187.2	-0.11976	-0.24712	0.95424
2.684	21.355	-38046	2187.3	-0.11995	-0.24829	0.95394
2.686	21.361	-38044	2187.3	-0.12015	-0.24947	0.95365
2.688	21.397	-38044	2187.2	-0.12034	-0.25064	0.95336
2.69	21.379	-38047	2187.1	-0.12054	-0.25181	0.95306
2.692	21.399	-38048	2187.1	-0.12259	-0.25015	0.95248
2.694	21.383	-38046	2187.1	-0.12464	-0.24849	0.95189
2.696	21.343	-38040	2187.1	-0.12668	-0.24683	0.95131
2.698	21.349	-38031	2187.1	-0.12873	-0.24517	0.95072
2.7	21.406	-38027	2187.1	-0.13078	-0.24351	0.95014
2.702	21.41	-38027	2187	-0.12922	-0.2441	0.94945
2.704	21.394	-38024	2187	-0.12766	-0.24468	0.94877
2.706	21.392	-38019	2186.9	-0.1261	-0.24527	0.94809
2.708	21.356	-38016	2186.9	-0.12454	-0.24585	0.9474
2.71	21.389	-38014	2186.9	-0.12298	-0.24644	0.94672
2.712	21.396	-38011	2186.9	-0.12356	-0.24624	0.94701
2.714	21.379	-38006	2186.9	-0.12415	-0.24605	0.94731
2.716	21.341	-38003	2186.9	-0.12473	-0.24585	0.9476
2.718	21.28	-38002	2186.9	-0.12532	-0.24566	0.94789
2.72	21.272	-37998	2186.9	-0.1259	-0.24546	0.94818
2.722	21.368	-37991	2186.9	-0.12581	-0.24585	0.94789
2.724	21.427	-37987	2187	-0.12571	-0.24624	0.9476
2.726	21.455	-37986	2187	-0.12561	-0.24664	0.94731
2.728	21.425	-37984	2187	-0.12551	-0.24703	0.94701
2.73	21.365	-37983	2187	-0.12542	-0.24742	0.94672
2.732	21.314	-37980	2187	-0.12522	-0.2479	0.94672
2.734	21.33	-37974	2186.9	-0.12503	-0.24839	0.94672
2.736	21.38	-37970	2186.9	-0.12483	-0.24888	0.94672
2.738	21.406	-37967	2186.9	-0.12464	-0.24937	0.94672
2.74	21.352	-37965	2187	-0.12444	-0.24986	0.94672
2.742	21.284	-37964	2187	-0.12424	-0.25005	0.94652
2.744	21.302	-37963	2187.1	-0.12405	-0.25025	0.94633
2.746	21.369	-37962	2187.1	-0.12385	-0.25044	0.94613
2.748	21.413	-37960	2187.1	-0.12366	-0.25064	0.94594
2.75	21.414	-37957	2187.2	-0.12346	-0.25083	0.94574
2.752	21.397	-37953	2187.2	-0.12122	-0.25044	0.94565
2.754	21.368	-37950	2187.1	-0.11897	-0.25005	0.94555
2.756	21.321	-37949	2187.1	-0.11673	-0.24966	0.94545
2.758	21.3	-37950	2187.1	-0.11448	-0.24927	0.94535
2.76	21.296	-37947	2187.1	-0.11224	-0.24888	0.94526
2.762	21.313	-37941	2187	-0.114	-0.24859	0.94623
2.764	21.364	-37936	2186.9	-0.11575	-0.24829	0.94721
2.766	21.42	-37930	2186.8	-0.11751	-0.248	0.94818
2.768	21.404	-37929	2186.7	-0.11927	-0.24771	0.94916
2.77	21.352	-37934	2186.6	-0.12102	-0.24742	0.95014
2.772	21.364	-37936	2186.5	-0.12054	-0.24781	0.94975
2.774	21.378	-37935	2186.3	-0.12005	-0.2482	0.94936
2.776	21.346	-37934	2186.2	-0.11956	-0.24859	0.94896
2.778	21.357	-37933	2186	-0.11907	-0.24898	0.94857
2.78	21.376	-37932	2185.9	-0.11858	-0.24937	0.94818
2.782	21.383	-37932	2185.8	-0.11712	-0.24927	0.94799
2.784	21.341	-37930	2185.6	-0.11566	-0.24917	0.94779
2.786	21.327	-37926	2185.5	-0.11419	-0.24908	0.9476
2.788	21.335	-37922	2185.4	-0.11273	-0.24898	0.9474
2.79	21.344	-37919	2185.2	-0.11126	-0.24888	0.94721
2.792	21.352	-37919	2185.1	-0.11273	-0.24927	0.94643
2.794	21.358	-37923	2185.1	-0.11419	-0.24966	0.94565
2.796	21.331	-37924	2185	-0.11566	-0.25005	0.94487
2.798	21.333	-37923	2184.9	-0.11712	-0.25044	0.94408
2.8	21.352	-37920	2184.8	-0.11858	-0.25083	0.9433
2.802	21.361	-37916	2184.7	-0.11858	-0.25083	0.94457
2.804	21.348	-37912	2184.6	-0.11858	-0.25083	0.94584
2.806	21.372	-37910	2184.5	-0.11858	-0.25083	0.94711
2.808	21.404	-37910	2184.4	-0.11858	-0.25083	0.94838
2.81	21.42	-37910	2184.3	-0.11858	-0.25083	0.94965
2.812	21.394	-37911	2184.3	-0.11946	-0.25142	0.94896
2.814	21.349	-37913	2184.2	-0.12034	-0.252	0.94828
2.816	21.314	-37914	2184.3	-0.12122	-0.25259	0.9476
2.818	21.33	-37916	2184.4	-0.1221	-0.25317	0.94692
2.82	21.389	-37916	2184.5	-0.12298	-0.25376	0.94623
2.822	21.414	-37915	2184.6	-0.12444	-0.2523	0.94721
2.824	21.398	-37913	2184.7	-0.1259	-0.25083	0.94818
2.826	21.384	-37911	2184.8	-0.12737	-0.24937	0.94916
2.828	21.397	-37911	2184.9	-0.12883	-0.2479	0.95014
2.83	21.385	-37913	2185	-0.1303	-0.24644	0.95111
2.832	21.335	-37913	2185	-0.12708	-0.24712	0.95004
2.834	21.303	-37912	2185.1	-0.12385	-0.24781	0.94896
2.836	21.333	-37910	2185.2	-0.12063	-0.24849	0.94789
2.838	21.381	-37908	2185.3	-0.11741	-0.24917	0.94682
2.84	21.384	-37907	2185.4	-0.11419	-0.24986	0.94574
2.842	21.368	-37907	2185.5	-0.11488	-0.24956	0.9476
2.844	21.375	-37908	2185.6	-0.11556	-0.24927	0.94945
2.846	21.405	-37908	2185.6	-0.11624	-0.24898	0.95131
2.848	21.401	-37909	2185.7	-0.11692	-0.24868	0.95316
2.85	21.376	-37909	2185.8	-0.11761	-0.24839	0.95502
2.852	21.36	-37904	2185.8	-0.11692	-0.24732	0.95521
2.854	21.36	-37895	2185.9	-0.11624	-0.24624	0.95541
2.856	21.371	-37891	2185.9	-0.11556	-0.24517	0.9556
2.858	21.367	-37891	2185.9	-0.11488	-0.2441	0.9558
2.86	21.373	-37892	2186	-0.11419	-0.24302	0.95599
2.862	21.391	-37893	2186	-0.11341	-0.2439	0.95668
2.864	21.417	-37892	2186	-0.11263	-0.24478	0.95736
2.866	21.37	-37888	2186.1	-0.11185	-0.24566	0.95804
2.868	21.319	-37889	2186.1	-0.11107	-0.24654	0.95872
2.87	21.319	-37893	2186.2	-0.11029	-0.24742	0.95941
2.872	21.307	-37897	2186.2	-0.11039	-0.24693	0.95843
2.874	21.34	-37902	2186.1	-0.11048	-0.24644	0.95746
2.876	21.305	-37900	2186.1	-0.11058	-0.24595	0.95648
2.878	21.385	-37892	2186.1	-0.11068	-0.24546	0.9555
2.88	21.406	-37886	2186.1	-0.11078	-0.24498	0.95453
2.882	21.437	-37884	2186.1	-0.11214	-0.24498	0.95336
2.884	21.446	-37881	2186.1	-0.11351	-0.24498	0.95219
2.886	21.406	-37879	2186.1	-0.11488	-0.24498	0.95101
2.888	21.351	-37879	2186.1	-0.11624	-0.24498	0.94984
2.89	21.343	-37882	2186.1	-0.11761	-0.24498	0.94867
2.892	21.326	-37883	2186.2	-0.11712	-0.24585	0.94916
2.894	21.364	-37882	2186.2	-0.11663	-0.24673	0.94965
2.896	21.413	-37881	2186.2	-0.11614	-0.24761	0.95014
2.898	21.4	-37880	2186.3	-0.11566	-0.24849	0.95062
2.9	21.35	-37881	2186.3	-0.11517	-0.24937	0.95111
2.902	21.374	-37883	2186.4	-0.11507	-0.24781	0.95092
2.904	21.395	-37884	2186.4	-0.11497	-0.24624	0.95072
2.906	21.392	-37882	2186.5	-0.11488	-0.24468	0.95053
2.908	21.42	-37883	2186.5	-0.11478	-0.24312	0.95033
2.91	21.412	-37886	2186.5	-0.11468	-0.24156	0.95014
2.912	21.377	-37887	2186.5	-0.11361	-0.24234	0.95023
2.914	21.349	-37886	2186.5	-0.11253	-0.24312	0.95033
2.916	21.316	-37887	2186.5	-0.11146	-0.2439	0.95043
2.918	21.292	-37890	2186.5	-0.11039	-0.24468	0.95053
2.92	21.315	-37891	2186.5	-0.10931	-0.24546	0.95062
2.922	21.383	-37892	2186.5	-0.10951	-0.24576	0.9517
2.924	21.406	-37892	2186.4	-0.1097	-0.24605	0.95277
2.926	21.39	-37892	2186.4	-0.1099	-0.24634	0.95384
2.928	21.391	-37891	2186.4	-0.11009	-0.24664	0.95492
2.93	21.346	-37887	2186.4	-0.11029	-0.24693	0.95599
2.932	21.307	-37884	2186.3	-0.11	-0.24703	0.95541
2.934	21.357	-37881	2186.2	-0.1097	-0.24712	0.95482
2.936	21.446	-37881	2186.1	-0.10941	-0.24722	0.95424
2.938	21.459	-37886	2186	-0.10912	-0.24732	0.95365
2.94	21.429	-37890	2185.9	-0.10882	-0.24742	0.95306
2.942	21.389	-37893	2185.8	-0.1099	-0.24712	0.95306
2.944	21.375	-37894	2185.6	-0.11097	-0.24683	0.95306
2.946	21.366	-37891	2185.5	-0.11204	-0.24654	0.95306
2.948	21.345	-37888	2185.4	-0.11312	-0.24624	0.95306
2.95	21.386	-37886	2185.3	-0.11419	-0.24595	0.95306
2.952	21.339	-37883	2185.3	-0.11468	-0.24673	0.95101
2.954	21.291	-37880	2185.2	-0.11517	-0.24751	0.94896
2.956	21.429	-37881	2185.1	-0.11566	-0.24829	0.94692
2.958	21.413	-37885	2185.1	-0.11614	-0.24908	0.94487
2.96	21.319	-37884	2185	-0.11663	-0.24986	0.94282
2.962	21.336	-37879	2185	-0.11819	-0.24995	0.94369
2.964	21.413	-37875	2184.9	-0.11976	-0.25005	0.94457
2.966	21.424	-37874	2184.9	-0.12132	-0.25015	0.94545
2.968	21.382	-37878	2184.8	-0.12288	-0.25025	0.94633
2.97	21.396	-37887	2184.7	-0.12444	-0.25034	0.94721
2.972	21.379	-37891	2184.7	-0.12376	-0.25044	0.94682
2.974	21.332	-37891	2184.6	-0.12307	-0.25054	0.94643
2.976	21.336	-37891	2184.6	-0.12239	-0.25064	0.94604
2.978	21.349	-37890	2184.6	-0.12171	-0.25073	0.94565
2.98	21.35	-37888	2184.5	-0.12102	-0.25083	0.94526
2.982	21.327	-37883	2184.5	-0.11985	-0.24995	0.94487
2.984	21.329	-37883	2184.5	-0.11868	-0.24908	0.94448
2.986	21.336	-37887	2184.5	-0.11751	-0.2482	0.94408
2.988	21.416	-37888	2184.4	-0.11634	-0.24732	0.94369
2.99	21.458	-37885	2184.4	-0.11517	-0.24644	0.9433
2.992	21.404	-37885	2184.4	-0.11634	-0.24751	0.94301
2.994	21.365	-37886	2184.3	-0.11751	-0.24859	0.94272
2.996	21.354	-37888	2184.3	-0.11868	-0.24966	0.94243
2.998	21.325	-37890	2184.2	-0.11985	-0.25073	0.94213
3	21.313	-37893	2184.1	-0.12102	-0.25181	0.94184
3.002	21.327	-37897	2184	-0.12151	-0.25103	0.94301
3.004	21.356	-37899	2183.9	-0.122	-0.25025	0.94418
3.006	21.386	-37900	2183.8	-0.12249	-0.24947	0.94535
3.008	21.376	-37896	2183.8	-0.12298	-0.24868	0.94652
3.01	21.338	-37889	2183.7	-0.12346	-0.2479	0.9477
3.012	21.301	-37885	2183.6	-0.12464	-0.24683	0.9476
3.014	21.294	-37884	2183.6	-0.12581	-0.24576	0.9475
3.016	21.343	-37885	2183.5	-0.12698	-0.24468	0.9474
3.018	21.371	-37889	2183.5	-0.12815	-0.24361	0.94731
3.02	21.375	-37894	2183.5	-0.12932	-0.24254	0.94721
3.022	21.406	-37901	2183.5	-0.12747	-0.24429	0.94623
3.024	21.412	-37908	2183.5	-0.12561	-0.24605	0.94526
3.026	21.322	-37916	2183.5	-0.12376	-0.24781	0.94428
3.028	21.284	-37916	2183.5	-0.1219	-0.24956	0.9433
3.03	21.319	-37907	2183.5	-0.12005	-0.25132	0.94233
3.032	21.353	-37903	2183.5	-0.11995	-0.25073	0.94262
3.034	21.371	-37903	2183.5	-0.11985	-0.25015	0.94291
3.036	21.365	-37902	2183.4	-0.11976	-0.24956	0.94321
3.038	21.344	-37901	2183.5	-0.11966	-0.24898	0.9435
3.04	21.301	-37903	2183.5	-0.11956	-0.24839	0.94379
3.042	21.285	-37907	2183.5	-0.12063	-0.24868	0.94506
3.044	21.321	-37911	2183.6	-0.12171	-0.24898	0.94633
3.046	21.355	-37913	2183.6	-0.12278	-0.24927	0.9476
3.048	21.333	-37917	2183.6	-0.12385	-0.24956	0.94887
3.05	21.294	-37923	2183.7	-0.12493	-0.24986	0.95014
3.052	21.298	-37924	2183.7	-0.12522	-0.248	0.94936
3.054	21.363	-37921	2183.7	-0.12551	-0.24615	0.94857
3.056	21.389	-37922	2183.7	-0.12581	-0.24429	0.94779
3.058	21.373	-37928	2183.7	-0.1261	-0.24244	0.94701
3.06	21.33	-37928	2183.7	-0.12639	-0.24058	0.94623
3.062	21.311	-37923	2183.7	-0.12737	-0.24117	0.94711
3.064	21.308	-37923	2183.7	-0.12834	-0.24176	0.94799
3.066	21.301	-37930	2183.8	-0.12932	-0.24234	0.94887
3.068	21.319	-37932	2183.8	-0.1303	-0.24293	0.94975
3.07	21.345	-37930	2183.9	-0.13127	-0.24351	0.95062
3.072	21.313	-37930	2184	-0.13137	-0.244	0.95053
3.074	21.308	-37935	2184	-0.13147	-0.24449	0.95043
3.076	21.328	-37934	2184	-0.13156	-0.24498	0.95033
3.078	21.379	-37929	2184	-0.13166	-0.24546	0.95023
3.08	21.413	-37927	2184	-0.13176	-0.24595	0.95014
3.082	21.413	-37929	2183.9	-0.13117	-0.24605	0.95023
3.084	21.411	-37933	2183.8	-0.13059	-0.24615	0.95033
3.086	21.429	-37937	2183.7	-0.13	-0.24624	0.95043
3.088	21.433	-37940	2183.7	-0.12942	-0.24634	0.95053
3.09	21.399	-37941	2183.7	-0.12883	-0.24644	0.95062
3.092	21.353	-37941	2183.6	-0.12844	-0.24722	0.95043
3.094	21.352	-37941	2183.6	-0.12805	-0.248	0.95023
3.096	21.421	-37943	2183.5	-0.12766	-0.24878	0.95004
3.098	21.459	-37949	2183.5	-0.12727	-0.24956	0.94984
3.1	21.402	-37950	2183.5	-0.12688	-0.25034	0.94965
3.102	21.365	-37946	2183.5	-0.12454	-0.25015	0.94906
3.104	21.383	-37943	2183.4	-0.1222	-0.24995	0.94848
3.106	21.395	-37942	2183.4	-0.11985	-0.24976	0.94789
3.108	21.384	-37945	2183.3	-0.11751	-0.24956	0.94731
3.11	21.391	-37952	2183.2	-0.11517	-0.24937	0.94672
3.112	21.428	-37959	2183.2	-0.11448	-0.248	0.94711
3.114	21.41	-37965	2183.1	-0.1138	-0.24664	0.9475
3.116	21.379	-37966	2183.1	-0.11312	-0.24527	0.94789
3.118	21.356	-37962	2183.1	-0.11244	-0.2439	0.94828
3.12	21.32	-37961	2183	-0.11175	-0.24254	0.94867
3.122	21.279	-37963	2183	-0.11312	-0.24361	0.95023
3.124	21.314	-37962	2183	-0.11448	-0.24468	0.9518
3.126	21.377	-37958	2183	-0.11585	-0.24576	0.95336
3.128	21.366	-37957	2183	-0.11722	-0.24683	0.95492
3.13	21.321	-37959	2183	-0.11858	-0.2479	0.95648
3.132	21.297	-37962	2183	-0.11829	-0.24683	0.95638
3.134	21.317	-37967	2182.9	-0.118	-0.24576	0.95628
3.136	21.4	-37968	2182.9	-0.11771	-0.24468	0.95619
3.138	21.423	-37966	2182.9	-0.11741	-0.24361	0.95609
3.14	21.467	-37969	2182.9	-0.11712	-0.24254	0.95599
3.142	21.439	-37978	2182.9	-0.11761	-0.24234	0.95511
3.144	21.468	-37979	2182.9	-0.1181	-0.24215	0.95424
3.146	21.444	-37975	2182.8	-0.11858	-0.24195	0.95336
3.148	21.376	-37976	2182.8	-0.11907	-0.24176	0.95248
3.15	21.299	-37982	2182.7	-0.11956	-0.24156	0.9516
3.152	21.292	-37984	2182.6	-0.11897	-0.24117	0.95189
3.154	21.317	-37981	2182.5	-0.11839	-0.24078	0.95219
3.156	21.303	-37982	2182.5	-0.1178	-0.24039	0.95248
3.158	21.242	-37987	2182.4	-0.11722	-0.24	0.95277
3.16	21.156	-37988	2182.4	-0.11663	-0.23961	0.95306
3.162	21.079	-37984	2182.2	-0.11702	-0.24029	0.95287
3.164	21.028	-37984	2182.1	-0.11741	-0.24097	0.95267
3.166	20.948	-37988	2182	-0.1178	-0.24166	0.95248
3.168	20.887	-37991	2182	-0.11819	-0.24234	0.95228
3.17	20.843	-37994	2181.9	-0.11858	-0.24302	0.95209
3.172	20.817	-37997	2181.9	-0.11936	-0.2442	0.95287
3.174	20.851	-37999	2181.8	-0.12015	-0.24537	0.95365
3.176	20.885	-37998	2181.8	-0.12093	-0.24654	0.95443
3.178	20.874	-37995	2181.7	-0.12171	-0.24771	0.95521
3.18	20.85	-37996	2181.7	-0.12249	-0.24888	0.95599
3.182	20.852	-38001	2181.7	-0.12239	-0.24937	0.95531
3.184	20.886	-38005	2181.6	-0.12229	-0.24986	0.95463
3.186	20.921	-38008	2181.6	-0.1222	-0.25034	0.95394
3.188	20.993	-38009	2181.6	-0.1221	-0.25083	0.95326
3.19	21.093	-38007	2181.6	-0.122	-0.25132	0.95258
3.192	21.195	-38010	2181.6	-0.12083	-0.24986	0.95355
3.194	21.265	-38017	2181.7	-0.11966	-0.24839	0.95453
3.196	21.304	-38015	2181.7	-0.11849	-0.24693	0.9555
3.198	21.33	-38006	2181.7	-0.11732	-0.24546	0.95648
3.2	21.312	-38003	2181.7	-0.11614	-0.244	0.95746
3.202	21.283	-38006	2181.7	-0.11751	-0.24468	0.95619
3.204	21.27	-38011	2181.7	-0.11888	-0.24537	0.95492
3.206	21.289	-38018	2181.7	-0.12024	-0.24605	0.95365
3.208	21.279	-38021	2181.8	-0.12161	-0.24673	0.95238
3.21	21.327	-38020	2181.8	-0.12298	-0.24742	0.95111
3.212	21.351	-38023	2181.8	-0.12385	-0.24693	0.95101
3.214	21.352	-38029	2181.8	-0.12473	-0.24644	0.95092
3.216	21.44	-38033	2181.9	-0.12561	-0.24595	0.95082
3.218	21.429	-38032	2181.9	-0.12649	-0.24546	0.95072
3.22	21.386	-38030	2181.9	-0.12737	-0.24498	0.95062
3.222	21.368	-38025	2181.9	-0.12678	-0.24478	0.94965
3.224	21.375	-38024	2181.9	-0.1262	-0.24459	0.94867
3.226	21.417	-38026	2181.9	-0.12561	-0.24439	0.9477
3.228	21.366	-38029	2181.8	-0.12503	-0.2442	0.94672
3.23	21.245	-38035	2181.8	-0.12444	-0.244	0.94574
3.232	21.161	-38035	2181.8	-0.12493	-0.244	0.94672
3.234	21.18	-38029	2181.7	-0.12542	-0.244	0.9477
3.236	21.227	-38029	2181.7	-0.1259	-0.244	0.94867
3.238	21.382	-38033	2181.8	-0.12639	-0.244	0.94965
3.24	21.421	-38041	2181.9	-0.12688	-0.244	0.95062
3.242	21.408	-38050	2181.9	-0.12649	-0.2442	0.94945
3.244	21.386	-38054	2181.9	-0.1261	-0.24439	0.94828
3.246	21.392	-38051	2181.8	-0.12571	-0.24459	0.94711
3.248	21.357	-38051	2181.8	-0.12532	-0.24478	0.94594
3.25	21.336	-38051	2181.8	-0.12493	-0.24498	0.94477
3.252	21.355	-38050	2181.7	-0.12454	-0.24439	0.94487
3.254	21.367	-38047	2181.6	-0.12415	-0.2438	0.94496
3.256	21.38	-38047	2181.5	-0.12376	-0.24322	0.94506
3.258	21.385	-38049	2181.4	-0.12337	-0.24263	0.94516
3.26	21.364	-38051	2181.3	-0.12298	-0.24205	0.94526
3.262	21.337	-38053	2181.3	-0.12337	-0.24215	0.94477
3.264	21.298	-38054	2181.3	-0.12376	-0.24224	0.94428
3.266	21.282	-38054	2181.3	-0.12415	-0.24234	0.94379
3.268	21.329	-38055	2181.2	-0.12454	-0.24244	0.9433
3.27	21.349	-38056	2181.1	-0.12493	-0.24254	0.94282
3.272	21.333	-38061	2181.1	-0.12581	-0.24185	0.9434
3.274	21.32	-38068	2181	-0.12668	-0.24117	0.94399
3.276	21.318	-38074	2180.9	-0.12756	-0.24049	0.94457
3.278	21.321	-38079	2180.8	-0.12844	-0.2398	0.94516
3.28	21.318	-38081	2180.7	-0.12932	-0.23912	0.94574
3.282	21.281	-38078	2180.6	-0.12795	-0.24097	0.94633
3.284	21.272	-38076	2180.4	-0.12659	-0.24283	0.94692
3.286	21.302	-38075	2180.3	-0.12522	-0.24468	0.9475
3.288	21.303	-38075	2180.1	-0.12385	-0.24654	0.94809
3.29	21.311	-38078	2180	-0.12249	-0.24839	0.94867
3.292	21.289	-38078	2179.9	-0.12278	-0.248	0.94799
3.294	21.27	-38075	2179.7	-0.12307	-0.24761	0.94731
3.296	21.288	-38074	2179.6	-0.12337	-0.24722	0.94662
3.298	21.26	-38077	2179.5	-0.12366	-0.24683	0.94594
3.3	21.171	-38081	2179.4	-0.12395	-0.24644	0.94526
3.302	21.14	-38086	2179.2	-0.1219	-0.24585	0.94496
3.304	21.206	-38088	2179.1	-0.11985	-0.24527	0.94467
3.306	21.332	-38086	2179	-0.1178	-0.24468	0.94438
3.308	21.358	-38086	2178.9	-0.11575	-0.2441	0.94408
3.31	21.307	-38086	2178.7	-0.1137	-0.24351	0.94379
3.312	21.266	-38088	2178.6	-0.11361	-0.24341	0.94291
3.314	21.227	-38092	2178.5	-0.11351	-0.24332	0.94204
3.316	21.276	-38095	2178.4	-0.11341	-0.24322	0.94116
3.318	21.332	-38098	2178.2	-0.11331	-0.24312	0.94028
3.32	21.293	-38099	2178.1	-0.11322	-0.24302	0.9394
3.322	21.281	-38096	2178	-0.11263	-0.244	0.94067
3.324	21.292	-38099	2177.9	-0.11204	-0.24498	0.94194
3.326	21.241	-38106	2177.9	-0.11146	-0.24595	0.94321
3.328	21.191	-38110	2177.8	-0.11087	-0.24693	0.94448
3.33	21.211	-38110	2177.7	-0.11029	-0.2479	0.94574
3.332	21.258	-38106	2177.7	-0.11048	-0.24742	0.94623
3.334	21.228	-38100	2177.7	-0.11068	-0.24693	0.94672
3.336	21.202	-38100	2177.7	-0.11087	-0.24644	0.94721
3.338	21.212	-38105	2177.7	-0.11107	-0.24595	0.9477
3.34	21.287	-38107	2177.7	-0.11126	-0.24546	0.94818
3.342	21.35	-38108	2177.7	-0.11273	-0.24527	0.94936
3.344	21.34	-38108	2177.7	-0.11419	-0.24507	0.95053
3.346	21.301	-38106	2177.8	-0.11566	-0.24488	0.9517
3.348	21.234	-38108	2177.9	-0.11712	-0.24468	0.95287
3.35	21.171	-38113	2178	-0.11858	-0.24449	0.95404
3.352	21.156	-38116	2178	-0.118	-0.24439	0.95443
3.354	21.177	-38116	2178.1	-0.11741	-0.24429	0.95482
3.356	21.201	-38119	2178.2	-0.11683	-0.2442	0.95521
3.358	21.182	-38122	2178.3	-0.11624	-0.2441	0.9556
3.36	21.149	-38126	2178.4	-0.11566	-0.244	0.95599
3.362	21.147	-38130	2178.5	-0.11585	-0.244	0.9556
3.364	21.124	-38130	2178.6	-0.11605	-0.244	0.95521
3.366	21.139	-38126	2178.7	-0.11624	-0.244	0.95482
3.368	21.153	-38124	2178.8	-0.11644	-0.244	0.95443
3.37	21.161	-38125	2179	-0.11663	-0.244	0.95404
3.372	21.139	-38128	2179.1	-0.11692	-0.24341	0.95394
3.374	21.093	-38133	2179.3	-0.11722	-0.24283	0.95384
3.376	21.107	-38134	2179.5	-0.11751	-0.24224	0.95375
3.378	21.134	-38131	2179.7	-0.1178	-0.24166	0.95365
3.38	21.151	-38130	2179.8	-0.1181	-0.24107	0.95355
3.382	21.177	-38131	2180	-0.11751	-0.24127	0.95316
3.384	21.187	-38131	2180.1	-0.11692	-0.24146	0.95277
3.386	21.149	-38129	2180.3	-0.11634	-0.24166	0.95238
3.388	21.094	-38129	2180.5	-0.11575	-0.24185	0.95199
3.39	21.019	-38131	2180.6	-0.11517	-0.24205	0.9516
3.392	20.942	-38132	2180.8	-0.11663	-0.24361	0.95121
3.394	21.046	-38131	2181	-0.1181	-0.24517	0.95082
3.396	21.135	-38132	2181.2	-0.11956	-0.24673	0.95043
3.398	21.136	-38136	2181.3	-0.12102	-0.24829	0.95004
3.4	21.111	-38136	2181.5	-0.12249	-0.24986	0.94965
3.402	21.174	-38132	2181.7	-0.122	-0.24966	0.94984
3.404	21.185	-38130	2181.8	-0.12151	-0.24947	0.95004
3.406	21.174	-38129	2182	-0.12102	-0.24927	0.95023
3.408	21.185	-38126	2182.2	-0.12054	-0.24908	0.95043
3.41	21.174	-38121	2182.5	-0.12005	-0.24888	0.95062
3.412	21.16	-38118	2182.8	-0.12034	-0.24966	0.94994
3.414	21.12	-38118	2183.1	-0.12063	-0.25044	0.94926
3.416	21.054	-38120	2183.4	-0.12093	-0.25122	0.94857
3.418	21.027	-38123	2183.7	-0.12122	-0.252	0.94789
3.42	21.068	-38122	2184	-0.12151	-0.25278	0.94721
3.422	21.106	-38115	2184.3	-0.1218	-0.25317	0.94711
3.424	21.123	-38111	2184.6	-0.1221	-0.25356	0.94701
3.426	21.165	-38110	2184.8	-0.12239	-0.25396	0.94692
3.428	21.198	-38108	2185.1	-0.12268	-0.25435	0.94682
3.43	21.189	-38106	2185.4	-0.12298	-0.25474	0.94672
3.432	21.158	-38105	2185.6	-0.12278	-0.25435	0.9476
3.434	21.158	-38104	2185.8	-0.12259	-0.25396	0.94848
3.436	21.197	-38103	2186	-0.12239	-0.25356	0.94936
3.438	21.21	-38102	2186.2	-0.1222	-0.25317	0.95023
3.44	21.186	-38101	2186.4	-0.122	-0.25278	0.95111
3.442	21.171	-38100	2186.5	-0.12249	-0.25298	0.95072
3.444	21.183	-38097	2186.6	-0.12298	-0.25317	0.95033
3.446	21.188	-38093	2186.7	-0.12346	-0.25337	0.94994
3.448	21.191	-38090	2186.8	-0.12395	-0.25356	0.94955
3.45	21.189	-38087	2186.8	-0.12444	-0.25376	0.94916
3.452	21.167	-38083	2187	-0.12415	-0.25454	0.94896
3.454	21.144	-38079	2187.1	-0.12385	-0.25532	0.94877
3.456	21.161	-38075	2187.3	-0.12356	-0.2561	0.94857
3.458	21.181	-38071	2187.4	-0.12327	-0.25688	0.94838
3.46	21.212	-38068	2187.6	-0.12298	-0.25766	0.94818
3.462	21.278	-38067	2187.7	-0.12112	-0.25581	0.9474
3.464	21.333	-38066	2187.8	-0.11927	-0.25396	0.94662
3.466	21.383	-38066	2187.9	-0.11741	-0.2521	0.94584
3.468	21.384	-38064	2188	-0.11556	-0.25025	0.94506
3.47	21.271	-38062	2188.1	-0.1137	-0.24839	0.94428
3.472	21.263	-38058	2188.2	-0.11429	-0.24908	0.94379
3.474	21.283	-38051	2188.3	-0.11488	-0.24976	0.9433
3.476	21.307	-38047	2188.4	-0.11546	-0.25044	0.94282
3.478	21.288	-38044	2188.6	-0.11605	-0.25112	0.94233
3.48	21.268	-38042	2188.7	-0.11663	-0.25181	0.94184
3.482	21.258	-38040	2188.9	-0.11849	-0.25142	0.94223
3.484	21.285	-38037	2189.1	-0.12034	-0.25103	0.94262
3.486	21.307	-38033	2189.2	-0.1222	-0.25064	0.94301
3.488	21.307	-38025	2189.3	-0.12405	-0.25025	0.9434
3.49	21.308	-38016	2189.4	-0.1259	-0.24986	0.94379
3.492	21.301	-38011	2189.6	-0.12571	-0.25054	0.94272
3.494	21.3	-38010	2189.7	-0.12551	-0.25122	0.94164
3.496	21.297	-38009	2189.8	-0.12532	-0.25191	0.94057
3.498	21.3	-38009	2189.9	-0.12512	-0.25259	0.9395
3.5	21.288	-38008	2190	-0.12493	-0.25327	0.93842
3.502	21.296	-38006	2190.1	-0.12346	-0.25259	0.9394
3.504	21.288	-38002	2190.2	-0.122	-0.25191	0.94038
3.506	21.284	-37998	2190.3	-0.12054	-0.25122	0.94135
3.508	21.326	-37994	2190.4	-0.11907	-0.25054	0.94233
3.51	21.352	-37990	2190.6	-0.11761	-0.24986	0.9433
3.512	21.358	-37985	2190.7	-0.1181	-0.24956	0.94418
3.514	21.348	-37982	2190.8	-0.11858	-0.24927	0.94506
3.516	21.322	-37978	2190.8	-0.11907	-0.24898	0.94594
3.518	21.297	-37974	2190.8	-0.11956	-0.24868	0.94682
3.52	21.277	-37971	2190.9	-0.12005	-0.24839	0.9477
3.522	21.314	-37967	2190.9	-0.12151	-0.2479	0.94789
3.524	21.367	-37965	2191	-0.12298	-0.24742	0.94809
3.526	21.347	-37965	2191	-0.12444	-0.24693	0.94828
3.528	21.288	-37964	2191.1	-0.1259	-0.24644	0.94848
3.53	21.269	-37962	2191.1	-0.12737	-0.24595	0.94867
3.532	21.332	-37959	2191.2	-0.12756	-0.24527	0.94857
3.534	21.412	-37954	2191.2	-0.12776	-0.24459	0.94848
3.536	21.403	-37950	2191.2	-0.12795	-0.2439	0.94838
3.538	21.345	-37947	2191.2	-0.12815	-0.24322	0.94828
3.54	21.336	-37944	2191.1	-0.12834	-0.24254	0.94818
3.542	21.326	-37939	2191.2	-0.12854	-0.24244	0.94818
3.544	21.356	-37934	2191.2	-0.12873	-0.24234	0.94818
3.546	21.381	-37928	2191.3	-0.12893	-0.24224	0.94818
3.548	21.35	-37926	2191.3	-0.12912	-0.24215	0.94818
3.55	21.351	-37926	2191.4	-0.12932	-0.24205	0.94818
3.552	21.319	-37926	2191.4	-0.12844	-0.24332	0.94789
3.554	21.315	-37926	2191.5	-0.12756	-0.24459	0.9476
3.556	21.262	-37923	2191.6	-0.12668	-0.24585	0.94731
3.558	21.278	-37918	2191.6	-0.12581	-0.24712	0.94701
3.56	21.264	-37912	2191.7	-0.12493	-0.24839	0.94672
3.562	21.271	-37904	2191.7	-0.12444	-0.24868	0.9474
3.564	21.307	-37900	2191.8	-0.12395	-0.24898	0.94809
3.566	21.267	-37898	2191.8	-0.12346	-0.24927	0.94877
3.568	21.225	-37897	2191.8	-0.12298	-0.24956	0.94945
3.57	21.217	-37896	2191.8	-0.12249	-0.24986	0.95014
3.572	21.31	-37893	2191.9	-0.1219	-0.24888	0.95033
3.574	21.364	-37888	2191.9	-0.12132	-0.2479	0.95053
3.576	21.345	-37883	2192	-0.12073	-0.24693	0.95072
3.578	21.288	-37878	2192.2	-0.12015	-0.24595	0.95092
3.58	21.288	-37875	2192.3	-0.11956	-0.24498	0.95111
3.582	21.328	-37874	2192.3	-0.12015	-0.24556	0.95121
3.584	21.319	-37870	2192.4	-0.12073	-0.24615	0.95131
3.586	21.281	-37864	2192.4	-0.12132	-0.24673	0.9514
3.588	21.274	-37860	2192.4	-0.1219	-0.24732	0.9515
3.59	21.287	-37858	2192.3	-0.12249	-0.2479	0.9516
3.592	21.285	-37856	2192.3	-0.11976	-0.24673	0.9514
3.594	21.283	-37855	2192.2	-0.11702	-0.24556	0.95121
3.596	21.309	-37850	2192.1	-0.11429	-0.24439	0.95101
3.598	21.357	-37841	2192.1	-0.11156	-0.24322	0.95082
3.6	21.37	-37836	2192	-0.10882	-0.24205	0.95062
3.602	21.334	-37835	2192	-0.10746	-0.24185	0.95189
3.604	21.333	-37836	2191.9	-0.10609	-0.24166	0.95316
3.606	21.363	-37839	2191.8	-0.10472	-0.24146	0.95443
3.608	21.351	-37840	2191.7	-0.10336	-0.24127	0.9557
3.61	21.325	-37840	2191.6	-0.10199	-0.24107	0.95697
3.612	21.305	-37836	2191.5	-0.10502	-0.24078	0.95531
3.614	21.282	-37830	2191.4	-0.10804	-0.24049	0.95365
3.616	21.281	-37827	2191.4	-0.11107	-0.24019	0.95199
3.618	21.332	-37827	2191.3	-0.11409	-0.2399	0.95033
3.62	21.351	-37827	2191.2	-0.11712	-0.23961	0.94867
3.622	21.34	-37828	2191.2	-0.11692	-0.24049	0.94945
3.624	21.265	-37830	2191.1	-0.11673	-0.24136	0.95023
3.626	21.232	-37833	2191.1	-0.11653	-0.24224	0.95101
3.628	21.286	-37830	2191	-0.11634	-0.24312	0.9518
3.63	21.377	-37822	2190.9	-0.11614	-0.244	0.95258
3.632	21.373	-37819	2190.9	-0.11702	-0.24478	0.95238
3.634	21.319	-37821	2190.8	-0.1179	-0.24556	0.95219
3.636	21.304	-37822	2190.7	-0.11878	-0.24634	0.95199
3.638	21.311	-37821	2190.6	-0.11966	-0.24712	0.9518
3.64	21.317	-37817	2190.5	-0.12054	-0.2479	0.9516
3.642	21.308	-37812	2190.5	-0.11985	-0.24829	0.95043
3.644	21.316	-37812	2190.4	-0.11917	-0.24868	0.94926
3.646	21.272	-37817	2190.4	-0.11849	-0.24908	0.94809
3.648	21.283	-37818	2190.4	-0.1178	-0.24947	0.94692
3.65	21.325	-37815	2190.3	-0.11712	-0.24986	0.94574
3.652	21.336	-37814	2190.3	-0.11702	-0.25025	0.94477
3.654	21.266	-37813	2190.3	-0.11692	-0.25064	0.94379
3.656	21.198	-37814	2190.2	-0.11683	-0.25103	0.94282
3.658	21.17	-37818	2190.2	-0.11673	-0.25142	0.94184
3.66	21.204	-37819	2190.2	-0.11663	-0.25181	0.94086
3.662	21.299	-37818	2190.2	-0.11673	-0.25064	0.94194
3.664	21.386	-37819	2190.2	-0.11683	-0.24947	0.94301
3.666	21.265	-37821	2190.1	-0.11692	-0.24829	0.94408
3.668	21.157	-37822	2190.1	-0.11702	-0.24712	0.94516
3.67	21.2	-37823	2190.1	-0.11712	-0.24595	0.94623
3.672	21.315	-37822	2190.1	-0.11878	-0.24624	0.94731
3.674	21.387	-37820	2190	-0.12044	-0.24654	0.94838
3.676	21.424	-37820	2190	-0.1221	-0.24683	0.94945
3.678	21.386	-37822	2189.9	-0.12376	-0.24712	0.95053
3.68	21.353	-37820	2189.9	-0.12542	-0.24742	0.9516
3.682	21.4	-37815	2189.8	-0.12395	-0.24693	0.95199
3.684	21.43	-37812	2189.7	-0.12249	-0.24644	0.95238
3.686	21.393	-37812	2189.7	-0.12102	-0.24595	0.95277
3.688	21.328	-37812	2189.6	-0.11956	-0.24546	0.95316
3.69	21.275	-37811	2189.6	-0.1181	-0.24498	0.95355
3.692	21.273	-37809	2189.5	-0.11897	-0.24576	0.95326
3.694	21.289	-37806	2189.5	-0.11985	-0.24654	0.95297
3.696	21.277	-37806	2189.5	-0.12073	-0.24732	0.95267
3.698	21.294	-37809	2189.5	-0.12161	-0.2481	0.95238
3.7	21.314	-37812	2189.6	-0.12249	-0.24888	0.95209
3.702	21.301	-37815	2189.6	-0.12327	-0.24761	0.95111
3.704	21.287	-37815	2189.6	-0.12405	-0.24634	0.95014
3.706	21.308	-37810	2189.7	-0.12483	-0.24507	0.94916
3.708	21.303	-37807	2189.7	-0.12561	-0.2438	0.94818
3.71	21.295	-37807	2189.7	-0.12639	-0.24254	0.94721
3.712	21.321	-37809	2189.7	-0.12542	-0.24332	0.94623
3.714	21.362	-37814	2189.7	-0.12444	-0.2441	0.94526
3.716	21.351	-37812	2189.7	-0.12346	-0.24488	0.94428
3.718	21.323	-37806	2189.7	-0.12249	-0.24566	0.9433
3.72	21.345	-37805	2189.8	-0.12151	-0.24644	0.94233
3.722	21.37	-37811	2189.8	-0.12102	-0.24683	0.94282
3.724	21.304	-37808	2189.8	-0.12054	-0.24722	0.9433
3.726	21.264	-37797	2189.8	-0.12005	-0.24761	0.94379
3.728	21.288	-37794	2189.9	-0.11956	-0.248	0.94428
3.73	21.312	-37800	2190	-0.11907	-0.24839	0.94477
3.732	21.296	-37804	2190	-0.11819	-0.2482	0.94418
3.734	21.269	-37806	2189.9	-0.11732	-0.248	0.9436
3.736	21.304	-37804	2189.9	-0.11644	-0.24781	0.94301
3.738	21.323	-37799	2189.8	-0.11556	-0.24761	0.94243
3.74	21.286	-37798	2189.8	-0.11468	-0.24742	0.94184
3.742	21.286	-37802	2189.8	-0.114	-0.24664	0.94233
3.744	21.329	-37806	2189.8	-0.11331	-0.24585	0.94282
3.746	21.292	-37811	2189.7	-0.11263	-0.24507	0.9433
3.748	21.253	-37809	2189.6	-0.11195	-0.24429	0.94379
3.75	21.3	-37801	2189.6	-0.11126	-0.24351	0.94428
3.752	21.322	-37796	2189.6	-0.11361	-0.24459	0.94545
3.754	21.349	-37796	2189.5	-0.11595	-0.24566	0.94662
3.756	21.339	-37798	2189.5	-0.11829	-0.24673	0.94779
3.758	21.312	-37803	2189.5	-0.12063	-0.24781	0.94896
3.76	21.344	-37803	2189.4	-0.12298	-0.24888	0.95014
3.762	21.393	-37799	2189.4	-0.12259	-0.24966	0.94965
3.764	21.405	-37797	2189.3	-0.1222	-0.25044	0.94916
3.766	21.356	-37798	2189.2	-0.1218	-0.25122	0.94867
3.768	21.3	-37800	2189.1	-0.12141	-0.252	0.94818
3.77	21.26	-37803	2189.1	-0.12102	-0.25278	0.9477
3.772	21.262	-37802	2188.9	-0.12102	-0.252	0.94828
3.774	21.315	-37799	2188.8	-0.12102	-0.25122	0.94887
3.776	21.368	-37800	2188.7	-0.12102	-0.25044	0.94945
3.778	21.378	-37805	2188.6	-0.12102	-0.24966	0.95004
3.78	21.341	-37805	2188.5	-0.12102	-0.24888	0.95062
3.782	21.323	-37802	2188.4	-0.11897	-0.2479	0.9515
3.784	21.295	-37800	2188.3	-0.11692	-0.24693	0.95238
3.786	21.249	-37799	2188.2	-0.11488	-0.24595	0.95326
3.788	21.275	-37800	2188.1	-0.11283	-0.24498	0.95414
3.79	21.342	-37802	2187.9	-0.11078	-0.244	0.95502
3.792	21.362	-37801	2187.8	-0.11107	-0.24439	0.95443
3.794	21.347	-37798	2187.8	-0.11136	-0.24478	0.95384
3.796	21.292	-37795	2187.7	-0.11165	-0.24517	0.95326
3.798	21.287	-37793	2187.6	-0.11195	-0.24556	0.95267
3.8	21.322	-37794	2187.5	-0.11224	-0.24595	0.95209
3.802	21.369	-37797	2187.5	-0.11175	-0.24673	0.95297
3.804	21.356	-37801	2187.4	-0.11126	-0.24751	0.95384
3.806	21.282	-37806	2187.4	-0.11078	-0.24829	0.95472
3.808	21.303	-37807	2187.3	-0.11029	-0.24908	0.9556
3.81	21.295	-37804	2187.2	-0.1098	-0.24986	0.95648
3.812	21.29	-37801	2187.1	-0.11009	-0.24917	0.95628
3.814	21.27	-37800	2187.1	-0.11039	-0.24849	0.95609
3.816	21.233	-37802	2187	-0.11068	-0.24781	0.95589
3.818	21.215	-37807	2187	-0.11097	-0.24712	0.9557
3.82	21.29	-37810	2186.9	-0.11126	-0.24644	0.9555
3.822	21.347	-37809	2187	-0.11263	-0.24605	0.95433
3.824	21.427	-37810	2187	-0.114	-0.24566	0.95316
3.826	21.43	-37814	2187.1	-0.11536	-0.24527	0.95199
3.828	21.353	-37815	2187.1	-0.11673	-0.24488	0.95082
3.83	21.334	-37815	2187.1	-0.1181	-0.24449	0.94965
3.832	21.278	-37816	2187	-0.11741	-0.24439	0.94896
3.834	21.285	-37819	2187	-0.11673	-0.24429	0.94828
3.836	21.307	-37817	2187	-0.11605	-0.2442	0.9476
3.838	21.318	-37810	2186.9	-0.11536	-0.2441	0.94692
3.84	21.329	-37809	2186.8	-0.11468	-0.244	0.94623
3.842	21.283	-37813	2186.8	-0.11497	-0.24361	0.94721
3.844	21.263	-37813	2186.8	-0.11527	-0.24322	0.94818
3.846	21.286	-37808	2186.8	-0.11556	-0.24283	0.94916
3.848	21.341	-37806	2186.7	-0.11585	-0.24244	0.95014
3.85	21.387	-37807	2186.7	-0.11614	-0.24205	0.95111
3.852	21.381	-37811	2186.7	-0.11634	-0.24244	0.95082
3.854	21.34	-37817	2186.7	-0.11653	-0.24283	0.95053
3.856	21.311	-37818	2186.6	-0.11673	-0.24322	0.95023
3.858	21.318	-37814	2186.5	-0.11692	-0.24361	0.94994
3.86	21.346	-37814	2186.4	-0.11712	-0.244	0.94965
3.862	21.362	-37818	2186.4	-0.11585	-0.244	0.95082
3.864	21.338	-37822	2186.3	-0.11458	-0.244	0.95199
3.866	21.289	-37825	2186.2	-0.11331	-0.244	0.95316
3.868	21.258	-37826	2186.2	-0.11204	-0.244	0.95433
3.87	21.24	-37823	2186.1	-0.11078	-0.244	0.9555
3.872	21.248	-37823	2185.9	-0.11185	-0.24459	0.9558
3.874	21.273	-37825	2185.8	-0.11292	-0.24517	0.95609
3.876	21.311	-37829	2185.6	-0.114	-0.24576	0.95638
3.878	21.351	-37834	2185.5	-0.11507	-0.24634	0.95668
3.88	21.288	-37836	2185.4	-0.11614	-0.24693	0.95697
3.882	21.245	-37837	2185.3	-0.11839	-0.24732	0.95541
3.884	21.306	-37837	2185.2	-0.12063	-0.24771	0.95384
3.886	21.347	-37834	2185.1	-0.12288	-0.2481	0.95228
3.888	21.342	-37837	2185	-0.12512	-0.24849	0.95072
3.89	21.346	-37844	2185	-0.12737	-0.24888	0.94916
3.892	21.326	-37848	2184.9	-0.12708	-0.24751	0.94848
3.894	21.325	-37849	2184.9	-0.12678	-0.24615	0.94779
3.896	21.311	-37851	2184.8	-0.12649	-0.24478	0.94711
3.898	21.286	-37853	2184.7	-0.1262	-0.24341	0.94643
3.9	21.246	-37852	2184.6	-0.1259	-0.24205	0.94574
3.902	21.275	-37846	2184.6	-0.12571	-0.24332	0.94652
3.904	21.279	-37846	2184.5	-0.12551	-0.24459	0.94731
3.906	21.271	-37852	2184.5	-0.12532	-0.24585	0.94809
3.908	21.328	-37855	2184.5	-0.12512	-0.24712	0.94887
3.91	21.362	-37854	2184.4	-0.12493	-0.24839	0.94965
3.912	21.35	-37853	2184.4	-0.12415	-0.2479	0.94867
3.914	21.283	-37852	2184.3	-0.12337	-0.24742	0.9477
3.916	21.262	-37854	2184.3	-0.12259	-0.24693	0.94672
3.918	21.285	-37859	2184.2	-0.1218	-0.24644	0.94574
3.92	21.281	-37862	2184.1	-0.12102	-0.24595	0.94477
3.922	21.242	-37862	2184.1	-0.12249	-0.24507	0.94506
3.924	21.238	-37863	2184	-0.12395	-0.2442	0.94535
3.926	21.253	-37866	2183.9	-0.12542	-0.24332	0.94565
3.928	21.257	-37868	2183.8	-0.12688	-0.24244	0.94594
3.93	21.26	-37867	2183.8	-0.12834	-0.24156	0.94623
3.932	21.235	-37867	2183.7	-0.12873	-0.24166	0.94613
3.934	21.301	-37867	2183.6	-0.12912	-0.24176	0.94604
3.936	21.344	-37868	2183.5	-0.12952	-0.24185	0.94594
3.938	21.309	-37871	2183.4	-0.12991	-0.24195	0.94584
3.94	21.299	-37874	2183.4	-0.1303	-0.24205	0.94574
3.942	21.301	-37879	2183.2	-0.12854	-0.24361	0.94574
3.944	21.271	-37880	2183.1	-0.12678	-0.24517	0.94574
3.946	21.234	-37877	2183	-0.12503	-0.24673	0.94574
3.948	21.219	-37879	2182.9	-0.12327	-0.24829	0.94574
3.95	21.225	-37887	2182.8	-0.12151	-0.24986	0.94574
3.952	21.281	-37889	2182.7	-0.12239	-0.24927	0.94613
3.954	21.344	-37885	2182.7	-0.12327	-0.24868	0.94652
3.956	21.312	-37881	2182.6	-0.12415	-0.2481	0.94692
3.958	21.293	-37879	2182.5	-0.12503	-0.24751	0.94731
3.96	21.275	-37882	2182.4	-0.1259	-0.24693	0.9477
3.962	21.27	-37889	2182.4	-0.12522	-0.24683	0.9475
3.964	21.285	-37892	2182.3	-0.12454	-0.24673	0.94731
3.966	21.287	-37893	2182.3	-0.12385	-0.24664	0.94711
3.968	21.283	-37896	2182.1	-0.12317	-0.24654	0.94692
3.97	21.286	-37901	2182	-0.12249	-0.24644	0.94672
3.972	21.25	-37904	2181.9	-0.12151	-0.24566	0.94594
3.974	21.236	-37905	2181.8	-0.12054	-0.24488	0.94516
3.976	21.316	-37905	2181.7	-0.11956	-0.2441	0.94438
3.978	21.351	-37904	2181.6	-0.11858	-0.24332	0.9436
3.98	21.322	-37903	2181.5	-0.11761	-0.24254	0.94282
3.982	21.297	-37903	2181.5	-0.11771	-0.24332	0.94282
3.984	21.301	-37904	2181.5	-0.1178	-0.2441	0.94282
3.986	21.261	-37907	2181.5	-0.1179	-0.24488	0.94282
3.988	21.306	-37909	2181.5	-0.118	-0.24566	0.94282
3.99	21.362	-37910	2181.4	-0.1181	-0.24644	0.94282
3.992	21.354	-37913	2181.4	-0.11849	-0.24585	0.94223
3.994	21.352	-37917	2181.3	-0.11888	-0.24527	0.94164
3.996	21.3	-37918	2181.3	-0.11927	-0.24468	0.94106
3.998	21.302	-37917	2181.3	-0.11966	-0.2441	0.94047
4	21.336	-37917	2181.3	-0.12005	-0.24351	0.93989
4.002	21.371	-37918	2181.2	-0.11927	-0.24293	0.9392
4.004	21.393	-37921	2181.1	-0.11849	-0.24234	0.93852
4.006	21.352	-37925	2181.1	-0.11771	-0.24176	0.93784
4.008	21.29	-37931	2181.1	-0.11692	-0.24117	0.93716
4.01	21.27	-37938	2181	-0.11614	-0.24058	0.93647
4.012	21.29	-37943	2181	-0.11702	-0.24146	0.93647
4.014	21.296	-37945	2181	-0.1179	-0.24234	0.93647
4.016	21.299	-37946	2180.9	-0.11878	-0.24322	0.93647
4.018	21.326	-37945	2180.8	-0.11966	-0.2441	0.93647
4.02	21.317	-37942	2180.8	-0.12054	-0.24498	0.93647
4.022	21.282	-37935	2180.7	-0.11868	-0.244	0.93657
4.024	21.278	-37934	2180.7	-0.11683	-0.24302	0.93667
4.026	21.294	-37939	2180.6	-0.11497	-0.24205	0.93676
4.028	21.336	-37945	2180.5	-0.11312	-0.24107	0.93686
4.03	21.387	-37951	2180.4	-0.11126	-0.2401	0.93696
4.032	21.413	-37953	2180.3	-0.11029	-0.24088	0.93813
4.034	21.413	-37950	2180.2	-0.10931	-0.24166	0.9393
4.036	21.375	-37950	2180	-0.10834	-0.24244	0.94047
4.038	21.326	-37953	2179.9	-0.10736	-0.24322	0.94164
4.04	21.316	-37953	2179.7	-0.10638	-0.244	0.94282
4.042	21.348	-37949	2179.7	-0.10804	-0.24371	0.94399
4.044	21.337	-37951	2179.6	-0.1097	-0.24341	0.94516
4.046	21.314	-37959	2179.6	-0.11136	-0.24312	0.94633
4.048	21.3	-37962	2179.6	-0.11302	-0.24283	0.9475
4.05	21.28	-37961	2179.5	-0.11468	-0.24254	0.94867
4.052	21.26	-37960	2179.5	-0.11595	-0.24371	0.94945
4.054	21.2	-37960	2179.5	-0.11722	-0.24488	0.95023
4.056	21.1	-37962	2179.5	-0.11849	-0.24605	0.95101
4.058	21.013	-37966	2179.4	-0.11976	-0.24722	0.9518
4.06	20.951	-37968	2179.4	-0.12102	-0.24839	0.95258
4.062	20.957	-37969	2179.4	-0.12083	-0.2482	0.95267
4.064	20.926	-37970	2179.5	-0.12063	-0.248	0.95277
4.066	20.807	-37970	2179.5	-0.12044	-0.24781	0.95287
4.068	20.703	-37968	2179.5	-0.12024	-0.24761	0.95297
4.07	20.729	-37963	2179.5	-0.12005	-0.24742	0.95306
4.072	20.742	-37965	2179.6	-0.11985	-0.24722	0.95326
4.074	20.698	-37973	2179.6	-0.11966	-0.24703	0.95345
4.076	20.729	-37979	2179.6	-0.11946	-0.24683	0.95365
4.078	20.756	-37984	2179.6	-0.11927	-0.24664	0.95384
4.08	20.839	-37990	2179.7	-0.11907	-0.24644	0.95404
4.082	20.87	-37997	2179.6	-0.11927	-0.24673	0.95424
4.084	20.925	-37998	2179.6	-0.11946	-0.24703	0.95443
4.086	20.981	-37994	2179.5	-0.11966	-0.24732	0.95463
4.088	21.044	-37994	2179.5	-0.11985	-0.24761	0.95482
4.09	21.151	-37997	2179.4	-0.12005	-0.2479	0.95502
4.092	21.233	-37997	2179.3	-0.11849	-0.24634	0.95502
4.094	21.264	-37994	2179.3	-0.11692	-0.24478	0.95502
4.096	21.253	-37993	2179.2	-0.11536	-0.24322	0.95502
4.098	21.231	-37995	2179.1	-0.1138	-0.24166	0.95502
4.1	21.19	-37996	2179	-0.11224	-0.2401	0.95502
4.102	21.178	-37996	2179	-0.11253	-0.24068	0.95521
4.104	21.248	-37998	2179	-0.11283	-0.24127	0.95541
4.106	21.33	-38003	2178.9	-0.11312	-0.24185	0.9556
4.108	21.35	-38006	2178.9	-0.11341	-0.24244	0.9558
4.11	21.346	-38006	2178.8	-0.1137	-0.24302	0.95599
4.112	21.34	-38002	2178.8	-0.11409	-0.24361	0.95638
4.114	21.313	-37995	2178.8	-0.11448	-0.2442	0.95677
4.116	21.289	-37992	2178.8	-0.11488	-0.24478	0.95716
4.118	21.293	-37993	2178.7	-0.11527	-0.24537	0.95755
4.12	21.289	-37996	2178.6	-0.11566	-0.24595	0.95794
4.122	21.277	-37999	2178.6	-0.11712	-0.24673	0.95794
4.124	21.32	-38003	2178.6	-0.11858	-0.24751	0.95794
4.126	21.341	-38008	2178.6	-0.12005	-0.24829	0.95794
4.128	21.292	-38011	2178.5	-0.12151	-0.24908	0.95794
4.13	21.238	-38012	2178.5	-0.12298	-0.24986	0.95794
4.132	21.177	-38013	2178.5	-0.12327	-0.25015	0.95775
4.134	21.195	-38012	2178.5	-0.12356	-0.25044	0.95755
4.136	21.263	-38013	2178.5	-0.12385	-0.25073	0.95736
4.138	21.284	-38015	2178.5	-0.12415	-0.25103	0.95716
4.14	21.304	-38016	2178.5	-0.12444	-0.25132	0.95697
4.142	21.303	-38017	2178.5	-0.12366	-0.25181	0.95697
4.144	21.221	-38018	2178.5	-0.12288	-0.2523	0.95697
4.146	21.248	-38021	2178.4	-0.1221	-0.25278	0.95697
4.148	21.339	-38023	2178.4	-0.12132	-0.25327	0.95697
4.15	21.319	-38025	2178.4	-0.12054	-0.25376	0.95697
4.152	21.298	-38028	2178.4	-0.12034	-0.25405	0.95716
4.154	21.286	-38030	2178.4	-0.12015	-0.25435	0.95736
4.156	21.282	-38032	2178.3	-0.11995	-0.25464	0.95755
4.158	21.268	-38035	2178.3	-0.11976	-0.25493	0.95775
4.16	21.245	-38037	2178.3	-0.11956	-0.25522	0.95794
4.162	21.26	-38039	2178.3	-0.11995	-0.25522	0.95687
4.164	21.3	-38040	2178.3	-0.12034	-0.25522	0.9558
4.166	21.297	-38040	2178.3	-0.12073	-0.25522	0.95472
4.168	21.269	-38040	2178.3	-0.12112	-0.25522	0.95365
4.17	21.232	-38041	2178.3	-0.12151	-0.25522	0.95258
4.172	21.205	-38043	2178.2	-0.1218	-0.25415	0.95326
4.174	21.185	-38045	2178.2	-0.1221	-0.25308	0.95394
4.176	21.19	-38046	2178.1	-0.12239	-0.252	0.95463
4.178	21.269	-38045	2178.1	-0.12268	-0.25093	0.95531
4.18	21.304	-38046	2178.1	-0.12298	-0.24986	0.95599
4.182	21.283	-38050	2178	-0.12288	-0.24995	0.95531
4.184	21.264	-38054	2177.9	-0.12278	-0.25005	0.95463
4.186	21.245	-38060	2177.8	-0.12268	-0.25015	0.95394
4.188	21.216	-38064	2177.7	-0.12259	-0.25025	0.95326
4.19	21.194	-38066	2177.6	-0.12249	-0.25034	0.95258
4.192	21.194	-38068	2177.5	-0.12268	-0.25054	0.95267
4.194	21.228	-38070	2177.4	-0.12288	-0.25073	0.95277
4.196	21.264	-38070	2177.3	-0.12307	-0.25093	0.95287
4.198	21.285	-38068	2177.2	-0.12327	-0.25112	0.95297
4.2	21.282	-38068	2177.1	-0.12346	-0.25132	0.95306
4.202	21.234	-38070	2177	-0.12307	-0.25171	0.95189
4.204	21.183	-38072	2177	-0.12268	-0.2521	0.95072
4.206	21.176	-38073	2176.9	-0.12229	-0.25249	0.94955
4.208	21.182	-38072	2176.8	-0.1219	-0.25288	0.94838
4.21	21.173	-38068	2176.7	-0.12151	-0.25327	0.94721
4.212	21.203	-38068	2176.7	-0.12161	-0.25308	0.94682
4.214	21.28	-38071	2176.6	-0.12171	-0.25288	0.94643
4.216	21.307	-38075	2176.6	-0.1218	-0.25269	0.94604
4.218	21.224	-38078	2176.6	-0.1219	-0.25249	0.94565
4.22	21.161	-38081	2176.7	-0.122	-0.2523	0.94526
4.222	21.159	-38083	2176.6	-0.12259	-0.25132	0.94574
4.224	21.177	-38084	2176.6	-0.12317	-0.25034	0.94623
4.226	21.147	-38085	2176.7	-0.12376	-0.24937	0.94672
4.228	21.15	-38086	2176.8	-0.12434	-0.24839	0.94721
4.23	21.15	-38087	2176.9	-0.12493	-0.24742	0.9477
4.232	21.219	-38090	2176.9	-0.1261	-0.24664	0.94818
4.234	21.27	-38096	2176.8	-0.12727	-0.24585	0.94867
4.236	21.212	-38097	2176.8	-0.12844	-0.24507	0.94916
4.238	21.213	-38094	2176.8	-0.12961	-0.24429	0.94965
4.24	21.215	-38091	2176.8	-0.13078	-0.24351	0.95014
4.242	21.19	-38088	2176.8	-0.12912	-0.24361	0.94916
4.244	21.119	-38092	2176.8	-0.12747	-0.24371	0.94818
4.246	21.082	-38104	2176.8	-0.12581	-0.2438	0.94721
4.248	21.106	-38111	2176.8	-0.12415	-0.2439	0.94623
4.25	21.07	-38114	2176.8	-0.12249	-0.244	0.94526
4.252	21.041	-38114	2176.8	-0.12259	-0.24439	0.94711
4.254	21.035	-38114	2176.9	-0.12268	-0.24478	0.94896
4.256	21.025	-38112	2177	-0.12278	-0.24517	0.95082
4.258	21.162	-38109	2177.2	-0.12288	-0.24556	0.95267
4.26	21.28	-38107	2177.3	-0.12298	-0.24595	0.95453
4.262	21.243	-38107	2177.5	-0.12317	-0.24478	0.95209
4.264	21.16	-38107	2177.6	-0.12337	-0.24361	0.94965
4.266	21.11	-38107	2177.7	-0.12356	-0.24244	0.94721
4.268	21.115	-38113	2177.9	-0.12376	-0.24127	0.94477
4.27	21.112	-38124	2178	-0.12395	-0.2401	0.94233
4.272	21.078	-38128	2178.1	-0.12366	-0.24166	0.94311
4.274	21.052	-38127	2178.2	-0.12337	-0.24322	0.94389
4.276	21.075	-38125	2178.3	-0.12307	-0.24478	0.94467
4.278	21.102	-38123	2178.5	-0.12278	-0.24634	0.94545
4.28	21.104	-38121	2178.6	-0.12249	-0.2479	0.94623
4.282	21.086	-38120	2178.7	-0.12161	-0.24761	0.94594
4.284	21.061	-38121	2178.8	-0.12073	-0.24732	0.94565
4.286	21.051	-38123	2178.9	-0.11985	-0.24703	0.94535
4.288	21.054	-38125	2179.1	-0.11897	-0.24673	0.94506
4.29	21.054	-38127	2179.2	-0.1181	-0.24644	0.94477
4.292	21.057	-38126	2179.3	-0.11732	-0.24585	0.94457
4.294	21.06	-38123	2179.4	-0.11653	-0.24527	0.94438
4.296	21.062	-38122	2179.5	-0.11575	-0.24468	0.94418
4.298	21.069	-38125	2179.6	-0.11497	-0.2441	0.94399
4.3	21.04	-38128	2179.7	-0.11419	-0.24351	0.94379
4.302	21.014	-38130	2179.9	-0.11478	-0.24322	0.94301
4.304	21.076	-38128	2180	-0.11536	-0.24293	0.94223
4.306	21.057	-38122	2180.1	-0.11595	-0.24263	0.94145
4.308	21.064	-38117	2180.3	-0.11653	-0.24234	0.94067
4.31	21.068	-38113	2180.4	-0.11712	-0.24205	0.93989
4.312	21.067	-38112	2180.7	-0.11702	-0.24273	0.94038
4.314	21.048	-38112	2180.9	-0.11692	-0.24341	0.94086
4.316	21.048	-38113	2181.2	-0.11683	-0.2441	0.94135
4.318	21.029	-38116	2181.4	-0.11673	-0.24478	0.94184
4.32	21.093	-38116	2181.6	-0.11663	-0.24546	0.94233
4.322	21.125	-38113	2181.9	-0.11663	-0.24624	0.94252
4.324	21.124	-38109	2182.2	-0.11663	-0.24703	0.94272
4.326	21.092	-38104	2182.5	-0.11663	-0.24781	0.94291
4.328	21.069	-38101	2182.7	-0.11663	-0.24859	0.94311
4.33	21.09	-38101	2182.9	-0.11663	-0.24937	0.9433
4.332	21.138	-38101	2183.2	-0.1178	-0.24927	0.94379
4.334	21.155	-38101	2183.4	-0.11897	-0.24917	0.94428
4.336	21.138	-38099	2183.7	-0.12015	-0.24908	0.94477
4.338	21.101	-38094	2184	-0.12132	-0.24898	0.94526
4.34	21.11	-38092	2184.2	-0.12249	-0.24888	0.94574
4.342	21.121	-38092	2184.5	-0.12229	-0.24917	0.94613
4.344	21.13	-38088	2184.7	-0.1221	-0.24947	0.94652
4.346	21.19	-38080	2184.9	-0.1219	-0.24976	0.94692
4.348	21.174	-38078	2185.2	-0.12171	-0.25005	0.94731
4.35	21.154	-38082	2185.4	-0.12151	-0.25034	0.9477
4.352	21.141	-38083	2185.7	-0.122	-0.25005	0.94789
4.354	21.16	-38081	2185.9	-0.12249	-0.24976	0.94809
4.356	21.198	-38079	2186.2	-0.12298	-0.24947	0.94828
4.358	21.209	-38079	2186.4	-0.12346	-0.24917	0.94848
4.36	21.173	-38075	2186.6	-0.12395	-0.24888	0.94867
4.362	21.149	-38066	2186.8	-0.12298	-0.24927	0.94867
4.364	21.158	-38062	2187	-0.122	-0.24966	0.94867
4.366	21.194	-38063	2187.1	-0.12102	-0.25005	0.94867
4.368	21.238	-38060	2187.3	-0.12005	-0.25044	0.94867
4.37	21.23	-38054	2187.4	-0.11907	-0.25083	0.94867
4.372	21.195	-38049	2187.5	-0.1178	-0.24937	0.94945
4.374	21.215	-38046	2187.5	-0.11653	-0.2479	0.95023
4.376	21.252	-38042	2187.5	-0.11527	-0.24644	0.95101
4.378	21.269	-38037	2187.6	-0.114	-0.24498	0.9518
4.38	21.288	-38032	2187.6	-0.11273	-0.24351	0.95258
4.382	21.276	-38027	2187.6	-0.11273	-0.24351	0.95316
4.384	21.283	-38022	2187.7	-0.11273	-0.24351	0.95375
4.386	21.311	-38017	2187.7	-0.11273	-0.24351	0.95433
4.388	21.306	-38015	2187.7	-0.11273	-0.24351	0.95492
4.39	21.282	-38015	2187.7	-0.11273	-0.24351	0.9555
4.392	21.235	-38014	2187.7	-0.11497	-0.24498	0.95345
4.394	21.21	-38010	2187.7	-0.11722	-0.24644	0.9514
4.396	21.225	-38008	2187.7	-0.11946	-0.2479	0.94936
4.398	21.211	-38008	2187.7	-0.12171	-0.24937	0.94731
4.4	21.186	-38006	2187.8	-0.12395	-0.25083	0.94526
4.402	21.219	-38003	2187.8	-0.12434	-0.25054	0.94565
4.404	21.325	-38003	2187.9	-0.12473	-0.25025	0.94604
4.406	21.298	-38006	2188.1	-0.12512	-0.24995	0.94643
4.408	21.267	-38001	2188.2	-0.12551	-0.24966	0.94682
4.41	21.303	-37989	2188.4	-0.1259	-0.24937	0.94721
4.412	21.348	-37983	2188.4	-0.12395	-0.24966	0.94613
4.414	21.335	-37983	2188.5	-0.122	-0.24995	0.94506
4.416	21.29	-37984	2188.5	-0.12005	-0.25025	0.94399
4.418	21.261	-37986	2188.6	-0.1181	-0.25054	0.94291
4.42	21.209	-37982	2188.7	-0.11614	-0.25083	0.94184
4.422	21.255	-37971	2188.9	-0.118	-0.25025	0.94369
4.424	21.258	-37966	2189	-0.11985	-0.24966	0.94555
4.426	21.265	-37966	2189.2	-0.12171	-0.24908	0.9474
4.428	21.236	-37968	2189.4	-0.12356	-0.24849	0.94926
4.43	21.256	-37971	2189.6	-0.12542	-0.2479	0.95111
4.432	21.3	-37965	2189.7	-0.12483	-0.24859	0.95053
4.434	21.327	-37951	2189.9	-0.12424	-0.24927	0.94994
4.436	21.3	-37943	2190	-0.12366	-0.24995	0.94936
4.438	21.242	-37939	2190.1	-0.12307	-0.25064	0.94877
4.44	21.163	-37937	2190.2	-0.12249	-0.25132	0.94818
4.442	21.142	-37936	2190.3	-0.12229	-0.25103	0.94936
4.444	21.209	-37935	2190.4	-0.1221	-0.25073	0.95053
4.446	21.301	-37932	2190.5	-0.1219	-0.25044	0.9517
4.448	21.37	-37927	2190.6	-0.12171	-0.25015	0.95287
4.45	21.357	-37921	2190.7	-0.12151	-0.24986	0.95404
4.452	21.301	-37917	2190.7	-0.12171	-0.24976	0.95365
4.454	21.257	-37914	2190.7	-0.1219	-0.24966	0.95326
4.456	21.231	-37914	2190.7	-0.1221	-0.24956	0.95287
4.458	21.238	-37916	2190.6	-0.12229	-0.24947	0.95248
4.46	21.237	-37913	2190.6	-0.12249	-0.24937	0.95209
4.462	21.219	-37908	2190.5	-0.12337	-0.24781	0.95092
4.464	21.227	-37901	2190.5	-0.12424	-0.24624	0.94975
4.466	21.259	-37892	2190.4	-0.12512	-0.24468	0.94857
4.468	21.301	-37891	2190.3	-0.126	-0.24312	0.9474
4.47	21.324	-37897	2190.3	-0.12688	-0.24156	0.94623
4.472	21.285	-37898	2190.2	-0.12629	-0.24302	0.94662
4.474	21.27	-37894	2190.1	-0.12571	-0.24449	0.94701
4.476	21.278	-37891	2190.1	-0.12512	-0.24595	0.9474
4.478	21.277	-37891	2190	-0.12454	-0.24742	0.94779
4.48	21.29	-37890	2190	-0.12395	-0.24888	0.94818
4.482	21.3	-37888	2189.9	-0.12268	-0.24849	0.94711
4.484	21.277	-37883	2189.8	-0.12141	-0.2481	0.94604
4.486	21.248	-37876	2189.8	-0.12015	-0.24771	0.94496
4.488	21.253	-37870	2189.8	-0.11888	-0.24732	0.94389
4.49	21.25	-37865	2189.8	-0.11761	-0.24693	0.94282
4.492	21.204	-37864	2189.7	-0.11839	-0.24712	0.94379
4.494	21.208	-37865	2189.7	-0.11917	-0.24732	0.94477
4.496	21.299	-37866	2189.7	-0.11995	-0.24751	0.94574
4.498	21.276	-37865	2189.7	-0.12073	-0.24771	0.94672
4.5	21.288	-37864	2189.7	-0.12151	-0.2479	0.9477
4.502	21.298	-37863	2189.6	-0.12161	-0.2482	0.9477
4.504	21.297	-37862	2189.6	-0.12171	-0.24849	0.9477
4.506	21.279	-37861	2189.6	-0.1218	-0.24878	0.9477
4.508	21.318	-37859	2189.5	-0.1219	-0.24908	0.9477
4.51	21.29	-37857	2189.5	-0.122	-0.24937	0.9477
4.512	21.212	-37858	2189.4	-0.12161	-0.24966	0.9475
4.514	21.192	-37863	2189.3	-0.12122	-0.24995	0.94731
4.516	21.233	-37862	2189.3	-0.12083	-0.25025	0.94711
4.518	21.23	-37853	2189.2	-0.12044	-0.25054	0.94692
4.52	21.193	-37849	2189.2	-0.12005	-0.25083	0.94672
4.522	21.208	-37848	2189.1	-0.12044	-0.25025	0.94731
4.524	21.259	-37848	2189.1	-0.12083	-0.24966	0.94789
4.526	21.267	-37847	2189	-0.12122	-0.24908	0.94848
4.528	21.222	-37848	2189	-0.12161	-0.24849	0.94906
4.53	21.219	-37853	2188.9	-0.122	-0.2479	0.94965
4.532	21.26	-37854	2188.8	-0.12141	-0.2479	0.94936
4.534	21.296	-37853	2188.7	-0.12083	-0.2479	0.94906
4.536	21.28	-37851	2188.6	-0.12024	-0.2479	0.94877
4.538	21.255	-37848	2188.5	-0.11966	-0.2479	0.94848
4.54	21.258	-37847	2188.4	-0.11907	-0.2479	0.94818
4.542	21.267	-37849	2188.4	-0.11907	-0.24849	0.9476
4.544	21.27	-37850	2188.3	-0.11907	-0.24908	0.94701
4.546	21.276	-37850	2188.3	-0.11907	-0.24966	0.94643
4.548	21.288	-37850	2188.3	-0.11907	-0.25025	0.94584
4.55	21.269	-37849	2188.2	-0.11907	-0.25083	0.94526
4.552	21.265	-37847	2188.2	-0.12005	-0.25073	0.94623
4.554	21.279	-37844	2188.1	-0.12102	-0.25064	0.94721
4.556	21.265	-37840	2188	-0.122	-0.25054	0.94818
4.558	21.242	-37836	2188	-0.12298	-0.25044	0.94916
4.56	21.254	-37837	2187.9	-0.12395	-0.25034	0.95014
4.562	21.233	-37845	2187.9	-0.12473	-0.24937	0.95023
4.564	21.263	-37846	2187.8	-0.12551	-0.24839	0.95033
4.566	21.283	-37841	2187.7	-0.12629	-0.24742	0.95043
4.568	21.277	-37839	2187.6	-0.12708	-0.24644	0.95053
4.57	21.287	-37838	2187.6	-0.12786	-0.24546	0.95062
4.572	21.281	-37839	2187.6	-0.12542	-0.24605	0.94945
4.574	21.283	-37842	2187.6	-0.12298	-0.24664	0.94828
4.576	21.329	-37843	2187.6	-0.12054	-0.24722	0.94711
4.578	21.211	-37842	2187.6	-0.1181	-0.24781	0.94594
4.58	21.171	-37843	2187.6	-0.11566	-0.24839	0.94477
4.582	21.216	-37846	2187.7	-0.11644	-0.24966	0.94379
4.584	21.247	-37844	2187.7	-0.11722	-0.25093	0.94282
4.586	21.34	-37837	2187.8	-0.118	-0.2522	0.94184
4.588	21.291	-37837	2187.9	-0.11878	-0.25347	0.94086
4.59	21.284	-37843	2188	-0.11956	-0.25474	0.93989
4.592	21.325	-37845	2188	-0.12034	-0.25376	0.94174
4.594	21.279	-37843	2188	-0.12112	-0.25278	0.9436
4.596	21.254	-37841	2188	-0.1219	-0.25181	0.94545
4.598	21.279	-37840	2188	-0.12268	-0.25083	0.94731
4.6	21.304	-37841	2188	-0.12346	-0.24986	0.94916
4.602	21.264	-37842	2188.1	-0.12327	-0.25025	0.95004
4.604	21.172	-37844	2188.1	-0.12307	-0.25064	0.95092
