t	ekg	optical	pressure	accel_x	accel_y	accel_z
4.5475e-13	72.264	-26450	2105.6	-0.29475	0.9111	0.27572
0.002	72.274	-26448	2105.8	-0.29475	0.91178	0.27455
0.004	72.273	-26446	2106	-0.29475	0.91246	0.27338
0.006	72.264	-26445	2106.2	-0.29475	0.91315	0.27221
0.008	72.244	-26438	2106.4	-0.29475	0.91383	0.27104
0.01	72.227	-26432	2106.7	-0.29475	0.91451	0.26986
0.012	72.234	-26437	2107	-0.29348	0.9152	0.26977
0.014	72.268	-26442	2107.3	-0.29221	0.91588	0.26967
0.016	72.306	-26438	2107.5	-0.29095	0.91656	0.26957
0.018	72.329	-26435	2107.8	-0.28968	0.91724	0.26947
0.02	72.327	-26444	2108.1	-0.28841	0.91793	0.26938
0.022	72.305	-26453	2108.4	-0.2886	0.91734	0.26928
0.024	72.279	-26449	2108.7	-0.2888	0.91676	0.26918
0.026	72.262	-26446	2109	-0.28899	0.91617	0.26908
0.028	72.278	-26440	2109.3	-0.28919	0.91559	0.26899
0.03	72.31	-26435	2109.5	-0.28938	0.915	0.26889
0.032	72.34	-26430	2109.8	-0.28938	0.91461	0.26928
0.034	72.372	-26425	2110.1	-0.28938	0.91422	0.26967
0.036	72.393	-26425	2110.4	-0.28938	0.91383	0.27006
0.038	72.388	-26426	2110.7	-0.28938	0.91344	0.27045
0.04	72.363	-26425	2110.9	-0.28938	0.91305	0.27084
0.042	72.336	-26424	2111.2	-0.28968	0.91285	0.27123
0.044	72.326	-26421	2111.5	-0.28997	0.91266	0.27162
0.046	72.341	-26419	2111.7	-0.29026	0.91246	0.27201
0.048	72.384	-26417	2112	-0.29056	0.91227	0.2724
0.05	72.425	-26415	2112.2	-0.29085	0.91207	0.27279
0.052	72.438	-26413	2112.4	-0.2927	0.91227	0.27289
0.054	72.436	-26411	2112.6	-0.29456	0.91246	0.27299
0.056	72.412	-26414	2112.8	-0.29641	0.91266	0.27308
0.058	72.371	-26417	2113	-0.29827	0.91285	0.27318
0.06	72.356	-26414	2113.2	-0.30012	0.91305	0.27328
0.062	72.368	-26412	2113.3	-0.29992	0.91305	0.27357
0.064	72.393	-26412	2113.4	-0.29973	0.91305	0.27387
0.066	72.442	-26413	2113.5	-0.29953	0.91305	0.27416
0.068	72.469	-26406	2113.7	-0.29934	0.91305	0.27445
0.07	72.474	-26399	2113.8	-0.29914	0.91305	0.27474
0.072	72.444	-26400	2113.9	-0.29866	0.91256	0.27426
0.074	72.419	-26402	2114	-0.29817	0.91207	0.27377
0.076	72.403	-26400	2114	-0.29768	0.91158	0.27328
0.078	72.415	-26398	2114.1	-0.29719	0.9111	0.27279
0.08	72.436	-26396	2114.1	-0.2967	0.91061	0.2723
0.082	72.46	-26393	2114.2	-0.29563	0.91188	0.27143
0.084	72.485	-26392	2114.3	-0.29456	0.91315	0.27055
0.086	72.485	-26392	2114.3	-0.29348	0.91441	0.26967
0.088	72.465	-26390	2114.3	-0.29241	0.91568	0.26879
0.09	72.435	-26389	2114.3	-0.29134	0.91695	0.26791
0.092	72.412	-26391	2114.3	-0.29143	0.91588	0.2684
0.094	72.404	-26394	2114.2	-0.29153	0.9148	0.26889
0.096	72.413	-26394	2114.2	-0.29163	0.91373	0.26938
0.098	72.442	-26393	2114.2	-0.29173	0.91266	0.26986
0.1	72.474	-26394	2114.2	-0.29182	0.91158	0.27035
0.102	72.49	-26394	2114.2	-0.29251	0.91188	0.26928
0.104	72.482	-26394	2114.2	-0.29319	0.91217	0.2682
0.106	72.456	-26394	2114.2	-0.29387	0.91246	0.26713
0.108	72.427	-26394	2114.1	-0.29456	0.91276	0.26606
0.11	72.41	-26394	2114.1	-0.29524	0.91305	0.26498
0.112	72.408	-26392	2114	-0.29446	0.91276	0.26625
0.114	72.428	-26391	2113.9	-0.29368	0.91246	0.26752
0.116	72.461	-26389	2113.8	-0.2929	0.91217	0.26879
0.118	72.484	-26387	2113.8	-0.29212	0.91188	0.27006
0.12	72.485	-26389	2113.7	-0.29134	0.91158	0.27133
0.122	72.461	-26390	2113.6	-0.29192	0.91178	0.27104
0.124	72.426	-26394	2113.5	-0.29251	0.91197	0.27074
0.126	72.4	-26398	2113.4	-0.29309	0.91217	0.27045
0.128	72.4	-26397	2113.3	-0.29368	0.91236	0.27016
0.13	72.418	-26396	2113.2	-0.29426	0.91256	0.26986
0.132	72.446	-26397	2113.1	-0.29465	0.91188	0.27064
0.134	72.465	-26397	2113	-0.29504	0.91119	0.27143
0.136	72.474	-26394	2112.9	-0.29544	0.91051	0.27221
0.138	72.465	-26391	2112.8	-0.29583	0.90983	0.27299
0.14	72.44	-26392	2112.7	-0.29622	0.90914	0.27377
0.142	72.406	-26393	2112.7	-0.29592	0.90924	0.27348
0.144	72.393	-26395	2112.6	-0.29563	0.90934	0.27318
0.146	72.4	-26398	2112.5	-0.29534	0.90944	0.27289
0.148	72.427	-26392	2112.5	-0.29504	0.90953	0.2726
0.15	72.47	-26386	2112.4	-0.29475	0.90963	0.2723
0.152	72.475	-26388	2112.3	-0.29495	0.91022	0.27182
0.154	72.456	-26389	2112.3	-0.29514	0.9108	0.27133
0.156	72.427	-26390	2112.2	-0.29534	0.91139	0.27084
0.158	72.392	-26391	2112.2	-0.29553	0.91197	0.27035
0.16	72.372	-26387	2112.1	-0.29573	0.91256	0.26986
0.162	72.371	-26383	2112.1	-0.29583	0.91276	0.26967
0.164	72.405	-26389	2112	-0.29592	0.91295	0.26947
0.166	72.444	-26395	2111.9	-0.29602	0.91315	0.26928
0.168	72.463	-26400	2111.9	-0.29612	0.91334	0.26908
0.17	72.46	-26405	2111.9	-0.29622	0.91354	0.26889
0.172	72.439	-26406	2111.8	-0.29592	0.91334	0.26928
0.174	72.418	-26408	2111.8	-0.29563	0.91315	0.26967
0.176	72.405	-26408	2111.8	-0.29534	0.91295	0.27006
0.178	72.405	-26408	2111.7	-0.29504	0.91276	0.27045
0.18	72.414	-26407	2111.6	-0.29475	0.91256	0.27084
0.182	72.436	-26405	2111.6	-0.29544	0.91246	0.27104
0.184	72.463	-26403	2111.6	-0.29612	0.91236	0.27123
0.186	72.469	-26401	2111.5	-0.2968	0.91227	0.27143
0.188	72.452	-26400	2111.5	-0.29748	0.91217	0.27162
0.19	72.42	-26400	2111.4	-0.29817	0.91207	0.27182
0.192	72.388	-26399	2111.3	-0.29758	0.91139	0.27143
0.194	72.376	-26399	2111.3	-0.297	0.91071	0.27104
0.196	72.394	-26401	2111.2	-0.29641	0.91002	0.27064
0.198	72.429	-26404	2111.2	-0.29583	0.90934	0.27025
0.2	72.456	-26401	2111.1	-0.29524	0.90866	0.26986
0.202	72.465	-26398	2111.1	-0.29553	0.90885	0.27035
0.204	72.455	-26398	2111	-0.29583	0.90905	0.27084
0.206	72.425	-26397	2110.9	-0.29612	0.90924	0.27133
0.208	72.394	-26396	2110.9	-0.29641	0.90944	0.27182
0.21	72.379	-26396	2110.8	-0.2967	0.90963	0.2723
0.212	72.387	-26397	2110.8	-0.2967	0.90924	0.2724
0.214	72.411	-26399	2110.8	-0.2967	0.90885	0.2725
0.216	72.437	-26403	2110.8	-0.2967	0.90846	0.2726
0.218	72.459	-26406	2110.7	-0.2967	0.90807	0.27269
0.22	72.453	-26406	2110.7	-0.2967	0.90768	0.27279
0.222	72.431	-26405	2110.7	-0.29592	0.90846	0.2723
0.224	72.397	-26405	2110.6	-0.29514	0.90924	0.27182
0.226	72.375	-26405	2110.6	-0.29436	0.91002	0.27133
0.228	72.377	-26408	2110.5	-0.29358	0.9108	0.27084
0.23	72.393	-26412	2110.5	-0.2928	0.91158	0.27035
0.232	72.431	-26416	2110.4	-0.29319	0.91129	0.27104
0.234	72.463	-26421	2110.4	-0.29358	0.911	0.27172
0.236	72.459	-26419	2110.4	-0.29397	0.91071	0.2724
0.238	72.439	-26417	2110.4	-0.29436	0.91041	0.27308
0.24	72.404	-26414	2110.4	-0.29475	0.91012	0.27377
0.242	72.37	-26412	2110.3	-0.29387	0.9109	0.2725
0.244	72.37	-26408	2110.3	-0.293	0.91168	0.27123
0.246	72.394	-26405	2110.2	-0.29212	0.91246	0.26996
0.248	72.424	-26405	2110.2	-0.29124	0.91324	0.26869
0.25	72.451	-26406	2110.2	-0.29036	0.91402	0.26742
0.252	72.465	-26407	2110.2	-0.29065	0.91363	0.26811
0.254	72.454	-26408	2110.2	-0.29095	0.91324	0.26879
0.256	72.428	-26409	2110.1	-0.29124	0.91285	0.26947
0.258	72.396	-26410	2110.1	-0.29153	0.91246	0.27016
0.26	72.374	-26411	2110.1	-0.29182	0.91207	0.27084
0.262	72.379	-26413	2110.1	-0.2926	0.91236	0.27123
0.264	72.407	-26414	2110.1	-0.29339	0.91266	0.27162
0.266	72.442	-26415	2110.1	-0.29417	0.91295	0.27201
0.268	72.458	-26417	2110.1	-0.29495	0.91324	0.2724
0.27	72.454	-26419	2110.1	-0.29573	0.91354	0.27279
0.272	72.434	-26418	2110.1	-0.29592	0.91295	0.27318
0.274	72.407	-26417	2110.2	-0.29612	0.91236	0.27357
0.276	72.385	-26413	2110.2	-0.29631	0.91178	0.27396
0.278	72.38	-26409	2110.2	-0.29651	0.91119	0.27435
0.28	72.4	-26413	2110.3	-0.2967	0.91061	0.27474
0.282	72.437	-26417	2110.3	-0.297	0.91197	0.27367
0.284	72.467	-26424	2110.4	-0.29729	0.91334	0.2726
0.286	72.475	-26431	2110.4	-0.29758	0.91471	0.27152
0.288	72.455	-26425	2110.5	-0.29788	0.91607	0.27045
0.29	72.416	-26418	2110.5	-0.29817	0.91744	0.26938
0.292	72.388	-26421	2110.5	-0.29778	0.91607	0.27035
0.294	72.382	-26424	2110.6	-0.29739	0.91471	0.27133
0.296	72.392	-26423	2110.6	-0.297	0.91334	0.2723
0.298	72.422	-26423	2110.7	-0.29661	0.91197	0.27328
0.3	72.456	-26419	2110.7	-0.29622	0.91061	0.27426
0.302	72.47	-26414	2110.7	-0.29563	0.9108	0.27328
0.304	72.459	-26415	2110.8	-0.29504	0.911	0.2723
0.306	72.431	-26416	2110.8	-0.29446	0.91119	0.27133
0.308	72.399	-26416	2110.8	-0.29387	0.91139	0.27035
0.31	72.38	-26415	2110.9	-0.29329	0.91158	0.26938
0.312	72.379	-26417	2110.9	-0.29436	0.91178	0.27045
0.314	72.4	-26420	2111	-0.29544	0.91197	0.27152
0.316	72.439	-26421	2111	-0.29651	0.91217	0.2726
0.318	72.462	-26421	2111.1	-0.29758	0.91236	0.27367
0.32	72.461	-26428	2111.1	-0.29866	0.91256	0.27474
0.322	72.441	-26434	2111.1	-0.29866	0.91236	0.27484
0.324	72.409	-26427	2111.1	-0.29866	0.91217	0.27494
0.326	72.388	-26420	2111.2	-0.29866	0.91197	0.27504
0.328	72.384	-26424	2111.2	-0.29866	0.91178	0.27513
0.33	72.392	-26429	2111.3	-0.29866	0.91158	0.27523
0.332	72.423	-26431	2111.4	-0.29875	0.91256	0.27426
0.334	72.448	-26433	2111.4	-0.29885	0.91354	0.27328
0.336	72.452	-26423	2111.4	-0.29895	0.91451	0.2723
0.338	72.438	-26413	2111.4	-0.29905	0.91549	0.27133
0.34	72.403	-26411	2111.4	-0.29914	0.91646	0.27035
0.342	72.364	-26410	2111.5	-0.29768	0.91578	0.27025
0.344	72.347	-26412	2111.5	-0.29622	0.9151	0.27016
0.346	72.357	-26414	2111.5	-0.29475	0.91441	0.27006
0.348	72.374	-26421	2111.6	-0.29329	0.91373	0.26996
0.35	72.403	-26428	2111.6	-0.29182	0.91305	0.26986
0.352	72.422	-26423	2111.6	-0.293	0.91373	0.27006
0.354	72.415	-26418	2111.7	-0.29417	0.91441	0.27025
0.356	72.387	-26420	2111.7	-0.29534	0.9151	0.27045
0.358	72.352	-26421	2111.7	-0.29651	0.91578	0.27064
0.36	72.335	-26419	2111.7	-0.29768	0.91646	0.27084
0.362	72.34	-26418	2111.7	-0.2968	0.91559	0.27084
0.364	72.357	-26419	2111.7	-0.29592	0.91471	0.27084
0.366	72.382	-26419	2111.7	-0.29504	0.91383	0.27084
0.368	72.4	-26424	2111.7	-0.29417	0.91295	0.27084
0.37	72.388	-26429	2111.7	-0.29329	0.91207	0.27084
0.372	72.359	-26419	2111.7	-0.2928	0.91305	0.27016
0.374	72.339	-26409	2111.7	-0.29231	0.91402	0.26947
0.376	72.326	-26410	2111.8	-0.29182	0.915	0.26879
0.378	72.324	-26412	2111.8	-0.29134	0.91598	0.26811
0.38	72.343	-26417	2111.8	-0.29085	0.91695	0.26742
0.382	72.374	-26423	2111.8	-0.29065	0.91666	0.26713
0.384	72.401	-26419	2111.8	-0.29046	0.91637	0.26684
0.386	72.407	-26414	2111.8	-0.29026	0.91607	0.26655
0.388	72.384	-26418	2111.8	-0.29007	0.91578	0.26625
0.39	72.348	-26421	2111.8	-0.28987	0.91549	0.26596
0.392	72.318	-26422	2111.8	-0.28987	0.91539	0.26576
0.394	72.307	-26422	2111.8	-0.28987	0.91529	0.26557
0.396	72.309	-26424	2111.8	-0.28987	0.9152	0.26537
0.398	72.343	-26425	2111.8	-0.28987	0.9151	0.26518
0.4	72.39	-26426	2111.8	-0.28987	0.915	0.26498
0.402	72.416	-26427	2111.7	-0.28997	0.9149	0.26567
0.404	72.414	-26425	2111.7	-0.29007	0.9148	0.26635
0.406	72.385	-26424	2111.6	-0.29016	0.91471	0.26703
0.408	72.362	-26427	2111.6	-0.29026	0.91461	0.26772
0.41	72.36	-26431	2111.6	-0.29036	0.91451	0.2684
0.412	72.368	-26426	2111.6	-0.29036	0.9148	0.26791
0.414	72.397	-26421	2111.6	-0.29036	0.9151	0.26742
0.416	72.435	-26424	2111.5	-0.29036	0.91539	0.26694
0.418	72.456	-26428	2111.5	-0.29036	0.91568	0.26645
0.42	72.45	-26425	2111.5	-0.29036	0.91598	0.26596
0.422	72.424	-26423	2111.5	-0.29016	0.91529	0.26664
0.424	72.397	-26426	2111.4	-0.28997	0.91461	0.26733
0.426	72.38	-26429	2111.4	-0.28977	0.91393	0.26801
0.428	72.381	-26430	2111.4	-0.28958	0.91324	0.26869
0.43	72.398	-26430	2111.4	-0.28938	0.91256	0.26938
0.432	72.429	-26431	2111.3	-0.29056	0.91295	0.2684
0.434	72.455	-26432	2111.3	-0.29173	0.91334	0.26742
0.436	72.46	-26433	2111.3	-0.2929	0.91373	0.26645
0.438	72.448	-26433	2111.3	-0.29407	0.91412	0.26547
0.44	72.421	-26428	2111.2	-0.29524	0.91451	0.2645
0.442	72.388	-26424	2111.2	-0.29417	0.91461	0.26547
0.444	72.375	-26425	2111.2	-0.29309	0.91471	0.26645
0.446	72.386	-26425	2111.1	-0.29202	0.9148	0.26742
0.448	72.41	-26427	2111.1	-0.29095	0.9149	0.2684
0.45	72.44	-26428	2111.1	-0.28987	0.915	0.26938
0.452	72.457	-26426	2111.1	-0.29046	0.9149	0.26879
0.454	72.451	-26425	2111.1	-0.29104	0.9148	0.2682
0.456	72.429	-26424	2111.1	-0.29163	0.91471	0.26762
0.458	72.402	-26423	2111	-0.29221	0.91461	0.26703
0.46	72.386	-26426	2110.9	-0.2928	0.91451	0.26645
0.462	72.392	-26428	2110.9	-0.29231	0.9148	0.26635
0.464	72.409	-26435	2110.8	-0.29182	0.9151	0.26625
0.466	72.44	-26441	2110.8	-0.29134	0.91539	0.26616
0.468	72.462	-26441	2110.8	-0.29085	0.91568	0.26606
0.47	72.462	-26442	2110.7	-0.29036	0.91598	0.26596
0.472	72.445	-26435	2110.7	-0.29046	0.91471	0.26635
0.474	72.419	-26429	2110.7	-0.29056	0.91344	0.26674
0.476	72.395	-26431	2110.6	-0.29065	0.91217	0.26713
0.478	72.393	-26433	2110.6	-0.29075	0.9109	0.26752
0.48	72.418	-26432	2110.5	-0.29085	0.90963	0.26791
0.482	72.455	-26431	2110.5	-0.29104	0.91051	0.26801
0.484	72.487	-26436	2110.5	-0.29124	0.91139	0.26811
0.486	72.485	-26440	2110.4	-0.29143	0.91227	0.2682
0.488	72.454	-26442	2110.4	-0.29163	0.91315	0.2683
0.49	72.403	-26444	2110.4	-0.29182	0.91402	0.2684
0.492	72.345	-26444	2110.4	-0.29202	0.91344	0.2686
0.494	72.28	-26443	2110.3	-0.29221	0.91285	0.26879
0.496	72.227	-26440	2110.3	-0.29241	0.91227	0.26899
0.498	72.207	-26437	2110.2	-0.2926	0.91168	0.26918
0.5	72.187	-26441	2110.2	-0.2928	0.9111	0.26938
0.502	72.14	-26445	2110.2	-0.29329	0.9108	0.27045
0.504	72.05	-26442	2110.2	-0.29378	0.91051	0.27152
0.506	71.941	-26438	2110.1	-0.29426	0.91022	0.2726
0.508	71.834	-26445	2110.1	-0.29475	0.90992	0.27367
0.51	71.753	-26452	2110	-0.29524	0.90963	0.27474
0.512	71.712	-26447	2110	-0.29514	0.90992	0.27426
0.514	71.709	-26443	2110	-0.29504	0.91022	0.27377
0.516	71.74	-26444	2110	-0.29495	0.91051	0.27328
0.518	71.775	-26446	2110	-0.29485	0.9108	0.27279
0.52	71.811	-26445	2110	-0.29475	0.9111	0.2723
0.522	71.827	-26444	2109.9	-0.29436	0.91129	0.27143
0.524	71.84	-26448	2109.8	-0.29397	0.91149	0.27055
0.526	71.889	-26452	2109.7	-0.29358	0.91168	0.26967
0.528	71.986	-26449	2109.7	-0.29319	0.91188	0.26879
0.53	72.123	-26446	2109.8	-0.2928	0.91207	0.26791
0.532	72.271	-26450	2109.7	-0.29397	0.91246	0.26869
0.534	72.379	-26454	2109.7	-0.29514	0.91285	0.26947
0.536	72.426	-26458	2109.6	-0.29631	0.91324	0.27025
0.538	72.417	-26463	2109.6	-0.29748	0.91363	0.27104
0.54	72.378	-26460	2109.6	-0.29866	0.91402	0.27182
0.542	72.352	-26457	2109.6	-0.29709	0.91315	0.27201
0.544	72.35	-26456	2109.5	-0.29553	0.91227	0.27221
0.546	72.368	-26455	2109.5	-0.29397	0.91139	0.2724
0.548	72.4	-26452	2109.5	-0.29241	0.91051	0.2726
0.55	72.432	-26449	2109.5	-0.29085	0.90963	0.27279
0.552	72.446	-26451	2109.5	-0.29114	0.91032	0.27191
0.554	72.437	-26454	2109.6	-0.29143	0.911	0.27104
0.556	72.409	-26458	2109.6	-0.29173	0.91168	0.27016
0.558	72.373	-26462	2109.6	-0.29202	0.91236	0.26928
0.56	72.345	-26463	2109.7	-0.29231	0.91305	0.2684
0.562	72.341	-26465	2109.6	-0.2926	0.91295	0.26869
0.564	72.355	-26460	2109.6	-0.2929	0.91285	0.26899
0.566	72.385	-26454	2109.6	-0.29319	0.91276	0.26928
0.568	72.406	-26457	2109.6	-0.29348	0.91266	0.26957
0.57	72.4	-26460	2109.6	-0.29378	0.91256	0.26986
0.572	72.379	-26457	2109.6	-0.29436	0.91276	0.27055
0.574	72.341	-26455	2109.6	-0.29495	0.91295	0.27123
0.576	72.309	-26457	2109.6	-0.29553	0.91315	0.27191
0.578	72.305	-26458	2109.6	-0.29612	0.91334	0.2726
0.58	72.321	-26461	2109.6	-0.2967	0.91354	0.27328
0.582	72.352	-26464	2109.7	-0.29592	0.91295	0.27299
0.584	72.375	-26465	2109.7	-0.29514	0.91236	0.27269
0.586	72.382	-26466	2109.7	-0.29436	0.91178	0.2724
0.588	72.361	-26467	2109.7	-0.29358	0.91119	0.27211
0.59	72.317	-26468	2109.7	-0.2928	0.91061	0.27182
0.592	72.283	-26468	2109.7	-0.29465	0.91119	0.2723
0.594	72.271	-26469	2109.7	-0.29651	0.91178	0.27279
0.596	72.28	-26463	2109.7	-0.29836	0.91236	0.27328
0.598	72.308	-26457	2109.6	-0.30022	0.91295	0.27377
0.6	72.342	-26462	2109.6	-0.30207	0.91354	0.27426
0.602	72.372	-26467	2109.6	-0.30041	0.91334	0.27377
0.604	72.371	-26469	2109.6	-0.29875	0.91315	0.27328
0.606	72.34	-26471	2109.6	-0.29709	0.91295	0.27279
0.608	72.306	-26468	2109.6	-0.29544	0.91276	0.2723
0.61	72.285	-26465	2109.5	-0.29378	0.91256	0.27182
0.612	72.281	-26467	2109.6	-0.29358	0.91236	0.27152
0.614	72.296	-26469	2109.6	-0.29339	0.91217	0.27123
0.616	72.324	-26469	2109.6	-0.29319	0.91197	0.27094
0.618	72.345	-26469	2109.7	-0.293	0.91178	0.27064
0.62	72.347	-26470	2109.7	-0.2928	0.91158	0.27035
0.622	72.328	-26472	2109.7	-0.29319	0.91129	0.27084
0.624	72.291	-26473	2109.7	-0.29358	0.911	0.27133
0.626	72.264	-26475	2109.7	-0.29397	0.91071	0.27182
0.628	72.259	-26467	2109.8	-0.29436	0.91041	0.2723
0.63	72.273	-26459	2109.8	-0.29475	0.91012	0.27279
0.632	72.306	-26461	2109.9	-0.29456	0.91032	0.27279
0.634	72.331	-26463	2109.9	-0.29436	0.91051	0.27279
0.636	72.335	-26464	2109.9	-0.29417	0.91071	0.27279
0.638	72.319	-26465	2110	-0.29397	0.9109	0.27279
0.64	72.291	-26468	2110.1	-0.29378	0.9111	0.27279
0.642	72.259	-26471	2110.2	-0.29348	0.91149	0.27201
0.644	72.238	-26470	2110.2	-0.29319	0.91188	0.27123
0.646	72.239	-26469	2110.3	-0.2929	0.91227	0.27045
0.648	72.266	-26472	2110.4	-0.2926	0.91266	0.26967
0.65	72.292	-26476	2110.4	-0.29231	0.91305	0.26889
0.652	72.304	-26478	2110.5	-0.29368	0.91422	0.26801
0.654	72.288	-26481	2110.5	-0.29504	0.91539	0.26713
0.656	72.257	-26475	2110.6	-0.29641	0.91656	0.26625
0.658	72.212	-26470	2110.6	-0.29778	0.91773	0.26537
0.66	72.183	-26470	2110.7	-0.29914	0.9189	0.2645
0.662	72.187	-26470	2110.7	-0.29846	0.9191	0.26508
0.664	72.203	-26471	2110.7	-0.29778	0.91929	0.26567
0.666	72.236	-26472	2110.7	-0.29709	0.91949	0.26625
0.668	72.259	-26473	2110.6	-0.29641	0.91968	0.26684
0.67	72.256	-26474	2110.6	-0.29573	0.91988	0.26742
0.672	72.234	-26474	2110.6	-0.29534	0.9192	0.26733
0.674	72.196	-26474	2110.6	-0.29495	0.91851	0.26723
0.676	72.165	-26472	2110.6	-0.29456	0.91783	0.26713
0.678	72.161	-26470	2110.6	-0.29417	0.91715	0.26703
0.68	72.177	-26474	2110.6	-0.29378	0.91646	0.26694
0.682	72.202	-26479	2110.6	-0.29358	0.91578	0.26703
0.684	72.224	-26481	2110.5	-0.29339	0.9151	0.26713
0.686	72.221	-26483	2110.5	-0.29319	0.91441	0.26723
0.688	72.197	-26481	2110.4	-0.293	0.91373	0.26733
0.69	72.154	-26480	2110.4	-0.2928	0.91305	0.26742
0.692	72.121	-26474	2110.4	-0.29241	0.91334	0.26791
0.694	72.104	-26468	2110.4	-0.29202	0.91363	0.2684
0.696	72.11	-26466	2110.4	-0.29163	0.91393	0.26889
0.698	72.134	-26464	2110.4	-0.29124	0.91422	0.26938
0.7	72.163	-26465	2110.4	-0.29085	0.91451	0.26986
0.702	72.184	-26466	2110.4	-0.29104	0.91393	0.26986
0.704	72.177	-26474	2110.4	-0.29124	0.91334	0.26986
0.706	72.149	-26483	2110.4	-0.29143	0.91276	0.26986
0.708	72.119	-26480	2110.4	-0.29163	0.91217	0.26986
0.71	72.095	-26476	2110.5	-0.29182	0.91158	0.26986
0.712	72.094	-26476	2110.5	-0.29153	0.91217	0.26908
0.714	72.108	-26475	2110.5	-0.29124	0.91276	0.2683
0.716	72.135	-26474	2110.6	-0.29095	0.91334	0.26752
0.718	72.162	-26473	2110.7	-0.29065	0.91393	0.26674
0.72	72.164	-26478	2110.9	-0.29036	0.91451	0.26596
0.722	72.138	-26483	2110.9	-0.29153	0.91393	0.26742
0.724	72.115	-26484	2111	-0.2927	0.91334	0.26889
0.726	72.095	-26484	2111.1	-0.29387	0.91276	0.27035
0.728	72.088	-26481	2111.3	-0.29504	0.91217	0.27182
0.73	72.105	-26479	2111.4	-0.29622	0.91158	0.27328
0.732	72.14	-26478	2111.6	-0.29602	0.91129	0.27348
0.734	72.176	-26478	2111.7	-0.29583	0.911	0.27367
0.736	72.187	-26474	2111.9	-0.29563	0.91071	0.27387
0.738	72.172	-26470	2112.1	-0.29544	0.91041	0.27406
0.74	72.141	-26475	2112.2	-0.29524	0.91012	0.27426
0.742	72.115	-26479	2112.4	-0.29553	0.91041	0.27426
0.744	72.109	-26475	2112.7	-0.29583	0.91071	0.27426
0.746	72.123	-26470	2112.9	-0.29612	0.911	0.27426
0.748	72.154	-26470	2113.1	-0.29641	0.91129	0.27426
0.75	72.184	-26470	2113.4	-0.2967	0.91158	0.27426
0.752	72.206	-26466	2113.6	-0.2968	0.9108	0.27455
0.754	72.217	-26462	2113.8	-0.2969	0.91002	0.27484
0.756	72.198	-26457	2114.1	-0.297	0.90924	0.27513
0.758	72.161	-26453	2114.4	-0.29709	0.90846	0.27543
0.76	72.15	-26453	2114.7	-0.29719	0.90768	0.27572
0.762	72.162	-26453	2114.9	-0.29729	0.90827	0.27631
0.764	72.192	-26454	2115.2	-0.29739	0.90885	0.27689
0.766	72.234	-26455	2115.5	-0.29748	0.90944	0.27748
0.768	72.269	-26457	2115.9	-0.29758	0.91002	0.27806
0.77	72.279	-26458	2116.2	-0.29768	0.91061	0.27865
0.772	72.264	-26458	2116.5	-0.29748	0.91022	0.27748
0.774	72.231	-26457	2116.8	-0.29729	0.90983	0.27631
0.776	72.207	-26455	2117.1	-0.29709	0.90944	0.27513
0.778	72.206	-26454	2117.4	-0.2969	0.90905	0.27396
0.78	72.236	-26452	2117.7	-0.2967	0.90866	0.27279
0.782	72.283	-26451	2117.9	-0.29739	0.90953	0.27328
0.784	72.316	-26449	2118.2	-0.29807	0.91041	0.27377
0.786	72.324	-26448	2118.4	-0.29875	0.91129	0.27426
0.788	72.32	-26447	2118.7	-0.29944	0.91217	0.27474
0.79	72.305	-26446	2119	-0.30012	0.91305	0.27523
0.792	72.279	-26447	2119.2	-0.29846	0.91266	0.27494
0.794	72.27	-26448	2119.4	-0.2968	0.91227	0.27465
0.796	72.28	-26447	2119.5	-0.29514	0.91188	0.27435
0.798	72.295	-26447	2119.7	-0.29348	0.91149	0.27406
0.8	72.324	-26440	2119.9	-0.29182	0.9111	0.27377
0.802	72.355	-26433	2120.1	-0.2929	0.91256	0.27318
0.804	72.361	-26430	2120.2	-0.29397	0.91402	0.2726
0.806	72.341	-26428	2120.4	-0.29504	0.91549	0.27201
0.808	72.318	-26431	2120.5	-0.29612	0.91695	0.27143
0.81	72.291	-26435	2120.6	-0.29719	0.91842	0.27084
0.812	72.297	-26432	2120.7	-0.29592	0.91783	0.27016
0.814	72.325	-26430	2120.8	-0.29465	0.91724	0.26947
0.816	72.354	-26429	2120.9	-0.29339	0.91666	0.26879
0.818	72.374	-26428	2120.9	-0.29212	0.91607	0.26811
0.82	72.371	-26425	2121	-0.29085	0.91549	0.26742
0.822	72.347	-26421	2121.1	-0.29114	0.91549	0.26713
0.824	72.316	-26421	2121.2	-0.29143	0.91549	0.26684
0.826	72.291	-26422	2121.3	-0.29173	0.91549	0.26655
0.828	72.292	-26422	2121.4	-0.29202	0.91549	0.26625
0.83	72.315	-26422	2121.4	-0.29231	0.91549	0.26596
0.832	72.34	-26416	2121.4	-0.29319	0.91598	0.26586
0.834	72.375	-26410	2121.4	-0.29407	0.91646	0.26576
0.836	72.386	-26411	2121.4	-0.29495	0.91695	0.26567
0.838	72.375	-26412	2121.5	-0.29583	0.91744	0.26557
0.84	72.342	-26418	2121.5	-0.2967	0.91793	0.26547
0.842	72.309	-26423	2121.5	-0.29622	0.91734	0.26547
0.844	72.299	-26422	2121.4	-0.29573	0.91676	0.26547
0.846	72.313	-26422	2121.4	-0.29524	0.91617	0.26547
0.848	72.339	-26422	2121.3	-0.29475	0.91559	0.26547
0.85	72.372	-26421	2121.3	-0.29426	0.915	0.26547
0.852	72.383	-26423	2121.3	-0.29426	0.91461	0.26606
0.854	72.365	-26423	2121.2	-0.29426	0.91422	0.26664
0.856	72.335	-26420	2121.2	-0.29426	0.91383	0.26723
0.858	72.309	-26417	2121.1	-0.29426	0.91344	0.26781
0.86	72.297	-26417	2121.1	-0.29426	0.91305	0.2684
0.862	72.305	-26416	2121	-0.29397	0.91305	0.26801
0.864	72.324	-26416	2121	-0.29368	0.91305	0.26762
0.866	72.348	-26416	2120.9	-0.29339	0.91305	0.26723
0.868	72.366	-26417	2120.9	-0.29309	0.91305	0.26684
0.87	72.365	-26419	2120.9	-0.2928	0.91305	0.26645
0.872	72.341	-26415	2120.8	-0.2927	0.91295	0.26684
0.874	72.309	-26411	2120.8	-0.2926	0.91285	0.26723
0.876	72.285	-26408	2120.7	-0.29251	0.91276	0.26762
0.878	72.276	-26406	2120.7	-0.29241	0.91266	0.26801
0.88	72.29	-26411	2120.6	-0.29231	0.91256	0.2684
0.882	72.32	-26416	2120.6	-0.2929	0.91305	0.2685
0.884	72.349	-26413	2120.6	-0.29348	0.91354	0.2686
0.886	72.365	-26411	2120.6	-0.29407	0.91402	0.26869
0.888	72.357	-26411	2120.6	-0.29465	0.91451	0.26879
0.89	72.325	-26410	2120.6	-0.29524	0.915	0.26889
0.892	72.289	-26419	2120.5	-0.29553	0.9152	0.2684
0.894	72.272	-26427	2120.5	-0.29583	0.91539	0.26791
0.896	72.283	-26427	2120.5	-0.29612	0.91559	0.26742
0.898	72.323	-26427	2120.5	-0.29641	0.91578	0.26694
0.9	72.353	-26424	2120.5	-0.2967	0.91598	0.26645
0.902	72.371	-26422	2120.5	-0.29768	0.91705	0.26684
0.904	72.361	-26421	2120.4	-0.29866	0.91812	0.26723
0.906	72.332	-26421	2120.4	-0.29963	0.9192	0.26762
0.908	72.295	-26420	2120.4	-0.30061	0.92027	0.26801
0.91	72.267	-26420	2120.3	-0.30158	0.92134	0.2684
0.912	72.266	-26418	2120.3	-0.30032	0.91968	0.26869
0.914	72.295	-26415	2120.3	-0.29905	0.91803	0.26899
0.916	72.339	-26419	2120.2	-0.29778	0.91637	0.26928
0.918	72.361	-26422	2120.1	-0.29651	0.91471	0.26957
0.92	72.358	-26421	2120.1	-0.29524	0.91305	0.26986
0.922	72.333	-26421	2120.1	-0.29544	0.91285	0.26986
0.924	72.316	-26421	2120.1	-0.29563	0.91266	0.26986
0.926	72.294	-26421	2120	-0.29583	0.91246	0.26986
0.928	72.291	-26419	2120	-0.29602	0.91227	0.26986
0.93	72.301	-26416	2119.9	-0.29622	0.91207	0.26986
0.932	72.332	-26415	2119.9	-0.2969	0.91236	0.27055
0.934	72.357	-26414	2119.9	-0.29758	0.91266	0.27123
0.936	72.364	-26420	2119.9	-0.29827	0.91295	0.27191
0.938	72.354	-26426	2119.8	-0.29895	0.91324	0.2726
0.94	72.325	-26429	2119.8	-0.29963	0.91354	0.27328
0.942	72.298	-26433	2119.8	-0.29934	0.91324	0.27318
0.944	72.283	-26433	2119.9	-0.29905	0.91295	0.27308
0.946	72.291	-26434	2119.9	-0.29875	0.91266	0.27299
0.948	72.318	-26435	2119.9	-0.29846	0.91236	0.27289
0.95	72.348	-26437	2119.9	-0.29817	0.91207	0.27279
0.952	72.364	-26432	2119.9	-0.29768	0.91178	0.27279
0.954	72.36	-26427	2119.9	-0.29719	0.91149	0.27279
0.956	72.336	-26429	2119.9	-0.2967	0.91119	0.27279
0.958	72.301	-26432	2119.9	-0.29622	0.9109	0.27279
0.96	72.278	-26432	2119.9	-0.29573	0.91061	0.27279
0.962	72.281	-26433	2119.9	-0.29553	0.91139	0.2723
0.964	72.3	-26434	2119.9	-0.29534	0.91217	0.27182
0.966	72.323	-26434	2119.9	-0.29514	0.91295	0.27133
0.968	72.344	-26433	2119.9	-0.29495	0.91373	0.27084
0.97	72.346	-26431	2119.9	-0.29475	0.91451	0.27035
0.972	72.324	-26431	2120	-0.29583	0.9151	0.27064
0.974	72.293	-26430	2120	-0.2969	0.91568	0.27094
0.976	72.275	-26433	2120	-0.29797	0.91627	0.27123
0.978	72.285	-26436	2120.1	-0.29905	0.91685	0.27152
0.98	72.307	-26430	2120.1	-0.30012	0.91744	0.27182
0.982	72.328	-26424	2120.1	-0.29885	0.91764	0.27123
0.984	72.351	-26434	2120.1	-0.29758	0.91783	0.27064
0.986	72.356	-26444	2120.1	-0.29631	0.91803	0.27006
0.988	72.34	-26440	2120.2	-0.29504	0.91822	0.26947
0.99	72.318	-26435	2120.2	-0.29378	0.91842	0.26889
0.992	72.3	-26430	2120.2	-0.29329	0.91783	0.26869
0.994	72.279	-26425	2120.3	-0.2928	0.91724	0.2685
0.996	72.285	-26430	2120.4	-0.29231	0.91666	0.2683
0.998	72.329	-26436	2120.4	-0.29182	0.91607	0.26811
1	72.359	-26437	2120.5	-0.29134	0.91549	0.26791
1.002	72.37	-26438	2120.6	-0.29134	0.91539	0.2686
1.004	72.356	-26436	2120.7	-0.29134	0.91529	0.26928
1.006	72.327	-26435	2120.8	-0.29134	0.9152	0.26996
1.008	72.295	-26439	2120.8	-0.29134	0.9151	0.27064
1.01	72.267	-26443	2120.9	-0.29134	0.915	0.27133
1.012	72.273	-26440	2121	-0.29124	0.9152	0.27113
1.014	72.304	-26436	2121.1	-0.29114	0.91539	0.27094
1.016	72.341	-26434	2121.2	-0.29104	0.91559	0.27074
1.018	72.355	-26433	2121.2	-0.29095	0.91578	0.27055
1.02	72.344	-26436	2121.3	-0.29085	0.91598	0.27035
1.022	72.322	-26438	2121.4	-0.29085	0.91539	0.27006
1.024	72.292	-26438	2121.5	-0.29085	0.9148	0.26977
1.026	72.27	-26438	2121.6	-0.29085	0.91422	0.26947
1.028	72.267	-26443	2121.7	-0.29085	0.91363	0.26918
1.03	72.281	-26448	2121.7	-0.29085	0.91305	0.26889
1.032	72.312	-26444	2121.8	-0.29095	0.91305	0.26938
1.034	72.336	-26441	2121.9	-0.29104	0.91305	0.26986
1.036	72.337	-26438	2122	-0.29114	0.91305	0.27035
1.038	72.321	-26435	2122.1	-0.29124	0.91305	0.27084
1.04	72.292	-26436	2122.2	-0.29134	0.91305	0.27133
1.042	72.261	-26437	2122.4	-0.29134	0.91315	0.27123
1.044	72.236	-26438	2122.5	-0.29134	0.91324	0.27113
1.046	72.235	-26438	2122.6	-0.29134	0.91334	0.27104
1.048	72.266	-26440	2122.7	-0.29134	0.91344	0.27094
1.05	72.295	-26441	2122.7	-0.29134	0.91354	0.27084
1.052	72.308	-26446	2122.8	-0.29173	0.91412	0.26947
1.054	72.306	-26450	2123	-0.29212	0.91471	0.26811
1.056	72.291	-26445	2123	-0.29251	0.91529	0.26674
1.058	72.266	-26441	2123.1	-0.2929	0.91588	0.26537
1.06	72.238	-26439	2123.2	-0.29329	0.91646	0.26401
1.062	72.236	-26438	2123.3	-0.29221	0.91617	0.26528
1.064	72.258	-26437	2123.3	-0.29114	0.91588	0.26655
1.066	72.278	-26436	2123.4	-0.29007	0.91559	0.26781
1.068	72.293	-26445	2123.5	-0.28899	0.91529	0.26908
1.07	72.293	-26453	2123.6	-0.28792	0.915	0.27035
1.072	72.272	-26442	2123.7	-0.28753	0.91588	0.26977
1.074	72.244	-26431	2123.7	-0.28714	0.91676	0.26918
1.076	72.216	-26431	2123.8	-0.28675	0.91764	0.2686
1.078	72.215	-26431	2123.9	-0.28636	0.91851	0.26801
1.08	72.245	-26429	2124	-0.28597	0.91939	0.26742
1.082	72.29	-26428	2124	-0.28694	0.91812	0.26723
1.084	72.328	-26431	2124.1	-0.28792	0.91685	0.26703
1.086	72.335	-26434	2124.1	-0.2889	0.91559	0.26684
1.088	72.327	-26435	2124.1	-0.28987	0.91432	0.26664
1.09	72.314	-26436	2124.2	-0.29085	0.91305	0.26645
1.092	72.307	-26437	2124.2	-0.29182	0.91324	0.26616
1.094	72.308	-26439	2124.3	-0.2928	0.91344	0.26586
1.096	72.317	-26430	2124.3	-0.29378	0.91363	0.26557
1.098	72.342	-26422	2124.3	-0.29475	0.91383	0.26528
1.1	72.378	-26431	2124.3	-0.29573	0.91402	0.26498
1.102	72.403	-26439	2124.4	-0.29612	0.91441	0.2643
1.104	72.396	-26433	2124.4	-0.29651	0.9148	0.26362
1.106	72.371	-26427	2124.4	-0.2969	0.9152	0.26293
1.108	72.338	-26430	2124.4	-0.29729	0.91559	0.26225
1.11	72.314	-26432	2124.4	-0.29768	0.91598	0.26157
1.112	72.317	-26436	2124.4	-0.29758	0.91607	0.26215
1.114	72.342	-26440	2124.4	-0.29748	0.91617	0.26274
1.116	72.372	-26440	2124.4	-0.29739	0.91627	0.26332
1.118	72.388	-26439	2124.4	-0.29729	0.91637	0.26391
1.12	72.391	-26433	2124.4	-0.29719	0.91646	0.2645
1.122	72.375	-26428	2124.3	-0.29768	0.91666	0.26411
1.124	72.348	-26435	2124.3	-0.29817	0.91685	0.26372
1.126	72.323	-26442	2124.3	-0.29866	0.91705	0.26332
1.128	72.305	-26435	2124.3	-0.29914	0.91724	0.26293
1.13	72.314	-26427	2124.3	-0.29963	0.91744	0.26254
1.132	72.348	-26428	2124.2	-0.29963	0.91754	0.26206
1.134	72.379	-26429	2124.1	-0.29963	0.91764	0.26157
1.136	72.391	-26432	2124	-0.29963	0.91773	0.26108
1.138	72.382	-26435	2123.9	-0.29963	0.91783	0.26059
1.14	72.353	-26433	2123.9	-0.29963	0.91793	0.2601
1.142	72.324	-26432	2123.9	-0.29973	0.91783	0.2603
1.144	72.307	-26435	2123.8	-0.29983	0.91773	0.26049
1.146	72.315	-26437	2123.8	-0.29992	0.91764	0.26069
1.148	72.344	-26430	2123.7	-0.30002	0.91754	0.26088
1.15	72.38	-26422	2123.7	-0.30012	0.91744	0.26108
1.152	72.398	-26422	2123.6	-0.30051	0.91744	0.26147
1.154	72.397	-26422	2123.5	-0.3009	0.91744	0.26186
1.156	72.39	-26430	2123.5	-0.30129	0.91744	0.26225
1.158	72.369	-26437	2123.4	-0.30168	0.91744	0.26264
1.16	72.347	-26439	2123.4	-0.30207	0.91744	0.26303
1.162	72.349	-26440	2123.3	-0.30168	0.91724	0.26293
1.164	72.369	-26441	2123.2	-0.30129	0.91705	0.26284
1.166	72.402	-26442	2123.1	-0.3009	0.91685	0.26274
1.168	72.421	-26439	2123.1	-0.30051	0.91666	0.26264
1.17	72.4	-26437	2123	-0.30012	0.91646	0.26254
1.172	72.338	-26440	2123	-0.29973	0.91666	0.26323
1.174	72.26	-26442	2123	-0.29934	0.91685	0.26391
1.176	72.187	-26446	2122.9	-0.29895	0.91705	0.26459
1.178	72.139	-26450	2122.9	-0.29856	0.91724	0.26528
1.18	72.1	-26448	2122.8	-0.29817	0.91744	0.26596
1.182	72.077	-26445	2122.7	-0.29631	0.91656	0.26684
1.184	72.038	-26442	2122.6	-0.29446	0.91568	0.26772
1.186	71.967	-26439	2122.6	-0.2926	0.9148	0.2686
1.188	71.888	-26444	2122.5	-0.29075	0.91393	0.26947
1.19	71.81	-26448	2122.5	-0.2889	0.91305	0.27035
1.192	71.743	-26442	2122.4	-0.29016	0.91227	0.27084
1.194	71.707	-26437	2122.3	-0.29143	0.91149	0.27133
1.196	71.725	-26443	2122.3	-0.2927	0.91071	0.27182
1.198	71.768	-26449	2122.2	-0.29397	0.90992	0.2723
1.2	71.832	-26446	2122.2	-0.29524	0.90914	0.27279
1.202	71.885	-26443	2122.2	-0.29436	0.90944	0.27308
1.204	71.92	-26440	2122.1	-0.29348	0.90973	0.27338
1.206	71.96	-26438	2122	-0.2926	0.91002	0.27367
1.208	72.016	-26445	2122	-0.29173	0.91032	0.27396
1.21	72.101	-26451	2121.9	-0.29085	0.91061	0.27426
1.212	72.208	-26450	2121.8	-0.29173	0.91119	0.27348
1.214	72.31	-26449	2121.8	-0.2926	0.91178	0.27269
1.216	72.373	-26451	2121.7	-0.29348	0.91236	0.27191
1.218	72.386	-26453	2121.7	-0.29436	0.91295	0.27113
1.22	72.374	-26450	2121.6	-0.29524	0.91354	0.27035
1.222	72.351	-26448	2121.5	-0.29553	0.91305	0.27074
1.224	72.328	-26444	2121.4	-0.29583	0.91256	0.27113
1.226	72.314	-26441	2121.4	-0.29612	0.91207	0.27152
1.228	72.314	-26440	2121.4	-0.29641	0.91158	0.27191
1.23	72.335	-26440	2121.5	-0.2967	0.9111	0.2723
1.232	72.363	-26440	2121.4	-0.29622	0.91168	0.27133
1.234	72.385	-26441	2121.3	-0.29573	0.91227	0.27035
1.236	72.388	-26444	2121.3	-0.29524	0.91285	0.26938
1.238	72.37	-26447	2121.4	-0.29475	0.91344	0.2684
1.24	72.335	-26447	2121.4	-0.29426	0.91402	0.26742
1.242	72.304	-26448	2121.4	-0.29407	0.91363	0.26889
1.244	72.286	-26452	2121.3	-0.29387	0.91324	0.27035
1.246	72.287	-26456	2121.3	-0.29368	0.91285	0.27182
1.248	72.312	-26455	2121.2	-0.29348	0.91246	0.27328
1.25	72.352	-26453	2121.2	-0.29329	0.91207	0.27474
1.252	72.37	-26457	2121.1	-0.29309	0.91217	0.27396
1.254	72.355	-26460	2121.1	-0.2929	0.91227	0.27318
1.256	72.322	-26455	2121.1	-0.2927	0.91236	0.2724
1.258	72.288	-26450	2121	-0.29251	0.91246	0.27162
1.26	72.256	-26450	2120.9	-0.29231	0.91256	0.27084
1.262	72.258	-26449	2120.9	-0.293	0.91354	0.27104
1.264	72.286	-26451	2120.9	-0.29368	0.91451	0.27123
1.266	72.322	-26453	2120.8	-0.29436	0.91549	0.27143
1.268	72.346	-26449	2120.8	-0.29504	0.91646	0.27162
1.27	72.345	-26445	2120.7	-0.29573	0.91744	0.27182
1.272	72.321	-26446	2120.7	-0.29612	0.91646	0.27221
1.274	72.287	-26448	2120.7	-0.29651	0.91549	0.2726
1.276	72.261	-26455	2120.7	-0.2969	0.91451	0.27299
1.278	72.258	-26462	2120.6	-0.29729	0.91354	0.27338
1.28	72.266	-26460	2120.5	-0.29768	0.91256	0.27377
1.282	72.285	-26459	2120.5	-0.29797	0.91266	0.27387
1.284	72.309	-26458	2120.4	-0.29827	0.91276	0.27396
1.286	72.329	-26458	2120.4	-0.29856	0.91285	0.27406
1.288	72.319	-26456	2120.4	-0.29885	0.91295	0.27416
1.29	72.289	-26455	2120.4	-0.29914	0.91305	0.27426
1.292	72.259	-26455	2120.4	-0.29885	0.91295	0.27416
1.294	72.246	-26456	2120.4	-0.29856	0.91285	0.27406
1.296	72.252	-26455	2120.4	-0.29827	0.91276	0.27396
1.298	72.273	-26453	2120.5	-0.29797	0.91266	0.27387
1.3	72.299	-26461	2120.5	-0.29768	0.91256	0.27377
1.302	72.314	-26468	2120.5	-0.29709	0.91256	0.27318
1.304	72.307	-26464	2120.5	-0.29651	0.91256	0.2726
1.306	72.277	-26459	2120.5	-0.29592	0.91256	0.27201
1.308	72.244	-26461	2120.5	-0.29534	0.91256	0.27143
1.31	72.223	-26462	2120.5	-0.29475	0.91256	0.27084
1.312	72.214	-26466	2120.6	-0.29436	0.91305	0.26977
1.314	72.236	-26469	2120.6	-0.29397	0.91354	0.26869
1.316	72.273	-26469	2120.6	-0.29358	0.91402	0.26762
1.318	72.29	-26470	2120.7	-0.29319	0.91451	0.26655
1.32	72.291	-26461	2120.7	-0.2928	0.915	0.26547
1.322	72.276	-26453	2120.8	-0.2928	0.9151	0.26576
1.324	72.243	-26458	2120.8	-0.2928	0.9152	0.26606
1.326	72.206	-26463	2120.9	-0.2928	0.91529	0.26635
1.328	72.194	-26468	2120.9	-0.2928	0.91539	0.26664
1.33	72.203	-26473	2121	-0.2928	0.91549	0.26694
1.332	72.23	-26472	2121	-0.29319	0.91568	0.26664
1.334	72.252	-26470	2121	-0.29358	0.91588	0.26635
1.336	72.255	-26470	2121	-0.29397	0.91607	0.26606
1.338	72.233	-26469	2121	-0.29436	0.91627	0.26576
1.34	72.205	-26467	2121	-0.29475	0.91646	0.26547
1.342	72.173	-26466	2121	-0.29465	0.91773	0.26664
1.344	72.157	-26465	2121	-0.29456	0.919	0.26781
1.346	72.171	-26463	2120.9	-0.29446	0.92027	0.26899
1.348	72.19	-26465	2120.8	-0.29436	0.92154	0.27016
1.35	72.216	-26467	2120.7	-0.29426	0.92281	0.27133
1.352	72.239	-26471	2120.7	-0.29446	0.92125	0.27035
1.354	72.242	-26475	2120.7	-0.29465	0.91968	0.26938
1.356	72.217	-26471	2120.7	-0.29485	0.91812	0.2684
1.358	72.173	-26468	2120.6	-0.29504	0.91656	0.26742
1.36	72.142	-26468	2120.5	-0.29524	0.915	0.26645
1.362	72.139	-26468	2120.4	-0.29456	0.91441	0.26791
1.364	72.153	-26474	2120.3	-0.29387	0.91383	0.26938
1.366	72.173	-26479	2120.3	-0.29319	0.91324	0.27084
1.368	72.189	-26474	2120.2	-0.29251	0.91266	0.2723
1.37	72.185	-26469	2120.2	-0.29182	0.91207	0.27377
1.372	72.165	-26469	2120.2	-0.29231	0.91227	0.27269
1.374	72.13	-26470	2120.2	-0.2928	0.91246	0.27162
1.376	72.097	-26468	2120.1	-0.29329	0.91266	0.27055
1.378	72.091	-26466	2120.1	-0.29378	0.91285	0.26947
1.38	72.103	-26474	2120.1	-0.29426	0.91305	0.2684
1.382	72.125	-26482	2120.2	-0.29436	0.91236	0.26938
1.384	72.151	-26479	2120.2	-0.29446	0.91168	0.27035
1.386	72.165	-26476	2120.3	-0.29456	0.911	0.27133
1.388	72.153	-26475	2120.3	-0.29465	0.91032	0.2723
1.39	72.119	-26475	2120.4	-0.29475	0.90963	0.27328
1.392	72.083	-26479	2120.5	-0.29417	0.90973	0.27357
1.394	72.068	-26483	2120.6	-0.29358	0.90983	0.27387
1.396	72.078	-26482	2120.7	-0.293	0.90992	0.27416
1.398	72.105	-26481	2120.8	-0.29241	0.91002	0.27445
1.4	72.136	-26478	2120.9	-0.29182	0.91012	0.27474
1.402	72.155	-26474	2121	-0.2928	0.91002	0.27513
1.404	72.145	-26476	2121.1	-0.29378	0.90992	0.27552
1.406	72.117	-26477	2121.3	-0.29475	0.90983	0.27592
1.408	72.088	-26477	2121.4	-0.29573	0.90973	0.27631
1.41	72.071	-26476	2121.6	-0.2967	0.90963	0.2767
1.412	72.078	-26474	2121.8	-0.29622	0.90944	0.27562
1.414	72.093	-26471	2121.9	-0.29573	0.90924	0.27455
1.416	72.132	-26471	2122.1	-0.29524	0.90905	0.27348
1.418	72.165	-26471	2122.3	-0.29475	0.90885	0.2724
1.42	72.176	-26474	2122.5	-0.29426	0.90866	0.27133
1.422	72.165	-26477	2122.7	-0.29475	0.90914	0.27221
1.424	72.14	-26475	2122.9	-0.29524	0.90963	0.27308
1.426	72.109	-26473	2123.2	-0.29573	0.91012	0.27396
1.428	72.108	-26471	2123.4	-0.29622	0.91061	0.27484
1.43	72.126	-26468	2123.7	-0.2967	0.9111	0.27572
1.432	72.164	-26471	2123.9	-0.29729	0.9109	0.27611
1.434	72.205	-26474	2124.1	-0.29788	0.91071	0.2765
1.436	72.226	-26471	2124.4	-0.29846	0.91051	0.27689
1.438	72.223	-26469	2124.7	-0.29905	0.91032	0.27728
1.44	72.201	-26465	2125	-0.29963	0.91012	0.27767
1.442	72.173	-26461	2125.3	-0.29856	0.91022	0.27611
1.444	72.162	-26460	2125.6	-0.29748	0.91032	0.27455
1.446	72.181	-26459	2125.8	-0.29641	0.91041	0.27299
1.448	72.213	-26457	2126.1	-0.29534	0.91051	0.27143
1.45	72.249	-26455	2126.4	-0.29426	0.91061	0.26986
1.452	72.272	-26453	2126.7	-0.29583	0.91061	0.27074
1.454	72.273	-26452	2126.9	-0.29739	0.91061	0.27162
1.456	72.254	-26450	2127.2	-0.29895	0.91061	0.2725
1.458	72.229	-26448	2127.4	-0.30051	0.91061	0.27338
1.46	72.219	-26447	2127.7	-0.30207	0.91061	0.27426
1.462	72.237	-26445	2127.9	-0.30041	0.91051	0.27387
1.464	72.267	-26446	2128.1	-0.29875	0.91041	0.27348
1.466	72.301	-26446	2128.3	-0.29709	0.91032	0.27308
1.468	72.329	-26444	2128.4	-0.29544	0.91022	0.27269
1.47	72.336	-26442	2128.6	-0.29378	0.91012	0.2723
1.472	72.32	-26443	2128.7	-0.29397	0.9108	0.27172
1.474	72.289	-26444	2128.9	-0.29417	0.91149	0.27113
1.476	72.262	-26442	2129	-0.29436	0.91217	0.27055
1.478	72.261	-26440	2129.1	-0.29456	0.91285	0.26996
1.48	72.284	-26432	2129.2	-0.29475	0.91354	0.26938
1.482	72.312	-26424	2129.3	-0.29465	0.91354	0.2685
1.484	72.333	-26427	2129.4	-0.29456	0.91354	0.26762
1.486	72.343	-26429	2129.4	-0.29446	0.91354	0.26674
1.488	72.344	-26431	2129.5	-0.29436	0.91354	0.26586
1.49	72.329	-26433	2129.5	-0.29426	0.91354	0.26498
1.492	72.3	-26429	2129.5	-0.29524	0.91451	0.26528
1.494	72.279	-26426	2129.5	-0.29622	0.91549	0.26557
1.496	72.285	-26427	2129.5	-0.29719	0.91646	0.26586
1.498	72.318	-26428	2129.4	-0.29817	0.91744	0.26616
1.5	72.355	-26428	2129.4	-0.29914	0.91842	0.26645
1.502	72.372	-26428	2129.3	-0.29875	0.91803	0.26586
1.504	72.367	-26430	2129.2	-0.29836	0.91764	0.26528
1.506	72.338	-26431	2129.2	-0.29797	0.91724	0.26469
1.508	72.298	-26429	2129.1	-0.29758	0.91685	0.26411
1.51	72.283	-26427	2129.1	-0.29719	0.91646	0.26352
1.512	72.286	-26423	2129	-0.2969	0.91685	0.26372
1.514	72.296	-26420	2128.8	-0.29661	0.91724	0.26391
1.516	72.329	-26417	2128.7	-0.29631	0.91764	0.26411
1.518	72.355	-26414	2128.6	-0.29602	0.91803	0.2643
1.52	72.354	-26412	2128.4	-0.29573	0.91842	0.2645
1.522	72.339	-26410	2128.3	-0.29573	0.9191	0.26528
1.524	72.317	-26414	2128.1	-0.29573	0.91978	0.26606
1.526	72.298	-26418	2128	-0.29573	0.92047	0.26684
1.528	72.291	-26425	2127.8	-0.29573	0.92115	0.26762
1.53	72.305	-26431	2127.7	-0.29573	0.92183	0.2684
1.532	72.334	-26428	2127.5	-0.29592	0.92086	0.26713
1.534	72.362	-26425	2127.3	-0.29612	0.91988	0.26586
1.536	72.369	-26424	2127.1	-0.29631	0.9189	0.26459
1.538	72.356	-26424	2126.9	-0.29651	0.91793	0.26332
1.54	72.324	-26425	2126.8	-0.2967	0.91695	0.26206
1.542	72.296	-26426	2126.6	-0.2967	0.91734	0.26313
1.544	72.284	-26423	2126.4	-0.2967	0.91773	0.2642
1.546	72.284	-26420	2126.2	-0.2967	0.91812	0.26528
1.548	72.305	-26422	2126.1	-0.2967	0.91851	0.26635
1.55	72.337	-26423	2125.9	-0.2967	0.9189	0.26742
1.552	72.363	-26423	2125.7	-0.29622	0.91822	0.26733
1.554	72.369	-26423	2125.5	-0.29573	0.91754	0.26723
1.556	72.35	-26421	2125.4	-0.29524	0.91685	0.26713
1.558	72.316	-26419	2125.2	-0.29475	0.91617	0.26703
1.56	72.289	-26421	2125	-0.29426	0.91549	0.26694
1.562	72.285	-26422	2124.8	-0.29583	0.91627	0.26606
1.564	72.3	-26426	2124.7	-0.29739	0.91705	0.26518
1.566	72.327	-26430	2124.5	-0.29895	0.91783	0.2643
1.568	72.347	-26431	2124.4	-0.30051	0.91861	0.26342
1.57	72.348	-26432	2124.2	-0.30207	0.91939	0.26254
1.572	72.331	-26437	2124.1	-0.30246	0.9192	0.26284
1.574	72.31	-26442	2123.9	-0.30285	0.919	0.26313
1.576	72.29	-26443	2123.8	-0.30324	0.91881	0.26342
1.578	72.28	-26443	2123.6	-0.30363	0.91861	0.26372
1.58	72.288	-26439	2123.5	-0.30402	0.91842	0.26401
1.582	72.318	-26435	2123.3	-0.30324	0.91851	0.26459
1.584	72.352	-26431	2123.2	-0.30246	0.91861	0.26518
1.586	72.362	-26427	2123	-0.30168	0.91871	0.26576
1.588	72.347	-26430	2122.9	-0.3009	0.91881	0.26635
1.59	72.317	-26434	2122.7	-0.30012	0.9189	0.26694
1.592	72.283	-26434	2122.5	-0.29934	0.91851	0.26723
1.594	72.261	-26435	2122.4	-0.29856	0.91812	0.26752
1.596	72.263	-26436	2122.2	-0.29778	0.91773	0.26781
1.598	72.287	-26437	2122	-0.297	0.91734	0.26811
1.6	72.325	-26437	2121.9	-0.29622	0.91695	0.2684
1.602	72.346	-26438	2121.7	-0.29553	0.91539	0.26889
1.604	72.346	-26440	2121.6	-0.29485	0.91383	0.26938
1.606	72.319	-26443	2121.5	-0.29417	0.91227	0.26986
1.608	72.279	-26446	2121.4	-0.29348	0.91071	0.27035
1.61	72.263	-26449	2121.3	-0.2928	0.90914	0.27084
1.612	72.279	-26449	2121.1	-0.29309	0.90924	0.27074
1.614	72.299	-26449	2121	-0.29339	0.90934	0.27064
1.616	72.323	-26449	2120.8	-0.29368	0.90944	0.27055
1.618	72.347	-26449	2120.7	-0.29397	0.90953	0.27045
1.62	72.346	-26451	2120.6	-0.29426	0.90963	0.27035
1.622	72.329	-26453	2120.5	-0.29397	0.90992	0.27055
1.624	72.297	-26451	2120.4	-0.29368	0.91022	0.27074
1.626	72.274	-26450	2120.2	-0.29339	0.91051	0.27094
1.628	72.272	-26452	2120.1	-0.29309	0.9108	0.27113
1.63	72.287	-26453	2120	-0.2928	0.9111	0.27133
1.632	72.314	-26451	2119.9	-0.29319	0.91158	0.27182
1.634	72.345	-26449	2119.8	-0.29358	0.91207	0.2723
1.636	72.359	-26450	2119.7	-0.29397	0.91256	0.27279
1.638	72.35	-26451	2119.6	-0.29436	0.91305	0.27328
1.64	72.322	-26454	2119.5	-0.29475	0.91354	0.27377
1.642	72.293	-26456	2119.4	-0.29417	0.91393	0.27299
1.644	72.284	-26458	2119.3	-0.29358	0.91432	0.27221
1.646	72.297	-26460	2119.2	-0.293	0.91471	0.27143
1.648	72.322	-26460	2119.2	-0.29241	0.9151	0.27064
1.65	72.345	-26459	2119.1	-0.29182	0.91549	0.26986
1.652	72.357	-26465	2119	-0.29163	0.9151	0.26957
1.654	72.355	-26471	2118.9	-0.29143	0.91471	0.26928
1.656	72.338	-26468	2118.8	-0.29124	0.91432	0.26899
1.658	72.303	-26466	2118.7	-0.29104	0.91393	0.26869
1.66	72.273	-26472	2118.6	-0.29085	0.91354	0.2684
1.662	72.272	-26478	2118.6	-0.29065	0.91422	0.26869
1.664	72.293	-26478	2118.5	-0.29046	0.9149	0.26899
1.666	72.331	-26478	2118.5	-0.29026	0.91559	0.26928
1.668	72.365	-26472	2118.4	-0.29007	0.91627	0.26957
1.67	72.371	-26466	2118.4	-0.28987	0.91695	0.26986
1.672	72.343	-26473	2118.3	-0.29016	0.91598	0.27025
1.674	72.311	-26481	2118.3	-0.29046	0.915	0.27064
1.676	72.282	-26483	2118.2	-0.29075	0.91402	0.27104
1.678	72.28	-26484	2118.2	-0.29104	0.91305	0.27143
1.68	72.298	-26483	2118.2	-0.29134	0.91207	0.27182
1.682	72.328	-26482	2118.2	-0.29085	0.91295	0.27123
1.684	72.354	-26477	2118.2	-0.29036	0.91383	0.27064
1.686	72.366	-26473	2118.2	-0.28987	0.91471	0.27006
1.688	72.359	-26470	2118.2	-0.28938	0.91559	0.26947
1.69	72.329	-26467	2118.3	-0.2889	0.91646	0.26889
1.692	72.286	-26472	2118.2	-0.28899	0.91607	0.26869
1.694	72.264	-26477	2118.2	-0.28909	0.91568	0.2685
1.696	72.267	-26479	2118.2	-0.28919	0.91529	0.2683
1.698	72.285	-26480	2118.3	-0.28929	0.9149	0.26811
1.7	72.313	-26477	2118.3	-0.28938	0.91451	0.26791
1.702	72.327	-26473	2118.3	-0.28968	0.91461	0.26713
1.704	72.32	-26478	2118.4	-0.28997	0.91471	0.26635
1.706	72.295	-26482	2118.4	-0.29026	0.9148	0.26557
1.708	72.262	-26476	2118.4	-0.29056	0.9149	0.26479
1.71	72.249	-26471	2118.3	-0.29085	0.915	0.26401
1.712	72.257	-26475	2118.4	-0.29075	0.9149	0.2645
1.714	72.282	-26480	2118.6	-0.29065	0.9148	0.26498
1.716	72.306	-26479	2118.6	-0.29056	0.91471	0.26547
1.718	72.324	-26478	2118.6	-0.29046	0.91461	0.26596
1.72	72.325	-26481	2118.6	-0.29036	0.91451	0.26645
1.722	72.298	-26483	2118.6	-0.29046	0.91412	0.26664
1.724	72.255	-26478	2118.6	-0.29056	0.91373	0.26684
1.726	72.223	-26472	2118.7	-0.29065	0.91334	0.26703
1.728	72.216	-26469	2118.7	-0.29075	0.91295	0.26723
1.73	72.238	-26467	2118.7	-0.29085	0.91256	0.26742
1.732	72.278	-26477	2118.8	-0.29065	0.91344	0.26733
1.734	72.318	-26487	2118.8	-0.29046	0.91432	0.26723
1.736	72.341	-26481	2118.9	-0.29026	0.9152	0.26713
1.738	72.332	-26475	2118.9	-0.29007	0.91607	0.26703
1.74	72.299	-26479	2119	-0.28987	0.91695	0.26694
1.742	72.255	-26484	2119	-0.29016	0.91598	0.26742
1.744	72.228	-26482	2119	-0.29046	0.915	0.26791
1.746	72.232	-26480	2119	-0.29075	0.91402	0.2684
1.748	72.255	-26480	2119	-0.29104	0.91305	0.26889
1.75	72.289	-26480	2119.1	-0.29134	0.91207	0.26938
1.752	72.312	-26478	2119.1	-0.29153	0.91197	0.26986
1.754	72.308	-26477	2119.1	-0.29173	0.91188	0.27035
1.756	72.284	-26483	2119.2	-0.29192	0.91178	0.27084
1.758	72.263	-26488	2119.2	-0.29212	0.91168	0.27133
1.76	72.256	-26483	2119.2	-0.29231	0.91158	0.27182
1.762	72.265	-26478	2119.2	-0.29241	0.91158	0.27123
1.764	72.293	-26474	2119.3	-0.29251	0.91158	0.27064
1.766	72.336	-26469	2119.3	-0.2926	0.91158	0.27006
1.768	72.362	-26472	2119.3	-0.2927	0.91158	0.26947
1.77	72.364	-26474	2119.3	-0.2928	0.91158	0.26889
1.772	72.355	-26476	2119.2	-0.29173	0.91285	0.2686
1.774	72.337	-26477	2119.2	-0.29065	0.91412	0.2683
1.776	72.306	-26479	2119.2	-0.28958	0.91539	0.26801
1.778	72.296	-26481	2119.2	-0.28851	0.91666	0.26772
1.78	72.311	-26479	2119.2	-0.28743	0.91793	0.26742
1.782	72.35	-26478	2119.2	-0.28919	0.91803	0.26674
1.784	72.377	-26482	2119.1	-0.29095	0.91812	0.26606
1.786	72.389	-26486	2119.1	-0.2927	0.91822	0.26537
1.788	72.382	-26482	2119.1	-0.29446	0.91832	0.26469
1.79	72.353	-26479	2119.1	-0.29622	0.91842	0.26401
1.792	72.324	-26483	2119	-0.2967	0.91842	0.26391
1.794	72.311	-26486	2119	-0.29719	0.91842	0.26381
1.796	72.314	-26485	2118.9	-0.29768	0.91842	0.26372
1.798	72.335	-26484	2118.8	-0.29817	0.91842	0.26362
1.8	72.361	-26480	2118.8	-0.29866	0.91842	0.26352
1.802	72.383	-26477	2118.7	-0.29836	0.91793	0.26362
1.804	72.38	-26476	2118.6	-0.29807	0.91744	0.26372
1.806	72.347	-26474	2118.5	-0.29778	0.91695	0.26381
1.808	72.305	-26480	2118.5	-0.29748	0.91646	0.26391
1.81	72.28	-26486	2118.4	-0.29719	0.91598	0.26401
1.812	72.287	-26482	2118.4	-0.2967	0.91549	0.2643
1.814	72.32	-26477	2118.3	-0.29622	0.915	0.26459
1.816	72.356	-26480	2118.2	-0.29573	0.91451	0.26489
1.818	72.382	-26483	2118.1	-0.29524	0.91402	0.26518
1.82	72.392	-26482	2118	-0.29475	0.91354	0.26547
1.822	72.383	-26481	2117.9	-0.29397	0.91363	0.26596
1.824	72.359	-26480	2117.9	-0.29319	0.91373	0.26645
1.826	72.333	-26479	2117.8	-0.29241	0.91383	0.26694
1.828	72.318	-26488	2117.7	-0.29163	0.91393	0.26742
1.83	72.326	-26497	2117.6	-0.29085	0.91402	0.26791
1.832	72.358	-26494	2117.5	-0.29163	0.91412	0.26742
1.834	72.392	-26492	2117.4	-0.29241	0.91422	0.26694
1.836	72.415	-26489	2117.3	-0.29319	0.91432	0.26645
1.838	72.404	-26485	2117.3	-0.29397	0.91441	0.26596
1.84	72.374	-26487	2117.2	-0.29475	0.91451	0.26547
1.842	72.34	-26489	2117.1	-0.29397	0.91422	0.26625
1.844	72.31	-26496	2117	-0.29319	0.91393	0.26703
1.846	72.305	-26503	2116.9	-0.29241	0.91363	0.26781
1.848	72.312	-26496	2116.8	-0.29163	0.91334	0.2686
1.85	72.302	-26488	2116.7	-0.29085	0.91305	0.26938
1.852	72.272	-26489	2116.5	-0.29075	0.91315	0.26967
1.854	72.216	-26491	2116.4	-0.29065	0.91324	0.26996
1.856	72.147	-26491	2116.3	-0.29056	0.91334	0.27025
1.858	72.052	-26492	2116.2	-0.29046	0.91344	0.27055
1.86	71.964	-26492	2116.2	-0.29036	0.91354	0.27084
1.862	71.898	-26493	2116.1	-0.29104	0.91324	0.27113
1.864	71.846	-26497	2115.9	-0.29173	0.91295	0.27143
1.866	71.815	-26500	2115.9	-0.29241	0.91266	0.27172
1.868	71.785	-26500	2115.8	-0.29309	0.91236	0.27201
1.87	71.747	-26500	2115.8	-0.29378	0.91207	0.2723
1.872	71.705	-26498	2115.7	-0.29456	0.91236	0.27182
1.874	71.668	-26496	2115.6	-0.29534	0.91266	0.27133
1.876	71.652	-26493	2115.5	-0.29612	0.91295	0.27084
1.878	71.675	-26491	2115.4	-0.2969	0.91324	0.27035
1.88	71.728	-26496	2115.3	-0.29768	0.91354	0.26986
1.882	71.811	-26502	2115.2	-0.29768	0.91266	0.27113
1.884	71.926	-26502	2115.1	-0.29768	0.91178	0.2724
1.886	72.048	-26501	2115.1	-0.29768	0.9109	0.27367
1.888	72.157	-26502	2115	-0.29768	0.91002	0.27494
1.89	72.234	-26503	2114.9	-0.29768	0.90914	0.27621
1.892	72.267	-26506	2114.9	-0.29758	0.90992	0.27533
1.894	72.277	-26509	2114.8	-0.29748	0.91071	0.27445
1.896	72.291	-26509	2114.7	-0.29739	0.91149	0.27357
1.898	72.319	-26508	2114.6	-0.29729	0.91227	0.27269
1.9	72.36	-26510	2114.5	-0.29719	0.91305	0.27182
1.902	72.386	-26512	2114.5	-0.29729	0.91285	0.27191
1.904	72.377	-26509	2114.4	-0.29739	0.91266	0.27201
1.906	72.348	-26507	2114.4	-0.29748	0.91246	0.27211
1.908	72.316	-26508	2114.3	-0.29758	0.91227	0.27221
1.91	72.293	-26508	2114.3	-0.29768	0.91207	0.2723
1.912	72.29	-26512	2114.3	-0.29807	0.91256	0.2723
1.914	72.312	-26516	2114.3	-0.29846	0.91305	0.2723
1.916	72.345	-26513	2114.2	-0.29885	0.91354	0.2723
1.918	72.366	-26510	2114.2	-0.29924	0.91402	0.2723
1.92	72.365	-26508	2114.1	-0.29963	0.91451	0.2723
1.922	72.344	-26506	2114	-0.29856	0.91432	0.27191
1.924	72.3	-26509	2113.9	-0.29748	0.91412	0.27152
1.926	72.262	-26513	2113.8	-0.29641	0.91393	0.27113
1.928	72.243	-26515	2113.7	-0.29534	0.91373	0.27074
1.93	72.258	-26517	2113.7	-0.29426	0.91354	0.27035
1.932	72.294	-26517	2113.6	-0.29358	0.91324	0.27035
1.934	72.329	-26518	2113.6	-0.2929	0.91295	0.27035
1.936	72.339	-26517	2113.5	-0.29221	0.91266	0.27035
1.938	72.327	-26516	2113.4	-0.29153	0.91236	0.27035
1.94	72.306	-26523	2113.4	-0.29085	0.91207	0.27035
1.942	72.259	-26530	2113.3	-0.29173	0.91227	0.27035
1.944	72.241	-26528	2113.3	-0.2926	0.91246	0.27035
1.946	72.242	-26526	2113.3	-0.29348	0.91266	0.27035
1.948	72.263	-26525	2113.3	-0.29436	0.91285	0.27035
1.95	72.293	-26523	2113.2	-0.29524	0.91305	0.27035
1.952	72.31	-26519	2113.2	-0.29524	0.91305	0.27074
1.954	72.306	-26516	2113.2	-0.29524	0.91305	0.27113
1.956	72.285	-26525	2113.2	-0.29524	0.91305	0.27152
1.958	72.258	-26534	2113.1	-0.29524	0.91305	0.27191
1.96	72.238	-26534	2113	-0.29524	0.91305	0.2723
1.962	72.236	-26533	2113	-0.29495	0.91236	0.27211
1.964	72.255	-26526	2113	-0.29465	0.91168	0.27191
1.966	72.28	-26518	2112.9	-0.29436	0.911	0.27172
1.968	72.297	-26523	2112.8	-0.29407	0.91032	0.27152
1.97	72.297	-26528	2112.8	-0.29378	0.90963	0.27133
1.972	72.276	-26526	2112.7	-0.29348	0.91032	0.27064
1.974	72.241	-26524	2112.7	-0.29319	0.911	0.26996
1.976	72.208	-26528	2112.7	-0.2929	0.91168	0.26928
1.978	72.192	-26533	2112.7	-0.2926	0.91236	0.2686
1.98	72.201	-26530	2112.6	-0.29231	0.91305	0.26791
1.982	72.231	-26527	2112.6	-0.2929	0.91334	0.26733
1.984	72.269	-26527	2112.6	-0.29348	0.91363	0.26674
1.986	72.289	-26528	2112.6	-0.29407	0.91393	0.26616
1.988	72.274	-26534	2112.6	-0.29465	0.91422	0.26557
1.99	72.241	-26541	2112.6	-0.29524	0.91451	0.26498
1.992	72.213	-26541	2112.6	-0.29592	0.91539	0.26528
1.994	72.19	-26541	2112.6	-0.29661	0.91627	0.26557
1.996	72.186	-26539	2112.6	-0.29729	0.91715	0.26586
1.998	72.208	-26538	2112.6	-0.29797	0.91803	0.26616
2	72.236	-26532	2112.6	-0.29866	0.9189	0.26645
2.002	72.25	-26526	2112.6	-0.29807	0.91871	0.26635
2.004	72.247	-26531	2112.6	-0.29748	0.91851	0.26625
2.006	72.22	-26536	2112.7	-0.2969	0.91832	0.26616
2.008	72.188	-26537	2112.7	-0.29631	0.91812	0.26606
2.01	72.165	-26538	2112.7	-0.29573	0.91793	0.26596
2.012	72.165	-26539	2112.6	-0.29563	0.91764	0.26635
2.014	72.183	-26540	2112.6	-0.29553	0.91734	0.26674
2.016	72.21	-26533	2112.6	-0.29544	0.91705	0.26713
2.018	72.234	-26526	2112.5	-0.29534	0.91676	0.26752
2.02	72.235	-26531	2112.4	-0.29524	0.91646	0.26791
2.022	72.215	-26537	2112.3	-0.29465	0.91607	0.26811
2.024	72.178	-26537	2112.3	-0.29407	0.91568	0.2683
2.026	72.138	-26538	2112.2	-0.29348	0.91529	0.2685
2.028	72.123	-26537	2112.2	-0.2929	0.9149	0.26869
2.03	72.131	-26536	2112.1	-0.29231	0.91451	0.26889
2.032	72.149	-26535	2112	-0.2927	0.91402	0.26928
2.034	72.18	-26535	2111.9	-0.29309	0.91354	0.26967
2.036	72.189	-26536	2111.8	-0.29348	0.91305	0.27006
2.038	72.174	-26537	2111.7	-0.29387	0.91256	0.27045
2.04	72.139	-26539	2111.7	-0.29426	0.91207	0.27084
2.042	72.099	-26541	2111.7	-0.29417	0.91236	0.27055
2.044	72.076	-26544	2111.6	-0.29407	0.91266	0.27025
2.046	72.084	-26547	2111.6	-0.29397	0.91295	0.26996
2.048	72.108	-26547	2111.6	-0.29387	0.91324	0.26967
2.05	72.136	-26547	2111.5	-0.29378	0.91354	0.26938
2.052	72.151	-26544	2111.5	-0.29407	0.91295	0.27025
2.054	72.136	-26541	2111.5	-0.29436	0.91236	0.27113
2.056	72.101	-26540	2111.6	-0.29465	0.91178	0.27201
2.058	72.065	-26539	2111.6	-0.29495	0.91119	0.27289
2.06	72.056	-26541	2111.7	-0.29524	0.91061	0.27377
2.062	72.059	-26543	2111.8	-0.29534	0.91061	0.27396
2.064	72.067	-26545	2111.8	-0.29544	0.91061	0.27416
2.066	72.097	-26547	2111.9	-0.29553	0.91061	0.27435
2.068	72.122	-26547	2112	-0.29563	0.91061	0.27455
2.07	72.118	-26548	2112.1	-0.29573	0.91061	0.27474
2.072	72.097	-26545	2112.2	-0.29495	0.91129	0.27367
2.074	72.069	-26542	2112.3	-0.29417	0.91197	0.2726
2.076	72.041	-26539	2112.4	-0.29339	0.91266	0.27152
2.078	72.027	-26537	2112.5	-0.2926	0.91334	0.27045
2.08	72.038	-26539	2112.6	-0.29182	0.91402	0.26938
2.082	72.076	-26540	2112.8	-0.29134	0.91471	0.26918
2.084	72.121	-26542	2112.9	-0.29085	0.91539	0.26899
2.086	72.135	-26544	2113.1	-0.29036	0.91607	0.26879
2.088	72.114	-26549	2113.3	-0.28987	0.91676	0.2686
2.09	72.088	-26554	2113.5	-0.28938	0.91744	0.2684
2.092	72.062	-26552	2113.7	-0.28968	0.91676	0.26938
2.094	72.037	-26549	2113.9	-0.28997	0.91607	0.27035
2.096	72.047	-26549	2114.1	-0.29026	0.91539	0.27133
2.098	72.078	-26549	2114.4	-0.29056	0.91471	0.2723
2.1	72.121	-26548	2114.6	-0.29085	0.91402	0.27328
2.102	72.151	-26547	2114.9	-0.29329	0.91432	0.27318
2.104	72.15	-26545	2115.2	-0.29573	0.91461	0.27308
2.106	72.126	-26544	2115.4	-0.29817	0.9149	0.27299
2.108	72.102	-26542	2115.7	-0.30061	0.9152	0.27289
2.11	72.086	-26540	2116	-0.30305	0.91549	0.27279
2.112	72.092	-26536	2116.3	-0.30217	0.91393	0.27367
2.114	72.121	-26531	2116.5	-0.30129	0.91236	0.27455
2.116	72.164	-26527	2116.8	-0.30041	0.9108	0.27543
2.118	72.202	-26522	2117.1	-0.29953	0.90924	0.27631
2.12	72.204	-26522	2117.4	-0.29866	0.90768	0.27718
2.122	72.193	-26522	2117.6	-0.29817	0.90836	0.27689
2.124	72.174	-26522	2117.9	-0.29768	0.90905	0.2766
2.126	72.15	-26523	2118.1	-0.29719	0.90973	0.27631
2.128	72.146	-26517	2118.4	-0.2967	0.91041	0.27601
2.13	72.159	-26512	2118.6	-0.29622	0.9111	0.27572
2.132	72.194	-26511	2118.8	-0.29602	0.91032	0.27562
2.134	72.235	-26510	2119	-0.29583	0.90953	0.27552
2.136	72.261	-26510	2119.2	-0.29563	0.90875	0.27543
2.138	72.269	-26509	2119.4	-0.29544	0.90797	0.27533
2.14	72.247	-26502	2119.6	-0.29524	0.90719	0.27523
2.142	72.22	-26494	2119.7	-0.29602	0.90836	0.27455
2.144	72.21	-26498	2119.9	-0.2968	0.90953	0.27387
2.146	72.216	-26501	2120.1	-0.29758	0.91071	0.27318
2.148	72.239	-26504	2120.2	-0.29836	0.91188	0.2725
2.15	72.273	-26507	2120.3	-0.29914	0.91305	0.27182
2.152	72.297	-26503	2120.4	-0.29836	0.91276	0.27211
2.154	72.299	-26498	2120.5	-0.29758	0.91246	0.2724
2.156	72.285	-26495	2120.5	-0.2968	0.91217	0.27269
2.158	72.26	-26492	2120.5	-0.29602	0.91188	0.27299
2.16	72.234	-26491	2120.5	-0.29524	0.91158	0.27328
2.162	72.23	-26491	2120.6	-0.29387	0.91236	0.2725
2.164	72.255	-26495	2120.7	-0.29251	0.91315	0.27172
2.166	72.296	-26499	2120.7	-0.29114	0.91393	0.27094
2.168	72.322	-26491	2120.7	-0.28977	0.91471	0.27016
2.17	72.327	-26484	2120.7	-0.28841	0.91549	0.26938
2.172	72.306	-26486	2120.7	-0.28977	0.91539	0.2685
2.174	72.277	-26487	2120.6	-0.29114	0.91529	0.26762
2.176	72.248	-26486	2120.6	-0.29251	0.9152	0.26674
2.178	72.238	-26484	2120.5	-0.29387	0.9151	0.26586
2.18	72.247	-26489	2120.5	-0.29524	0.915	0.26498
2.182	72.273	-26494	2120.4	-0.29446	0.91549	0.26528
2.184	72.305	-26492	2120.4	-0.29368	0.91598	0.26557
2.186	72.324	-26490	2120.4	-0.2929	0.91646	0.26586
2.188	72.32	-26491	2120.3	-0.29212	0.91695	0.26616
2.19	72.3	-26491	2120.3	-0.29134	0.91744	0.26645
2.192	72.274	-26486	2120.2	-0.29221	0.91783	0.26576
2.194	72.255	-26481	2120.2	-0.29309	0.91822	0.26508
2.196	72.246	-26489	2120.1	-0.29397	0.91861	0.2644
2.198	72.268	-26497	2120	-0.29485	0.919	0.26372
2.2	72.301	-26490	2119.9	-0.29573	0.91939	0.26303
2.202	72.32	-26483	2119.8	-0.29465	0.91832	0.26352
2.204	72.322	-26479	2119.7	-0.29358	0.91724	0.26401
2.206	72.307	-26475	2119.6	-0.29251	0.91617	0.2645
2.208	72.285	-26483	2119.4	-0.29143	0.9151	0.26498
2.21	72.249	-26490	2119.3	-0.29036	0.91402	0.26547
2.212	72.232	-26484	2119.2	-0.29134	0.91344	0.26567
2.214	72.256	-26477	2119	-0.29231	0.91285	0.26586
2.216	72.297	-26476	2118.9	-0.29329	0.91227	0.26606
2.218	72.325	-26474	2118.7	-0.29426	0.91168	0.26625
2.22	72.33	-26478	2118.6	-0.29524	0.9111	0.26645
2.222	72.31	-26482	2118.4	-0.29534	0.91197	0.26645
2.224	72.276	-26482	2118.3	-0.29544	0.91285	0.26645
2.226	72.246	-26483	2118.2	-0.29553	0.91373	0.26645
2.228	72.238	-26483	2118.1	-0.29563	0.91461	0.26645
2.23	72.254	-26483	2118	-0.29573	0.91549	0.26645
2.232	72.283	-26486	2117.9	-0.2969	0.91539	0.26576
2.234	72.313	-26489	2117.8	-0.29807	0.91529	0.26508
2.236	72.325	-26484	2117.7	-0.29924	0.9152	0.2644
2.238	72.313	-26479	2117.5	-0.30041	0.9151	0.26372
2.24	72.286	-26481	2117.4	-0.30158	0.915	0.26303
2.242	72.254	-26482	2117.3	-0.30197	0.91568	0.26274
2.244	72.236	-26486	2117.2	-0.30236	0.91637	0.26245
2.246	72.247	-26490	2117.1	-0.30276	0.91705	0.26215
2.248	72.267	-26489	2117	-0.30315	0.91773	0.26186
2.25	72.284	-26487	2117	-0.30354	0.91842	0.26157
2.252	72.301	-26480	2116.9	-0.30402	0.91812	0.26235
2.254	72.306	-26473	2116.8	-0.30451	0.91783	0.26313
2.256	72.293	-26478	2116.7	-0.305	0.91754	0.26391
2.258	72.262	-26483	2116.7	-0.30549	0.91724	0.26469
2.26	72.226	-26488	2116.6	-0.30598	0.91695	0.26547
2.262	72.22	-26494	2116.5	-0.30393	0.91676	0.26606
2.264	72.24	-26497	2116.4	-0.30188	0.91656	0.26664
2.266	72.271	-26500	2116.3	-0.29983	0.91637	0.26723
2.268	72.296	-26492	2116.2	-0.29778	0.91617	0.26781
2.27	72.307	-26484	2116	-0.29573	0.91598	0.2684
2.272	72.301	-26486	2116	-0.29622	0.9151	0.26928
2.274	72.273	-26487	2115.9	-0.2967	0.91422	0.27016
2.276	72.243	-26488	2115.9	-0.29719	0.91334	0.27104
2.278	72.23	-26489	2115.7	-0.29768	0.91246	0.27191
2.28	72.233	-26491	2115.6	-0.29817	0.91158	0.27279
2.282	72.255	-26494	2115.5	-0.29758	0.91119	0.27308
2.284	72.291	-26498	2115.4	-0.297	0.9108	0.27338
2.286	72.305	-26502	2115.3	-0.29641	0.91041	0.27367
2.288	72.293	-26499	2115.3	-0.29583	0.91002	0.27396
2.29	72.268	-26496	2115.2	-0.29524	0.90963	0.27426
2.292	72.242	-26496	2115.1	-0.29504	0.90983	0.27396
2.294	72.227	-26496	2115	-0.29485	0.91002	0.27367
2.296	72.235	-26499	2115	-0.29465	0.91022	0.27338
2.298	72.26	-26503	2114.9	-0.29446	0.91041	0.27308
2.3	72.293	-26504	2114.9	-0.29426	0.91061	0.27279
2.302	72.316	-26505	2114.8	-0.29465	0.91119	0.2726
2.304	72.309	-26500	2114.7	-0.29504	0.91178	0.2724
2.306	72.282	-26494	2114.7	-0.29544	0.91236	0.27221
2.308	72.251	-26495	2114.7	-0.29583	0.91295	0.27201
2.31	72.232	-26496	2114.6	-0.29622	0.91354	0.27182
2.312	72.236	-26502	2114.6	-0.29583	0.91315	0.27172
2.314	72.254	-26508	2114.5	-0.29544	0.91276	0.27162
2.316	72.282	-26507	2114.4	-0.29504	0.91236	0.27152
2.318	72.305	-26506	2114.4	-0.29465	0.91197	0.27143
2.32	72.311	-26506	2114.3	-0.29426	0.91158	0.27133
2.322	72.298	-26505	2114.3	-0.29397	0.91227	0.27084
2.324	72.269	-26500	2114.3	-0.29368	0.91295	0.27035
2.326	72.241	-26494	2114.2	-0.29339	0.91363	0.26986
2.328	72.231	-26501	2114.2	-0.29309	0.91432	0.26938
2.33	72.242	-26508	2114.2	-0.2928	0.915	0.26889
2.332	72.268	-26510	2114.1	-0.293	0.9149	0.26947
2.334	72.291	-26512	2114.1	-0.29319	0.9148	0.27006
2.336	72.304	-26509	2114.1	-0.29339	0.91471	0.27064
2.338	72.295	-26507	2114.1	-0.29358	0.91461	0.27123
2.34	72.261	-26510	2114.2	-0.29378	0.91451	0.27182
2.342	72.24	-26513	2114.1	-0.29358	0.91432	0.27162
2.344	72.236	-26514	2114.1	-0.29339	0.91412	0.27143
2.346	72.246	-26515	2114.1	-0.29319	0.91393	0.27123
2.348	72.272	-26513	2114.1	-0.293	0.91373	0.27104
2.35	72.31	-26511	2114.1	-0.2928	0.91354	0.27084
2.352	72.335	-26512	2114.1	-0.29339	0.91354	0.27094
2.354	72.324	-26512	2114.1	-0.29397	0.91354	0.27104
2.356	72.299	-26513	2114.1	-0.29456	0.91354	0.27113
2.358	72.263	-26513	2114.1	-0.29514	0.91354	0.27123
2.36	72.233	-26518	2114.1	-0.29573	0.91354	0.27133
2.362	72.223	-26523	2114.1	-0.29641	0.91393	0.27191
2.364	72.247	-26516	2114.2	-0.29709	0.91432	0.2725
2.366	72.288	-26509	2114.2	-0.29778	0.91471	0.27308
2.368	72.316	-26513	2114.2	-0.29846	0.9151	0.27367
2.37	72.331	-26516	2114.3	-0.29914	0.91549	0.27426
2.372	72.31	-26515	2114.3	-0.29758	0.915	0.27348
2.374	72.264	-26514	2114.3	-0.29602	0.91451	0.27269
2.376	72.231	-26516	2114.4	-0.29446	0.91402	0.27191
2.378	72.227	-26518	2114.4	-0.2929	0.91354	0.27113
2.38	72.241	-26516	2114.5	-0.29134	0.91305	0.27035
2.382	72.274	-26514	2114.6	-0.29202	0.91246	0.27074
2.384	72.306	-26515	2114.7	-0.2927	0.91188	0.27113
2.386	72.322	-26515	2114.7	-0.29339	0.91129	0.27152
2.388	72.316	-26517	2114.8	-0.29407	0.91071	0.27191
2.39	72.292	-26519	2114.8	-0.29475	0.91012	0.2723
2.392	72.258	-26517	2114.9	-0.29446	0.91071	0.27182
2.394	72.238	-26515	2114.9	-0.29417	0.91129	0.27133
2.396	72.234	-26511	2115	-0.29387	0.91188	0.27084
2.398	72.244	-26507	2115	-0.29358	0.91246	0.27035
2.4	72.272	-26517	2115.1	-0.29329	0.91305	0.26986
2.402	72.292	-26526	2115.1	-0.29358	0.91305	0.27045
2.404	72.286	-26530	2115.2	-0.29387	0.91305	0.27104
2.406	72.265	-26535	2115.2	-0.29417	0.91305	0.27162
2.408	72.235	-26524	2115.2	-0.29446	0.91305	0.27221
2.41	72.21	-26513	2115.2	-0.29475	0.91305	0.27279
2.412	72.209	-26512	2115.2	-0.29397	0.91285	0.2725
2.414	72.234	-26511	2115.2	-0.29319	0.91266	0.27221
2.416	72.268	-26518	2115.2	-0.29241	0.91246	0.27191
2.418	72.293	-26525	2115.2	-0.29163	0.91227	0.27162
2.42	72.294	-26514	2115.3	-0.29085	0.91207	0.27133
2.422	72.264	-26503	2115.3	-0.29065	0.91266	0.27084
2.424	72.227	-26512	2115.4	-0.29046	0.91324	0.27035
2.426	72.203	-26520	2115.4	-0.29026	0.91383	0.26986
2.428	72.193	-26515	2115.3	-0.29007	0.91441	0.26938
2.43	72.203	-26510	2115.3	-0.28987	0.915	0.26889
2.432	72.235	-26513	2115.3	-0.29016	0.915	0.2684
2.434	72.272	-26517	2115.3	-0.29046	0.915	0.26791
2.436	72.281	-26517	2115.3	-0.29075	0.915	0.26742
2.438	72.275	-26517	2115.3	-0.29104	0.915	0.26694
2.44	72.245	-26515	2115.3	-0.29134	0.915	0.26645
2.442	72.208	-26512	2115.3	-0.29095	0.91412	0.26752
2.444	72.194	-26516	2115.3	-0.29056	0.91324	0.2686
2.446	72.202	-26519	2115.2	-0.29016	0.91236	0.26967
2.448	72.224	-26519	2115.2	-0.28977	0.91149	0.27074
2.45	72.248	-26519	2115.2	-0.28938	0.91061	0.27182
2.452	72.273	-26519	2115.1	-0.28929	0.9109	0.27084
2.454	72.272	-26518	2115.1	-0.28919	0.91119	0.26986
2.456	72.246	-26515	2115	-0.28909	0.91149	0.26889
2.458	72.224	-26512	2115	-0.28899	0.91178	0.26791
2.46	72.207	-26512	2115	-0.2889	0.91207	0.26694
2.462	72.211	-26511	2114.9	-0.28909	0.91217	0.26684
2.464	72.255	-26525	2114.8	-0.28929	0.91227	0.26674
2.466	72.296	-26539	2114.8	-0.28948	0.91236	0.26664
2.468	72.325	-26543	2114.7	-0.28968	0.91246	0.26655
2.47	72.33	-26548	2114.6	-0.28987	0.91256	0.26645
2.472	72.321	-26545	2114.5	-0.28997	0.91246	0.26723
2.474	72.306	-26542	2114.5	-0.29007	0.91236	0.26801
2.476	72.282	-26539	2114.4	-0.29016	0.91227	0.26879
2.478	72.268	-26537	2114.3	-0.29026	0.91217	0.26957
2.48	72.281	-26538	2114.2	-0.29036	0.91207	0.27035
2.482	72.31	-26538	2114.1	-0.29007	0.91197	0.27045
2.484	72.338	-26538	2114	-0.28977	0.91188	0.27055
2.486	72.349	-26538	2113.9	-0.28948	0.91178	0.27064
2.488	72.34	-26537	2113.9	-0.28919	0.91168	0.27074
2.49	72.313	-26537	2113.8	-0.2889	0.91158	0.27084
2.492	72.282	-26534	2113.8	-0.28938	0.91149	0.27064
2.494	72.264	-26531	2113.7	-0.28987	0.91139	0.27045
2.496	72.268	-26532	2113.6	-0.29036	0.91129	0.27025
2.498	72.291	-26534	2113.6	-0.29085	0.91119	0.27006
2.5	72.319	-26538	2113.5	-0.29134	0.9111	0.26986
2.502	72.338	-26542	2113.4	-0.29065	0.91178	0.26947
2.504	72.337	-26536	2113.4	-0.28997	0.91246	0.26908
2.506	72.32	-26529	2113.3	-0.28929	0.91315	0.26869
2.508	72.299	-26530	2113.2	-0.2886	0.91383	0.2683
2.51	72.281	-26530	2113.2	-0.28792	0.91451	0.26791
2.512	72.277	-26535	2113.1	-0.2887	0.91383	0.26781
2.514	72.291	-26539	2113.1	-0.28948	0.91315	0.26772
2.516	72.315	-26540	2113.1	-0.29026	0.91246	0.26762
2.518	72.339	-26541	2113	-0.29104	0.91178	0.26752
2.52	72.353	-26540	2112.9	-0.29182	0.9111	0.26742
2.522	72.337	-26539	2112.9	-0.29163	0.91158	0.26772
2.524	72.287	-26537	2112.8	-0.29143	0.91207	0.26801
2.526	72.267	-26535	2112.7	-0.29124	0.91256	0.2683
2.528	72.268	-26536	2112.7	-0.29104	0.91305	0.2686
2.53	72.288	-26537	2112.6	-0.29085	0.91354	0.26889
2.532	72.323	-26538	2112.6	-0.29085	0.91334	0.26908
2.534	72.362	-26538	2112.5	-0.29085	0.91315	0.26928
2.536	72.382	-26543	2112.5	-0.29085	0.91295	0.26947
2.538	72.379	-26547	2112.4	-0.29085	0.91276	0.26967
2.54	72.347	-26547	2112.4	-0.29085	0.91256	0.26986
2.542	72.307	-26547	2112.3	-0.28997	0.91422	0.26986
2.544	72.277	-26547	2112.3	-0.28909	0.91588	0.26986
2.546	72.265	-26547	2112.2	-0.28821	0.91754	0.26986
2.548	72.26	-26550	2112.2	-0.28733	0.9192	0.26986
2.55	72.252	-26552	2112.1	-0.28646	0.92086	0.26986
2.552	72.23	-26550	2112.1	-0.28733	0.91998	0.26947
2.554	72.169	-26549	2112	-0.28821	0.9191	0.26908
2.556	72.084	-26551	2112	-0.28909	0.91822	0.26869
2.558	71.987	-26553	2111.9	-0.28997	0.91734	0.2683
2.56	71.898	-26550	2111.9	-0.29085	0.91646	0.26791
2.562	71.826	-26547	2111.8	-0.2926	0.91695	0.26762
2.564	71.777	-26549	2111.8	-0.29436	0.91744	0.26733
2.566	71.745	-26551	2111.7	-0.29612	0.91793	0.26703
2.568	71.721	-26554	2111.7	-0.29788	0.91842	0.26674
2.57	71.689	-26556	2111.6	-0.29963	0.9189	0.26645
2.572	71.648	-26558	2111.6	-0.29895	0.91803	0.26655
2.574	71.608	-26559	2111.6	-0.29827	0.91715	0.26664
2.576	71.59	-26552	2111.5	-0.29758	0.91627	0.26674
2.578	71.612	-26546	2111.5	-0.2969	0.91539	0.26684
2.58	71.675	-26545	2111.4	-0.29622	0.91451	0.26694
2.582	71.778	-26545	2111.4	-0.29495	0.91451	0.26772
2.584	71.907	-26541	2111.3	-0.29368	0.91451	0.2685
2.586	72.036	-26536	2111.2	-0.29241	0.91451	0.26928
2.588	72.145	-26540	2111.1	-0.29114	0.91451	0.27006
2.59	72.211	-26543	2111	-0.28987	0.91451	0.27084
2.592	72.23	-26544	2111	-0.29124	0.91373	0.27172
2.594	72.232	-26546	2111	-0.2926	0.91295	0.2726
2.596	72.25	-26544	2111	-0.29397	0.91217	0.27348
2.598	72.291	-26543	2110.9	-0.29534	0.91139	0.27435
2.6	72.339	-26540	2110.9	-0.2967	0.91061	0.27523
2.602	72.361	-26537	2110.8	-0.29612	0.91158	0.27426
2.604	72.353	-26541	2110.8	-0.29553	0.91256	0.27328
2.606	72.321	-26545	2110.8	-0.29495	0.91354	0.2723
2.608	72.278	-26541	2110.8	-0.29436	0.91451	0.27133
2.61	72.248	-26538	2110.7	-0.29378	0.91549	0.27035
2.612	72.24	-26544	2110.7	-0.29319	0.91539	0.26996
2.614	72.264	-26551	2110.7	-0.2926	0.91529	0.26957
2.616	72.3	-26553	2110.7	-0.29202	0.9152	0.26918
2.618	72.334	-26555	2110.7	-0.29143	0.9151	0.26879
2.62	72.334	-26552	2110.7	-0.29085	0.915	0.2684
2.622	72.312	-26550	2110.7	-0.29026	0.91539	0.2684
2.624	72.27	-26551	2110.6	-0.28968	0.91578	0.2684
2.626	72.24	-26552	2110.6	-0.28909	0.91617	0.2684
2.628	72.23	-26553	2110.5	-0.28851	0.91656	0.2684
2.63	72.243	-26554	2110.4	-0.28792	0.91695	0.2684
2.632	72.269	-26551	2110.3	-0.28821	0.91724	0.26869
2.634	72.302	-26547	2110.2	-0.28851	0.91754	0.26899
2.636	72.32	-26551	2110.1	-0.2888	0.91783	0.26928
2.638	72.309	-26554	2110.1	-0.28909	0.91812	0.26957
2.64	72.263	-26558	2110	-0.28938	0.91842	0.26986
2.642	72.223	-26562	2110	-0.28958	0.91744	0.26996
2.644	72.205	-26557	2109.9	-0.28977	0.91646	0.27006
2.646	72.212	-26552	2109.9	-0.28997	0.91549	0.27016
2.648	72.237	-26551	2109.8	-0.29016	0.91451	0.27025
2.65	72.268	-26551	2109.7	-0.29036	0.91354	0.27035
2.652	72.283	-26553	2109.6	-0.28997	0.91422	0.26996
2.654	72.283	-26554	2109.5	-0.28958	0.9149	0.26957
2.656	72.26	-26562	2109.4	-0.28919	0.91559	0.26918
2.658	72.225	-26570	2109.3	-0.2888	0.91627	0.26879
2.66	72.198	-26568	2109.2	-0.28841	0.91695	0.2684
2.662	72.192	-26566	2109.1	-0.2886	0.91598	0.2686
2.664	72.213	-26563	2109	-0.2888	0.915	0.26879
2.666	72.249	-26560	2108.9	-0.28899	0.91402	0.26899
2.668	72.282	-26560	2108.8	-0.28919	0.91305	0.26918
2.67	72.296	-26560	2108.7	-0.28938	0.91207	0.26938
2.672	72.277	-26560	2108.6	-0.28909	0.91305	0.26928
2.674	72.238	-26561	2108.4	-0.2888	0.91402	0.26918
2.676	72.208	-26561	2108.3	-0.28851	0.915	0.26908
2.678	72.196	-26562	2108.2	-0.28821	0.91598	0.26899
2.68	72.205	-26563	2108.1	-0.28792	0.91695	0.26889
2.682	72.232	-26564	2108.1	-0.28821	0.91607	0.26908
2.684	72.255	-26564	2108	-0.28851	0.9152	0.26928
2.686	72.26	-26563	2108	-0.2888	0.91432	0.26947
2.688	72.245	-26565	2107.9	-0.28909	0.91344	0.26967
2.69	72.214	-26566	2107.8	-0.28938	0.91256	0.26986
2.692	72.182	-26570	2107.8	-0.29007	0.91354	0.26938
2.694	72.165	-26574	2107.7	-0.29075	0.91451	0.26889
2.696	72.167	-26573	2107.7	-0.29143	0.91549	0.2684
2.698	72.197	-26572	2107.7	-0.29212	0.91646	0.26791
2.7	72.231	-26571	2107.6	-0.2928	0.91744	0.26742
2.702	72.249	-26570	2107.6	-0.2928	0.91715	0.26703
2.704	72.242	-26574	2107.6	-0.2928	0.91685	0.26664
2.706	72.216	-26577	2107.5	-0.2928	0.91656	0.26625
2.708	72.179	-26577	2107.5	-0.2928	0.91627	0.26586
2.71	72.151	-26578	2107.4	-0.2928	0.91598	0.26547
2.712	72.147	-26578	2107.4	-0.29358	0.91637	0.26567
2.714	72.167	-26578	2107.4	-0.29436	0.91676	0.26586
2.716	72.188	-26581	2107.3	-0.29514	0.91715	0.26606
2.718	72.21	-26584	2107.2	-0.29592	0.91754	0.26625
2.72	72.214	-26581	2107.1	-0.2967	0.91793	0.26645
2.722	72.192	-26579	2107	-0.29651	0.91744	0.26635
2.724	72.148	-26578	2106.9	-0.29631	0.91695	0.26625
2.726	72.116	-26577	2106.8	-0.29612	0.91646	0.26616
2.728	72.105	-26580	2106.7	-0.29592	0.91598	0.26606
2.73	72.119	-26583	2106.7	-0.29573	0.91549	0.26596
2.732	72.144	-26582	2106.6	-0.29534	0.915	0.26586
2.734	72.167	-26581	2106.5	-0.29495	0.91451	0.26576
2.736	72.174	-26581	2106.4	-0.29456	0.91402	0.26567
2.738	72.157	-26580	2106.3	-0.29417	0.91354	0.26557
2.74	72.123	-26583	2106.3	-0.29378	0.91305	0.26547
2.742	72.085	-26586	2106.2	-0.29358	0.91266	0.26586
2.744	72.058	-26587	2106.2	-0.29339	0.91227	0.26625
2.746	72.056	-26587	2106.1	-0.29319	0.91188	0.26664
2.748	72.076	-26587	2106.2	-0.293	0.91149	0.26703
2.75	72.104	-26587	2106.2	-0.2928	0.9111	0.26742
2.752	72.122	-26585	2106.2	-0.29309	0.91158	0.26752
2.754	72.119	-26583	2106.2	-0.29339	0.91207	0.26762
2.756	72.095	-26583	2106.3	-0.29368	0.91256	0.26772
2.758	72.059	-26583	2106.3	-0.29397	0.91305	0.26781
2.76	72.033	-26584	2106.4	-0.29426	0.91354	0.26791
2.762	72.027	-26585	2106.5	-0.29475	0.91402	0.26742
2.764	72.046	-26586	2106.5	-0.29524	0.91451	0.26694
2.766	72.083	-26586	2106.6	-0.29573	0.915	0.26645
2.768	72.115	-26583	2106.8	-0.29622	0.91549	0.26596
2.77	72.123	-26580	2107	-0.2967	0.91598	0.26547
2.772	72.102	-26580	2107.1	-0.29729	0.91646	0.26489
2.774	72.059	-26580	2107.2	-0.29788	0.91695	0.2643
2.776	72.029	-26582	2107.4	-0.29846	0.91744	0.26372
2.778	72.024	-26583	2107.5	-0.29905	0.91793	0.26313
2.78	72.034	-26583	2107.6	-0.29963	0.91842	0.26254
2.782	72.056	-26582	2107.8	-0.29885	0.91773	0.26381
2.784	72.084	-26584	2108.1	-0.29807	0.91705	0.26508
2.786	72.096	-26586	2108.3	-0.29729	0.91637	0.26635
2.788	72.094	-26584	2108.5	-0.29651	0.91568	0.26762
2.79	72.085	-26582	2108.7	-0.29573	0.915	0.26889
2.792	72.056	-26583	2109	-0.29475	0.91441	0.26928
2.794	72.038	-26585	2109.3	-0.29378	0.91383	0.26967
2.796	72.055	-26585	2109.5	-0.2928	0.91324	0.27006
2.798	72.09	-26586	2109.8	-0.29182	0.91266	0.27045
2.8	72.128	-26580	2110	-0.29085	0.91207	0.27084
2.802	72.15	-26575	2110.3	-0.29046	0.91266	0.27074
2.804	72.152	-26577	2110.6	-0.29007	0.91324	0.27064
2.806	72.127	-26580	2111	-0.28968	0.91383	0.27055
2.808	72.093	-26574	2111.3	-0.28929	0.91441	0.27045
2.81	72.073	-26569	2111.6	-0.2889	0.915	0.27035
2.812	72.076	-26568	2111.9	-0.29056	0.91441	0.27104
2.814	72.101	-26567	2112.2	-0.29221	0.91383	0.27172
2.816	72.142	-26564	2112.5	-0.29387	0.91324	0.2724
2.818	72.182	-26561	2112.8	-0.29553	0.91266	0.27308
2.82	72.189	-26560	2113.1	-0.29719	0.91207	0.27377
2.822	72.174	-26559	2113.4	-0.297	0.91129	0.27377
2.824	72.147	-26557	2113.6	-0.2968	0.91051	0.27377
2.826	72.126	-26554	2113.9	-0.29661	0.90973	0.27377
2.828	72.128	-26558	2114.2	-0.29641	0.90895	0.27377
2.83	72.154	-26561	2114.5	-0.29622	0.90817	0.27377
2.832	72.202	-26555	2114.7	-0.29739	0.90885	0.27377
2.834	72.251	-26548	2114.9	-0.29856	0.90953	0.27377
2.836	72.269	-26548	2115.2	-0.29973	0.91022	0.27377
2.838	72.258	-26549	2115.3	-0.3009	0.9109	0.27377
2.84	72.231	-26541	2115.5	-0.30207	0.91158	0.27377
2.842	72.203	-26533	2115.7	-0.30129	0.91168	0.27377
2.844	72.194	-26540	2115.8	-0.30051	0.91178	0.27377
2.846	72.207	-26547	2116	-0.29973	0.91188	0.27377
2.848	72.233	-26541	2116.1	-0.29895	0.91197	0.27377
2.85	72.264	-26536	2116.2	-0.29817	0.91207	0.27377
2.852	72.288	-26537	2116.4	-0.29719	0.91197	0.27279
2.854	72.293	-26538	2116.5	-0.29622	0.91188	0.27182
2.856	72.275	-26534	2116.5	-0.29524	0.91178	0.27084
2.858	72.244	-26530	2116.5	-0.29426	0.91168	0.26986
2.86	72.221	-26532	2116.5	-0.29329	0.91158	0.26889
2.862	72.22	-26535	2116.6	-0.29212	0.91305	0.26908
2.864	72.241	-26534	2116.7	-0.29095	0.91451	0.26928
2.866	72.274	-26534	2116.7	-0.28977	0.91598	0.26947
2.868	72.302	-26525	2116.7	-0.2886	0.91744	0.26967
2.87	72.307	-26516	2116.7	-0.28743	0.9189	0.26986
2.872	72.287	-26520	2116.7	-0.28782	0.91832	0.26967
2.874	72.266	-26523	2116.6	-0.28821	0.91773	0.26947
2.876	72.247	-26523	2116.6	-0.2886	0.91715	0.26928
2.878	72.238	-26523	2116.6	-0.28899	0.91656	0.26908
2.88	72.243	-26519	2116.6	-0.28938	0.91598	0.26889
2.882	72.268	-26515	2116.6	-0.28977	0.91578	0.2686
2.884	72.308	-26515	2116.6	-0.29016	0.91559	0.2683
2.886	72.326	-26515	2116.6	-0.29056	0.91539	0.26801
2.888	72.314	-26517	2116.5	-0.29095	0.9152	0.26772
2.89	72.282	-26520	2116.4	-0.29134	0.915	0.26742
2.892	72.255	-26514	2116.4	-0.29182	0.91461	0.26762
2.894	72.226	-26509	2116.3	-0.29231	0.91422	0.26781
2.896	72.222	-26511	2116.3	-0.2928	0.91383	0.26801
2.898	72.246	-26513	2116.2	-0.29329	0.91344	0.2682
2.9	72.286	-26511	2116.1	-0.29378	0.91305	0.2684
2.902	72.304	-26509	2116	-0.29339	0.91344	0.26801
2.904	72.302	-26516	2115.9	-0.293	0.91383	0.26762
2.906	72.283	-26522	2115.9	-0.2926	0.91422	0.26723
2.908	72.259	-26522	2115.8	-0.29221	0.91461	0.26684
2.91	72.237	-26522	2115.7	-0.29182	0.915	0.26645
2.912	72.236	-26521	2115.6	-0.29143	0.91578	0.26674
2.914	72.256	-26520	2115.5	-0.29104	0.91656	0.26703
2.916	72.288	-26524	2115.4	-0.29065	0.91734	0.26733
2.918	72.318	-26528	2115.3	-0.29026	0.91812	0.26762
2.92	72.326	-26526	2115.2	-0.28987	0.9189	0.26791
2.922	72.306	-26525	2115.2	-0.29046	0.91851	0.26762
2.924	72.274	-26520	2115.1	-0.29104	0.91812	0.26733
2.926	72.246	-26515	2115	-0.29163	0.91773	0.26703
2.928	72.233	-26515	2114.9	-0.29221	0.91734	0.26674
2.93	72.242	-26514	2114.9	-0.2928	0.91695	0.26645
2.932	72.269	-26519	2114.8	-0.29339	0.91646	0.26586
2.934	72.299	-26524	2114.7	-0.29397	0.91598	0.26528
2.936	72.316	-26527	2114.7	-0.29456	0.91549	0.26469
2.938	72.307	-26530	2114.6	-0.29514	0.915	0.26411
2.94	72.275	-26525	2114.5	-0.29573	0.91451	0.26352
2.942	72.24	-26520	2114.5	-0.2969	0.91549	0.26372
2.944	72.217	-26520	2114.5	-0.29807	0.91646	0.26391
2.946	72.22	-26520	2114.4	-0.29924	0.91744	0.26411
2.948	72.245	-26528	2114.4	-0.30041	0.91842	0.2643
2.95	72.273	-26535	2114.3	-0.30158	0.91939	0.2645
2.952	72.293	-26526	2114.3	-0.30032	0.91822	0.26508
2.954	72.295	-26517	2114.2	-0.29905	0.91705	0.26567
2.956	72.282	-26514	2114.2	-0.29778	0.91588	0.26625
2.958	72.253	-26511	2114.1	-0.29651	0.91471	0.26684
2.96	72.225	-26512	2114.1	-0.29524	0.91354	0.26742
2.962	72.217	-26513	2114.1	-0.29436	0.91334	0.26781
2.964	72.231	-26518	2114	-0.29348	0.91315	0.2682
2.966	72.264	-26523	2114	-0.2926	0.91295	0.2686
2.968	72.298	-26527	2113.9	-0.29173	0.91276	0.26899
2.97	72.304	-26531	2113.8	-0.29085	0.91256	0.26938
2.972	72.289	-26531	2113.8	-0.29143	0.91295	0.26908
2.974	72.267	-26530	2113.8	-0.29202	0.91334	0.26879
2.976	72.239	-26528	2113.7	-0.2926	0.91373	0.2685
2.978	72.222	-26526	2113.6	-0.29319	0.91412	0.2682
2.98	72.227	-26531	2113.6	-0.29378	0.91451	0.26791
2.982	72.25	-26536	2113.5	-0.29329	0.91451	0.26811
2.984	72.276	-26532	2113.4	-0.2928	0.91451	0.2683
2.986	72.293	-26528	2113.4	-0.29231	0.91451	0.2685
2.988	72.283	-26528	2113.3	-0.29182	0.91451	0.26869
2.99	72.255	-26528	2113.3	-0.29134	0.91451	0.26889
2.992	72.228	-26531	2113.2	-0.29134	0.91373	0.26947
2.994	72.221	-26534	2113.2	-0.29134	0.91295	0.27006
2.996	72.226	-26532	2113.1	-0.29134	0.91217	0.27064
2.998	72.247	-26529	2113.1	-0.29134	0.91139	0.27123
3	72.282	-26533	2113.1	-0.29134	0.91061	0.27182
3.002	72.306	-26538	2113	-0.29173	0.9109	0.27133
3.004	72.308	-26529	2112.9	-0.29212	0.91119	0.27084
3.006	72.29	-26521	2112.8	-0.29251	0.91149	0.27035
3.008	72.266	-26528	2112.8	-0.2929	0.91178	0.26986
3.01	72.246	-26535	2112.8	-0.29329	0.91207	0.26938
3.012	72.234	-26536	2112.7	-0.29348	0.91217	0.26869
3.014	72.241	-26538	2112.7	-0.29368	0.91227	0.26801
3.016	72.267	-26536	2112.6	-0.29387	0.91236	0.26733
3.018	72.295	-26533	2112.6	-0.29407	0.91246	0.26664
3.02	72.307	-26530	2112.5	-0.29426	0.91256	0.26596
3.022	72.288	-26526	2112.5	-0.29387	0.91285	0.26625
3.024	72.26	-26529	2112.4	-0.29348	0.91315	0.26655
3.026	72.231	-26531	2112.4	-0.29309	0.91344	0.26684
3.028	72.218	-26533	2112.3	-0.2927	0.91373	0.26713
3.03	72.231	-26535	2112.3	-0.29231	0.91402	0.26742
3.032	72.259	-26532	2112.3	-0.29221	0.91432	0.26742
3.034	72.288	-26529	2112.2	-0.29212	0.91461	0.26742
3.036	72.306	-26532	2112.2	-0.29202	0.9149	0.26742
3.038	72.297	-26535	2112.2	-0.29192	0.9152	0.26742
3.04	72.274	-26534	2112.2	-0.29182	0.91549	0.26742
3.042	72.254	-26533	2112.2	-0.29143	0.91656	0.26879
3.044	72.237	-26539	2112.1	-0.29104	0.91764	0.27016
3.046	72.241	-26544	2112.1	-0.29065	0.91871	0.27152
3.048	72.253	-26537	2112.1	-0.29026	0.91978	0.27289
3.05	72.289	-26529	2112.1	-0.28987	0.92086	0.27426
3.052	72.317	-26527	2112.1	-0.28968	0.92037	0.27377
3.054	72.316	-26525	2112.1	-0.28948	0.91988	0.27328
3.056	72.298	-26527	2112.1	-0.28929	0.91939	0.27279
3.058	72.259	-26529	2112.1	-0.28909	0.9189	0.2723
3.06	72.228	-26527	2112.1	-0.2889	0.91842	0.27182
3.062	72.229	-26526	2112.1	-0.28919	0.91734	0.27113
3.064	72.255	-26529	2112.1	-0.28948	0.91627	0.27045
3.066	72.29	-26532	2112.1	-0.28977	0.9152	0.26977
3.068	72.323	-26526	2112.1	-0.29007	0.91412	0.26908
3.07	72.325	-26519	2112.2	-0.29036	0.91305	0.2684
3.072	72.302	-26525	2112.1	-0.28997	0.91373	0.26801
3.074	72.275	-26530	2112.1	-0.28958	0.91441	0.26762
3.076	72.248	-26526	2112.1	-0.28919	0.9151	0.26723
3.078	72.233	-26521	2112.2	-0.2888	0.91578	0.26684
3.08	72.235	-26520	2112.2	-0.28841	0.91646	0.26645
3.082	72.261	-26518	2112.2	-0.28812	0.91617	0.26733
3.084	72.301	-26522	2112.2	-0.28782	0.91588	0.2682
3.086	72.327	-26526	2112.2	-0.28753	0.91559	0.26908
3.088	72.318	-26523	2112.3	-0.28724	0.91529	0.26996
3.09	72.287	-26521	2112.3	-0.28694	0.915	0.27084
3.092	72.254	-26524	2112.3	-0.2887	0.91383	0.27152
3.094	72.235	-26526	2112.3	-0.29046	0.91266	0.27221
3.096	72.241	-26529	2112.3	-0.29221	0.91149	0.27289
3.098	72.27	-26532	2112.3	-0.29397	0.91032	0.27357
3.1	72.305	-26523	2112.3	-0.29573	0.90914	0.27426
3.102	72.322	-26514	2112.4	-0.29514	0.90944	0.27455
3.104	72.318	-26526	2112.4	-0.29456	0.90973	0.27484
3.106	72.297	-26537	2112.4	-0.29397	0.91002	0.27513
3.108	72.269	-26533	2112.4	-0.29339	0.91032	0.27543
3.11	72.252	-26529	2112.5	-0.2928	0.91061	0.27572
3.112	72.247	-26530	2112.5	-0.29329	0.911	0.27455
3.114	72.257	-26532	2112.5	-0.29378	0.91139	0.27338
3.116	72.294	-26531	2112.5	-0.29426	0.91178	0.27221
3.118	72.32	-26531	2112.5	-0.29475	0.91217	0.27104
3.12	72.327	-26527	2112.5	-0.29524	0.91256	0.26986
3.122	72.305	-26524	2112.6	-0.29524	0.91276	0.26986
3.124	72.278	-26521	2112.6	-0.29524	0.91295	0.26986
3.126	72.251	-26519	2112.6	-0.29524	0.91315	0.26986
3.128	72.239	-26523	2112.6	-0.29524	0.91334	0.26986
3.13	72.257	-26526	2112.7	-0.29524	0.91354	0.26986
3.132	72.283	-26526	2112.7	-0.29426	0.91383	0.26977
3.134	72.306	-26526	2112.7	-0.29329	0.91412	0.26967
3.136	72.307	-26525	2112.7	-0.29231	0.91441	0.26957
3.138	72.294	-26523	2112.8	-0.29134	0.91471	0.26947
3.14	72.261	-26526	2112.8	-0.29036	0.915	0.26938
3.142	72.228	-26528	2112.8	-0.29036	0.9151	0.26938
3.144	72.205	-26531	2112.8	-0.29036	0.9152	0.26938
3.146	72.206	-26534	2112.8	-0.29036	0.91529	0.26938
3.148	72.229	-26526	2112.9	-0.29036	0.91539	0.26938
3.15	72.264	-26519	2112.9	-0.29036	0.91549	0.26938
3.152	72.294	-26521	2112.9	-0.29114	0.91529	0.26879
3.154	72.295	-26523	2112.9	-0.29192	0.9151	0.2682
3.156	72.273	-26524	2112.9	-0.2927	0.9149	0.26762
3.158	72.241	-26524	2112.9	-0.29348	0.91471	0.26703
3.16	72.217	-26530	2112.9	-0.29426	0.91451	0.26645
3.162	72.203	-26536	2112.9	-0.29514	0.9152	0.26576
3.164	72.208	-26537	2112.9	-0.29602	0.91588	0.26508
3.166	72.235	-26538	2112.8	-0.2969	0.91656	0.2644
3.168	72.258	-26535	2112.8	-0.29778	0.91724	0.26372
3.17	72.269	-26533	2112.8	-0.29866	0.91793	0.26303
3.172	72.259	-26530	2112.7	-0.29788	0.91783	0.26372
3.174	72.229	-26528	2112.7	-0.29709	0.91773	0.2644
3.176	72.202	-26528	2112.6	-0.29631	0.91764	0.26508
3.178	72.198	-26528	2112.5	-0.29553	0.91754	0.26576
3.18	72.213	-26528	2112.5	-0.29475	0.91744	0.26645
3.182	72.24	-26528	2112.4	-0.29426	0.91685	0.26645
3.184	72.262	-26533	2112.4	-0.29378	0.91627	0.26645
3.186	72.268	-26538	2112.3	-0.29329	0.91568	0.26645
3.188	72.256	-26529	2112.3	-0.2928	0.9151	0.26645
3.19	72.234	-26521	2112.2	-0.29231	0.91451	0.26645
3.192	72.205	-26517	2112.2	-0.29221	0.91412	0.26713
3.194	72.179	-26513	2112.1	-0.29212	0.91373	0.26781
3.196	72.184	-26516	2112.1	-0.29202	0.91334	0.2685
3.198	72.216	-26518	2112	-0.29192	0.91295	0.26918
3.2	72.258	-26521	2112	-0.29182	0.91256	0.26986
3.202	72.291	-26524	2111.9	-0.29231	0.91295	0.26918
3.204	72.303	-26525	2111.8	-0.2928	0.91334	0.2685
3.206	72.289	-26527	2111.7	-0.29329	0.91373	0.26781
3.208	72.269	-26526	2111.6	-0.29378	0.91412	0.26713
3.21	72.24	-26525	2111.6	-0.29426	0.91451	0.26645
3.212	72.232	-26526	2111.5	-0.29417	0.91402	0.26655
3.214	72.258	-26527	2111.4	-0.29407	0.91354	0.26664
3.216	72.297	-26527	2111.4	-0.29397	0.91305	0.26674
3.218	72.336	-26528	2111.3	-0.29387	0.91256	0.26684
3.22	72.345	-26531	2111.3	-0.29378	0.91207	0.26694
3.222	72.321	-26534	2111.2	-0.29407	0.91178	0.26811
3.224	72.296	-26532	2111.1	-0.29436	0.91149	0.26928
3.226	72.274	-26530	2111	-0.29465	0.91119	0.27045
3.228	72.265	-26531	2110.9	-0.29495	0.9109	0.27162
3.23	72.273	-26531	2110.8	-0.29524	0.91061	0.27279
3.232	72.303	-26530	2110.8	-0.29475	0.9109	0.27289
3.234	72.338	-26528	2110.8	-0.29426	0.91119	0.27299
3.236	72.351	-26528	2110.7	-0.29378	0.91149	0.27308
3.238	72.341	-26527	2110.7	-0.29329	0.91178	0.27318
3.24	72.31	-26534	2110.7	-0.2928	0.91207	0.27328
3.242	72.276	-26540	2110.6	-0.29221	0.91217	0.27318
3.244	72.261	-26540	2110.5	-0.29163	0.91227	0.27308
3.246	72.263	-26540	2110.4	-0.29104	0.91236	0.27299
3.248	72.285	-26534	2110.4	-0.29046	0.91246	0.27289
3.25	72.319	-26528	2110.3	-0.28987	0.91256	0.27279
3.252	72.344	-26532	2110.2	-0.28987	0.91266	0.2725
3.254	72.343	-26535	2110.2	-0.28987	0.91276	0.27221
3.256	72.319	-26537	2110.1	-0.28987	0.91285	0.27191
3.258	72.289	-26538	2110	-0.28987	0.91295	0.27162
3.26	72.273	-26538	2110	-0.28987	0.91305	0.27133
3.262	72.277	-26538	2109.9	-0.28948	0.91373	0.27074
3.264	72.291	-26537	2109.9	-0.28909	0.91441	0.27016
3.266	72.315	-26537	2109.8	-0.2887	0.9151	0.26957
3.268	72.34	-26535	2109.7	-0.28831	0.91578	0.26899
3.27	72.352	-26534	2109.6	-0.28792	0.91646	0.2684
3.272	72.345	-26536	2109.6	-0.28772	0.91617	0.2685
3.274	72.324	-26539	2109.5	-0.28753	0.91588	0.2686
3.276	72.303	-26542	2109.4	-0.28733	0.91559	0.26869
3.278	72.294	-26546	2109.3	-0.28714	0.91529	0.26879
3.28	72.305	-26542	2109.3	-0.28694	0.915	0.26889
3.282	72.335	-26539	2109.2	-0.28753	0.91539	0.26928
3.284	72.36	-26543	2109.2	-0.28812	0.91578	0.26967
3.286	72.349	-26547	2109.1	-0.2887	0.91617	0.27006
3.288	72.316	-26543	2109	-0.28929	0.91656	0.27045
3.29	72.253	-26539	2109	-0.28987	0.91695	0.27084
3.292	72.175	-26540	2108.9	-0.28948	0.91695	0.27064
3.294	72.111	-26540	2108.8	-0.28909	0.91695	0.27045
3.296	72.071	-26540	2108.7	-0.2887	0.91695	0.27025
3.298	72.03	-26540	2108.7	-0.28831	0.91695	0.27006
3.3	71.992	-26539	2108.6	-0.28792	0.91695	0.26986
3.302	71.952	-26538	2108.6	-0.28831	0.91666	0.26928
3.304	71.87	-26543	2108.5	-0.2887	0.91637	0.26869
3.306	71.767	-26549	2108.5	-0.28909	0.91607	0.26811
3.308	71.659	-26549	2108.5	-0.28948	0.91578	0.26752
3.31	71.584	-26550	2108.5	-0.28987	0.91549	0.26694
3.312	71.55	-26549	2108.4	-0.29046	0.91441	0.2683
3.314	71.558	-26547	2108.4	-0.29104	0.91334	0.26967
3.316	71.578	-26547	2108.3	-0.29163	0.91227	0.27104
3.318	71.63	-26546	2108.3	-0.29221	0.91119	0.2724
3.32	71.683	-26544	2108.3	-0.2928	0.91012	0.27377
3.322	71.733	-26543	2108.2	-0.2928	0.9111	0.27308
3.324	71.788	-26541	2108.2	-0.2928	0.91207	0.2724
3.326	71.862	-26538	2108.1	-0.2928	0.91305	0.27172
3.328	71.968	-26538	2108.1	-0.2928	0.91402	0.27104
3.33	72.095	-26538	2108	-0.2928	0.915	0.27035
3.332	72.21	-26540	2108	-0.29182	0.9152	0.26996
3.334	72.289	-26542	2108	-0.29085	0.91539	0.26957
3.336	72.324	-26544	2108	-0.28987	0.91559	0.26918
3.338	72.322	-26546	2107.9	-0.2889	0.91578	0.26879
3.34	72.309	-26544	2107.9	-0.28792	0.91598	0.2684
3.342	72.288	-26542	2107.9	-0.28851	0.91529	0.2685
3.344	72.267	-26546	2107.9	-0.28909	0.91461	0.2686
3.346	72.268	-26550	2107.9	-0.28968	0.91393	0.26869
3.348	72.293	-26553	2107.9	-0.29026	0.91324	0.26879
3.35	72.324	-26556	2107.9	-0.29085	0.91256	0.26889
3.352	72.341	-26554	2107.9	-0.29114	0.91295	0.26889
3.354	72.332	-26553	2107.9	-0.29143	0.91334	0.26889
3.356	72.306	-26550	2107.9	-0.29173	0.91373	0.26889
3.358	72.275	-26547	2108	-0.29202	0.91412	0.26889
3.36	72.247	-26545	2108	-0.29231	0.91451	0.26889
3.362	72.233	-26543	2107.9	-0.2928	0.9148	0.26811
3.364	72.246	-26548	2107.9	-0.29329	0.9151	0.26733
3.366	72.272	-26554	2107.9	-0.29378	0.91539	0.26655
3.368	72.288	-26552	2107.8	-0.29426	0.91568	0.26576
3.37	72.297	-26551	2107.7	-0.29475	0.91598	0.26498
3.372	72.287	-26551	2107.7	-0.29544	0.91549	0.26655
3.374	72.26	-26552	2107.7	-0.29612	0.915	0.26811
3.376	72.227	-26556	2107.7	-0.2968	0.91451	0.26967
3.378	72.208	-26560	2107.7	-0.29748	0.91402	0.27123
3.38	72.215	-26557	2107.6	-0.29817	0.91354	0.27279
3.382	72.248	-26555	2107.7	-0.29661	0.91393	0.27191
3.384	72.291	-26554	2107.7	-0.29504	0.91432	0.27104
3.386	72.301	-26554	2107.7	-0.29348	0.91471	0.27016
3.388	72.295	-26555	2107.7	-0.29192	0.9151	0.26928
3.39	72.269	-26556	2107.6	-0.29036	0.91549	0.2684
3.392	72.232	-26560	2107.6	-0.29065	0.91549	0.2682
3.394	72.203	-26565	2107.6	-0.29095	0.91549	0.26801
3.396	72.204	-26567	2107.5	-0.29124	0.91549	0.26781
3.398	72.234	-26570	2107.5	-0.29153	0.91549	0.26762
3.4	72.27	-26561	2107.4	-0.29182	0.91549	0.26742
3.402	72.279	-26552	2107.4	-0.29202	0.91432	0.2682
3.404	72.267	-26556	2107.3	-0.29221	0.91315	0.26899
3.406	72.253	-26559	2107.3	-0.29241	0.91197	0.26977
3.408	72.23	-26563	2107.2	-0.2926	0.9108	0.27055
3.41	72.197	-26566	2107.2	-0.2928	0.90963	0.27133
3.412	72.184	-26557	2107.1	-0.29407	0.91012	0.27152
3.414	72.203	-26548	2107.1	-0.29534	0.91061	0.27172
3.416	72.235	-26551	2107.1	-0.29661	0.9111	0.27191
3.418	72.265	-26555	2107.1	-0.29788	0.91158	0.27211
3.42	72.274	-26556	2107	-0.29914	0.91207	0.2723
3.422	72.254	-26558	2107	-0.29719	0.91227	0.27162
3.424	72.219	-26561	2107	-0.29524	0.91246	0.27094
3.426	72.183	-26563	2107	-0.29329	0.91266	0.27025
3.428	72.168	-26561	2107	-0.29134	0.91285	0.26957
3.43	72.174	-26560	2106.9	-0.28938	0.91305	0.26889
3.432	72.196	-26558	2106.9	-0.28968	0.91324	0.2683
3.434	72.226	-26555	2106.9	-0.28997	0.91344	0.26772
3.436	72.236	-26561	2106.9	-0.29026	0.91363	0.26713
3.438	72.222	-26566	2106.9	-0.29056	0.91383	0.26655
3.44	72.198	-26561	2106.9	-0.29085	0.91402	0.26596
3.442	72.161	-26555	2106.9	-0.29095	0.91422	0.26576
3.444	72.134	-26553	2106.9	-0.29104	0.91441	0.26557
3.446	72.141	-26551	2106.9	-0.29114	0.91461	0.26537
3.448	72.174	-26555	2106.9	-0.29124	0.9148	0.26518
3.45	72.205	-26560	2106.9	-0.29134	0.915	0.26498
3.452	72.21	-26559	2106.8	-0.29182	0.91451	0.26557
3.454	72.204	-26559	2106.8	-0.29231	0.91402	0.26616
3.456	72.182	-26563	2106.7	-0.2928	0.91354	0.26674
3.458	72.146	-26567	2106.7	-0.29329	0.91305	0.26733
3.46	72.109	-26567	2106.6	-0.29378	0.91256	0.26791
3.462	72.101	-26567	2106.5	-0.2929	0.91276	0.2684
3.464	72.106	-26568	2106.4	-0.29202	0.91295	0.26889
3.466	72.133	-26569	2106.3	-0.29114	0.91315	0.26938
3.468	72.169	-26568	2106.2	-0.29026	0.91334	0.26986
3.47	72.181	-26568	2106.2	-0.28938	0.91354	0.27035
3.472	72.16	-26562	2106	-0.28929	0.91363	0.26996
3.474	72.143	-26556	2105.9	-0.28919	0.91373	0.26957
3.476	72.104	-26556	2105.8	-0.28909	0.91383	0.26918
3.478	72.07	-26555	2105.8	-0.28899	0.91393	0.26879
3.48	72.076	-26560	2105.7	-0.2889	0.91402	0.2684
3.482	72.101	-26566	2105.6	-0.28909	0.91354	0.26928
3.484	72.127	-26565	2105.5	-0.28929	0.91305	0.27016
3.486	72.146	-26565	2105.5	-0.28948	0.91256	0.27104
3.488	72.132	-26565	2105.4	-0.28968	0.91207	0.27191
3.49	72.1	-26565	2105.4	-0.28987	0.91158	0.27279
3.492	72.063	-26566	2105.4	-0.28977	0.91236	0.2725
3.494	72.04	-26568	2105.5	-0.28968	0.91315	0.27221
3.496	72.038	-26568	2105.5	-0.28958	0.91393	0.27191
3.498	72.057	-26568	2105.5	-0.28948	0.91471	0.27162
3.5	72.086	-26573	2105.5	-0.28938	0.91549	0.27133
3.502	72.101	-26579	2105.6	-0.29026	0.9149	0.27084
3.504	72.098	-26574	2105.7	-0.29114	0.91432	0.27035
3.506	72.077	-26570	2105.8	-0.29202	0.91373	0.26986
3.508	72.036	-26568	2105.9	-0.2929	0.91315	0.26938
3.51	72.006	-26567	2106	-0.29378	0.91256	0.26889
3.512	72.001	-26565	2106.1	-0.2929	0.91305	0.2686
3.514	72.02	-26564	2106.2	-0.29202	0.91354	0.2683
3.516	72.054	-26564	2106.3	-0.29114	0.91402	0.26801
3.518	72.088	-26564	2106.5	-0.29026	0.91451	0.26772
3.52	72.098	-26567	2106.6	-0.28938	0.915	0.26742
3.522	72.082	-26571	2106.8	-0.2889	0.9152	0.26781
3.524	72.052	-26571	2107	-0.28841	0.91539	0.2682
3.526	72.015	-26571	2107.2	-0.28792	0.91559	0.2686
3.528	71.998	-26567	2107.4	-0.28743	0.91578	0.26899
3.53	72.019	-26562	2107.6	-0.28694	0.91598	0.26938
3.532	72.053	-26562	2107.8	-0.28675	0.91666	0.26908
3.534	72.08	-26561	2108.1	-0.28655	0.91734	0.26879
3.536	72.099	-26561	2108.4	-0.28636	0.91803	0.2685
3.538	72.102	-26561	2108.6	-0.28616	0.91871	0.2682
3.54	72.088	-26560	2108.9	-0.28597	0.91939	0.26791
3.542	72.064	-26559	2109.2	-0.28685	0.919	0.26811
3.544	72.048	-26551	2109.5	-0.28772	0.91861	0.2683
3.546	72.055	-26543	2109.8	-0.2886	0.91822	0.2685
3.548	72.081	-26543	2110.1	-0.28948	0.91783	0.26869
3.55	72.12	-26543	2110.4	-0.29036	0.91744	0.26889
3.552	72.148	-26540	2110.7	-0.28958	0.91685	0.26918
3.554	72.151	-26537	2111	-0.2888	0.91627	0.26947
3.556	72.135	-26539	2111.3	-0.28802	0.91568	0.26977
3.558	72.116	-26541	2111.6	-0.28724	0.9151	0.27006
3.56	72.098	-26544	2111.8	-0.28646	0.91451	0.27035
3.562	72.101	-26547	2112.1	-0.28694	0.91432	0.27055
3.564	72.124	-26538	2112.4	-0.28743	0.91412	0.27074
3.566	72.159	-26529	2112.7	-0.28792	0.91393	0.27094
3.568	72.193	-26524	2113	-0.28841	0.91373	0.27113
3.57	72.208	-26519	2113.2	-0.2889	0.91354	0.27133
3.572	72.198	-26517	2113.4	-0.29095	0.91256	0.2725
3.574	72.178	-26515	2113.6	-0.293	0.91158	0.27367
3.576	72.164	-26517	2113.8	-0.29504	0.91061	0.27484
3.578	72.167	-26519	2114.1	-0.29709	0.90963	0.27601
3.58	72.178	-26516	2114.3	-0.29914	0.90866	0.27718
3.582	72.208	-26513	2114.4	-0.29739	0.90924	0.27601
3.584	72.247	-26513	2114.5	-0.29563	0.90983	0.27484
3.586	72.27	-26513	2114.7	-0.29387	0.91041	0.27367
3.588	72.269	-26516	2114.8	-0.29212	0.911	0.2725
3.59	72.249	-26519	2115	-0.29036	0.91158	0.27133
3.592	72.223	-26515	2115.1	-0.29143	0.91217	0.27016
3.594	72.203	-26512	2115.2	-0.29251	0.91276	0.26899
3.596	72.205	-26508	2115.3	-0.29358	0.91334	0.26781
3.598	72.235	-26504	2115.3	-0.29465	0.91393	0.26664
3.6	72.274	-26499	2115.3	-0.29573	0.91451	0.26547
3.602	72.298	-26495	2115.3	-0.29436	0.91461	0.26586
3.604	72.299	-26490	2115.4	-0.293	0.91471	0.26625
3.606	72.284	-26485	2115.4	-0.29163	0.9148	0.26664
3.608	72.254	-26481	2115.4	-0.29026	0.9149	0.26703
3.61	72.223	-26478	2115.4	-0.2889	0.915	0.26742
3.612	72.218	-26482	2115.4	-0.28919	0.9151	0.26772
3.614	72.238	-26486	2115.3	-0.28948	0.9152	0.26801
3.616	72.268	-26490	2115.3	-0.28977	0.91529	0.2683
3.618	72.295	-26494	2115.3	-0.29007	0.91539	0.2686
3.62	72.305	-26493	2115.2	-0.29036	0.91549	0.26889
3.622	72.292	-26493	2115.2	-0.29085	0.91529	0.2685
3.624	72.26	-26495	2115.1	-0.29134	0.9151	0.26811
3.626	72.23	-26496	2115.1	-0.29182	0.9149	0.26772
3.628	72.217	-26491	2115	-0.29231	0.91471	0.26733
3.63	72.231	-26487	2115	-0.2928	0.91451	0.26694
3.632	72.269	-26487	2114.9	-0.29309	0.9152	0.26694
3.634	72.307	-26487	2114.8	-0.29339	0.91588	0.26694
3.636	72.321	-26483	2114.7	-0.29368	0.91656	0.26694
3.638	72.313	-26479	2114.7	-0.29397	0.91724	0.26694
3.64	72.281	-26484	2114.6	-0.29426	0.91793	0.26694
3.642	72.238	-26489	2114.6	-0.29319	0.91881	0.26733
3.644	72.217	-26482	2114.5	-0.29212	0.91968	0.26772
3.646	72.226	-26475	2114.4	-0.29104	0.92056	0.26811
3.648	72.254	-26477	2114.4	-0.28997	0.92144	0.2685
3.65	72.278	-26479	2114.3	-0.2889	0.92232	0.26889
3.652	72.302	-26479	2114.2	-0.2888	0.92212	0.26889
3.654	72.312	-26478	2114.1	-0.2887	0.92193	0.26889
3.656	72.291	-26483	2113.9	-0.2886	0.92173	0.26889
3.658	72.253	-26488	2113.8	-0.28851	0.92154	0.26889
3.66	72.226	-26486	2113.7	-0.28841	0.92134	0.26889
3.662	72.221	-26485	2113.6	-0.28899	0.91959	0.26889
3.664	72.231	-26489	2113.5	-0.28958	0.91783	0.26889
3.666	72.264	-26493	2113.4	-0.29016	0.91607	0.26889
3.668	72.3	-26488	2113.3	-0.29075	0.91432	0.26889
3.67	72.311	-26483	2113.3	-0.29134	0.91256	0.26889
3.672	72.289	-26482	2113.2	-0.29173	0.91217	0.26957
3.674	72.253	-26482	2113.1	-0.29212	0.91178	0.27025
3.676	72.224	-26481	2113	-0.29251	0.91139	0.27094
3.678	72.218	-26480	2112.9	-0.2929	0.911	0.27162
3.68	72.233	-26482	2112.9	-0.29329	0.91061	0.2723
3.682	72.259	-26483	2112.8	-0.293	0.9109	0.27201
3.684	72.29	-26479	2112.8	-0.2927	0.91119	0.27172
3.686	72.307	-26475	2112.7	-0.29241	0.91149	0.27143
3.688	72.3	-26478	2112.6	-0.29212	0.91178	0.27113
3.69	72.273	-26481	2112.6	-0.29182	0.91207	0.27084
3.692	72.235	-26481	2112.5	-0.29221	0.91227	0.27064
3.694	72.211	-26481	2112.5	-0.2926	0.91246	0.27045
3.696	72.214	-26487	2112.5	-0.293	0.91266	0.27025
3.698	72.232	-26492	2112.4	-0.29339	0.91285	0.27006
3.7	72.263	-26487	2112.3	-0.29378	0.91305	0.26986
3.702	72.289	-26482	2112.3	-0.29368	0.91256	0.27016
3.704	72.29	-26479	2112.3	-0.29358	0.91207	0.27045
3.706	72.274	-26475	2112.2	-0.29348	0.91158	0.27074
3.708	72.239	-26478	2112.2	-0.29339	0.9111	0.27104
3.71	72.206	-26480	2112.1	-0.29329	0.91061	0.27133
3.712	72.203	-26482	2112	-0.29329	0.91041	0.27133
3.714	72.222	-26484	2112	-0.29329	0.91022	0.27133
3.716	72.253	-26488	2111.9	-0.29329	0.91002	0.27133
3.718	72.284	-26492	2111.8	-0.29329	0.90983	0.27133
3.72	72.296	-26485	2111.7	-0.29329	0.90963	0.27133
3.722	72.286	-26478	2111.7	-0.29339	0.91002	0.27152
3.724	72.259	-26479	2111.6	-0.29348	0.91041	0.27172
3.726	72.219	-26479	2111.5	-0.29358	0.9108	0.27191
3.728	72.198	-26486	2111.4	-0.29368	0.91119	0.27211
3.73	72.204	-26492	2111.3	-0.29378	0.91158	0.2723
3.732	72.241	-26494	2111.3	-0.29387	0.91129	0.2723
3.734	72.279	-26496	2111.2	-0.29397	0.911	0.2723
3.736	72.297	-26491	2111.2	-0.29407	0.91071	0.2723
3.738	72.284	-26487	2111.2	-0.29417	0.91041	0.2723
3.74	72.248	-26490	2111.1	-0.29426	0.91012	0.2723
3.742	72.213	-26493	2111.1	-0.29387	0.91022	0.27211
3.744	72.193	-26487	2111	-0.29348	0.91032	0.27191
3.746	72.199	-26480	2111	-0.29309	0.91041	0.27172
3.748	72.225	-26482	2110.9	-0.2927	0.91051	0.27152
3.75	72.269	-26484	2110.9	-0.29231	0.91061	0.27133
3.752	72.3	-26486	2110.8	-0.29329	0.9109	0.27182
3.754	72.299	-26488	2110.8	-0.29426	0.91119	0.2723
3.756	72.272	-26485	2110.8	-0.29524	0.91149	0.27279
3.758	72.244	-26482	2110.7	-0.29622	0.91178	0.27328
3.76	72.228	-26483	2110.7	-0.29719	0.91207	0.27377
3.762	72.228	-26483	2110.6	-0.29631	0.91256	0.27299
3.764	72.237	-26485	2110.6	-0.29544	0.91305	0.27221
3.766	72.262	-26487	2110.5	-0.29456	0.91354	0.27143
3.768	72.291	-26489	2110.5	-0.29368	0.91402	0.27064
3.77	72.303	-26492	2110.4	-0.2928	0.91451	0.26986
3.772	72.287	-26497	2110.4	-0.29309	0.91432	0.26986
3.774	72.253	-26502	2110.4	-0.29339	0.91412	0.26986
3.776	72.224	-26492	2110.3	-0.29368	0.91393	0.26986
3.778	72.213	-26481	2110.3	-0.29397	0.91373	0.26986
3.78	72.226	-26482	2110.3	-0.29426	0.91354	0.26986
3.782	72.253	-26482	2110.3	-0.29378	0.91383	0.26957
3.784	72.282	-26485	2110.2	-0.29329	0.91412	0.26928
3.786	72.302	-26488	2110.2	-0.2928	0.91441	0.26899
3.788	72.297	-26494	2110.2	-0.29231	0.91471	0.26869
3.79	72.262	-26499	2110.2	-0.29182	0.915	0.2684
3.792	72.226	-26500	2110.2	-0.29163	0.91461	0.26899
3.794	72.207	-26502	2110.2	-0.29143	0.91422	0.26957
3.796	72.211	-26499	2110.2	-0.29124	0.91383	0.27016
3.798	72.241	-26497	2110.2	-0.29104	0.91344	0.27074
3.8	72.267	-26497	2110.2	-0.29085	0.91305	0.27133
3.802	72.292	-26497	2110.2	-0.2927	0.91402	0.27143
3.804	72.304	-26496	2110.2	-0.29456	0.915	0.27152
3.806	72.294	-26495	2110.2	-0.29641	0.91598	0.27162
3.808	72.26	-26497	2110.2	-0.29827	0.91695	0.27172
3.81	72.227	-26498	2110.2	-0.30012	0.91793	0.27182
3.812	72.224	-26497	2110.2	-0.29885	0.91705	0.27211
3.814	72.251	-26495	2110.3	-0.29758	0.91617	0.2724
3.816	72.279	-26497	2110.3	-0.29631	0.91529	0.27269
3.818	72.296	-26498	2110.3	-0.29504	0.91441	0.27299
3.82	72.306	-26500	2110.4	-0.29378	0.91354	0.27328
3.822	72.289	-26501	2110.4	-0.29436	0.91285	0.27348
3.824	72.266	-26499	2110.4	-0.29495	0.91217	0.27367
3.826	72.237	-26498	2110.4	-0.29553	0.91149	0.27387
3.828	72.215	-26495	2110.4	-0.29612	0.9108	0.27406
3.83	72.217	-26492	2110.4	-0.2967	0.91012	0.27426
3.832	72.25	-26492	2110.4	-0.29592	0.91022	0.27318
3.834	72.285	-26492	2110.4	-0.29514	0.91032	0.27211
3.836	72.307	-26493	2110.4	-0.29436	0.91041	0.27104
3.838	72.302	-26495	2110.5	-0.29358	0.91051	0.26996
3.84	72.28	-26497	2110.5	-0.2928	0.91061	0.26889
3.842	72.257	-26499	2110.5	-0.29397	0.9111	0.27006
3.844	72.24	-26496	2110.5	-0.29514	0.91158	0.27123
3.846	72.247	-26494	2110.5	-0.29631	0.91207	0.2724
3.848	72.272	-26491	2110.5	-0.29748	0.91256	0.27357
3.85	72.3	-26489	2110.5	-0.29866	0.91305	0.27474
3.852	72.319	-26493	2110.6	-0.297	0.91266	0.27396
3.854	72.317	-26497	2110.6	-0.29534	0.91227	0.27318
3.856	72.295	-26496	2110.6	-0.29368	0.91188	0.2724
3.858	72.27	-26495	2110.5	-0.29202	0.91149	0.27162
3.86	72.249	-26492	2110.5	-0.29036	0.9111	0.27084
3.862	72.239	-26490	2110.5	-0.29202	0.911	0.27191
3.864	72.251	-26490	2110.6	-0.29368	0.9109	0.27299
3.866	72.284	-26490	2110.6	-0.29534	0.9108	0.27406
3.868	72.314	-26490	2110.6	-0.297	0.91071	0.27513
3.87	72.323	-26489	2110.5	-0.29866	0.91061	0.27621
3.872	72.31	-26488	2110.5	-0.29797	0.9111	0.27494
3.874	72.284	-26486	2110.5	-0.29729	0.91158	0.27367
3.876	72.252	-26489	2110.5	-0.29661	0.91207	0.2724
3.878	72.232	-26493	2110.5	-0.29592	0.91256	0.27113
3.88	72.24	-26489	2110.5	-0.29524	0.91305	0.26986
3.882	72.267	-26486	2110.5	-0.29387	0.91344	0.27025
3.884	72.296	-26491	2110.5	-0.29251	0.91383	0.27064
3.886	72.313	-26496	2110.5	-0.29114	0.91422	0.27104
3.888	72.304	-26493	2110.5	-0.28977	0.91461	0.27143
3.89	72.261	-26490	2110.5	-0.28841	0.915	0.27182
3.892	72.211	-26486	2110.5	-0.28831	0.91549	0.27084
3.894	72.184	-26482	2110.5	-0.28821	0.91598	0.26986
3.896	72.187	-26486	2110.5	-0.28812	0.91646	0.26889
3.898	72.207	-26490	2110.5	-0.28802	0.91695	0.26791
3.9	72.247	-26488	2110.5	-0.28792	0.91744	0.26694
3.902	72.28	-26486	2110.4	-0.28851	0.91715	0.26694
3.904	72.293	-26489	2110.4	-0.28909	0.91685	0.26694
3.906	72.28	-26491	2110.4	-0.28968	0.91656	0.26694
3.908	72.252	-26490	2110.4	-0.29026	0.91627	0.26694
3.91	72.215	-26490	2110.4	-0.29085	0.91598	0.26694
3.912	72.2	-26487	2110.3	-0.29114	0.91578	0.26723
3.914	72.21	-26484	2110.3	-0.29143	0.91559	0.26752
3.916	72.233	-26484	2110.2	-0.29173	0.91539	0.26781
3.918	72.262	-26484	2110.2	-0.29202	0.9152	0.26811
3.92	72.261	-26484	2110.2	-0.29231	0.915	0.2684
3.922	72.239	-26483	2110.1	-0.2926	0.9148	0.26762
3.924	72.216	-26488	2110.1	-0.2929	0.91461	0.26684
3.926	72.191	-26493	2110.1	-0.29319	0.91441	0.26606
3.928	72.18	-26489	2110	-0.29348	0.91422	0.26528
3.93	72.186	-26484	2109.9	-0.29378	0.91402	0.2645
3.932	72.218	-26487	2109.9	-0.2929	0.91451	0.26518
3.934	72.261	-26490	2109.9	-0.29202	0.915	0.26586
3.936	72.272	-26494	2109.8	-0.29114	0.91549	0.26655
3.938	72.26	-26497	2109.7	-0.29026	0.91598	0.26723
3.94	72.236	-26493	2109.7	-0.28938	0.91646	0.26791
3.942	72.205	-26489	2109.6	-0.28968	0.91617	0.26801
3.944	72.178	-26487	2109.6	-0.28997	0.91588	0.26811
3.946	72.174	-26485	2109.5	-0.29026	0.91559	0.2682
3.948	72.197	-26483	2109.4	-0.29056	0.91529	0.2683
3.95	72.23	-26482	2109.3	-0.29085	0.915	0.2684
3.952	72.253	-26485	2109.3	-0.29124	0.91412	0.26889
3.954	72.262	-26487	2109.2	-0.29163	0.91324	0.26938
3.956	72.253	-26490	2109.1	-0.29202	0.91236	0.26986
3.958	72.228	-26493	2109.1	-0.29241	0.91149	0.27035
3.96	72.204	-26495	2109	-0.2928	0.91061	0.27084
3.962	72.203	-26498	2109	-0.29221	0.91168	0.27006
3.964	72.228	-26495	2108.9	-0.29163	0.91276	0.26928
3.966	72.269	-26492	2108.9	-0.29104	0.91383	0.2685
3.968	72.31	-26493	2108.8	-0.29046	0.9149	0.26772
3.97	72.326	-26494	2108.8	-0.28987	0.91598	0.26694
3.972	72.32	-26495	2108.7	-0.28987	0.91568	0.26742
3.974	72.293	-26495	2108.7	-0.28987	0.91539	0.26791
3.976	72.268	-26491	2108.7	-0.28987	0.9151	0.2684
3.978	72.248	-26487	2108.6	-0.28987	0.9148	0.26889
3.98	72.249	-26487	2108.5	-0.28987	0.91451	0.26938
3.982	72.265	-26488	2108.5	-0.29007	0.91451	0.26928
3.984	72.31	-26489	2108.5	-0.29026	0.91451	0.26918
3.986	72.33	-26491	2108.4	-0.29046	0.91451	0.26908
3.988	72.334	-26490	2108.3	-0.29065	0.91451	0.26899
3.99	72.31	-26488	2108.3	-0.29085	0.91451	0.26889
3.992	72.267	-26490	2108.2	-0.29095	0.91373	0.26977
3.994	72.242	-26492	2108.1	-0.29104	0.91295	0.27064
3.996	72.249	-26495	2108	-0.29114	0.91217	0.27152
3.998	72.27	-26498	2107.9	-0.29124	0.91139	0.2724
4	72.299	-26498	2107.8	-0.29134	0.91061	0.27328
4.002	72.316	-26498	2107.8	-0.29173	0.911	0.27338
4.004	72.321	-26501	2107.8	-0.29212	0.91139	0.27348
4.006	72.308	-26503	2107.7	-0.29251	0.91178	0.27357
4.008	72.291	-26503	2107.6	-0.2929	0.91217	0.27367
4.01	72.264	-26504	2107.5	-0.29329	0.91256	0.27377
4.012	72.25	-26503	2107.5	-0.29407	0.91236	0.27338
4.014	72.268	-26502	2107.5	-0.29485	0.91217	0.27299
4.016	72.294	-26503	2107.4	-0.29563	0.91197	0.2726
4.018	72.315	-26505	2107.3	-0.29641	0.91178	0.27221
4.02	72.326	-26504	2107.2	-0.29719	0.91158	0.27182
4.022	72.319	-26503	2107.2	-0.29729	0.911	0.2726
4.024	72.298	-26498	2107.1	-0.29739	0.91041	0.27338
4.026	72.27	-26493	2107.1	-0.29748	0.90983	0.27416
4.028	72.258	-26494	2107	-0.29758	0.90924	0.27494
4.03	72.279	-26494	2107	-0.29768	0.90866	0.27572
4.032	72.319	-26498	2106.9	-0.29748	0.90973	0.27504
4.034	72.347	-26501	2106.9	-0.29729	0.9108	0.27435
4.036	72.353	-26505	2106.9	-0.29709	0.91188	0.27367
4.038	72.339	-26509	2106.8	-0.2969	0.91295	0.27299
4.04	72.302	-26508	2106.7	-0.2967	0.91402	0.2723
4.042	72.249	-26507	2106.6	-0.29622	0.91383	0.27182
4.044	72.189	-26507	2106.6	-0.29573	0.91363	0.27133
4.046	72.14	-26506	2106.5	-0.29524	0.91344	0.27084
4.048	72.109	-26505	2106.5	-0.29475	0.91324	0.27035
4.05	72.085	-26504	2106.4	-0.29426	0.91305	0.26986
4.052	72.049	-26504	2106.4	-0.29446	0.91266	0.27045
4.054	71.981	-26504	2106.4	-0.29465	0.91227	0.27104
4.056	71.885	-26504	2106.4	-0.29485	0.91188	0.27162
4.058	71.775	-26504	2106.3	-0.29504	0.91149	0.27221
4.06	71.668	-26500	2106.3	-0.29524	0.9111	0.27279
4.062	71.595	-26496	2106.3	-0.29495	0.911	0.27308
4.064	71.577	-26496	2106.3	-0.29465	0.9109	0.27338
4.066	71.575	-26495	2106.2	-0.29436	0.9108	0.27367
4.068	71.575	-26496	2106.2	-0.29407	0.91071	0.27396
4.07	71.577	-26496	2106.2	-0.29378	0.91061	0.27426
4.072	71.588	-26498	2106.1	-0.29446	0.91119	0.27357
4.074	71.6	-26500	2106.1	-0.29514	0.91178	0.27289
4.076	71.632	-26506	2106.1	-0.29583	0.91236	0.27221
4.078	71.705	-26512	2106	-0.29651	0.91295	0.27152
4.08	71.821	-26515	2106	-0.29719	0.91354	0.27084
4.082	71.967	-26518	2106	-0.29573	0.91412	0.27035
4.084	72.119	-26514	2106	-0.29426	0.91471	0.26986
4.086	72.227	-26511	2106	-0.2928	0.91529	0.26938
4.088	72.26	-26513	2105.9	-0.29134	0.91588	0.26889
4.09	72.241	-26515	2105.9	-0.28987	0.91646	0.2684
4.092	72.223	-26516	2105.9	-0.28997	0.91607	0.2685
4.094	72.227	-26518	2105.9	-0.29007	0.91568	0.2686
4.096	72.242	-26518	2105.9	-0.29016	0.91529	0.26869
4.098	72.27	-26519	2105.9	-0.29026	0.9149	0.26879
4.1	72.3	-26521	2105.9	-0.29036	0.91451	0.26889
4.102	72.32	-26524	2105.9	-0.29026	0.9151	0.26899
4.104	72.321	-26522	2105.9	-0.29016	0.91568	0.26908
4.106	72.296	-26519	2105.9	-0.29007	0.91627	0.26918
4.108	72.259	-26516	2105.9	-0.28997	0.91685	0.26928
4.11	72.236	-26512	2105.9	-0.28987	0.91744	0.26938
4.112	72.234	-26515	2105.9	-0.29056	0.91705	0.26938
4.114	72.243	-26518	2105.9	-0.29124	0.91666	0.26938
4.116	72.258	-26518	2105.9	-0.29192	0.91627	0.26938
4.118	72.283	-26518	2105.8	-0.2926	0.91588	0.26938
4.12	72.297	-26514	2105.7	-0.29329	0.91549	0.26938
4.122	72.282	-26511	2105.7	-0.29329	0.9152	0.26918
4.124	72.249	-26510	2105.6	-0.29329	0.9149	0.26899
4.126	72.22	-26509	2105.6	-0.29329	0.91461	0.26879
4.128	72.205	-26515	2105.6	-0.29329	0.91432	0.2686
4.13	72.208	-26521	2105.6	-0.29329	0.91402	0.2684
4.132	72.229	-26523	2105.5	-0.293	0.91432	0.26889
4.134	72.253	-26525	2105.5	-0.2927	0.91461	0.26938
4.136	72.259	-26521	2105.5	-0.29241	0.9149	0.26986
4.138	72.25	-26518	2105.5	-0.29212	0.9152	0.27035
4.14	72.231	-26519	2105.5	-0.29182	0.91549	0.27084
4.142	72.207	-26520	2105.5	-0.29153	0.91578	0.27064
4.144	72.179	-26523	2105.5	-0.29124	0.91607	0.27045
4.146	72.177	-26525	2105.5	-0.29095	0.91637	0.27025
4.148	72.198	-26527	2105.4	-0.29065	0.91666	0.27006
4.15	72.237	-26528	2105.3	-0.29036	0.91695	0.26986
4.152	72.252	-26524	2105.3	-0.29104	0.91598	0.27074
4.154	72.255	-26520	2105.2	-0.29173	0.915	0.27162
4.156	72.236	-26524	2105.1	-0.29241	0.91402	0.2725
4.158	72.196	-26528	2105.1	-0.29309	0.91305	0.27338
4.16	72.162	-26532	2105	-0.29378	0.91207	0.27426
4.162	72.148	-26536	2105	-0.29407	0.91168	0.27387
4.164	72.168	-26535	2104.9	-0.29436	0.91129	0.27348
4.166	72.195	-26534	2104.9	-0.29465	0.9109	0.27308
4.168	72.225	-26532	2104.8	-0.29495	0.91051	0.27269
4.17	72.229	-26529	2104.7	-0.29524	0.91012	0.2723
4.172	72.209	-26533	2104.7	-0.29583	0.91051	0.27279
4.174	72.171	-26538	2104.6	-0.29641	0.9109	0.27328
4.176	72.142	-26540	2104.6	-0.297	0.91129	0.27377
4.178	72.124	-26541	2104.6	-0.29758	0.91168	0.27426
4.18	72.126	-26536	2104.5	-0.29817	0.91207	0.27474
4.182	72.158	-26532	2104.5	-0.29729	0.91207	0.27396
4.184	72.202	-26534	2104.4	-0.29641	0.91207	0.27318
4.186	72.219	-26537	2104.4	-0.29553	0.91207	0.2724
4.188	72.211	-26534	2104.4	-0.29465	0.91207	0.27162
4.19	72.191	-26531	2104.4	-0.29378	0.91207	0.27084
4.192	72.161	-26530	2104.4	-0.29378	0.91236	0.27074
4.194	72.133	-26530	2104.3	-0.29378	0.91266	0.27064
4.196	72.123	-26526	2104.3	-0.29378	0.91295	0.27055
4.198	72.136	-26523	2104.3	-0.29378	0.91324	0.27045
4.2	72.159	-26526	2104.4	-0.29378	0.91354	0.27035
4.202	72.18	-26528	2104.3	-0.2928	0.91529	0.27045
4.204	72.186	-26528	2104.3	-0.29182	0.91705	0.27055
4.206	72.164	-26527	2104.3	-0.29085	0.91881	0.27064
4.208	72.123	-26529	2104.2	-0.28987	0.92056	0.27074
4.21	72.096	-26531	2104.2	-0.2889	0.92232	0.27084
4.212	72.094	-26537	2104.2	-0.28987	0.92105	0.27006
4.214	72.112	-26543	2104.1	-0.29085	0.91978	0.26928
4.216	72.143	-26539	2104.1	-0.29182	0.91851	0.2685
4.218	72.17	-26535	2104	-0.2928	0.91724	0.26772
4.22	72.173	-26538	2104	-0.29378	0.91598	0.26694
4.222	72.158	-26541	2103.9	-0.29319	0.91549	0.26742
4.224	72.125	-26540	2103.7	-0.2926	0.915	0.26791
4.226	72.09	-26540	2103.6	-0.29202	0.91451	0.2684
4.228	72.062	-26542	2103.5	-0.29143	0.91402	0.26889
4.23	72.061	-26544	2103.4	-0.29085	0.91354	0.26938
4.232	72.079	-26543	2103.3	-0.29085	0.91324	0.26918
4.234	72.103	-26542	2103.3	-0.29085	0.91295	0.26899
4.236	72.12	-26541	2103.2	-0.29085	0.91266	0.26879
4.238	72.114	-26541	2103.1	-0.29085	0.91236	0.2686
4.24	72.08	-26539	2103	-0.29085	0.91207	0.2684
4.242	72.031	-26538	2103	-0.29056	0.91236	0.26869
4.244	71.993	-26537	2102.9	-0.29026	0.91266	0.26899
4.246	71.994	-26535	2102.9	-0.28997	0.91295	0.26928
4.248	72.014	-26538	2102.9	-0.28968	0.91324	0.26957
4.25	72.044	-26541	2102.9	-0.28938	0.91354	0.26986
4.252	72.059	-26544	2102.9	-0.29036	0.91315	0.26928
4.254	72.06	-26548	2102.9	-0.29134	0.91276	0.26869
4.256	72.049	-26537	2103	-0.29231	0.91236	0.26811
4.258	72.021	-26527	2103.1	-0.29329	0.91197	0.26752
4.26	72	-26531	2103.2	-0.29426	0.91158	0.26694
4.262	71.988	-26535	2103.3	-0.29446	0.91139	0.2686
4.264	71.996	-26542	2103.4	-0.29465	0.91119	0.27025
4.266	72.024	-26549	2103.4	-0.29485	0.911	0.27191
4.268	72.055	-26545	2103.5	-0.29504	0.9108	0.27357
4.27	72.066	-26541	2103.5	-0.29524	0.91061	0.27523
4.272	72.043	-26537	2103.7	-0.29436	0.9111	0.27416
4.274	72.01	-26532	2103.8	-0.29348	0.91158	0.27308
4.276	71.975	-26529	2103.9	-0.2926	0.91207	0.27201
4.278	71.954	-26526	2104.1	-0.29173	0.91256	0.27094
4.28	71.965	-26535	2104.3	-0.29085	0.91305	0.26986
4.282	72.004	-26543	2104.5	-0.29026	0.91432	0.26967
4.284	72.052	-26536	2104.7	-0.28968	0.91559	0.26947
4.286	72.076	-26530	2104.9	-0.28909	0.91685	0.26928
4.288	72.07	-26529	2105.1	-0.28851	0.91812	0.26908
4.29	72.052	-26529	2105.4	-0.28792	0.91939	0.26889
4.292	72.033	-26528	2105.6	-0.28792	0.91929	0.26889
4.294	72.022	-26526	2105.9	-0.28792	0.9192	0.26889
4.296	72.026	-26524	2106.2	-0.28792	0.9191	0.26889
4.298	72.054	-26522	2106.5	-0.28792	0.919	0.26889
4.3	72.092	-26524	2106.8	-0.28792	0.9189	0.26889
4.302	72.117	-26525	2107.1	-0.28792	0.919	0.26938
4.304	72.122	-26526	2107.3	-0.28792	0.9191	0.26986
4.306	72.106	-26527	2107.6	-0.28792	0.9192	0.27035
4.308	72.08	-26516	2107.9	-0.28792	0.91929	0.27084
4.31	72.06	-26505	2108.1	-0.28792	0.91939	0.27133
4.312	72.061	-26508	2108.4	-0.28831	0.91832	0.27045
4.314	72.086	-26510	2108.7	-0.2887	0.91724	0.26957
4.316	72.119	-26501	2109	-0.28909	0.91617	0.26869
4.318	72.153	-26492	2109.2	-0.28948	0.9151	0.26781
4.32	72.172	-26494	2109.4	-0.28987	0.91402	0.26694
4.322	72.174	-26496	2109.6	-0.29104	0.91324	0.2686
4.324	72.141	-26497	2109.8	-0.29221	0.91246	0.27025
4.326	72.126	-26497	2110.1	-0.29339	0.91168	0.27191
4.328	72.119	-26498	2110.3	-0.29456	0.9109	0.27357
4.33	72.137	-26500	2110.5	-0.29573	0.91012	0.27523
4.332	72.174	-26493	2110.6	-0.29573	0.90992	0.27474
4.334	72.211	-26487	2110.8	-0.29573	0.90973	0.27426
4.336	72.227	-26481	2111	-0.29573	0.90953	0.27377
4.338	72.224	-26476	2111.1	-0.29573	0.90934	0.27328
4.34	72.197	-26481	2111.3	-0.29573	0.90914	0.27279
4.342	72.176	-26486	2111.3	-0.29485	0.90905	0.2725
4.344	72.163	-26484	2111.4	-0.29397	0.90895	0.27221
4.346	72.162	-26481	2111.5	-0.29309	0.90885	0.27191
4.348	72.192	-26480	2111.6	-0.29221	0.90875	0.27162
4.35	72.234	-26479	2111.7	-0.29134	0.90866	0.27133
4.352	72.258	-26476	2111.7	-0.2926	0.90983	0.27143
4.354	72.263	-26474	2111.8	-0.29387	0.911	0.27152
4.356	72.241	-26469	2111.8	-0.29514	0.91217	0.27162
4.358	72.21	-26464	2111.8	-0.29641	0.91334	0.27172
4.36	72.182	-26471	2111.8	-0.29768	0.91451	0.27182
4.362	72.172	-26477	2111.8	-0.29768	0.91412	0.2724
4.364	72.189	-26472	2111.8	-0.29768	0.91373	0.27299
4.366	72.226	-26468	2111.8	-0.29768	0.91334	0.27357
4.368	72.26	-26464	2111.8	-0.29768	0.91295	0.27416
4.37	72.274	-26459	2111.8	-0.29768	0.91256	0.27474
4.372	72.263	-26467	2111.8	-0.29788	0.91344	0.27377
4.374	72.234	-26474	2111.7	-0.29807	0.91432	0.27279
4.376	72.207	-26472	2111.7	-0.29827	0.9152	0.27182
4.378	72.199	-26470	2111.7	-0.29846	0.91607	0.27084
4.38	72.216	-26468	2111.7	-0.29866	0.91695	0.26986
4.382	72.239	-26465	2111.6	-0.297	0.91637	0.26977
4.384	72.267	-26465	2111.5	-0.29534	0.91578	0.26967
4.386	72.289	-26466	2111.5	-0.29368	0.9152	0.26957
4.388	72.283	-26468	2111.4	-0.29202	0.91461	0.26947
4.39	72.264	-26471	2111.4	-0.29036	0.91402	0.26938
4.392	72.23	-26474	2111.3	-0.29124	0.91461	0.26879
4.394	72.204	-26478	2111.3	-0.29212	0.9152	0.2682
4.396	72.21	-26472	2111.2	-0.293	0.91578	0.26762
4.398	72.23	-26466	2111.2	-0.29387	0.91637	0.26703
4.4	72.25	-26471	2111.1	-0.29475	0.91695	0.26645
4.402	72.276	-26475	2111	-0.29407	0.91646	0.26645
4.404	72.282	-26470	2110.9	-0.29339	0.91598	0.26645
4.406	72.265	-26465	2110.8	-0.2927	0.91549	0.26645
4.408	72.229	-26467	2110.7	-0.29202	0.915	0.26645
4.41	72.197	-26469	2110.6	-0.29134	0.91451	0.26645
4.412	72.191	-26465	2110.5	-0.29163	0.91441	0.26684
4.414	72.209	-26461	2110.4	-0.29192	0.91432	0.26723
4.416	72.234	-26465	2110.3	-0.29221	0.91422	0.26762
4.418	72.259	-26468	2110.3	-0.29251	0.91412	0.26801
4.42	72.268	-26468	2110.2	-0.2928	0.91402	0.2684
4.422	72.251	-26469	2110.1	-0.29309	0.91334	0.26938
4.424	72.228	-26466	2110	-0.29339	0.91266	0.27035
4.426	72.185	-26464	2110	-0.29368	0.91197	0.27133
4.428	72.164	-26468	2109.9	-0.29397	0.91129	0.2723
4.43	72.177	-26473	2109.8	-0.29426	0.91061	0.27328
4.432	72.202	-26474	2109.8	-0.29534	0.91119	0.27367
4.434	72.233	-26475	2109.8	-0.29641	0.91178	0.27406
4.436	72.255	-26470	2109.7	-0.29748	0.91236	0.27445
4.438	72.262	-26464	2109.7	-0.29856	0.91295	0.27484
4.44	72.242	-26467	2109.6	-0.29963	0.91354	0.27523
4.442	72.204	-26469	2109.5	-0.29846	0.91285	0.27416
4.444	72.185	-26468	2109.5	-0.29729	0.91217	0.27308
4.446	72.19	-26467	2109.4	-0.29612	0.91149	0.27201
4.448	72.208	-26470	2109.4	-0.29495	0.9108	0.27094
4.45	72.24	-26473	2109.4	-0.29378	0.91012	0.26986
4.452	72.271	-26477	2109.4	-0.29436	0.9109	0.26967
4.454	72.276	-26481	2109.3	-0.29495	0.91168	0.26947
4.456	72.253	-26478	2109.3	-0.29553	0.91246	0.26928
4.458	72.221	-26475	2109.2	-0.29612	0.91324	0.26908
4.46	72.195	-26480	2109.1	-0.2967	0.91402	0.26889
4.462	72.189	-26485	2109	-0.29631	0.91412	0.26918
4.464	72.203	-26484	2109	-0.29592	0.91422	0.26947
4.466	72.229	-26483	2108.9	-0.29553	0.91432	0.26977
4.468	72.259	-26482	2108.8	-0.29514	0.91441	0.27006
4.47	72.267	-26480	2108.8	-0.29475	0.91451	0.27035
4.472	72.25	-26479	2108.7	-0.29495	0.91354	0.27113
4.474	72.22	-26479	2108.7	-0.29514	0.91256	0.27191
4.476	72.191	-26475	2108.6	-0.29534	0.91158	0.27269
4.478	72.182	-26471	2108.5	-0.29553	0.91061	0.27348
4.48	72.187	-26475	2108.5	-0.29573	0.90963	0.27426
4.482	72.216	-26479	2108.4	-0.29631	0.90953	0.27406
4.484	72.251	-26482	2108.4	-0.2969	0.90944	0.27387
4.486	72.268	-26485	2108.3	-0.29748	0.90934	0.27367
4.488	72.261	-26481	2108.2	-0.29807	0.90924	0.27348
4.49	72.235	-26478	2108.1	-0.29866	0.90914	0.27328
4.492	72.197	-26479	2108.1	-0.29797	0.90963	0.27357
4.494	72.171	-26480	2108	-0.29729	0.91012	0.27387
4.496	72.171	-26475	2108	-0.29661	0.91061	0.27416
4.498	72.201	-26470	2107.9	-0.29592	0.9111	0.27445
4.5	72.233	-26476	2107.9	-0.29524	0.91158	0.27474
4.502	72.248	-26481	2107.8	-0.29485	0.91139	0.27435
4.504	72.246	-26479	2107.7	-0.29446	0.91119	0.27396
4.506	72.227	-26478	2107.7	-0.29407	0.911	0.27357
4.508	72.198	-26478	2107.6	-0.29368	0.9108	0.27318
4.51	72.168	-26479	2107.6	-0.29329	0.91061	0.27279
4.512	72.16	-26481	2107.5	-0.29358	0.9111	0.27182
4.514	72.178	-26484	2107.4	-0.29387	0.91158	0.27084
4.516	72.209	-26489	2107.4	-0.29417	0.91207	0.26986
4.518	72.24	-26493	2107.4	-0.29446	0.91256	0.26889
4.52	72.261	-26494	2107.4	-0.29475	0.91305	0.26791
4.522	72.252	-26494	2107.3	-0.29387	0.91422	0.26791
4.524	72.219	-26497	2107.3	-0.293	0.91539	0.26791
4.526	72.182	-26499	2107.2	-0.29212	0.91656	0.26791
4.528	72.163	-26499	2107.2	-0.29124	0.91773	0.26791
4.53	72.17	-26498	2107.1	-0.29036	0.9189	0.26791
4.532	72.201	-26495	2107.1	-0.29075	0.91793	0.2682
4.534	72.238	-26493	2107.1	-0.29114	0.91695	0.2685
4.536	72.26	-26495	2107.1	-0.29153	0.91598	0.26879
4.538	72.262	-26497	2107	-0.29192	0.915	0.26908
4.54	72.249	-26494	2107	-0.29231	0.91402	0.26938
4.542	72.218	-26491	2107	-0.29241	0.91393	0.27035
4.544	72.188	-26491	2107	-0.29251	0.91383	0.27133
4.546	72.182	-26492	2107	-0.2926	0.91373	0.2723
4.548	72.203	-26487	2107	-0.2927	0.91363	0.27328
4.55	72.24	-26482	2107	-0.2928	0.91354	0.27426
4.552	72.273	-26484	2107	-0.2927	0.91295	0.27387
4.554	72.277	-26485	2107	-0.2926	0.91236	0.27348
4.556	72.257	-26490	2107	-0.29251	0.91178	0.27308
4.558	72.22	-26494	2107	-0.29241	0.91119	0.27269
4.56	72.187	-26493	2107	-0.29231	0.91061	0.2723
4.562	72.18	-26493	2106.9	-0.29387	0.9109	0.2726
4.564	72.196	-26493	2106.9	-0.29544	0.91119	0.27289
4.566	72.228	-26494	2106.9	-0.297	0.91149	0.27318
4.568	72.264	-26497	2106.9	-0.29856	0.91178	0.27348
4.57	72.275	-26500	2106.9	-0.30012	0.91207	0.27377
4.572	72.267	-26500	2106.9	-0.30041	0.91236	0.27406
4.574	72.235	-26500	2106.9	-0.30071	0.91266	0.27435
4.576	72.194	-26496	2106.9	-0.301	0.91295	0.27465
4.578	72.178	-26491	2107	-0.30129	0.91324	0.27494
4.58	72.186	-26494	2107	-0.30158	0.91354	0.27523
4.582	72.203	-26496	2107	-0.30178	0.91363	0.27504
4.584	72.246	-26498	2107	-0.30197	0.91373	0.27484
4.586	72.268	-26499	2107	-0.30217	0.91383	0.27465
4.588	72.256	-26494	2107.1	-0.30236	0.91393	0.27445
4.59	72.22	-26489	2107.1	-0.30256	0.91402	0.27426
4.592	72.196	-26490	2107.1	-0.3008	0.91305	0.27387
4.594	72.199	-26490	2107.1	-0.29905	0.91207	0.27348
4.596	72.189	-26494	2107.1	-0.29729	0.9111	0.27308
4.598	72.2	-26497	2107.2	-0.29553	0.91012	0.27269
4.6	72.243	-26497	2107.2	-0.29378	0.90914	0.2723
4.602	72.268	-26496	2107.2	-0.29446	0.91032	0.27162
4.604	72.272	-26497	2107.2	-0.29514	0.91149	0.27094
4.606	72.257	-26498	2107.3	-0.29583	0.91266	0.27025
4.608	72.23	-26498	2107.3	-0.29651	0.91383	0.26957
4.61	72.201	-26499	2107.3	-0.29719	0.915	0.26889
4.612	72.19	-26501	2107.3	-0.29758	0.91461	0.26977
4.614	72.2	-26503	2107.3	-0.29797	0.91422	0.27064
4.616	72.224	-26499	2107.3	-0.29836	0.91383	0.27152
4.618	72.252	-26495	2107.3	-0.29875	0.91344	0.2724
4.62	72.266	-26490	2107.4	-0.29914	0.91305	0.27328
4.622	72.262	-26486	2107.4	-0.29817	0.91373	0.27221
4.624	72.24	-26491	2107.4	-0.29719	0.91441	0.27113
4.626	72.213	-26496	2107.4	-0.29622	0.9151	0.27006
4.628	72.197	-26498	2107.4	-0.29524	0.91578	0.26899
4.63	72.202	-26501	2107.4	-0.29426	0.91646	0.26791
4.632	72.234	-26498	2107.4	-0.29397	0.91588	0.2685
4.634	72.271	-26495	2107.4	-0.29368	0.91529	0.26908
4.636	72.288	-26491	2107.4	-0.29339	0.91471	0.26967
4.638	72.286	-26487	2107.4	-0.29309	0.91412	0.27025
4.64	72.264	-26487	2107.4	-0.2928	0.91354	0.27084
4.642	72.228	-26488	2107.4	-0.29329	0.91344	0.27143
4.644	72.203	-26487	2107.4	-0.29378	0.91334	0.27201
4.646	72.204	-26486	2107.4	-0.29426	0.91324	0.2726
4.648	72.222	-26492	2107.3	-0.29475	0.91315	0.27318
4.65	72.25	-26498	2107.3	-0.29524	0.91305	0.27377
4.652	72.274	-26496	2107.3	-0.29583	0.91276	0.27416
4.654	72.278	-26495	2107.2	-0.29641	0.91246	0.27455
4.656	72.259	-26494	2107.2	-0.297	0.91217	0.27494
4.658	72.226	-26493	2107.1	-0.29758	0.91188	0.27533
4.66	72.202	-26496	2107.1	-0.29817	0.91158	0.27572
4.662	72.187	-26499	2107.1	-0.29651	0.91227	0.27406
4.664	72.191	-26497	2107.1	-0.29485	0.91295	0.2724
4.666	72.215	-26496	2107	-0.29319	0.91363	0.27074
4.668	72.244	-26496	2107	-0.29153	0.91432	0.26908
4.67	72.246	-26496	2106.9	-0.28987	0.915	0.26742
4.672	72.224	-26497	2106.8	-0.29065	0.91422	0.26713
4.674	72.188	-26497	2106.8	-0.29143	0.91344	0.26684
4.676	72.155	-26496	2106.8	-0.29221	0.91266	0.26655
4.678	72.153	-26494	2106.7	-0.293	0.91188	0.26625
4.68	72.182	-26496	2106.7	-0.29378	0.9111	0.26596
4.682	72.217	-26498	2106.6	-0.29387	0.911	0.26733
4.684	72.248	-26502	2106.5	-0.29397	0.9109	0.26869
4.686	72.255	-26506	2106.4	-0.29407	0.9108	0.27006
4.688	72.244	-26502	2106.4	-0.29417	0.91071	0.27143
4.69	72.218	-26498	2106.3	-0.29426	0.91061	0.27279
