t	ekg	optical	pressure	accel_x	accel_y	accel_z
0	77.929	-30344	2848	0.11224	-0.066856	0.97502
0.002	77.991	-30338	2847.4	0.11312	-0.066075	0.97502
0.004	78.099	-30331	2846.8	0.114	-0.065294	0.97502
0.006	78.034	-30329	2846.3	0.11488	-0.064514	0.97502
0.008	77.993	-30326	2845.7	0.11575	-0.063733	0.97502
0.01	78.001	-30323	2845.2	0.11663	-0.062952	0.97502
0.012	77.922	-30320	2844.6	0.11634	-0.06305	0.97434
0.014	77.956	-30320	2844	0.11605	-0.063147	0.97366
0.016	78.041	-30319	2843.5	0.11575	-0.063245	0.97297
0.018	77.973	-30318	2843	0.11546	-0.063342	0.97229
0.02	77.945	-30317	2842.5	0.11517	-0.06344	0.97161
0.022	78.002	-30319	2842	0.11468	-0.064416	0.97219
0.024	78.055	-30321	2841.4	0.11419	-0.065392	0.97278
0.026	78.046	-30319	2840.9	0.1137	-0.066368	0.97336
0.028	78.052	-30317	2840.4	0.11322	-0.067344	0.97395
0.03	78.095	-30316	2839.9	0.11273	-0.06832	0.97454
0.032	78.09	-30315	2839.3	0.11312	-0.068222	0.97424
0.034	78.07	-30307	2838.8	0.11351	-0.068125	0.97395
0.036	77.997	-30299	2838.3	0.1139	-0.068027	0.97366
0.038	77.959	-30299	2837.8	0.11429	-0.06793	0.97336
0.04	77.96	-30298	2837.3	0.11468	-0.067832	0.97307
0.042	77.977	-30296	2836.8	0.11527	-0.066661	0.97366
0.044	78.003	-30294	2836.3	0.11585	-0.06549	0.97424
0.046	78.025	-30297	2835.8	0.11644	-0.064318	0.97483
0.048	78.038	-30299	2835.3	0.11702	-0.063147	0.97541
0.05	78.007	-30302	2834.9	0.11761	-0.061976	0.976
0.052	77.977	-30305	2834.3	0.11644	-0.062562	0.9761
0.054	78	-30303	2833.8	0.11527	-0.063147	0.9762
0.056	78.022	-30302	2833.3	0.11409	-0.063733	0.97629
0.058	77.969	-30302	2832.8	0.11292	-0.064318	0.97639
0.06	77.927	-30302	2832.3	0.11175	-0.064904	0.97649
0.062	77.974	-30303	2831.8	0.11156	-0.065002	0.97639
0.064	78.01	-30304	2831.3	0.11136	-0.065099	0.97629
0.066	77.998	-30305	2830.8	0.11117	-0.065197	0.9762
0.068	77.952	-30306	2830.3	0.11097	-0.065294	0.9761
0.07	77.894	-30298	2829.8	0.11078	-0.065392	0.976
0.072	77.866	-30290	2829.3	0.11136	-0.064904	0.97649
0.074	77.961	-30291	2828.8	0.11195	-0.064416	0.97698
0.076	78.025	-30291	2828.4	0.11253	-0.063928	0.97746
0.078	77.99	-30293	2828	0.11312	-0.06344	0.97795
0.08	77.957	-30295	2827.6	0.1137	-0.062952	0.97844
0.082	77.979	-30294	2827.3	0.11458	-0.062757	0.97805
0.084	78.03	-30292	2827	0.11546	-0.062562	0.97766
0.086	77.996	-30283	2826.8	0.11634	-0.062366	0.97727
0.088	77.962	-30274	2826.6	0.11722	-0.062171	0.97688
0.09	77.997	-30283	2826.3	0.1181	-0.061976	0.97649
0.092	78.035	-30292	2826.2	0.11761	-0.062562	0.97659
0.094	78.049	-30292	2826	0.11712	-0.063147	0.97668
0.096	77.986	-30293	2825.9	0.11663	-0.063733	0.97678
0.098	78.041	-30292	2825.8	0.11614	-0.064318	0.97688
0.1	78.095	-30291	2825.7	0.11566	-0.064904	0.97698
0.102	78.08	-30298	2825.7	0.11614	-0.065294	0.97707
0.104	77.991	-30304	2825.7	0.11663	-0.065685	0.97717
0.106	77.917	-30302	2825.7	0.11712	-0.066075	0.97727
0.108	77.963	-30299	2825.8	0.11761	-0.066466	0.97737
0.11	78.006	-30295	2825.9	0.1181	-0.066856	0.97746
0.112	78.048	-30291	2826	0.11702	-0.067149	0.97776
0.114	78.087	-30285	2826	0.11595	-0.067442	0.97805
0.116	78.09	-30279	2826.1	0.11488	-0.067734	0.97834
0.118	78.058	-30290	2826.3	0.1138	-0.068027	0.97864
0.12	78.023	-30302	2826.4	0.11273	-0.06832	0.97893
0.122	78.026	-30301	2826.6	0.11341	-0.067149	0.97961
0.124	77.994	-30301	2826.9	0.11409	-0.065978	0.98029
0.126	77.943	-30295	2827.1	0.11478	-0.064806	0.98098
0.128	77.956	-30289	2827.5	0.11546	-0.063635	0.98166
0.13	78.001	-30293	2827.8	0.11614	-0.062464	0.98234
0.132	77.975	-30297	2828	0.11634	-0.062854	0.98127
0.134	77.95	-30298	2828.3	0.11653	-0.063245	0.9802
0.136	77.975	-30300	2828.6	0.11673	-0.063635	0.97912
0.138	78.042	-30293	2828.9	0.11692	-0.064026	0.97805
0.14	78.096	-30287	2829.3	0.11712	-0.064416	0.97698
0.142	78.086	-30287	2829.5	0.11732	-0.064123	0.97854
0.144	78.055	-30287	2829.8	0.11751	-0.06383	0.9801
0.146	78.02	-30287	2830	0.11771	-0.063538	0.98166
0.148	77.993	-30286	2830.2	0.1179	-0.063245	0.98322
0.15	77.978	-30285	2830.4	0.1181	-0.062952	0.98478
0.152	77.928	-30284	2830.6	0.1178	-0.063147	0.9843
0.154	77.894	-30286	2830.8	0.11751	-0.063342	0.98381
0.156	77.883	-30289	2831	0.11722	-0.063538	0.98332
0.158	77.874	-30290	2831.2	0.11692	-0.063733	0.98283
0.16	77.899	-30292	2831.3	0.11663	-0.063928	0.98234
0.162	77.913	-30288	2831.4	0.11556	-0.064709	0.98195
0.164	77.901	-30285	2831.6	0.11448	-0.06549	0.98156
0.166	77.936	-30288	2831.7	0.11341	-0.06627	0.98117
0.168	78.065	-30291	2831.8	0.11234	-0.067051	0.98078
0.17	78.028	-30287	2831.9	0.11126	-0.067832	0.98039
0.172	77.963	-30282	2832	0.11117	-0.068125	0.98039
0.174	77.971	-30284	2832.1	0.11107	-0.068418	0.98039
0.176	77.988	-30287	2832.2	0.11097	-0.06871	0.98039
0.178	77.982	-30287	2832.2	0.11087	-0.069003	0.98039
0.18	77.973	-30287	2832.2	0.11078	-0.069296	0.98039
0.182	77.98	-30284	2832.3	0.11146	-0.069882	0.98078
0.184	77.986	-30282	2832.4	0.11214	-0.070467	0.98117
0.186	77.978	-30280	2832.5	0.11283	-0.071053	0.98156
0.188	77.94	-30279	2832.6	0.11351	-0.071638	0.98195
0.19	77.94	-30283	2832.7	0.11419	-0.072224	0.98234
0.192	77.95	-30287	2832.7	0.11497	-0.071541	0.98195
0.194	77.96	-30291	2832.7	0.11575	-0.070858	0.98156
0.196	77.952	-30295	2832.7	0.11653	-0.070174	0.98117
0.198	77.993	-30289	2832.7	0.11732	-0.069491	0.98078
0.2	77.984	-30283	2832.6	0.1181	-0.068808	0.98039
0.202	78.044	-30285	2832.6	0.11634	-0.069296	0.98049
0.204	78.012	-30287	2832.5	0.11458	-0.069784	0.98059
0.206	77.968	-30283	2832.4	0.11283	-0.070272	0.98068
0.208	77.988	-30279	2832.4	0.11107	-0.07076	0.98078
0.21	78.006	-30278	2832.3	0.10931	-0.071248	0.98088
0.212	77.98	-30276	2832.2	0.10941	-0.070467	0.98
0.214	77.966	-30281	2832.2	0.10951	-0.069686	0.97912
0.216	77.994	-30286	2832.1	0.1096	-0.068906	0.97824
0.218	77.987	-30286	2832	0.1097	-0.068125	0.97737
0.22	77.94	-30286	2831.9	0.1098	-0.067344	0.97649
0.222	77.975	-30279	2831.8	0.11087	-0.067734	0.97649
0.224	78.056	-30272	2831.6	0.11195	-0.068125	0.97649
0.226	78.093	-30276	2831.5	0.11302	-0.068515	0.97649
0.228	78.072	-30280	2831.3	0.11409	-0.068906	0.97649
0.23	78.026	-30282	2831.2	0.11517	-0.069296	0.97649
0.232	78.022	-30284	2831	0.11536	-0.068515	0.97668
0.234	78.003	-30286	2830.8	0.11556	-0.067734	0.97688
0.236	77.937	-30289	2830.5	0.11575	-0.066954	0.97707
0.238	77.95	-30286	2830.3	0.11595	-0.066173	0.97727
0.24	78.031	-30282	2830	0.11614	-0.065392	0.97746
0.242	78.084	-30278	2829.7	0.11527	-0.065978	0.97688
0.244	78.104	-30275	2829.4	0.11439	-0.066563	0.97629
0.246	78.042	-30276	2829.1	0.11351	-0.067149	0.97571
0.248	77.995	-30278	2828.8	0.11263	-0.067734	0.97512
0.25	78.026	-30277	2828.4	0.11175	-0.06832	0.97454
0.252	78.044	-30275	2828	0.11302	-0.067344	0.97444
0.254	78.043	-30275	2827.6	0.11429	-0.066368	0.97434
0.256	78.042	-30275	2827.2	0.11556	-0.065392	0.97424
0.258	77.962	-30272	2826.8	0.11683	-0.064416	0.97415
0.26	77.958	-30269	2826.5	0.1181	-0.06344	0.97405
0.262	77.991	-30269	2826.1	0.11858	-0.064026	0.97366
0.264	77.974	-30269	2825.8	0.11907	-0.064611	0.97327
0.266	78.004	-30273	2825.4	0.11956	-0.065197	0.97288
0.268	78.058	-30277	2825	0.12005	-0.065782	0.97249
0.27	78.029	-30276	2824.6	0.12054	-0.066368	0.9721
0.272	77.899	-30275	2824.2	0.11985	-0.065685	0.9718
0.274	77.892	-30275	2823.8	0.11917	-0.065002	0.97151
0.276	78.011	-30274	2823.4	0.11849	-0.064318	0.97122
0.278	78.119	-30279	2823	0.1178	-0.063635	0.97092
0.28	78.119	-30283	2822.7	0.11712	-0.062952	0.97063
0.282	78.068	-30278	2822.3	0.11683	-0.06383	0.97024
0.284	78.038	-30274	2822	0.11653	-0.064709	0.96985
0.286	78.034	-30271	2821.6	0.11624	-0.065587	0.96946
0.288	78.021	-30268	2821.3	0.11595	-0.066466	0.96907
0.29	78.009	-30270	2820.9	0.11566	-0.067344	0.96868
0.292	78.009	-30272	2820.7	0.11624	-0.066758	0.96956
0.294	78.018	-30278	2820.4	0.11683	-0.066173	0.97044
0.296	78.06	-30283	2820.1	0.11741	-0.065587	0.97132
0.298	78.109	-30283	2819.8	0.118	-0.065002	0.97219
0.3	78.05	-30283	2819.5	0.11858	-0.064416	0.97307
0.302	77.925	-30280	2819.1	0.11673	-0.065392	0.97405
0.304	77.797	-30277	2818.8	0.11488	-0.066368	0.97502
0.306	77.749	-30282	2818.4	0.11302	-0.067344	0.976
0.308	77.807	-30288	2818.1	0.11117	-0.06832	0.97698
0.31	77.888	-30285	2817.7	0.10931	-0.069296	0.97795
0.312	77.88	-30281	2817.4	0.1099	-0.06871	0.97815
0.314	77.756	-30285	2817	0.11048	-0.068125	0.97834
0.316	77.622	-30289	2816.6	0.11107	-0.067539	0.97854
0.318	77.552	-30289	2816.2	0.11165	-0.066954	0.97873
0.32	77.51	-30289	2815.8	0.11224	-0.066368	0.97893
0.322	77.474	-30292	2815.5	0.11097	-0.066856	0.97864
0.324	77.449	-30295	2815.1	0.1097	-0.067344	0.97834
0.326	77.42	-30292	2814.7	0.10843	-0.067832	0.97805
0.328	77.393	-30289	2814.3	0.10716	-0.06832	0.97776
0.33	77.415	-30287	2813.9	0.1059	-0.068808	0.97746
0.332	77.479	-30285	2813.5	0.10765	-0.069198	0.97766
0.334	77.581	-30285	2813.1	0.10941	-0.069589	0.97785
0.336	77.701	-30285	2812.7	0.11117	-0.069979	0.97805
0.338	77.85	-30285	2812.3	0.11292	-0.07037	0.97824
0.34	77.927	-30285	2811.9	0.11468	-0.07076	0.97844
0.342	77.889	-30285	2811.5	0.11546	-0.069784	0.97756
0.344	77.944	-30285	2811.1	0.11624	-0.068808	0.97668
0.346	78.018	-30286	2810.7	0.11702	-0.067832	0.9758
0.348	78.037	-30286	2810.3	0.1178	-0.066856	0.97493
0.35	78.02	-30286	2810	0.11858	-0.06588	0.97405
0.352	77.977	-30285	2809.7	0.11819	-0.06549	0.97395
0.354	77.996	-30288	2809.5	0.1178	-0.065099	0.97385
0.356	77.951	-30292	2809.2	0.11741	-0.064709	0.97376
0.358	77.921	-30292	2808.9	0.11702	-0.064318	0.97366
0.36	77.974	-30291	2808.6	0.11663	-0.063928	0.97356
0.362	78.029	-30293	2808.3	0.11546	-0.064318	0.97405
0.364	78.003	-30295	2808.1	0.11429	-0.064709	0.97454
0.366	77.955	-30294	2807.8	0.11312	-0.065099	0.97502
0.368	77.917	-30294	2807.6	0.11195	-0.06549	0.97551
0.37	77.945	-30295	2807.4	0.11078	-0.06588	0.976
0.372	77.979	-30295	2807.2	0.11204	-0.064806	0.976
0.374	77.975	-30295	2807	0.11331	-0.063733	0.976
0.376	77.951	-30295	2806.9	0.11458	-0.062659	0.976
0.378	77.939	-30295	2806.7	0.11585	-0.061586	0.976
0.38	77.979	-30295	2806.5	0.11712	-0.060512	0.976
0.382	78.02	-30297	2806.4	0.11546	-0.061781	0.97668
0.384	78.022	-30300	2806.2	0.1138	-0.06305	0.97737
0.386	78.006	-30299	2806	0.11214	-0.064318	0.97805
0.388	77.985	-30298	2805.8	0.11048	-0.065587	0.97873
0.39	77.971	-30298	2805.5	0.10882	-0.066856	0.97942
0.392	77.985	-30297	2805.3	0.10902	-0.066758	0.97951
0.394	78.018	-30302	2805.1	0.10921	-0.066661	0.97961
0.396	78.02	-30307	2805	0.10941	-0.066563	0.97971
0.398	78.005	-30314	2804.8	0.1096	-0.066466	0.97981
0.4	78.001	-30321	2804.7	0.1098	-0.066368	0.9799
0.402	77.982	-30320	2804.5	0.11068	-0.066856	0.97873
0.404	77.943	-30320	2804.3	0.11156	-0.067344	0.97756
0.406	77.913	-30315	2804.1	0.11244	-0.067832	0.97639
0.408	77.893	-30310	2803.9	0.11331	-0.06832	0.97522
0.41	77.876	-30305	2803.7	0.11419	-0.068808	0.97405
0.412	77.89	-30301	2803.5	0.1137	-0.06793	0.97493
0.414	77.897	-30301	2803.4	0.11322	-0.067051	0.9758
0.416	77.993	-30302	2803.2	0.11273	-0.066173	0.97668
0.418	78.004	-30306	2803.1	0.11224	-0.065294	0.97756
0.42	77.995	-30309	2802.9	0.11175	-0.064416	0.97844
0.422	77.953	-30313	2802.7	0.11175	-0.065392	0.97756
0.424	77.93	-30317	2802.5	0.11175	-0.066368	0.97668
0.426	77.902	-30319	2802.4	0.11175	-0.067344	0.9758
0.428	77.918	-30320	2802.2	0.11175	-0.06832	0.97493
0.43	77.958	-30322	2802	0.11175	-0.069296	0.97405
0.432	77.926	-30323	2801.9	0.11156	-0.069003	0.97483
0.434	77.861	-30323	2801.7	0.11136	-0.06871	0.97561
0.436	77.836	-30323	2801.6	0.11117	-0.068418	0.97639
0.438	77.903	-30325	2801.4	0.11097	-0.068125	0.97717
0.44	77.919	-30326	2801.3	0.11078	-0.067832	0.97795
0.442	77.904	-30325	2801.2	0.1098	-0.066075	0.97912
0.444	77.883	-30324	2801.1	0.10882	-0.064318	0.98029
0.446	77.913	-30323	2800.9	0.10785	-0.062562	0.98147
0.448	77.894	-30323	2800.8	0.10687	-0.060805	0.98264
0.45	77.859	-30326	2800.6	0.1059	-0.059048	0.98381
0.452	77.876	-30329	2800.5	0.10677	-0.060902	0.98205
0.454	77.789	-30330	2800.4	0.10765	-0.062757	0.98029
0.456	77.755	-30330	2800.2	0.10853	-0.064611	0.97854
0.458	77.8	-30330	2800.1	0.10941	-0.066466	0.97678
0.46	77.842	-30329	2800	0.11029	-0.06832	0.97502
0.462	77.9	-30327	2799.8	0.11165	-0.068027	0.97493
0.464	77.912	-30326	2799.7	0.11302	-0.067734	0.97483
0.466	77.96	-30325	2799.5	0.11439	-0.067442	0.97473
0.468	77.945	-30324	2799.4	0.11575	-0.067149	0.97463
0.47	77.898	-30323	2799.3	0.11712	-0.066856	0.97454
0.472	77.882	-30323	2799.3	0.11624	-0.066661	0.97571
0.474	77.906	-30328	2799.2	0.11536	-0.066466	0.97688
0.476	77.921	-30332	2799.2	0.11448	-0.06627	0.97805
0.478	77.907	-30336	2799.1	0.11361	-0.066075	0.97922
0.48	77.854	-30340	2799.1	0.11273	-0.06588	0.98039
0.482	77.794	-30340	2799.2	0.11351	-0.065782	0.97971
0.484	77.788	-30340	2799.3	0.11429	-0.065685	0.97903
0.486	77.825	-30342	2799.4	0.11507	-0.065587	0.97834
0.488	77.873	-30344	2799.6	0.11585	-0.06549	0.97766
0.49	77.888	-30344	2799.7	0.11663	-0.065392	0.97698
0.492	77.856	-30343	2800.1	0.11556	-0.065392	0.97746
0.494	77.837	-30346	2800.4	0.11448	-0.065392	0.97795
0.496	77.826	-30348	2800.8	0.11341	-0.065392	0.97844
0.498	77.805	-30351	2801.4	0.11234	-0.065392	0.97893
0.5	77.77	-30355	2801.9	0.11126	-0.065392	0.97942
0.502	77.78	-30356	2802.7	0.11087	-0.064611	0.97922
0.504	77.842	-30357	2803.6	0.11048	-0.06383	0.97903
0.506	77.83	-30352	2804.7	0.11009	-0.06305	0.97883
0.508	77.746	-30346	2806	0.1097	-0.062269	0.97864
0.51	77.715	-30348	2807.3	0.10931	-0.061488	0.97844
0.512	77.775	-30350	2809.1	0.10921	-0.061	0.97903
0.514	77.776	-30353	2810.8	0.10912	-0.060512	0.97961
0.516	77.777	-30356	2812.7	0.10902	-0.060024	0.9802
0.518	77.722	-30354	2814.8	0.10892	-0.059536	0.98078
0.52	77.823	-30351	2816.8	0.10882	-0.059048	0.98137
0.522	77.879	-30351	2819	0.10863	-0.060512	0.98098
0.524	77.894	-30352	2821.3	0.10843	-0.061976	0.98059
0.526	77.842	-30352	2823.5	0.10824	-0.06344	0.9802
0.528	77.795	-30352	2825.7	0.10804	-0.064904	0.97981
0.53	77.717	-30353	2828	0.10785	-0.066368	0.97942
0.532	77.68	-30354	2830	0.10775	-0.066075	0.97961
0.534	77.726	-30352	2832	0.10765	-0.065782	0.97981
0.536	77.782	-30349	2833.9	0.10756	-0.06549	0.98
0.538	77.804	-30354	2835.7	0.10746	-0.065197	0.9802
0.54	77.767	-30360	2837.5	0.10736	-0.064904	0.98039
0.542	77.784	-30355	2839	0.10746	-0.065294	0.98049
0.544	77.785	-30349	2840.6	0.10756	-0.065685	0.98059
0.546	77.786	-30348	2842.1	0.10765	-0.066075	0.98068
0.548	77.792	-30347	2843.5	0.10775	-0.066466	0.98078
0.55	77.799	-30350	2844.9	0.10785	-0.066856	0.98088
0.552	77.826	-30353	2846.1	0.10921	-0.068125	0.98215
0.554	77.857	-30354	2847.4	0.11058	-0.069394	0.98342
0.556	77.865	-30355	2848.5	0.11195	-0.070662	0.98469
0.558	77.84	-30350	2849.6	0.11331	-0.071931	0.98596
0.56	77.835	-30345	2850.7	0.11468	-0.0732	0.98722
0.562	77.846	-30338	2851.7	0.114	-0.072907	0.98654
0.564	77.848	-30332	2852.7	0.11331	-0.072614	0.98586
0.566	77.863	-30332	2853.7	0.11263	-0.072322	0.98517
0.568	77.874	-30332	2854.6	0.11195	-0.072029	0.98449
0.57	77.82	-30337	2855.5	0.11126	-0.071736	0.98381
0.572	77.767	-30341	2856.2	0.11175	-0.071931	0.98391
0.574	77.773	-30336	2857	0.11224	-0.072126	0.984
0.576	77.812	-30331	2857.6	0.11273	-0.072322	0.9841
0.578	77.911	-30330	2858.2	0.11322	-0.072517	0.9842
0.58	77.981	-30329	2858.8	0.1137	-0.072712	0.9843
0.582	77.951	-30334	2859.3	0.11429	-0.07115	0.98459
0.584	77.928	-30340	2859.7	0.11488	-0.069589	0.98488
0.586	77.967	-30329	2860.1	0.11546	-0.068027	0.98517
0.588	77.941	-30317	2860.4	0.11605	-0.066466	0.98547
0.59	77.914	-30315	2860.8	0.11663	-0.064904	0.98576
0.592	77.892	-30313	2861	0.11468	-0.065587	0.98459
0.594	77.895	-30311	2861.3	0.11273	-0.06627	0.98342
0.596	77.909	-30310	2861.5	0.11078	-0.066954	0.98225
0.598	77.954	-30313	2861.7	0.10882	-0.067637	0.98108
0.6	77.918	-30316	2861.9	0.10687	-0.06832	0.9799
0.602	77.874	-30308	2862	0.10716	-0.068418	0.97922
0.604	77.868	-30299	2862	0.10746	-0.068515	0.97854
0.606	77.94	-30296	2862.1	0.10775	-0.068613	0.97785
0.608	77.98	-30293	2862.1	0.10804	-0.06871	0.97717
0.61	78.061	-30295	2862.2	0.10834	-0.068808	0.97649
0.612	77.972	-30297	2862.2	0.10795	-0.069198	0.97698
0.614	77.918	-30296	2862.2	0.10756	-0.069589	0.97746
0.616	77.977	-30294	2862.1	0.10716	-0.069979	0.97795
0.618	77.973	-30288	2861.9	0.10677	-0.07037	0.97844
0.62	77.933	-30281	2861.8	0.10638	-0.07076	0.97893
0.622	77.92	-30283	2861.6	0.10756	-0.071443	0.97864
0.624	77.98	-30286	2861.4	0.10873	-0.072126	0.97834
0.626	77.939	-30281	2861.2	0.1099	-0.07281	0.97805
0.628	77.926	-30277	2860.9	0.11107	-0.073493	0.97776
0.63	77.987	-30277	2860.7	0.11224	-0.074176	0.97746
0.632	77.992	-30276	2860.3	0.11126	-0.073883	0.97824
0.634	77.965	-30273	2860	0.11029	-0.07359	0.97903
0.636	77.968	-30270	2859.7	0.10931	-0.073298	0.97981
0.638	77.992	-30268	2859.3	0.10834	-0.073005	0.98059
0.64	78.009	-30265	2858.9	0.10736	-0.072712	0.98137
0.642	78.008	-30258	2858.4	0.10863	-0.07281	0.98049
0.644	77.963	-30251	2858	0.1099	-0.072907	0.97961
0.646	77.919	-30254	2857.6	0.11117	-0.073005	0.97873
0.648	77.9	-30257	2857.1	0.11244	-0.073102	0.97785
0.65	77.959	-30251	2856.6	0.1137	-0.0732	0.97698
0.652	78.017	-30245	2855.8	0.114	-0.073005	0.97766
0.654	77.959	-30238	2855.1	0.11429	-0.07281	0.97834
0.656	77.873	-30232	2854.4	0.11458	-0.072614	0.97903
0.658	77.853	-30237	2853.8	0.11488	-0.072419	0.97971
0.66	77.893	-30243	2853.3	0.11517	-0.072224	0.98039
0.662	77.971	-30242	2853	0.11517	-0.071736	0.98078
0.664	78.031	-30241	2852.6	0.11517	-0.071248	0.98117
0.666	78.031	-30243	2852.2	0.11517	-0.07076	0.98156
0.668	78.006	-30246	2851.7	0.11517	-0.070272	0.98195
0.67	78.006	-30238	2851.2	0.11517	-0.069784	0.98234
0.672	78.019	-30231	2850.7	0.11575	-0.070272	0.98088
0.674	77.978	-30229	2850.1	0.11634	-0.07076	0.97942
0.676	77.952	-30228	2849.6	0.11692	-0.071248	0.97795
0.678	77.945	-30229	2849	0.11751	-0.071736	0.97649
0.68	77.93	-30229	2848.4	0.1181	-0.072224	0.97502
0.682	77.918	-30227	2847.8	0.11722	-0.071541	0.97297
0.684	77.944	-30225	2847.3	0.11634	-0.070858	0.97092
0.686	77.93	-30226	2846.8	0.11546	-0.070174	0.96888
0.688	77.882	-30227	2846.4	0.11458	-0.069491	0.96683
0.69	77.921	-30224	2845.9	0.1137	-0.068808	0.96478
0.692	77.975	-30222	2845.4	0.11458	-0.069101	0.96595
0.694	77.937	-30221	2844.9	0.11546	-0.069394	0.96712
0.696	77.957	-30220	2844.4	0.11634	-0.069686	0.96829
0.698	77.971	-30217	2843.9	0.11722	-0.069979	0.96946
0.7	77.895	-30214	2843.3	0.1181	-0.070272	0.97063
0.702	77.816	-30215	2842.8	0.11722	-0.07115	0.97161
0.704	77.835	-30215	2842.2	0.11634	-0.072029	0.97258
0.706	77.906	-30213	2841.6	0.11546	-0.072907	0.97356
0.708	77.958	-30212	2841.2	0.11458	-0.073786	0.97454
0.71	77.987	-30215	2840.7	0.1137	-0.074664	0.97551
0.712	78.023	-30217	2840.1	0.11283	-0.074274	0.9761
0.714	77.991	-30215	2839.5	0.11195	-0.073883	0.97668
0.716	77.989	-30213	2838.9	0.11107	-0.073493	0.97727
0.718	77.971	-30209	2838.3	0.11019	-0.073102	0.97785
0.72	77.952	-30204	2837.7	0.10931	-0.072712	0.97844
0.722	77.966	-30204	2837	0.11058	-0.073102	0.97824
0.724	77.987	-30205	2836.3	0.11185	-0.073493	0.97805
0.726	77.981	-30207	2835.7	0.11312	-0.073883	0.97785
0.728	77.974	-30210	2835.1	0.11439	-0.074274	0.97766
0.73	77.95	-30205	2834.6	0.11566	-0.074664	0.97746
0.732	77.94	-30201	2834.2	0.11663	-0.072712	0.97668
0.734	77.931	-30206	2833.8	0.11761	-0.07076	0.9759
0.736	77.909	-30211	2833.4	0.11858	-0.068808	0.97512
0.738	77.914	-30205	2833	0.11956	-0.066856	0.97434
0.74	77.935	-30198	2832.5	0.12054	-0.064904	0.97356
0.742	77.937	-30203	2832	0.12073	-0.065099	0.97385
0.744	77.918	-30208	2831.5	0.12093	-0.065294	0.97415
0.746	77.901	-30203	2831	0.12112	-0.06549	0.97444
0.748	77.903	-30198	2830.5	0.12132	-0.065685	0.97473
0.75	77.923	-30200	2829.9	0.12151	-0.06588	0.97502
0.752	77.945	-30203	2829.5	0.12161	-0.066075	0.97522
0.754	77.941	-30200	2829.1	0.12171	-0.06627	0.97541
0.756	77.941	-30196	2828.8	0.1218	-0.066466	0.97561
0.758	77.917	-30197	2828.5	0.1219	-0.066661	0.9758
0.76	77.907	-30197	2828.2	0.122	-0.066856	0.976
0.762	77.954	-30200	2827.9	0.122	-0.067344	0.97561
0.764	77.961	-30202	2827.6	0.122	-0.067832	0.97522
0.766	77.986	-30199	2827.3	0.122	-0.06832	0.97483
0.768	78.022	-30196	2827.2	0.122	-0.068808	0.97444
0.77	77.932	-30198	2827	0.122	-0.069296	0.97405
0.772	77.944	-30201	2826.9	0.12034	-0.070077	0.97571
0.774	77.956	-30201	2826.9	0.11868	-0.070858	0.97737
0.776	77.919	-30201	2826.9	0.11702	-0.071638	0.97903
0.778	77.891	-30198	2826.9	0.11536	-0.072419	0.98068
0.78	77.851	-30196	2827	0.1137	-0.0732	0.98234
0.782	77.901	-30193	2827.1	0.11468	-0.073298	0.98283
0.784	78.078	-30190	2827.2	0.11566	-0.073395	0.98332
0.786	78.076	-30192	2827.3	0.11663	-0.073493	0.98381
0.788	77.993	-30194	2827.5	0.11761	-0.07359	0.9843
0.79	77.956	-30196	2827.7	0.11858	-0.073688	0.98478
0.792	77.999	-30197	2827.9	0.11692	-0.07359	0.98508
0.794	77.994	-30200	2828.1	0.11527	-0.073493	0.98537
0.796	77.969	-30204	2828.4	0.11361	-0.073395	0.98566
0.798	77.947	-30203	2828.7	0.11195	-0.073298	0.98596
0.8	77.869	-30203	2828.9	0.11029	-0.0732	0.98625
0.802	77.828	-30203	2829.2	0.11156	-0.073102	0.98605
0.804	77.917	-30203	2829.6	0.11283	-0.073005	0.98586
0.806	78.02	-30200	2829.9	0.11409	-0.072907	0.98566
0.808	77.998	-30196	2830.2	0.11536	-0.07281	0.98547
0.81	77.98	-30193	2830.5	0.11663	-0.072712	0.98527
0.812	77.964	-30190	2830.8	0.11624	-0.072029	0.98439
0.814	77.961	-30193	2831.1	0.11585	-0.071346	0.98352
0.816	77.944	-30195	2831.4	0.11546	-0.070662	0.98264
0.818	77.93	-30198	2831.7	0.11507	-0.069979	0.98176
0.82	77.971	-30201	2832	0.11468	-0.069296	0.98088
0.822	77.964	-30202	2832.3	0.11575	-0.068613	0.98127
0.824	77.936	-30203	2832.6	0.11683	-0.06793	0.98166
0.826	77.948	-30195	2832.9	0.1179	-0.067246	0.98205
0.828	77.949	-30187	2833.1	0.11897	-0.066563	0.98244
0.83	77.955	-30191	2833.3	0.12005	-0.06588	0.98283
0.832	77.959	-30194	2833.5	0.11976	-0.066368	0.98293
0.834	77.95	-30197	2833.7	0.11946	-0.066856	0.98303
0.836	77.92	-30200	2833.9	0.11917	-0.067344	0.98312
0.838	77.888	-30196	2834.1	0.11888	-0.067832	0.98322
0.84	77.9	-30191	2834.3	0.11858	-0.06832	0.98332
0.842	77.919	-30198	2834.4	0.11849	-0.068027	0.98234
0.844	77.93	-30206	2834.6	0.11839	-0.067734	0.98137
0.846	77.935	-30202	2834.7	0.11829	-0.067442	0.98039
0.848	77.908	-30199	2834.9	0.11819	-0.067149	0.97942
0.85	77.883	-30200	2835.1	0.1181	-0.066856	0.97844
0.852	77.906	-30202	2835.2	0.11985	-0.06832	0.97785
0.854	77.912	-30199	2835.4	0.12161	-0.069784	0.97727
0.856	77.962	-30196	2835.5	0.12337	-0.071248	0.97668
0.858	78.015	-30197	2835.5	0.12512	-0.072712	0.9761
0.86	77.918	-30198	2835.6	0.12688	-0.074176	0.97551
0.862	77.818	-30198	2835.6	0.12464	-0.072712	0.976
0.864	77.768	-30197	2835.7	0.12239	-0.071248	0.97649
0.866	77.794	-30198	2835.8	0.12015	-0.069784	0.97698
0.868	77.836	-30198	2835.8	0.1179	-0.06832	0.97746
0.87	77.908	-30198	2835.8	0.11566	-0.066856	0.97795
0.872	77.94	-30198	2835.8	0.11497	-0.06793	0.97834
0.874	77.95	-30201	2835.8	0.11429	-0.069003	0.97873
0.876	78.062	-30205	2835.8	0.11361	-0.070077	0.97912
0.878	78.086	-30202	2835.9	0.11292	-0.07115	0.97951
0.88	77.999	-30200	2835.9	0.11224	-0.072224	0.9799
0.882	77.895	-30204	2835.9	0.11253	-0.072224	0.98049
0.884	77.86	-30208	2835.9	0.11283	-0.072224	0.98108
0.886	77.871	-30206	2835.9	0.11312	-0.072224	0.98166
0.888	77.871	-30203	2835.9	0.11341	-0.072224	0.98225
0.89	77.885	-30197	2835.8	0.1137	-0.072224	0.98283
0.892	77.949	-30190	2835.8	0.1137	-0.072419	0.98303
0.894	77.99	-30188	2835.7	0.1137	-0.072614	0.98322
0.896	77.977	-30186	2835.6	0.1137	-0.07281	0.98342
0.898	77.94	-30187	2835.5	0.1137	-0.073005	0.98361
0.9	77.948	-30189	2835.4	0.1137	-0.0732	0.98381
0.902	77.962	-30192	2835.2	0.11361	-0.072712	0.98303
0.904	77.978	-30195	2835.1	0.11351	-0.072224	0.98225
0.906	78.009	-30195	2834.9	0.11341	-0.071736	0.98147
0.908	78.004	-30196	2834.6	0.11331	-0.071248	0.98068
0.91	77.957	-30194	2834.3	0.11322	-0.07076	0.9799
0.912	77.875	-30192	2834	0.1137	-0.071053	0.98117
0.914	77.833	-30195	2833.6	0.11419	-0.071346	0.98244
0.916	77.896	-30198	2833.2	0.11468	-0.071638	0.98371
0.918	77.97	-30191	2832.8	0.11517	-0.071931	0.98498
0.92	78.017	-30183	2832.4	0.11566	-0.072224	0.98625
0.922	78.032	-30183	2831.9	0.11419	-0.071931	0.98508
0.924	78.021	-30182	2831.5	0.11273	-0.071638	0.98391
0.926	77.996	-30186	2831	0.11126	-0.071346	0.98273
0.928	77.983	-30189	2830.6	0.1098	-0.071053	0.98156
0.93	77.98	-30184	2830.1	0.10834	-0.07076	0.98039
0.932	77.95	-30179	2829.7	0.10902	-0.071931	0.9799
0.934	77.871	-30185	2829.3	0.1097	-0.073102	0.97942
0.936	77.882	-30191	2828.9	0.11039	-0.074274	0.97893
0.938	77.964	-30192	2828.5	0.11107	-0.075445	0.97844
0.94	77.963	-30193	2828.1	0.11175	-0.076616	0.97795
0.942	77.9	-30187	2827.7	0.11136	-0.076128	0.97834
0.944	77.925	-30180	2827.4	0.11097	-0.07564	0.97873
0.946	77.937	-30185	2827	0.11058	-0.075152	0.97912
0.948	77.998	-30190	2826.7	0.11019	-0.074664	0.97951
0.95	78.042	-30197	2826.4	0.1098	-0.074176	0.9799
0.952	77.988	-30205	2826	0.1099	-0.074078	0.98
0.954	77.902	-30202	2825.6	0.11	-0.073981	0.9801
0.956	77.904	-30198	2825.2	0.11009	-0.073883	0.9802
0.958	77.959	-30197	2824.8	0.11019	-0.073786	0.98029
0.96	78.021	-30195	2824.4	0.11029	-0.073688	0.98039
0.962	78.064	-30192	2824.1	0.1096	-0.072907	0.98078
0.964	78.085	-30189	2823.7	0.10892	-0.072126	0.98117
0.966	78.106	-30194	2823.3	0.10824	-0.071346	0.98156
0.968	78.092	-30199	2823	0.10756	-0.070565	0.98195
0.97	78.035	-30197	2822.7	0.10687	-0.069784	0.98234
0.972	78.012	-30196	2822.3	0.10726	-0.069198	0.98127
0.974	78.003	-30194	2822	0.10765	-0.068613	0.9802
0.976	78.03	-30193	2821.7	0.10804	-0.068027	0.97912
0.978	78.031	-30191	2821.3	0.10843	-0.067442	0.97805
0.98	77.964	-30189	2821	0.10882	-0.066856	0.97698
0.982	77.924	-30192	2820.6	0.11126	-0.066563	0.97649
0.984	77.959	-30195	2820.3	0.1137	-0.06627	0.976
0.986	77.985	-30199	2819.9	0.11614	-0.065978	0.97551
0.988	77.981	-30202	2819.4	0.11858	-0.065685	0.97502
0.99	77.927	-30203	2819	0.12102	-0.065392	0.97454
0.992	77.873	-30203	2818.5	0.11966	-0.065685	0.97483
0.994	77.844	-30200	2818.1	0.11829	-0.065978	0.97512
0.996	77.794	-30198	2817.6	0.11692	-0.06627	0.97541
0.998	77.725	-30201	2817.2	0.11556	-0.066563	0.97571
1	77.661	-30203	2816.7	0.11419	-0.066856	0.976
1.002	77.594	-30207	2816.3	0.11517	-0.066758	0.97532
1.004	77.528	-30211	2815.9	0.11614	-0.066661	0.97463
1.006	77.517	-30210	2815.5	0.11712	-0.066563	0.97395
1.008	77.504	-30210	2815.2	0.1181	-0.066466	0.97327
1.01	77.441	-30208	2814.8	0.11907	-0.066368	0.97258
1.012	77.381	-30206	2814.5	0.11946	-0.06588	0.97268
1.014	77.38	-30208	2814.1	0.11985	-0.065392	0.97278
1.016	77.466	-30210	2813.8	0.12024	-0.064904	0.97288
1.018	77.563	-30210	2813.5	0.12063	-0.064416	0.97297
1.02	77.57	-30211	2813.2	0.12102	-0.063928	0.97307
1.022	77.624	-30207	2812.8	0.12044	-0.064318	0.97288
1.024	77.751	-30203	2812.5	0.11985	-0.064709	0.97268
1.026	77.798	-30205	2812.1	0.11927	-0.065099	0.97249
1.028	77.876	-30207	2811.8	0.11868	-0.06549	0.97229
1.03	77.863	-30210	2811.5	0.1181	-0.06588	0.9721
1.032	77.835	-30213	2811.2	0.11819	-0.06627	0.97258
1.034	77.883	-30212	2811	0.11829	-0.066661	0.97307
1.036	77.993	-30210	2810.7	0.11839	-0.067051	0.97356
1.038	78.085	-30210	2810.5	0.11849	-0.067442	0.97405
1.04	78.021	-30210	2810.2	0.11858	-0.067832	0.97454
1.042	77.947	-30213	2809.9	0.11946	-0.067149	0.97463
1.044	78	-30216	2809.7	0.12034	-0.066466	0.97473
1.046	78.002	-30216	2809.4	0.12122	-0.065782	0.97483
1.048	77.914	-30217	2809.2	0.1221	-0.065099	0.97493
1.05	77.906	-30218	2809	0.12298	-0.064416	0.97502
1.052	77.993	-30219	2808.7	0.12249	-0.064806	0.97415
1.054	78.003	-30219	2808.5	0.122	-0.065197	0.97327
1.056	77.993	-30220	2808.2	0.12151	-0.065587	0.97239
1.058	77.987	-30221	2808	0.12102	-0.065978	0.97151
1.06	77.968	-30222	2807.8	0.12054	-0.066368	0.97063
1.062	77.952	-30226	2807.5	0.12054	-0.06549	0.97219
1.064	77.942	-30230	2807.3	0.12054	-0.064611	0.97376
1.066	77.926	-30230	2807	0.12054	-0.063733	0.97532
1.068	77.901	-30231	2806.7	0.12054	-0.062854	0.97688
1.07	77.87	-30227	2806.4	0.12054	-0.061976	0.97844
1.072	77.892	-30222	2806.1	0.11829	-0.063928	0.97903
1.074	77.974	-30222	2805.8	0.11605	-0.06588	0.97961
1.076	78.035	-30221	2805.6	0.1138	-0.067832	0.9802
1.078	78.045	-30225	2805.3	0.11156	-0.069784	0.98078
1.08	78.007	-30229	2805.1	0.10931	-0.071736	0.98137
1.082	77.947	-30231	2804.9	0.10912	-0.07115	0.98137
1.084	77.925	-30234	2804.7	0.10892	-0.070565	0.98137
1.086	77.929	-30232	2804.5	0.10873	-0.069979	0.98137
1.088	77.925	-30230	2804.2	0.10853	-0.069394	0.98137
1.09	77.933	-30228	2804	0.10834	-0.068808	0.98137
1.092	77.962	-30225	2803.9	0.10795	-0.068808	0.98127
1.094	77.995	-30227	2803.8	0.10756	-0.068808	0.98117
1.096	77.998	-30228	2803.7	0.10716	-0.068808	0.98108
1.098	77.952	-30231	2803.6	0.10677	-0.068808	0.98098
1.1	77.895	-30234	2803.5	0.10638	-0.068808	0.98088
1.102	77.898	-30239	2803.4	0.10873	-0.068613	0.97961
1.104	77.94	-30243	2803.3	0.11107	-0.068418	0.97834
1.106	77.944	-30243	2803.2	0.11341	-0.068222	0.97707
1.108	77.944	-30242	2803.1	0.11575	-0.068027	0.9758
1.11	77.9	-30241	2803	0.1181	-0.067832	0.97454
1.112	77.87	-30240	2803	0.11907	-0.067637	0.97415
1.114	77.948	-30244	2803	0.12005	-0.067442	0.97376
1.116	78.059	-30248	2802.9	0.12102	-0.067246	0.97336
1.118	78.028	-30250	2802.8	0.122	-0.067051	0.97297
1.12	77.925	-30252	2802.8	0.12298	-0.066856	0.97258
1.122	77.909	-30250	2802.7	0.12083	-0.067344	0.97376
1.124	77.912	-30248	2802.7	0.11868	-0.067832	0.97493
1.126	77.836	-30247	2802.6	0.11653	-0.06832	0.9761
1.128	77.784	-30247	2802.6	0.11439	-0.068808	0.97727
1.13	77.887	-30249	2802.5	0.11224	-0.069296	0.97844
1.132	77.884	-30252	2802.3	0.11312	-0.069198	0.97922
1.134	77.841	-30257	2802.2	0.114	-0.069101	0.98
1.136	77.848	-30263	2802.1	0.11488	-0.069003	0.98078
1.138	77.79	-30262	2802	0.11575	-0.068906	0.98156
1.14	77.806	-30261	2801.9	0.11663	-0.068808	0.98234
1.142	77.919	-30258	2801.7	0.11712	-0.068418	0.98108
1.144	77.9	-30256	2801.6	0.11761	-0.068027	0.97981
1.146	77.929	-30257	2801.4	0.1181	-0.067637	0.97854
1.148	77.945	-30258	2801.3	0.11858	-0.067246	0.97727
1.15	77.932	-30259	2801.1	0.11907	-0.066856	0.976
1.152	77.91	-30260	2801	0.118	-0.067246	0.97629
1.154	77.855	-30265	2800.8	0.11692	-0.067637	0.97659
1.156	77.889	-30271	2800.6	0.11585	-0.068027	0.97688
1.158	77.987	-30268	2800.5	0.11478	-0.068418	0.97717
1.16	77.999	-30264	2800.3	0.1137	-0.068808	0.97746
1.162	77.941	-30261	2800.2	0.11351	-0.06871	0.97776
1.164	77.91	-30258	2800.1	0.11331	-0.068613	0.97805
1.166	77.89	-30262	2800	0.11312	-0.068515	0.97834
1.168	77.839	-30267	2799.9	0.11292	-0.068418	0.97864
1.17	77.814	-30269	2799.9	0.11273	-0.06832	0.97893
1.172	77.813	-30271	2800	0.11361	-0.068613	0.97942
1.174	77.783	-30269	2800	0.11448	-0.068906	0.9799
1.176	77.788	-30267	2800	0.11536	-0.069198	0.98039
1.178	77.828	-30269	2800.1	0.11624	-0.069491	0.98088
1.18	77.849	-30270	2800.1	0.11712	-0.069784	0.98137
1.182	77.875	-30270	2800.3	0.1178	-0.068906	0.98068
1.184	77.871	-30269	2800.4	0.11849	-0.068027	0.98
1.186	77.876	-30271	2800.6	0.11917	-0.067149	0.97932
1.188	77.848	-30274	2801	0.11985	-0.06627	0.97864
1.19	77.812	-30271	2801.3	0.12054	-0.065392	0.97795
1.192	77.817	-30267	2801.9	0.12024	-0.065685	0.97756
1.194	77.865	-30272	2802.6	0.11995	-0.065978	0.97717
1.196	77.844	-30276	2803.4	0.11966	-0.06627	0.97678
1.198	77.763	-30279	2804.4	0.11936	-0.066563	0.97639
1.2	77.724	-30282	2805.4	0.11907	-0.066856	0.976
1.202	77.777	-30284	2806.9	0.11849	-0.067149	0.97561
1.204	77.846	-30286	2808.4	0.1179	-0.067442	0.97522
1.206	77.814	-30283	2810.1	0.11732	-0.067734	0.97483
1.208	77.748	-30279	2811.9	0.11673	-0.068027	0.97444
1.21	77.751	-30278	2813.7	0.11614	-0.06832	0.97405
1.212	77.784	-30277	2815.8	0.11732	-0.06793	0.97424
1.214	77.774	-30280	2817.8	0.11849	-0.067539	0.97444
1.216	77.868	-30283	2819.8	0.11966	-0.067149	0.97463
1.218	77.952	-30285	2821.9	0.12083	-0.066758	0.97483
1.22	77.846	-30287	2824	0.122	-0.066368	0.97502
1.222	77.789	-30286	2825.9	0.12024	-0.067442	0.9758
1.224	77.828	-30285	2827.9	0.11849	-0.068515	0.97659
1.226	77.861	-30289	2829.7	0.11673	-0.069589	0.97737
1.228	77.836	-30292	2831.5	0.11497	-0.070662	0.97815
1.23	77.829	-30289	2833.3	0.11322	-0.071736	0.97893
1.232	77.795	-30285	2834.9	0.11439	-0.071541	0.9801
1.234	77.796	-30286	2836.4	0.11556	-0.071346	0.98127
1.236	77.78	-30288	2837.9	0.11673	-0.07115	0.98244
1.238	77.795	-30289	2839.2	0.1179	-0.070955	0.98361
1.24	77.873	-30290	2840.6	0.11907	-0.07076	0.98478
1.242	77.912	-30290	2841.8	0.11849	-0.070565	0.98391
1.244	77.9	-30290	2842.9	0.1179	-0.07037	0.98303
1.246	77.87	-30288	2844	0.11732	-0.070174	0.98215
1.248	77.802	-30287	2845.1	0.11673	-0.069979	0.98127
1.25	77.776	-30285	2846.1	0.11614	-0.069784	0.98039
1.252	77.828	-30283	2847	0.11575	-0.07037	0.98137
1.254	77.874	-30282	2847.9	0.11536	-0.070955	0.98234
1.256	77.901	-30281	2848.7	0.11497	-0.071541	0.98332
1.258	77.924	-30278	2849.5	0.11458	-0.072126	0.9843
1.26	77.981	-30275	2850.3	0.11419	-0.072712	0.98527
1.262	78.061	-30272	2850.9	0.11478	-0.072029	0.98547
1.264	78.044	-30269	2851.6	0.11536	-0.071346	0.98566
1.266	77.995	-30269	2852.2	0.11595	-0.070662	0.98586
1.268	77.915	-30270	2852.7	0.11653	-0.069979	0.98605
1.27	77.863	-30269	2853.3	0.11712	-0.069296	0.98625
1.272	77.875	-30268	2853.8	0.11673	-0.07037	0.98644
1.274	77.913	-30268	2854.3	0.11634	-0.071443	0.98664
1.276	77.948	-30268	2854.8	0.11595	-0.072517	0.98683
1.278	77.953	-30264	2855.2	0.11556	-0.07359	0.98703
1.28	77.935	-30261	2855.7	0.11517	-0.074664	0.98722
1.282	77.902	-30259	2856	0.11448	-0.074664	0.98664
1.284	77.895	-30258	2856.2	0.1138	-0.074664	0.98605
1.286	77.95	-30248	2856.5	0.11312	-0.074664	0.98547
1.288	77.947	-30239	2856.8	0.11244	-0.074664	0.98488
1.29	77.962	-30239	2857	0.11175	-0.074664	0.9843
1.292	77.953	-30239	2857.2	0.11204	-0.07525	0.98439
1.294	78.07	-30238	2857.3	0.11234	-0.075835	0.98449
1.296	78.059	-30238	2857.4	0.11263	-0.076421	0.98459
1.298	78.045	-30240	2857.4	0.11292	-0.077006	0.98469
1.3	78.043	-30243	2857.5	0.11322	-0.077592	0.98478
1.302	78.001	-30238	2857.5	0.11244	-0.077494	0.984
1.304	77.995	-30232	2857.4	0.11165	-0.077397	0.98322
1.306	77.952	-30230	2857.4	0.11087	-0.077299	0.98244
1.308	77.892	-30228	2857.4	0.11009	-0.077202	0.98166
1.31	77.954	-30227	2857.3	0.10931	-0.077104	0.98088
1.312	78.015	-30227	2857.2	0.10853	-0.07564	0.98088
1.314	78.029	-30224	2857	0.10775	-0.074176	0.98088
1.316	78.017	-30222	2856.9	0.10697	-0.072712	0.98088
1.318	78.014	-30220	2856.7	0.10619	-0.071248	0.98088
1.32	77.996	-30218	2856.5	0.10541	-0.069784	0.98088
1.322	77.991	-30217	2856.1	0.10638	-0.070858	0.98137
1.324	77.988	-30217	2855.7	0.10736	-0.071931	0.98186
1.326	78.055	-30210	2855.4	0.10834	-0.073005	0.98234
1.328	78.098	-30203	2855.1	0.10931	-0.074078	0.98283
1.33	78.051	-30207	2854.7	0.11029	-0.075152	0.98332
1.332	78.006	-30210	2854.4	0.11097	-0.076128	0.98225
1.334	77.976	-30215	2854	0.11165	-0.077104	0.98117
1.336	77.999	-30220	2853.6	0.11234	-0.07808	0.9801
1.338	78.058	-30206	2853.2	0.11302	-0.079056	0.97903
1.34	78.066	-30192	2852.7	0.1137	-0.080032	0.97795
1.342	78.061	-30193	2852.3	0.11439	-0.078373	0.97776
1.344	78.048	-30193	2851.8	0.11507	-0.076714	0.97756
1.346	78.016	-30189	2851.3	0.11575	-0.075054	0.97737
1.348	77.989	-30185	2850.8	0.11644	-0.073395	0.97717
1.35	77.979	-30189	2850.2	0.11712	-0.071736	0.97698
1.352	77.978	-30193	2849.7	0.1178	-0.07115	0.976
1.354	77.976	-30193	2849.1	0.11849	-0.070565	0.97502
1.356	78.007	-30194	2848.6	0.11917	-0.069979	0.97405
1.358	78.042	-30187	2848.1	0.11985	-0.069394	0.97307
1.36	78.058	-30180	2847.6	0.12054	-0.068808	0.9721
1.362	78.036	-30185	2847	0.11985	-0.068808	0.97249
1.364	78.046	-30190	2846.4	0.11917	-0.068808	0.97288
1.366	78.048	-30182	2845.9	0.11849	-0.068808	0.97327
1.368	77.982	-30174	2845.3	0.1178	-0.068808	0.97366
1.37	77.957	-30173	2844.7	0.11712	-0.068808	0.97405
1.372	77.999	-30173	2844.2	0.11585	-0.070467	0.97502
1.374	78.038	-30176	2843.6	0.11458	-0.072126	0.976
1.376	77.997	-30178	2843.1	0.11331	-0.073786	0.97698
1.378	77.973	-30171	2842.5	0.11204	-0.075445	0.97795
1.38	78.026	-30163	2841.9	0.11078	-0.077104	0.97893
1.382	78.123	-30171	2841.4	0.11029	-0.076323	0.97932
1.384	78.081	-30180	2840.9	0.1098	-0.075542	0.97971
1.386	78.001	-30173	2840.3	0.10931	-0.074762	0.9801
1.388	78.036	-30166	2839.8	0.10882	-0.073981	0.98049
1.39	77.997	-30169	2839.3	0.10834	-0.0732	0.98088
1.392	77.92	-30173	2838.7	0.1097	-0.073395	0.98068
1.394	77.924	-30166	2838.2	0.11107	-0.07359	0.98049
1.396	77.939	-30159	2837.7	0.11244	-0.073786	0.98029
1.398	78.043	-30160	2837.1	0.1138	-0.073981	0.9801
1.4	78.066	-30160	2836.6	0.11517	-0.074176	0.9799
1.402	78.007	-30157	2836	0.11546	-0.073298	0.97932
1.404	77.997	-30154	2835.3	0.11575	-0.072419	0.97873
1.406	78.008	-30150	2834.7	0.11605	-0.071541	0.97815
1.408	78.044	-30147	2834.1	0.11634	-0.070662	0.97756
1.41	78.049	-30153	2833.4	0.11663	-0.069784	0.97698
1.412	78.033	-30159	2832.7	0.1181	-0.070565	0.97688
1.414	78.014	-30152	2832	0.11956	-0.071346	0.97678
1.416	77.997	-30145	2831.3	0.12102	-0.072126	0.97668
1.418	78.009	-30152	2830.6	0.12249	-0.072907	0.97659
1.42	78.016	-30159	2829.9	0.12395	-0.073688	0.97649
1.422	78.017	-30159	2829.1	0.12376	-0.072126	0.9761
1.424	78.024	-30160	2828.4	0.12356	-0.070565	0.97571
1.426	78.007	-30163	2827.6	0.12337	-0.069003	0.97532
1.428	78.006	-30166	2826.9	0.12317	-0.067442	0.97493
1.43	78.02	-30161	2826.1	0.12298	-0.06588	0.97454
1.432	77.996	-30155	2825.5	0.12239	-0.066368	0.97532
1.434	77.973	-30155	2824.9	0.1218	-0.066856	0.9761
1.436	77.952	-30155	2824.3	0.12122	-0.067344	0.97688
1.438	77.975	-30152	2823.8	0.12063	-0.067832	0.97766
1.44	78.044	-30150	2823.2	0.12005	-0.06832	0.97844
1.442	78.115	-30149	2822.8	0.11858	-0.070077	0.97903
1.444	78.102	-30149	2822.4	0.11712	-0.071834	0.97961
1.446	78.001	-30155	2822.1	0.11566	-0.07359	0.9802
1.448	77.938	-30161	2821.8	0.11419	-0.075347	0.98078
1.45	77.946	-30162	2821.5	0.11273	-0.077104	0.98137
1.452	77.969	-30163	2821.3	0.1138	-0.076421	0.98098
1.454	77.952	-30162	2821.2	0.11488	-0.075738	0.98059
1.456	78.053	-30161	2821.1	0.11595	-0.075054	0.9802
1.458	78.076	-30160	2821.1	0.11702	-0.074371	0.97981
1.46	78.102	-30159	2821.1	0.1181	-0.073688	0.97942
1.462	78.007	-30159	2821.1	0.11927	-0.073493	0.97883
1.464	78.02	-30159	2821.2	0.12044	-0.073298	0.97824
1.466	78.064	-30159	2821.3	0.12161	-0.073102	0.97766
1.468	78.048	-30160	2821.4	0.12278	-0.072907	0.97707
1.47	78.023	-30158	2821.6	0.12395	-0.072712	0.97649
1.472	78.01	-30157	2821.8	0.12346	-0.072907	0.97678
1.474	78.06	-30157	2822	0.12298	-0.073102	0.97707
1.476	78.08	-30157	2822.2	0.12249	-0.073298	0.97737
1.478	78.036	-30160	2822.4	0.122	-0.073493	0.97766
1.48	77.999	-30163	2822.6	0.12151	-0.073688	0.97795
1.482	77.999	-30160	2822.9	0.12122	-0.073102	0.97844
1.484	78.039	-30157	2823.1	0.12093	-0.072517	0.97893
1.486	78.028	-30157	2823.4	0.12063	-0.071931	0.97942
1.488	77.994	-30158	2823.7	0.12034	-0.071346	0.9799
1.49	78.03	-30164	2824	0.12005	-0.07076	0.98039
1.492	78.003	-30170	2824.3	0.11858	-0.071346	0.98029
1.494	77.969	-30162	2824.5	0.11712	-0.071931	0.9802
1.496	77.995	-30154	2824.8	0.11566	-0.072517	0.9801
1.498	78.026	-30155	2825.1	0.11419	-0.073102	0.98
1.5	78.043	-30156	2825.4	0.11273	-0.073688	0.9799
1.502	78.052	-30162	2825.8	0.1137	-0.073395	0.98
1.504	78.023	-30167	2826.1	0.11468	-0.073102	0.9801
1.506	77.977	-30163	2826.4	0.11566	-0.07281	0.9802
1.508	77.97	-30158	2826.8	0.11663	-0.072517	0.98029
1.51	77.992	-30161	2827.1	0.11761	-0.072224	0.98039
1.512	77.984	-30165	2827.5	0.1178	-0.07281	0.98137
1.514	77.962	-30165	2827.8	0.118	-0.073395	0.98234
1.516	77.974	-30165	2828.1	0.11819	-0.073981	0.98332
1.518	77.981	-30166	2828.3	0.11839	-0.074566	0.9843
1.52	77.961	-30167	2828.5	0.11858	-0.075152	0.98527
1.522	77.934	-30164	2828.7	0.11849	-0.074566	0.98478
1.524	77.9	-30160	2828.9	0.11839	-0.073981	0.9843
1.526	77.911	-30165	2829.1	0.11829	-0.073395	0.98381
1.528	77.972	-30170	2829.2	0.11819	-0.07281	0.98332
1.53	78.064	-30169	2829.4	0.1181	-0.072224	0.98283
1.532	78.109	-30169	2829.6	0.1179	-0.073395	0.98254
1.534	78.047	-30171	2829.8	0.11771	-0.074566	0.98225
1.536	77.954	-30173	2829.9	0.11751	-0.075738	0.98195
1.538	77.923	-30172	2830.1	0.11732	-0.076909	0.98166
1.54	77.904	-30171	2830.2	0.11712	-0.07808	0.98137
1.542	77.978	-30173	2830.4	0.11751	-0.076323	0.98098
1.544	78.09	-30175	2830.5	0.1179	-0.074566	0.98059
1.546	78.142	-30175	2830.6	0.11829	-0.07281	0.9802
1.548	78.097	-30175	2830.7	0.11868	-0.071053	0.97981
1.55	78	-30171	2830.9	0.11907	-0.069296	0.97942
1.552	77.897	-30168	2831	0.12024	-0.069296	0.97854
1.554	77.913	-30164	2831.1	0.12141	-0.069296	0.97766
1.556	78.021	-30161	2831.2	0.12259	-0.069296	0.97678
1.558	78.069	-30162	2831.2	0.12376	-0.069296	0.9759
1.56	78.056	-30162	2831.2	0.12493	-0.069296	0.97502
1.562	78.109	-30167	2831.2	0.12464	-0.069296	0.97551
1.564	78.118	-30172	2831.3	0.12434	-0.069296	0.976
1.566	78.058	-30172	2831.2	0.12405	-0.069296	0.97649
1.568	77.99	-30173	2831.2	0.12376	-0.069296	0.97698
1.57	78.043	-30169	2831.2	0.12346	-0.069296	0.97746
1.572	78.075	-30165	2831.1	0.12298	-0.069296	0.97756
1.574	78.068	-30168	2831.1	0.12249	-0.069296	0.97766
1.576	78.068	-30171	2831	0.122	-0.069296	0.97776
1.578	78.063	-30169	2830.8	0.12151	-0.069296	0.97785
1.58	78.042	-30167	2830.7	0.12102	-0.069296	0.97795
1.582	78.024	-30170	2830.5	0.11985	-0.069491	0.97805
1.584	78.047	-30173	2830.3	0.11868	-0.069686	0.97815
1.586	78.098	-30174	2830.1	0.11751	-0.069882	0.97824
1.588	78.108	-30175	2829.9	0.11634	-0.070077	0.97834
1.59	78.071	-30169	2829.7	0.11517	-0.070272	0.97844
1.592	78.023	-30164	2829.4	0.11761	-0.070858	0.97776
1.594	78.029	-30170	2829.1	0.12005	-0.071443	0.97707
1.596	78.087	-30175	2828.8	0.12249	-0.072029	0.97639
1.598	78.1	-30177	2828.5	0.12493	-0.072614	0.97571
1.6	78.055	-30178	2828.3	0.12737	-0.0732	0.97502
1.602	77.976	-30174	2828	0.12649	-0.072517	0.97522
1.604	77.966	-30171	2827.6	0.12561	-0.071834	0.97541
1.606	78.075	-30166	2827.3	0.12473	-0.07115	0.97561
1.608	78.089	-30162	2826.9	0.12385	-0.070467	0.9758
1.61	78.046	-30163	2826.5	0.12298	-0.069784	0.976
1.612	78.053	-30164	2826.1	0.1222	-0.069491	0.97561
1.614	78.073	-30162	2825.8	0.12141	-0.069198	0.97522
1.616	78.07	-30160	2825.4	0.12063	-0.068906	0.97483
1.618	78.046	-30163	2825	0.11985	-0.068613	0.97444
1.62	78.034	-30166	2824.6	0.11907	-0.06832	0.97405
1.622	77.99	-30167	2824.3	0.11936	-0.068418	0.97366
1.624	77.978	-30168	2824	0.11966	-0.068515	0.97327
1.626	78.066	-30163	2823.6	0.11995	-0.068613	0.97288
1.628	78.071	-30159	2823.2	0.12024	-0.06871	0.97249
1.63	78.098	-30159	2822.9	0.12054	-0.068808	0.9721
1.632	78.176	-30160	2822.5	0.11976	-0.069589	0.97424
1.634	78.17	-30165	2822.1	0.11897	-0.07037	0.97639
1.636	78.125	-30170	2821.7	0.11819	-0.07115	0.97854
1.638	78.113	-30174	2821.3	0.11741	-0.071931	0.98068
1.64	78.038	-30178	2820.9	0.11663	-0.072712	0.98283
1.642	77.897	-30179	2820.5	0.11634	-0.073395	0.98312
1.644	77.829	-30179	2820.1	0.11605	-0.074078	0.98342
1.646	77.98	-30177	2819.7	0.11575	-0.074762	0.98371
1.648	78.066	-30174	2819.3	0.11546	-0.075445	0.984
1.65	77.947	-30176	2818.9	0.11517	-0.076128	0.9843
1.652	77.827	-30179	2818.5	0.11439	-0.076128	0.98361
1.654	77.727	-30180	2818.1	0.11361	-0.076128	0.98293
1.656	77.624	-30181	2817.7	0.11283	-0.076128	0.98225
1.658	77.587	-30179	2817.3	0.11204	-0.076128	0.98156
1.66	77.632	-30178	2816.9	0.11126	-0.076128	0.98088
1.662	77.657	-30176	2816.5	0.11146	-0.075835	0.98098
1.664	77.623	-30174	2816.2	0.11165	-0.075542	0.98108
1.666	77.633	-30172	2815.8	0.11185	-0.07525	0.98117
1.668	77.644	-30171	2815.5	0.11204	-0.074957	0.98127
1.67	77.683	-30179	2815.2	0.11224	-0.074664	0.98137
1.672	77.695	-30186	2814.9	0.11195	-0.074274	0.98059
1.674	77.673	-30183	2814.5	0.11165	-0.073883	0.97981
1.676	77.719	-30179	2814.2	0.11136	-0.073493	0.97903
1.678	77.83	-30176	2813.8	0.11107	-0.073102	0.97824
1.68	77.928	-30173	2813.5	0.11078	-0.072712	0.97746
1.682	77.986	-30179	2813.1	0.11117	-0.073493	0.97815
1.684	78.005	-30186	2812.7	0.11156	-0.074274	0.97883
1.686	77.994	-30188	2812.4	0.11195	-0.075054	0.97951
1.688	78	-30191	2812	0.11234	-0.075835	0.9802
1.69	78.026	-30190	2811.6	0.11273	-0.076616	0.98088
1.692	78.095	-30190	2811.3	0.11312	-0.075933	0.98117
1.694	78.098	-30190	2811	0.11351	-0.07525	0.98147
1.696	78.03	-30190	2810.6	0.1139	-0.074566	0.98176
1.698	77.995	-30193	2810.2	0.11429	-0.073883	0.98205
1.7	77.948	-30196	2809.8	0.11468	-0.0732	0.98234
1.702	77.986	-30197	2809.5	0.1139	-0.074078	0.98205
1.704	78.062	-30197	2809.1	0.11312	-0.074957	0.98176
1.706	78.038	-30191	2808.7	0.11234	-0.075835	0.98147
1.708	77.988	-30185	2808.4	0.11156	-0.076714	0.98117
1.71	78.051	-30187	2808	0.11078	-0.077592	0.98088
1.712	78.095	-30188	2807.7	0.11165	-0.077006	0.98088
1.714	78.057	-30190	2807.3	0.11253	-0.076421	0.98088
1.716	78.001	-30193	2807	0.11341	-0.075835	0.98088
1.718	78.043	-30188	2806.6	0.11429	-0.07525	0.98088
1.72	78.023	-30184	2806.2	0.11517	-0.074664	0.98088
1.722	78.014	-30186	2805.9	0.11478	-0.074762	0.98117
1.724	77.979	-30188	2805.5	0.11439	-0.074859	0.98147
1.726	78.014	-30191	2805.1	0.114	-0.074957	0.98176
1.728	78.114	-30194	2804.8	0.11361	-0.075054	0.98205
1.73	78.124	-30198	2804.4	0.11322	-0.075152	0.98234
1.732	78.102	-30202	2804.1	0.11341	-0.074859	0.98195
1.734	78.063	-30202	2803.8	0.11361	-0.074566	0.98156
1.736	78.076	-30203	2803.5	0.1138	-0.074274	0.98117
1.738	78.074	-30202	2803.2	0.114	-0.073981	0.98078
1.74	78.005	-30202	2802.9	0.11419	-0.073688	0.98039
1.742	77.967	-30206	2802.6	0.11653	-0.072517	0.97951
1.744	77.943	-30210	2802.3	0.11888	-0.071346	0.97864
1.746	77.938	-30206	2802.1	0.12122	-0.070174	0.97776
1.748	77.996	-30203	2801.8	0.12356	-0.069003	0.97688
1.75	78.055	-30200	2801.5	0.1259	-0.067832	0.976
1.752	78.051	-30198	2801.2	0.12551	-0.06871	0.97571
1.754	78.03	-30202	2800.9	0.12512	-0.069589	0.97541
1.756	78.025	-30207	2800.6	0.12473	-0.070467	0.97512
1.758	78.047	-30211	2800.2	0.12434	-0.071346	0.97483
1.76	78.024	-30216	2799.9	0.12395	-0.072224	0.97454
1.762	77.971	-30217	2799.6	0.12317	-0.071834	0.97512
1.764	77.957	-30219	2799.3	0.12239	-0.071443	0.97571
1.766	77.958	-30218	2798.9	0.12161	-0.071053	0.97629
1.768	77.96	-30216	2798.7	0.12083	-0.070662	0.97688
1.77	77.997	-30219	2798.4	0.12005	-0.070272	0.97746
1.772	78.028	-30221	2798.1	0.12093	-0.070467	0.97737
1.774	77.972	-30219	2797.9	0.1218	-0.070662	0.97727
1.776	77.917	-30218	2797.7	0.12268	-0.070858	0.97717
1.778	77.899	-30216	2797.4	0.12356	-0.071053	0.97707
1.78	77.943	-30215	2797.2	0.12444	-0.071248	0.97698
1.782	78.03	-30219	2796.9	0.12473	-0.071248	0.97639
1.784	78.026	-30224	2796.7	0.12503	-0.071248	0.9758
1.786	77.938	-30226	2796.5	0.12532	-0.071248	0.97522
1.788	77.923	-30228	2796.2	0.12561	-0.071248	0.97463
1.79	77.984	-30230	2796	0.1259	-0.071248	0.97405
1.792	78.067	-30231	2795.8	0.12434	-0.069882	0.97415
1.794	78.117	-30230	2795.6	0.12278	-0.068515	0.97424
1.796	78.03	-30229	2795.4	0.12122	-0.067149	0.97434
1.798	77.972	-30223	2795.2	0.11966	-0.065782	0.97444
1.8	78.004	-30217	2795.1	0.1181	-0.064416	0.97454
1.802	77.972	-30213	2794.9	0.11976	-0.065978	0.97405
1.804	77.88	-30209	2794.7	0.12141	-0.067539	0.97356
1.806	77.867	-30216	2794.5	0.12307	-0.069101	0.97307
1.808	77.852	-30222	2794.3	0.12473	-0.070662	0.97258
1.81	77.808	-30226	2794.2	0.12639	-0.072224	0.9721
1.812	78.023	-30231	2794	0.1261	-0.072322	0.97268
1.814	78.099	-30238	2793.8	0.12581	-0.072419	0.97327
1.816	78.006	-30245	2793.7	0.12551	-0.072517	0.97385
1.818	77.948	-30247	2793.6	0.12522	-0.072614	0.97444
1.82	77.922	-30250	2793.5	0.12493	-0.072712	0.97502
1.822	77.953	-30243	2793.5	0.12346	-0.071638	0.97512
1.824	77.97	-30237	2793.4	0.122	-0.070565	0.97522
1.826	77.964	-30238	2793.4	0.12054	-0.069491	0.97532
1.828	77.925	-30238	2793.4	0.11907	-0.068418	0.97541
1.83	77.902	-30241	2793.4	0.11761	-0.067344	0.97551
1.832	77.895	-30244	2793.4	0.11858	-0.067442	0.97522
1.834	77.928	-30243	2793.5	0.11956	-0.067539	0.97493
1.836	77.943	-30241	2793.6	0.12054	-0.067637	0.97463
1.838	77.901	-30249	2793.8	0.12151	-0.067734	0.97434
1.84	77.871	-30256	2794	0.12249	-0.067832	0.97405
1.842	77.859	-30255	2794.3	0.12268	-0.067734	0.97366
1.844	77.834	-30253	2794.6	0.12288	-0.067637	0.97327
1.846	77.826	-30254	2795	0.12307	-0.067539	0.97288
1.848	77.852	-30254	2795.6	0.12327	-0.067442	0.97249
1.85	77.878	-30260	2796.2	0.12346	-0.067344	0.9721
1.852	77.875	-30266	2797	0.12395	-0.06793	0.97249
1.854	77.866	-30266	2797.9	0.12444	-0.068515	0.97288
1.856	77.9	-30267	2799	0.12493	-0.069101	0.97327
1.858	77.95	-30260	2800.3	0.12542	-0.069686	0.97366
1.86	77.967	-30253	2801.7	0.1259	-0.070272	0.97405
1.862	77.942	-30256	2803.4	0.12629	-0.070662	0.97376
1.864	77.879	-30259	2805.2	0.12668	-0.071053	0.97346
1.866	77.844	-30259	2807.1	0.12708	-0.071443	0.97317
1.868	77.83	-30259	2809.1	0.12747	-0.071834	0.97288
1.87	77.872	-30259	2811.2	0.12786	-0.072224	0.97258
1.872	77.893	-30259	2813.3	0.12668	-0.071931	0.97327
1.874	77.817	-30264	2815.4	0.12551	-0.071638	0.97395
1.876	77.792	-30269	2817.5	0.12434	-0.071346	0.97463
1.878	77.836	-30263	2819.6	0.12317	-0.071053	0.97532
1.88	77.937	-30256	2821.7	0.122	-0.07076	0.976
1.882	77.986	-30261	2823.6	0.12229	-0.071443	0.97649
1.884	77.885	-30266	2825.4	0.12259	-0.072126	0.97698
1.886	77.837	-30268	2827.2	0.12288	-0.07281	0.97746
1.888	77.903	-30269	2828.8	0.12317	-0.073493	0.97795
1.89	77.949	-30264	2830.4	0.12346	-0.074176	0.97844
1.892	77.838	-30258	2831.8	0.12161	-0.074664	0.97961
1.894	77.852	-30269	2833.2	0.11976	-0.075152	0.98078
1.896	77.904	-30280	2834.5	0.1179	-0.07564	0.98195
1.898	77.893	-30273	2835.8	0.11605	-0.076128	0.98312
1.9	77.92	-30266	2837	0.11419	-0.076616	0.9843
1.902	77.931	-30269	2838.1	0.11497	-0.07564	0.9841
1.904	78.053	-30273	2839.2	0.11575	-0.074664	0.98391
1.906	78.078	-30272	2840.2	0.11653	-0.073688	0.98371
1.908	77.993	-30271	2841.1	0.11732	-0.072712	0.98352
1.91	77.966	-30267	2842	0.1181	-0.071736	0.98332
1.912	77.934	-30262	2842.8	0.118	-0.071346	0.98322
1.914	77.928	-30265	2843.5	0.1179	-0.070955	0.98312
1.916	78.004	-30268	2844.3	0.1178	-0.070565	0.98303
1.918	78.018	-30263	2844.9	0.11771	-0.070174	0.98293
1.92	78.011	-30258	2845.6	0.11761	-0.069784	0.98283
1.922	78.011	-30260	2846.2	0.118	-0.069394	0.98303
1.924	78.013	-30262	2846.7	0.11839	-0.069003	0.98322
1.926	78.009	-30260	2847.3	0.11878	-0.068613	0.98342
1.928	78.019	-30259	2847.7	0.11917	-0.068222	0.98361
1.93	78.078	-30254	2848.2	0.11956	-0.067832	0.98381
1.932	78.083	-30250	2848.6	0.11819	-0.069296	0.98391
1.934	78.043	-30249	2849	0.11683	-0.07076	0.984
1.936	78.056	-30249	2849.4	0.11546	-0.072224	0.9841
1.938	78.07	-30246	2849.7	0.11409	-0.073688	0.9842
1.94	78.047	-30242	2850.1	0.11273	-0.075152	0.9843
1.942	78.047	-30240	2850.3	0.11331	-0.074176	0.98342
1.944	78.073	-30237	2850.5	0.1139	-0.0732	0.98254
1.946	78.054	-30236	2850.7	0.11448	-0.072224	0.98166
1.948	78.043	-30235	2850.8	0.11507	-0.071248	0.98078
1.95	78.044	-30235	2850.9	0.11566	-0.070272	0.9799
1.952	78.063	-30235	2850.9	0.11732	-0.07037	0.97922
1.954	78.082	-30234	2851	0.11897	-0.070467	0.97854
1.956	78.071	-30233	2851	0.12063	-0.070565	0.97785
1.958	78.011	-30229	2850.9	0.12229	-0.070662	0.97717
1.96	77.985	-30225	2850.8	0.12395	-0.07076	0.97649
1.962	78.028	-30224	2850.5	0.12356	-0.070662	0.9762
1.964	78.104	-30222	2850.3	0.12317	-0.070565	0.9759
1.966	78.121	-30220	2850.1	0.12278	-0.070467	0.97561
1.968	78.098	-30217	2849.8	0.12239	-0.07037	0.97532
1.97	78.051	-30219	2849.6	0.122	-0.070272	0.97502
1.972	78.108	-30221	2849.3	0.12239	-0.070174	0.97512
1.974	78.105	-30213	2848.9	0.12278	-0.070077	0.97522
1.976	78.088	-30206	2848.5	0.12317	-0.069979	0.97532
1.978	78.008	-30204	2848.2	0.12356	-0.069882	0.97541
1.98	77.968	-30202	2847.8	0.12395	-0.069784	0.97551
1.982	77.965	-30201	2847.4	0.12249	-0.070272	0.97639
1.984	78.054	-30201	2847	0.12102	-0.07076	0.97727
1.986	78.048	-30194	2846.6	0.11956	-0.071248	0.97815
1.988	78.117	-30188	2846.2	0.1181	-0.071736	0.97903
1.99	78.156	-30189	2845.8	0.11663	-0.072224	0.9799
1.992	78.147	-30190	2845.3	0.11673	-0.072126	0.97981
1.994	78.157	-30189	2844.9	0.11683	-0.072029	0.97971
1.996	78.104	-30188	2844.5	0.11692	-0.071931	0.97961
1.998	78.042	-30185	2844.1	0.11702	-0.071834	0.97951
2	78.053	-30182	2843.7	0.11712	-0.071736	0.97942
2.002	78.143	-30180	2843.2	0.11683	-0.071541	0.98
2.004	78.112	-30178	2842.7	0.11653	-0.071346	0.98059
2.006	78.076	-30181	2842.3	0.11624	-0.07115	0.98117
2.008	78.094	-30184	2841.8	0.11595	-0.070955	0.98176
2.01	78.091	-30185	2841.3	0.11566	-0.07076	0.98234
2.012	78.073	-30187	2840.8	0.11507	-0.072126	0.98205
2.014	78.063	-30179	2840.3	0.11448	-0.073493	0.98176
2.016	78.061	-30172	2839.8	0.1139	-0.074859	0.98147
2.018	78.085	-30169	2839.3	0.11331	-0.076226	0.98117
2.02	78.079	-30165	2838.7	0.11273	-0.077592	0.98088
2.022	78.049	-30166	2838.2	0.11175	-0.077006	0.98088
2.024	78.057	-30166	2837.6	0.11078	-0.076421	0.98088
2.026	78.079	-30170	2837.1	0.1098	-0.075835	0.98088
2.028	78.097	-30175	2836.5	0.10882	-0.07525	0.98088
2.03	78.085	-30173	2836	0.10785	-0.074664	0.98088
2.032	78.063	-30171	2835.4	0.10795	-0.073883	0.98039
2.034	78.006	-30166	2834.8	0.10804	-0.073102	0.9799
2.036	77.987	-30161	2834.2	0.10814	-0.072322	0.97942
2.038	78.011	-30161	2833.7	0.10824	-0.071541	0.97893
2.04	78.072	-30161	2833.1	0.10834	-0.07076	0.97844
2.042	78.108	-30157	2832.5	0.10921	-0.071736	0.97981
2.044	78.085	-30153	2831.8	0.11009	-0.072712	0.98117
2.046	78.056	-30156	2831.2	0.11097	-0.073688	0.98254
2.048	77.999	-30159	2830.6	0.11185	-0.074664	0.98391
2.05	77.955	-30155	2830	0.11273	-0.07564	0.98527
2.052	78.027	-30150	2829.5	0.11331	-0.07525	0.98547
2.054	78.121	-30152	2828.9	0.1139	-0.074859	0.98566
2.056	78.065	-30153	2828.4	0.11448	-0.074469	0.98586
2.058	78.019	-30156	2827.8	0.11507	-0.074078	0.98605
2.06	77.977	-30160	2827.3	0.11566	-0.073688	0.98625
2.062	78.049	-30153	2826.7	0.11595	-0.073298	0.98615
2.064	78.231	-30145	2826.1	0.11624	-0.072907	0.98605
2.066	78.191	-30146	2825.5	0.11653	-0.072517	0.98596
2.068	78.085	-30147	2824.9	0.11683	-0.072126	0.98586
2.07	78.036	-30146	2824.3	0.11712	-0.071736	0.98576
2.072	78.036	-30145	2823.7	0.11692	-0.071248	0.9843
2.074	78.06	-30146	2823.1	0.11673	-0.07076	0.98283
2.076	78.059	-30148	2822.5	0.11653	-0.070272	0.98137
2.078	78.028	-30147	2821.9	0.11634	-0.069784	0.9799
2.08	78.056	-30147	2821.3	0.11614	-0.069296	0.97844
2.082	78.075	-30145	2820.7	0.11575	-0.069784	0.97873
2.084	78.128	-30143	2820.2	0.11536	-0.070272	0.97903
2.086	78.155	-30145	2819.6	0.11497	-0.07076	0.97932
2.088	78.097	-30147	2819	0.11458	-0.071248	0.97961
2.09	78.079	-30145	2818.4	0.11419	-0.071736	0.9799
2.092	78.079	-30143	2817.9	0.11322	-0.072224	0.9799
2.094	78.062	-30149	2817.4	0.11224	-0.072712	0.9799
2.096	78.023	-30155	2816.9	0.11126	-0.0732	0.9799
2.098	78.005	-30151	2816.5	0.11029	-0.073688	0.9799
2.1	78.043	-30146	2816.1	0.10931	-0.074176	0.9799
2.102	78.06	-30146	2815.8	0.1098	-0.074176	0.98039
2.104	78.049	-30147	2815.5	0.11029	-0.074176	0.98088
2.106	78.081	-30147	2815.3	0.11078	-0.074176	0.98137
2.108	78.108	-30147	2815.1	0.11126	-0.074176	0.98186
2.11	78.071	-30150	2814.9	0.11175	-0.074176	0.98234
2.112	78.025	-30153	2814.9	0.11439	-0.07281	0.98059
2.114	78.001	-30153	2814.8	0.11702	-0.071443	0.97883
2.116	77.971	-30153	2814.8	0.11966	-0.070077	0.97707
2.118	77.99	-30152	2814.8	0.12229	-0.06871	0.97532
2.12	78.08	-30152	2814.8	0.12493	-0.067344	0.97356
2.122	78.103	-30151	2814.9	0.12639	-0.068906	0.97395
2.124	78.06	-30150	2815	0.12786	-0.070467	0.97434
2.126	78.047	-30149	2815.1	0.12932	-0.072029	0.97473
2.128	78.054	-30148	2815.3	0.13078	-0.07359	0.97512
2.13	78.044	-30148	2815.5	0.13225	-0.075152	0.97551
2.132	78.01	-30147	2815.7	0.1302	-0.073883	0.9758
2.134	78.064	-30148	2815.9	0.12815	-0.072614	0.9761
2.136	78.013	-30148	2816.1	0.1261	-0.071346	0.97639
2.138	78.059	-30147	2816.3	0.12405	-0.070077	0.97668
2.14	78.079	-30145	2816.4	0.122	-0.068808	0.97698
2.142	78.107	-30147	2816.6	0.122	-0.069296	0.97795
2.144	78.098	-30150	2816.8	0.122	-0.069784	0.97893
2.146	78.073	-30152	2817.1	0.122	-0.070272	0.9799
2.148	78.047	-30153	2817.4	0.122	-0.07076	0.98088
2.15	78.037	-30153	2817.6	0.122	-0.071248	0.98186
2.152	78.036	-30152	2817.9	0.1218	-0.070662	0.98127
2.154	77.975	-30155	2818.1	0.12161	-0.070077	0.98068
2.156	77.981	-30159	2818.4	0.12141	-0.069491	0.9801
2.158	78.083	-30159	2818.7	0.12122	-0.068906	0.97951
2.16	78.095	-30159	2819	0.12102	-0.06832	0.97893
2.162	78.113	-30157	2819.3	0.12063	-0.067637	0.97864
2.164	78.057	-30155	2819.5	0.12024	-0.066954	0.97834
2.166	78.004	-30155	2819.8	0.11985	-0.06627	0.97805
2.168	78.019	-30155	2820.1	0.11946	-0.065587	0.97776
2.17	78.016	-30157	2820.4	0.11907	-0.064904	0.97746
2.172	77.987	-30158	2820.6	0.12044	-0.065782	0.97707
2.174	77.993	-30157	2820.9	0.1218	-0.066661	0.97668
2.176	78.008	-30155	2821.1	0.12317	-0.067539	0.97629
2.178	78.035	-30155	2821.3	0.12454	-0.068418	0.9759
2.18	78.056	-30155	2821.5	0.1259	-0.069296	0.97551
2.182	78.056	-30157	2821.7	0.12444	-0.069686	0.97649
2.184	78.021	-30159	2821.9	0.12298	-0.070077	0.97746
2.186	77.979	-30164	2822.2	0.12151	-0.070467	0.97844
2.188	77.968	-30168	2822.4	0.12005	-0.070858	0.97942
2.19	77.98	-30162	2822.6	0.11858	-0.071248	0.98039
2.192	78.041	-30155	2822.8	0.11858	-0.070858	0.97932
2.194	78.082	-30159	2822.9	0.11858	-0.070467	0.97824
2.196	78.058	-30164	2823	0.11858	-0.070077	0.97717
2.198	78.054	-30161	2823.2	0.11858	-0.069686	0.9761
2.2	78.034	-30158	2823.3	0.11858	-0.069296	0.97502
2.202	78.029	-30152	2823.5	0.11849	-0.07037	0.97629
2.204	78.025	-30147	2823.6	0.11839	-0.071443	0.97756
2.206	78.007	-30153	2823.7	0.11829	-0.072517	0.97883
2.208	78.054	-30158	2823.9	0.11819	-0.07359	0.9801
2.21	78.11	-30159	2824	0.1181	-0.074664	0.98137
2.212	78.118	-30160	2824.2	0.11722	-0.075445	0.98137
2.214	78.057	-30164	2824.4	0.11634	-0.076226	0.98137
2.216	78.007	-30169	2824.5	0.11546	-0.077006	0.98137
2.218	78	-30168	2824.6	0.11458	-0.077787	0.98137
2.22	77.997	-30166	2824.7	0.1137	-0.078568	0.98137
2.222	78.054	-30161	2824.8	0.11341	-0.078666	0.98108
2.224	78.165	-30155	2824.9	0.11312	-0.078763	0.98078
2.226	78.153	-30158	2825	0.11283	-0.078861	0.98049
2.228	78.216	-30161	2825.1	0.11253	-0.078958	0.9802
2.23	78.167	-30152	2825.1	0.11224	-0.079056	0.9799
2.232	78.046	-30144	2825.1	0.11351	-0.077397	0.98098
2.234	77.992	-30146	2825.1	0.11478	-0.075738	0.98205
2.236	78.029	-30149	2825.1	0.11605	-0.074078	0.98312
2.238	78.047	-30153	2825	0.11732	-0.072419	0.9842
2.24	78.029	-30158	2824.9	0.11858	-0.07076	0.98527
2.242	78.047	-30154	2824.8	0.11868	-0.070565	0.98478
2.244	78.093	-30149	2824.7	0.11878	-0.07037	0.9843
2.246	78.224	-30150	2824.5	0.11888	-0.070174	0.98381
2.248	78.206	-30151	2824.2	0.11897	-0.069979	0.98332
2.25	78.116	-30151	2824	0.11907	-0.069784	0.98283
2.252	78.056	-30150	2823.7	0.11897	-0.069003	0.98303
2.254	78.096	-30148	2823.4	0.11888	-0.068222	0.98322
2.256	78.117	-30145	2823	0.11878	-0.067442	0.98342
2.258	78.078	-30143	2822.7	0.11868	-0.066661	0.98361
2.26	78.113	-30141	2822.3	0.11858	-0.06588	0.98381
2.262	78.124	-30139	2821.9	0.11732	-0.067832	0.98361
2.264	78.094	-30137	2821.5	0.11605	-0.069784	0.98342
2.266	78.105	-30139	2821.1	0.11478	-0.071736	0.98322
2.268	78.118	-30140	2820.6	0.11351	-0.073688	0.98303
2.27	78.089	-30142	2820.2	0.11224	-0.07564	0.98283
2.272	78.079	-30144	2819.7	0.11214	-0.076128	0.98225
2.274	78.114	-30142	2819.2	0.11204	-0.076616	0.98166
2.276	78.102	-30140	2818.7	0.11195	-0.077104	0.98108
2.278	78.058	-30142	2818.2	0.11185	-0.077592	0.98049
2.28	78.062	-30144	2817.7	0.11175	-0.07808	0.9799
2.282	78.059	-30150	2817.3	0.11156	-0.07769	0.97971
2.284	78.01	-30156	2816.8	0.11136	-0.077299	0.97951
2.286	77.97	-30157	2816.4	0.11117	-0.076909	0.97932
2.288	77.97	-30158	2815.9	0.11097	-0.076518	0.97912
2.29	77.988	-30160	2815.5	0.11078	-0.076128	0.97893
2.292	77.998	-30162	2815.1	0.11214	-0.076323	0.97766
2.294	77.994	-30157	2814.7	0.11351	-0.076518	0.97639
2.296	77.915	-30153	2814.4	0.11488	-0.076714	0.97512
2.298	77.797	-30155	2814	0.11624	-0.076909	0.97385
2.3	77.739	-30157	2813.7	0.11761	-0.077104	0.97258
2.302	77.75	-30160	2813.4	0.11761	-0.07603	0.97356
2.304	77.737	-30163	2813.1	0.11761	-0.074957	0.97454
2.306	77.68	-30161	2812.8	0.11761	-0.073883	0.97551
2.308	77.613	-30159	2812.6	0.11761	-0.07281	0.97649
2.31	77.639	-30161	2812.4	0.11761	-0.071736	0.97746
2.312	77.653	-30163	2812.2	0.11858	-0.071443	0.97649
2.314	77.638	-30163	2811.9	0.11956	-0.07115	0.97551
2.316	77.609	-30164	2811.7	0.12054	-0.070858	0.97454
2.318	77.605	-30161	2811.5	0.12151	-0.070565	0.97356
2.32	77.598	-30158	2811.3	0.12249	-0.070272	0.97258
2.322	77.676	-30160	2810.9	0.12151	-0.070077	0.97366
2.324	77.798	-30163	2810.6	0.12054	-0.069882	0.97473
2.326	77.914	-30163	2810.2	0.11956	-0.069686	0.9758
2.328	78.062	-30164	2809.9	0.11858	-0.069491	0.97688
2.33	78.138	-30166	2809.6	0.11761	-0.069296	0.97795
2.332	78.065	-30168	2809.3	0.11888	-0.069686	0.97717
2.334	77.99	-30169	2808.9	0.12015	-0.070077	0.97639
2.336	77.941	-30169	2808.6	0.12141	-0.070467	0.97561
2.338	77.988	-30169	2808.2	0.12268	-0.070858	0.97483
2.34	78.059	-30168	2807.8	0.12395	-0.071248	0.97405
2.342	78.062	-30167	2807.3	0.12376	-0.071053	0.97454
2.344	78.064	-30166	2806.9	0.12356	-0.070858	0.97502
2.346	78.082	-30163	2806.4	0.12337	-0.070662	0.97551
2.348	78.066	-30160	2805.9	0.12317	-0.070467	0.976
2.35	78.07	-30161	2805.5	0.12298	-0.070272	0.97649
2.352	78.068	-30163	2805	0.12337	-0.070565	0.9761
2.354	78.047	-30168	2804.5	0.12376	-0.070858	0.97571
2.356	78.033	-30173	2804.1	0.12415	-0.07115	0.97532
2.358	78.037	-30172	2803.6	0.12454	-0.071443	0.97493
2.36	78.075	-30172	2803.1	0.12493	-0.071736	0.97454
2.362	78.104	-30174	2802.7	0.12454	-0.071248	0.97434
2.364	78.073	-30176	2802.3	0.12415	-0.07076	0.97415
2.366	78.02	-30174	2801.9	0.12376	-0.070272	0.97395
2.368	77.989	-30171	2801.5	0.12337	-0.069784	0.97376
2.37	77.984	-30170	2801.2	0.12298	-0.069296	0.97356
2.372	78.019	-30169	2800.9	0.12288	-0.069491	0.97366
2.374	78.098	-30173	2800.6	0.12278	-0.069686	0.97376
2.376	78.113	-30177	2800.3	0.12268	-0.069882	0.97385
2.378	78.049	-30176	2800	0.12259	-0.070077	0.97395
2.38	77.97	-30176	2799.7	0.12249	-0.070272	0.97405
2.382	77.926	-30178	2799.4	0.12132	-0.070565	0.97551
2.384	77.949	-30180	2799.1	0.12015	-0.070858	0.97698
2.386	77.986	-30182	2798.9	0.11897	-0.07115	0.97844
2.388	78.021	-30183	2798.7	0.1178	-0.071443	0.9799
2.39	78.037	-30181	2798.5	0.11663	-0.071736	0.98137
2.392	78.071	-30179	2798.4	0.11585	-0.072614	0.98117
2.394	78.065	-30181	2798.2	0.11507	-0.073493	0.98098
2.396	77.987	-30183	2798	0.11429	-0.074371	0.98078
2.398	77.955	-30183	2797.8	0.11351	-0.07525	0.98059
2.4	77.948	-30183	2797.5	0.11273	-0.076128	0.98039
2.402	77.961	-30188	2797.3	0.11312	-0.075347	0.98098
2.404	77.932	-30193	2797.1	0.11351	-0.074566	0.98156
2.406	77.94	-30196	2796.9	0.1139	-0.073786	0.98215
2.408	78.06	-30199	2796.6	0.11429	-0.073005	0.98273
2.41	78.109	-30193	2796.4	0.11468	-0.072224	0.98332
2.412	78.084	-30187	2796.2	0.11507	-0.071736	0.98195
2.414	77.983	-30190	2796.1	0.11546	-0.071248	0.98059
2.416	77.946	-30193	2795.8	0.11585	-0.07076	0.97922
2.418	77.964	-30194	2795.6	0.11624	-0.070272	0.97785
2.42	77.991	-30195	2795.3	0.11663	-0.069784	0.97649
2.422	77.989	-30196	2795.1	0.11692	-0.069198	0.97659
2.424	78.006	-30197	2794.9	0.11722	-0.068613	0.97668
2.426	78.03	-30199	2794.6	0.11751	-0.068027	0.97678
2.428	77.989	-30201	2794.3	0.1178	-0.067442	0.97688
2.43	77.952	-30202	2794	0.1181	-0.066856	0.97698
2.432	77.941	-30203	2793.7	0.11644	-0.067149	0.97756
2.434	77.971	-30206	2793.4	0.11478	-0.067442	0.97815
2.436	78.012	-30210	2793.2	0.11312	-0.067734	0.97873
2.438	78.021	-30206	2792.9	0.11146	-0.068027	0.97932
2.44	77.989	-30201	2792.6	0.1098	-0.06832	0.9799
2.442	77.968	-30203	2792.3	0.11009	-0.068808	0.98
2.444	77.963	-30205	2792.1	0.11039	-0.069296	0.9801
2.446	77.967	-30217	2791.8	0.11068	-0.069784	0.9802
2.448	77.952	-30230	2791.6	0.11097	-0.070272	0.98029
2.45	77.925	-30233	2791.3	0.11126	-0.07076	0.98039
2.452	77.909	-30235	2791.1	0.11107	-0.071053	0.9801
2.454	77.897	-30240	2790.9	0.11087	-0.071346	0.97981
2.456	77.948	-30244	2790.8	0.11068	-0.071638	0.97951
2.458	77.947	-30237	2790.7	0.11048	-0.071931	0.97922
2.46	77.883	-30231	2790.6	0.11029	-0.072224	0.97893
2.462	77.892	-30235	2790.5	0.11126	-0.072419	0.97873
2.464	77.919	-30239	2790.5	0.11224	-0.072614	0.97854
2.466	77.926	-30241	2790.5	0.11322	-0.07281	0.97834
2.468	77.899	-30243	2790.6	0.11419	-0.073005	0.97815
2.47	77.875	-30245	2790.6	0.11517	-0.0732	0.97795
2.472	77.857	-30246	2790.7	0.11732	-0.072029	0.97678
2.474	77.865	-30244	2790.7	0.11946	-0.070858	0.97561
2.476	77.875	-30242	2790.9	0.12161	-0.069686	0.97444
2.478	77.807	-30244	2791	0.12376	-0.068515	0.97327
2.48	77.784	-30246	2791.2	0.1259	-0.067344	0.9721
2.482	77.914	-30247	2791.5	0.12629	-0.068027	0.97258
2.484	77.953	-30248	2791.9	0.12668	-0.06871	0.97307
2.486	77.841	-30254	2792.3	0.12708	-0.069394	0.97356
2.488	77.804	-30260	2792.8	0.12747	-0.070077	0.97405
2.49	77.851	-30259	2793.3	0.12786	-0.07076	0.97454
2.492	77.848	-30257	2794.1	0.12649	-0.069296	0.97493
2.494	77.871	-30255	2795	0.12512	-0.067832	0.97532
2.496	77.865	-30253	2796.1	0.12376	-0.066368	0.97571
2.498	77.893	-30256	2797.3	0.12239	-0.064904	0.9761
2.5	77.879	-30258	2798.6	0.12102	-0.06344	0.97649
2.502	77.877	-30263	2800.3	0.11995	-0.064221	0.97649
2.504	77.931	-30268	2802.1	0.11888	-0.065002	0.97649
2.506	77.851	-30265	2804	0.1178	-0.065782	0.97649
2.508	77.781	-30262	2806.1	0.11673	-0.066563	0.97649
2.51	77.798	-30258	2808.3	0.11566	-0.067344	0.97649
2.512	77.833	-30255	2810.6	0.11546	-0.066954	0.97824
2.514	77.875	-30256	2812.9	0.11527	-0.066563	0.98
2.516	77.945	-30257	2815.2	0.11507	-0.066173	0.98176
2.518	77.922	-30261	2817.5	0.11488	-0.065782	0.98352
2.52	77.876	-30265	2819.8	0.11468	-0.065392	0.98527
2.522	77.878	-30265	2822	0.11527	-0.06588	0.98381
2.524	77.856	-30265	2824.2	0.11585	-0.066368	0.98234
2.526	77.821	-30270	2826.3	0.11644	-0.066856	0.98088
2.528	77.8	-30275	2828.2	0.11702	-0.067344	0.97942
2.53	77.803	-30270	2830.1	0.11761	-0.067832	0.97795
2.532	77.841	-30266	2831.8	0.11653	-0.069198	0.97932
2.534	77.848	-30265	2833.5	0.11546	-0.070565	0.98068
2.536	77.806	-30265	2835.1	0.11439	-0.071931	0.98205
2.538	77.81	-30260	2836.6	0.11331	-0.073298	0.98342
2.54	77.865	-30255	2838.1	0.11224	-0.074664	0.98478
2.542	77.893	-30254	2839.4	0.11253	-0.075152	0.984
2.544	77.897	-30252	2840.7	0.11283	-0.07564	0.98322
2.546	77.88	-30250	2841.9	0.11312	-0.076128	0.98244
2.548	77.89	-30248	2843.1	0.11341	-0.076616	0.98166
2.55	77.871	-30253	2844.4	0.1137	-0.077104	0.98088
2.552	77.821	-30258	2845.4	0.11331	-0.077494	0.98039
2.554	77.853	-30250	2846.5	0.11292	-0.077885	0.9799
2.556	77.832	-30242	2847.5	0.11253	-0.078275	0.97942
2.558	77.861	-30243	2848.4	0.11214	-0.078666	0.97893
2.56	77.899	-30243	2849.4	0.11175	-0.079056	0.97844
2.562	77.92	-30243	2850.3	0.11263	-0.077787	0.97961
2.564	77.963	-30243	2851.2	0.11351	-0.076518	0.98078
2.566	77.921	-30239	2852	0.11439	-0.07525	0.98195
2.568	77.916	-30236	2852.9	0.11527	-0.073981	0.98312
2.57	77.982	-30238	2853.7	0.11614	-0.072712	0.9843
2.572	78.039	-30241	2854.4	0.11683	-0.070858	0.98459
2.574	78.068	-30242	2855	0.11751	-0.069003	0.98488
2.576	78.001	-30242	2855.7	0.11819	-0.067149	0.98517
2.578	77.943	-30234	2856.2	0.11888	-0.065294	0.98547
2.58	77.957	-30226	2856.8	0.11956	-0.06344	0.98576
2.582	78.016	-30225	2857.2	0.12073	-0.065294	0.98664
2.584	78.051	-30223	2857.6	0.1219	-0.067149	0.98752
2.586	77.996	-30223	2857.9	0.12307	-0.069003	0.9884
2.588	77.916	-30222	2858.2	0.12424	-0.070858	0.98927
2.59	77.917	-30218	2858.4	0.12542	-0.072712	0.99015
2.592	77.981	-30213	2858.6	0.12493	-0.072419	0.98879
2.594	78.011	-30214	2858.7	0.12444	-0.072126	0.98742
2.596	78.041	-30215	2858.8	0.12395	-0.071834	0.98605
2.598	78.023	-30210	2858.7	0.12346	-0.071541	0.98469
2.6	77.983	-30206	2858.7	0.12298	-0.071248	0.98332
2.602	77.991	-30206	2858.6	0.12239	-0.070077	0.98215
2.604	78.018	-30205	2858.4	0.1218	-0.068906	0.98098
2.606	78.022	-30205	2858.2	0.12122	-0.067734	0.97981
2.608	77.997	-30206	2858	0.12063	-0.066563	0.97864
2.61	77.971	-30203	2857.7	0.12005	-0.065392	0.97746
2.612	77.98	-30200	2857.3	0.12093	-0.067149	0.97737
2.614	78.013	-30193	2857	0.1218	-0.068906	0.97727
2.616	78.017	-30186	2856.6	0.12268	-0.070662	0.97717
2.618	77.995	-30184	2856.1	0.12356	-0.072419	0.97707
2.62	78.013	-30183	2855.6	0.12444	-0.074176	0.97698
2.622	78.02	-30179	2855.1	0.12288	-0.073883	0.97659
2.624	77.978	-30174	2854.7	0.12132	-0.07359	0.9762
2.626	77.979	-30174	2854.2	0.11976	-0.073298	0.9758
2.628	78.004	-30175	2853.7	0.11819	-0.073005	0.97541
2.63	78.018	-30168	2853.3	0.11663	-0.072712	0.97502
2.632	78.011	-30161	2852.9	0.11732	-0.072907	0.97512
2.634	78.031	-30167	2852.4	0.118	-0.073102	0.97522
2.636	78.031	-30172	2852	0.11868	-0.073298	0.97532
2.638	77.984	-30165	2851.6	0.11936	-0.073493	0.97541
2.64	77.901	-30158	2851.2	0.12005	-0.073688	0.97551
2.642	77.852	-30154	2850.8	0.12024	-0.072517	0.97483
2.644	77.986	-30150	2850.3	0.12044	-0.071346	0.97415
2.646	78.056	-30154	2849.9	0.12063	-0.070174	0.97346
2.648	78.081	-30158	2849.5	0.12083	-0.069003	0.97278
2.65	78.128	-30159	2849.1	0.12102	-0.067832	0.9721
2.652	78.113	-30160	2848.7	0.12054	-0.066954	0.9719
2.654	78.06	-30156	2848.3	0.12005	-0.066075	0.97171
2.656	78.021	-30151	2847.8	0.11956	-0.065197	0.97151
2.658	78.018	-30142	2847.4	0.11907	-0.064318	0.97132
2.66	77.995	-30132	2846.9	0.11858	-0.06344	0.97112
2.662	77.965	-30137	2846.4	0.11956	-0.064026	0.97112
2.664	77.975	-30142	2845.9	0.12054	-0.064611	0.97112
2.666	78.039	-30139	2845.3	0.12151	-0.065197	0.97112
2.668	78.042	-30136	2844.8	0.12249	-0.065782	0.97112
2.67	78.052	-30137	2844.2	0.12346	-0.066368	0.97112
2.672	77.991	-30139	2843.7	0.12278	-0.066661	0.97112
2.674	77.947	-30136	2843.2	0.1221	-0.066954	0.97112
2.676	77.909	-30133	2842.6	0.12141	-0.067246	0.97112
2.678	77.938	-30134	2841.9	0.12073	-0.067539	0.97112
2.68	78.012	-30136	2841.3	0.12005	-0.067832	0.97112
2.682	78.028	-30129	2840.6	0.12015	-0.067246	0.97122
2.684	77.986	-30123	2839.9	0.12024	-0.066661	0.97132
2.686	78.004	-30125	2839.2	0.12034	-0.066075	0.97141
2.688	78.021	-30128	2838.5	0.12044	-0.06549	0.97151
2.69	78.034	-30125	2837.8	0.12054	-0.064904	0.97161
2.692	78.029	-30122	2837.1	0.11936	-0.065978	0.97122
2.694	78.012	-30122	2836.5	0.11819	-0.067051	0.97083
2.696	78.002	-30122	2835.8	0.11702	-0.068125	0.97044
2.698	77.988	-30121	2835.1	0.11585	-0.069198	0.97005
2.7	77.95	-30121	2834.5	0.11468	-0.070272	0.96966
2.702	77.946	-30125	2833.8	0.11517	-0.069296	0.96995
2.704	77.969	-30129	2833.2	0.11566	-0.06832	0.97024
2.706	77.952	-30126	2832.6	0.11614	-0.067344	0.97053
2.708	77.942	-30123	2832	0.11663	-0.066368	0.97083
2.71	77.944	-30118	2831.4	0.11712	-0.065392	0.97112
2.712	77.927	-30114	2830.8	0.11858	-0.065392	0.97161
2.714	77.946	-30117	2830.2	0.12005	-0.065392	0.9721
2.716	77.992	-30120	2829.6	0.12151	-0.065392	0.97258
2.718	77.992	-30114	2829.1	0.12298	-0.065392	0.97307
2.72	77.98	-30107	2828.6	0.12444	-0.065392	0.97356
2.722	77.953	-30103	2828	0.12424	-0.065392	0.97288
2.724	77.978	-30099	2827.4	0.12405	-0.065392	0.97219
2.726	77.959	-30100	2826.9	0.12385	-0.065392	0.97151
2.728	77.919	-30102	2826.3	0.12366	-0.065392	0.97083
2.73	77.977	-30101	2825.7	0.12346	-0.065392	0.97014
2.732	77.975	-30100	2825.2	0.12307	-0.065978	0.97122
2.734	77.97	-30107	2824.7	0.12268	-0.066563	0.97229
2.736	78.016	-30113	2824.2	0.12229	-0.067149	0.97336
2.738	78.022	-30113	2823.8	0.1219	-0.067734	0.97444
2.74	78.043	-30114	2823.3	0.12151	-0.06832	0.97551
2.742	78.013	-30116	2822.8	0.12132	-0.067734	0.97551
2.744	78.006	-30118	2822.3	0.12112	-0.067149	0.97551
2.746	77.954	-30114	2821.9	0.12093	-0.066563	0.97551
2.748	77.889	-30111	2821.5	0.12073	-0.065978	0.97551
2.75	77.95	-30115	2821.1	0.12054	-0.065392	0.97551
2.752	78.101	-30119	2820.8	0.12054	-0.066075	0.9761
2.754	78.097	-30114	2820.6	0.12054	-0.066758	0.97668
2.756	78.008	-30108	2820.3	0.12054	-0.067442	0.97727
2.758	78.013	-30106	2820.1	0.12054	-0.068125	0.97785
2.76	78.015	-30104	2819.9	0.12054	-0.068808	0.97844
2.762	77.968	-30106	2819.8	0.12083	-0.068613	0.97834
2.764	77.947	-30107	2819.7	0.12112	-0.068418	0.97824
2.766	77.959	-30113	2819.6	0.12141	-0.068222	0.97815
2.768	77.975	-30119	2819.6	0.12171	-0.068027	0.97805
2.77	77.974	-30117	2819.6	0.122	-0.067832	0.97795
2.772	77.971	-30115	2819.6	0.12161	-0.067539	0.97815
2.774	77.955	-30116	2819.7	0.12122	-0.067246	0.97834
2.776	77.96	-30117	2819.8	0.12083	-0.066954	0.97854
2.778	78.002	-30120	2819.9	0.12044	-0.066661	0.97873
2.78	78.015	-30122	2820.1	0.12005	-0.066368	0.97893
2.782	77.961	-30122	2820.2	0.12044	-0.067246	0.97864
2.784	77.911	-30122	2820.4	0.12083	-0.068125	0.97834
2.786	77.919	-30114	2820.7	0.12122	-0.069003	0.97805
2.788	77.965	-30107	2821	0.12161	-0.069882	0.97776
2.79	77.986	-30110	2821.3	0.122	-0.07076	0.97746
2.792	77.996	-30114	2821.6	0.122	-0.071053	0.97766
2.794	78.013	-30116	2822	0.122	-0.071346	0.97785
2.796	77.947	-30118	2822.4	0.122	-0.071638	0.97805
2.798	77.834	-30116	2822.8	0.122	-0.071931	0.97824
2.8	77.795	-30115	2823.2	0.122	-0.072224	0.97844
2.802	77.827	-30113	2823.6	0.1221	-0.072029	0.97883
2.804	77.819	-30111	2824	0.1222	-0.071834	0.97922
2.806	77.916	-30116	2824.4	0.12229	-0.071638	0.97961
2.808	77.992	-30121	2824.8	0.12239	-0.071443	0.98
2.81	78.015	-30122	2825.2	0.12249	-0.071248	0.98039
2.812	77.966	-30122	2825.6	0.1219	-0.07037	0.98059
2.814	77.933	-30118	2826	0.12132	-0.069491	0.98078
2.816	78.008	-30113	2826.4	0.12073	-0.068613	0.98098
2.818	78.043	-30114	2826.8	0.12015	-0.067734	0.98117
2.82	77.987	-30114	2827.2	0.11956	-0.066856	0.98137
2.822	77.959	-30115	2827.6	0.12044	-0.067539	0.98127
2.824	77.977	-30116	2828	0.12132	-0.068222	0.98117
2.826	77.971	-30118	2828.4	0.1222	-0.068906	0.98108
2.828	78.01	-30121	2828.7	0.12307	-0.069589	0.98098
2.83	77.986	-30118	2829.1	0.12395	-0.070272	0.98088
2.832	77.828	-30116	2829.3	0.12346	-0.069882	0.98098
2.834	77.849	-30120	2829.5	0.12298	-0.069491	0.98108
2.836	77.909	-30125	2829.7	0.12249	-0.069101	0.98117
2.838	77.921	-30120	2829.9	0.122	-0.06871	0.98127
2.84	77.971	-30115	2830.1	0.12151	-0.06832	0.98137
2.842	77.943	-30115	2830.1	0.12024	-0.067832	0.98078
2.844	77.931	-30115	2830.2	0.11897	-0.067344	0.9802
2.846	77.93	-30117	2830.2	0.11771	-0.066856	0.97961
2.848	77.945	-30119	2830.2	0.11644	-0.066368	0.97903
2.85	77.978	-30120	2830.2	0.11517	-0.06588	0.97844
2.852	77.99	-30122	2830.2	0.11624	-0.065978	0.97824
2.854	77.983	-30124	2830.2	0.11732	-0.066075	0.97805
2.856	77.972	-30126	2830.2	0.11839	-0.066173	0.97785
2.858	77.981	-30128	2830.1	0.11946	-0.06627	0.97766
2.86	77.971	-30129	2830.1	0.12054	-0.066368	0.97746
2.862	77.985	-30124	2830.1	0.12063	-0.066563	0.9762
2.864	78.048	-30120	2830.1	0.12073	-0.066758	0.97493
2.866	78.033	-30120	2830	0.12083	-0.066954	0.97366
2.868	77.984	-30119	2830	0.12093	-0.067149	0.97239
2.87	78.001	-30119	2829.9	0.12102	-0.067344	0.97112
2.872	78.013	-30119	2829.9	0.12102	-0.067442	0.97141
2.874	77.982	-30118	2829.9	0.12102	-0.067539	0.97171
2.876	77.917	-30118	2829.8	0.12102	-0.067637	0.972
2.878	77.851	-30117	2829.7	0.12102	-0.067734	0.97229
2.88	77.879	-30116	2829.7	0.12102	-0.067832	0.97258
2.882	77.957	-30118	2829.5	0.11936	-0.069394	0.97541
2.884	77.977	-30119	2829.4	0.11771	-0.070955	0.97824
2.886	77.969	-30118	2829.3	0.11605	-0.072517	0.98108
2.888	78.003	-30116	2829.2	0.11439	-0.074078	0.98391
2.89	78.038	-30112	2829.1	0.11273	-0.07564	0.98674
2.892	78.017	-30109	2829	0.11312	-0.075542	0.98693
2.894	78.007	-30113	2828.9	0.11351	-0.075445	0.98713
2.896	78.033	-30117	2828.7	0.1139	-0.075347	0.98732
2.898	78.035	-30120	2828.6	0.11429	-0.07525	0.98752
2.9	78.014	-30124	2828.4	0.11468	-0.075152	0.98771
2.902	78.01	-30123	2828.3	0.11497	-0.074078	0.98703
2.904	78.024	-30123	2828.1	0.11527	-0.073005	0.98635
2.906	77.944	-30116	2827.9	0.11556	-0.071931	0.98566
2.908	78.006	-30110	2827.7	0.11585	-0.070858	0.98498
2.91	78.033	-30110	2827.4	0.11614	-0.069784	0.9843
2.912	78.032	-30111	2827.1	0.11634	-0.068906	0.98205
2.914	77.973	-30112	2826.8	0.11653	-0.068027	0.97981
2.916	77.998	-30113	2826.4	0.11673	-0.067149	0.97756
2.918	78.044	-30116	2826.1	0.11692	-0.06627	0.97532
2.92	78.045	-30119	2825.7	0.11712	-0.065392	0.97307
2.922	78.038	-30119	2825.4	0.1179	-0.065002	0.97297
2.924	78.002	-30119	2825	0.11868	-0.064611	0.97288
2.926	77.949	-30119	2824.6	0.11946	-0.064221	0.97278
2.928	77.922	-30119	2824.1	0.12024	-0.06383	0.97268
2.93	77.92	-30121	2823.7	0.12102	-0.06344	0.97258
2.932	77.869	-30124	2823.3	0.12132	-0.06383	0.97258
2.934	77.869	-30122	2822.9	0.12161	-0.064221	0.97258
2.936	77.834	-30121	2822.4	0.1219	-0.064611	0.97258
2.938	77.814	-30120	2821.9	0.1222	-0.065002	0.97258
2.94	77.788	-30120	2821.5	0.12249	-0.065392	0.97258
2.942	77.729	-30117	2821	0.12327	-0.06588	0.972
2.944	77.659	-30114	2820.6	0.12405	-0.066368	0.97141
2.946	77.607	-30115	2820.2	0.12483	-0.066856	0.97083
2.948	77.57	-30115	2819.7	0.12561	-0.067344	0.97024
2.95	77.531	-30118	2819.2	0.12639	-0.067832	0.96966
2.952	77.497	-30120	2818.8	0.12581	-0.068027	0.97024
2.954	77.476	-30121	2818.3	0.12522	-0.068222	0.97083
2.956	77.455	-30122	2817.8	0.12464	-0.068418	0.97141
2.958	77.475	-30120	2817.4	0.12405	-0.068613	0.972
2.96	77.539	-30118	2816.9	0.12346	-0.068808	0.97258
2.962	77.58	-30116	2816.5	0.12366	-0.068808	0.97229
2.964	77.592	-30114	2816.2	0.12385	-0.068808	0.972
2.966	77.609	-30123	2815.8	0.12405	-0.068808	0.97171
2.968	77.663	-30132	2815.3	0.12424	-0.068808	0.97141
2.97	77.783	-30131	2814.9	0.12444	-0.068808	0.97112
2.972	77.887	-30130	2814.5	0.12337	-0.068027	0.97141
2.974	77.933	-30128	2814.1	0.12229	-0.067246	0.97171
2.976	77.944	-30126	2813.7	0.12122	-0.066466	0.972
2.978	77.949	-30128	2813.2	0.12015	-0.065685	0.97229
2.98	77.968	-30130	2812.8	0.11907	-0.064904	0.97258
2.982	78.012	-30130	2812.5	0.11888	-0.065099	0.9721
2.984	78.049	-30130	2812.2	0.11868	-0.065294	0.97161
2.986	78.041	-30128	2811.9	0.11849	-0.06549	0.97112
2.988	77.953	-30127	2811.5	0.11829	-0.065685	0.97063
2.99	77.944	-30125	2811.2	0.1181	-0.06588	0.97014
2.992	77.92	-30122	2810.8	0.11888	-0.06588	0.97034
2.994	77.901	-30125	2810.4	0.11966	-0.06588	0.97053
2.996	77.936	-30127	2810.1	0.12044	-0.06588	0.97073
2.998	77.979	-30128	2809.8	0.12122	-0.06588	0.97092
3	78.052	-30130	2809.4	0.122	-0.06588	0.97112
3.002	78.015	-30130	2809.1	0.12259	-0.066954	0.9718
3.004	77.974	-30130	2808.7	0.12317	-0.068027	0.97249
3.006	77.929	-30129	2808.4	0.12376	-0.069101	0.97317
3.008	77.919	-30128	2808	0.12434	-0.070174	0.97385
3.01	77.872	-30127	2807.7	0.12493	-0.071248	0.97454
3.012	77.835	-30125	2807.4	0.12454	-0.070174	0.97434
3.014	77.83	-30132	2807.1	0.12415	-0.069101	0.97415
3.016	77.847	-30139	2806.8	0.12376	-0.068027	0.97395
3.018	77.905	-30138	2806.4	0.12337	-0.066954	0.97376
3.02	78.023	-30137	2806.1	0.12298	-0.06588	0.97356
3.022	77.978	-30136	2805.7	0.12249	-0.066856	0.97434
3.024	77.875	-30135	2805.3	0.122	-0.067832	0.97512
3.026	77.82	-30135	2805	0.12151	-0.068808	0.9759
3.028	77.841	-30136	2804.7	0.12102	-0.069784	0.97668
3.03	77.886	-30134	2804.4	0.12054	-0.07076	0.97746
3.032	77.904	-30132	2804.1	0.11907	-0.070955	0.97834
3.034	77.87	-30132	2803.7	0.11761	-0.07115	0.97922
3.036	77.881	-30132	2803.4	0.11614	-0.071346	0.9801
3.038	77.922	-30136	2803.1	0.11468	-0.071541	0.98098
3.04	77.954	-30140	2802.9	0.11322	-0.071736	0.98186
3.042	77.97	-30144	2802.5	0.1138	-0.070565	0.98108
3.044	77.944	-30148	2802.2	0.11439	-0.069394	0.98029
3.046	77.907	-30148	2801.9	0.11497	-0.068222	0.97951
3.048	77.902	-30149	2801.6	0.11556	-0.067051	0.97873
3.05	77.899	-30151	2801.3	0.11614	-0.06588	0.97795
3.052	77.875	-30154	2801.1	0.11663	-0.065002	0.97854
3.054	77.867	-30155	2800.8	0.11712	-0.064123	0.97912
3.056	77.848	-30155	2800.6	0.11761	-0.063245	0.97971
3.058	77.866	-30156	2800.4	0.1181	-0.062366	0.98029
3.06	77.887	-30157	2800.2	0.11858	-0.061488	0.98088
3.062	77.882	-30159	2799.9	0.11868	-0.062074	0.9801
3.064	77.929	-30161	2799.7	0.11878	-0.062659	0.97932
3.066	77.999	-30159	2799.4	0.11888	-0.063245	0.97854
3.068	77.965	-30157	2799.1	0.11897	-0.06383	0.97776
3.07	77.882	-30159	2798.9	0.11907	-0.064416	0.97698
3.072	77.858	-30161	2798.6	0.11829	-0.065685	0.97756
3.074	77.853	-30159	2798.3	0.11751	-0.066954	0.97815
3.076	77.933	-30157	2798.1	0.11673	-0.068222	0.97873
3.078	77.88	-30158	2797.8	0.11595	-0.069491	0.97932
3.08	77.794	-30159	2797.5	0.11517	-0.07076	0.9799
3.082	77.859	-30157	2797.3	0.11439	-0.070858	0.9801
3.084	77.823	-30154	2797	0.11361	-0.070955	0.98029
3.086	77.756	-30161	2796.7	0.11283	-0.071053	0.98049
3.088	77.825	-30168	2796.4	0.11204	-0.07115	0.98068
3.09	77.92	-30169	2796.2	0.11126	-0.071248	0.98088
3.092	77.896	-30170	2795.9	0.11175	-0.071346	0.98068
3.094	77.8	-30169	2795.7	0.11224	-0.071443	0.98049
3.096	77.775	-30169	2795.4	0.11273	-0.071541	0.98029
3.098	77.796	-30174	2795.2	0.11322	-0.071638	0.9801
3.1	77.826	-30179	2794.9	0.1137	-0.071736	0.9799
3.102	77.855	-30179	2794.7	0.11351	-0.072224	0.98029
3.104	77.819	-30178	2794.6	0.11331	-0.072712	0.98068
3.106	77.836	-30178	2794.5	0.11312	-0.0732	0.98108
3.108	77.811	-30179	2794.5	0.11292	-0.073688	0.98147
3.11	77.748	-30173	2794.4	0.11273	-0.074176	0.98186
3.112	77.775	-30168	2794.4	0.11263	-0.074274	0.98176
3.114	77.818	-30174	2794.3	0.11253	-0.074371	0.98166
3.116	77.821	-30180	2794.3	0.11244	-0.074469	0.98156
3.118	77.814	-30187	2794.3	0.11234	-0.074566	0.98147
3.12	77.797	-30193	2794.3	0.11224	-0.074664	0.98137
3.122	77.785	-30193	2794.5	0.11234	-0.074566	0.98098
3.124	77.784	-30193	2794.8	0.11244	-0.074469	0.98059
3.126	77.762	-30185	2795.1	0.11253	-0.074371	0.9802
3.128	77.746	-30178	2795.5	0.11263	-0.074274	0.97981
3.13	77.73	-30188	2795.9	0.11273	-0.074176	0.97942
3.132	77.707	-30199	2796.6	0.11517	-0.073005	0.97756
3.134	77.753	-30200	2797.2	0.11761	-0.071834	0.97571
3.136	77.857	-30201	2798	0.12005	-0.070662	0.97385
3.138	77.917	-30197	2799.1	0.12249	-0.069491	0.972
3.14	77.871	-30194	2800.1	0.12493	-0.06832	0.97014
3.142	77.79	-30192	2801.6	0.12483	-0.068808	0.97083
3.144	77.74	-30190	2803.2	0.12473	-0.069296	0.97151
3.146	77.725	-30196	2804.9	0.12464	-0.069784	0.97219
3.148	77.711	-30202	2806.9	0.12454	-0.070272	0.97288
3.15	77.773	-30206	2808.8	0.12444	-0.07076	0.97356
3.152	77.815	-30209	2811.1	0.12229	-0.070077	0.97473
3.154	77.802	-30208	2813.5	0.12015	-0.069394	0.9759
3.156	77.761	-30207	2815.9	0.118	-0.06871	0.97707
3.158	77.696	-30202	2818.4	0.11585	-0.068027	0.97824
3.16	77.654	-30197	2820.9	0.1137	-0.067344	0.97942
3.162	77.712	-30200	2823.3	0.1137	-0.06871	0.9802
3.164	77.759	-30204	2825.7	0.1137	-0.070077	0.98098
3.166	77.782	-30204	2828	0.1137	-0.071443	0.98176
3.168	77.782	-30204	2830.3	0.1137	-0.07281	0.98254
3.17	77.752	-30208	2832.6	0.1137	-0.074176	0.98332
3.172	77.703	-30211	2834.5	0.11536	-0.073005	0.98176
3.174	77.738	-30207	2836.5	0.11702	-0.071834	0.9802
3.176	77.763	-30203	2838.3	0.11868	-0.070662	0.97864
3.178	77.729	-30201	2839.9	0.12034	-0.069491	0.97707
3.18	77.676	-30198	2841.5	0.122	-0.06832	0.97551
3.182	77.677	-30203	2842.9	0.12102	-0.068515	0.9761
3.184	77.658	-30207	2844.3	0.12005	-0.06871	0.97668
3.186	77.669	-30208	2845.6	0.11907	-0.068906	0.97727
3.188	77.724	-30209	2846.8	0.1181	-0.069101	0.97785
3.19	77.7	-30204	2848	0.11712	-0.069296	0.97844
3.192	77.7	-30199	2849.1	0.11849	-0.069882	0.97824
3.194	77.774	-30195	2850.1	0.11985	-0.070467	0.97805
3.196	77.833	-30191	2851	0.12122	-0.071053	0.97785
3.198	77.862	-30191	2852	0.12259	-0.071638	0.97766
3.2	77.882	-30191	2852.9	0.12395	-0.072224	0.97746
3.202	77.863	-30195	2853.7	0.12298	-0.071248	0.97785
3.204	77.834	-30199	2854.6	0.122	-0.070272	0.97824
3.206	77.796	-30193	2855.3	0.12102	-0.069296	0.97864
3.208	77.75	-30188	2856	0.12005	-0.06832	0.97903
3.21	77.704	-30191	2856.7	0.11907	-0.067344	0.97942
3.212	77.742	-30194	2857.3	0.11927	-0.067149	0.97912
3.214	77.89	-30188	2857.8	0.11946	-0.066954	0.97883
3.216	78.009	-30182	2858.3	0.11966	-0.066758	0.97854
3.218	77.998	-30177	2858.8	0.11985	-0.066563	0.97824
3.22	77.917	-30171	2859.2	0.12005	-0.066368	0.97795
3.222	77.888	-30170	2859.6	0.11946	-0.067051	0.97912
3.224	77.91	-30169	2860	0.11888	-0.067734	0.98029
3.226	77.929	-30175	2860.4	0.11829	-0.068418	0.98147
3.228	77.96	-30181	2860.6	0.11771	-0.069101	0.98264
3.23	77.966	-30175	2860.9	0.11712	-0.069784	0.98381
3.232	77.887	-30169	2861.1	0.11673	-0.069686	0.98312
3.234	77.843	-30169	2861.3	0.11634	-0.069589	0.98244
3.236	77.883	-30169	2861.5	0.11595	-0.069491	0.98176
3.238	77.917	-30161	2861.6	0.11556	-0.069394	0.98108
3.24	77.888	-30154	2861.6	0.11517	-0.069296	0.98039
3.242	77.881	-30150	2861.6	0.11527	-0.069491	0.98059
3.244	77.897	-30146	2861.7	0.11536	-0.069686	0.98078
3.246	77.919	-30139	2861.6	0.11546	-0.069882	0.98098
3.248	77.921	-30132	2861.6	0.11556	-0.070077	0.98117
3.25	77.871	-30146	2861.5	0.11566	-0.070272	0.98137
3.252	77.824	-30160	2861.3	0.11536	-0.072322	0.98
3.254	77.808	-30147	2861.1	0.11507	-0.074371	0.97864
3.256	77.84	-30135	2860.9	0.11478	-0.076421	0.97727
3.258	77.888	-30132	2860.6	0.11448	-0.07847	0.9759
3.26	77.888	-30130	2860.4	0.11419	-0.08052	0.97454
3.262	77.853	-30131	2860	0.11488	-0.08013	0.97463
3.264	77.845	-30132	2859.7	0.11556	-0.079739	0.97473
3.266	77.819	-30132	2859.4	0.11624	-0.079349	0.97483
3.268	77.773	-30132	2859	0.11692	-0.078958	0.97493
3.27	77.778	-30127	2858.7	0.11761	-0.078568	0.97502
3.272	77.836	-30121	2858.3	0.11771	-0.077494	0.9758
3.274	77.981	-30112	2857.8	0.1178	-0.076421	0.97659
3.276	78.048	-30103	2857.5	0.1179	-0.075347	0.97737
3.278	78	-30104	2857.1	0.118	-0.074274	0.97815
3.28	77.905	-30106	2856.7	0.1181	-0.0732	0.97893
3.282	77.894	-30102	2856.3	0.11683	-0.074664	0.97912
3.284	77.903	-30099	2855.9	0.11556	-0.076128	0.97932
3.286	77.906	-30094	2855.5	0.11429	-0.077592	0.97951
3.288	77.885	-30088	2855	0.11302	-0.079056	0.97971
3.29	77.892	-30088	2854.6	0.11175	-0.08052	0.9799
3.292	77.977	-30087	2854.1	0.11204	-0.080032	0.98049
3.294	78.013	-30089	2853.6	0.11234	-0.079544	0.98108
3.296	77.981	-30091	2853.1	0.11263	-0.079056	0.98166
3.298	77.926	-30084	2852.6	0.11292	-0.078568	0.98225
3.3	77.88	-30077	2852.1	0.11322	-0.07808	0.98283
3.302	77.888	-30077	2851.6	0.1138	-0.076909	0.98293
3.304	77.884	-30078	2851.1	0.11439	-0.075738	0.98303
3.306	77.87	-30073	2850.6	0.11497	-0.074566	0.98312
3.308	77.89	-30069	2850	0.11556	-0.073395	0.98322
3.31	77.897	-30071	2849.4	0.11614	-0.072224	0.98332
3.312	77.898	-30073	2848.9	0.11458	-0.073493	0.98293
3.314	77.87	-30073	2848.3	0.11302	-0.074762	0.98254
3.316	77.869	-30072	2847.7	0.11146	-0.07603	0.98215
3.318	77.849	-30073	2847.1	0.1099	-0.077299	0.98176
3.32	77.835	-30074	2846.5	0.10834	-0.078568	0.98137
3.322	77.872	-30073	2845.9	0.10834	-0.077494	0.98108
3.324	77.919	-30072	2845.3	0.10834	-0.076421	0.98078
3.326	77.93	-30070	2844.6	0.10834	-0.075347	0.98049
3.328	77.918	-30068	2844.1	0.10834	-0.074274	0.9802
3.33	77.892	-30065	2843.5	0.10834	-0.0732	0.9799
3.332	77.863	-30062	2842.9	0.10824	-0.0732	0.98
3.334	77.844	-30064	2842.3	0.10814	-0.0732	0.9801
3.336	77.86	-30065	2841.7	0.10804	-0.0732	0.9802
3.338	77.861	-30066	2841.1	0.10795	-0.0732	0.98029
3.34	77.791	-30066	2840.5	0.10785	-0.0732	0.98039
3.342	77.736	-30065	2840	0.10863	-0.074078	0.98049
3.344	77.746	-30065	2839.5	0.10941	-0.074957	0.98059
3.346	77.839	-30064	2838.9	0.11019	-0.075835	0.98068
3.348	77.899	-30063	2838.3	0.11097	-0.076714	0.98078
3.35	77.921	-30060	2837.7	0.11175	-0.077592	0.98088
3.352	77.892	-30058	2837.1	0.11273	-0.076128	0.98078
3.354	77.91	-30054	2836.5	0.1137	-0.074664	0.98068
3.356	77.904	-30051	2835.9	0.11468	-0.0732	0.98059
3.358	77.851	-30043	2835.3	0.11566	-0.071736	0.98049
3.36	77.897	-30035	2834.8	0.11663	-0.070272	0.98039
3.362	77.963	-30043	2834.2	0.11732	-0.06871	0.9799
3.364	77.942	-30052	2833.6	0.118	-0.067149	0.97942
3.366	77.877	-30052	2833.1	0.11868	-0.065587	0.97893
3.368	77.796	-30052	2832.6	0.11936	-0.064026	0.97844
3.37	77.785	-30051	2832.1	0.12005	-0.062464	0.97795
3.372	77.799	-30050	2831.6	0.12112	-0.063928	0.97678
3.374	77.855	-30046	2831.1	0.1222	-0.065392	0.97561
3.376	77.884	-30043	2830.6	0.12327	-0.066856	0.97444
3.378	77.872	-30050	2830.2	0.12434	-0.06832	0.97327
3.38	77.877	-30057	2829.7	0.12542	-0.069784	0.9721
3.382	77.895	-30053	2829.3	0.12561	-0.07037	0.97336
3.384	77.88	-30048	2828.8	0.12581	-0.070955	0.97463
3.386	77.828	-30048	2828.4	0.126	-0.071541	0.9759
3.388	77.821	-30049	2828	0.1262	-0.072126	0.97717
3.39	77.865	-30045	2827.6	0.12639	-0.072712	0.97844
3.392	77.897	-30041	2827.3	0.1259	-0.072126	0.97795
3.394	77.925	-30045	2826.9	0.12542	-0.071541	0.97746
3.396	77.924	-30048	2826.7	0.12493	-0.070955	0.97698
3.398	77.887	-30048	2826.5	0.12444	-0.07037	0.97649
3.4	77.824	-30048	2826.3	0.12395	-0.069784	0.976
3.402	77.778	-30043	2826.2	0.12405	-0.070272	0.97649
3.404	77.822	-30037	2826.1	0.12415	-0.07076	0.97698
3.406	77.868	-30039	2826.1	0.12424	-0.071248	0.97746
3.408	77.838	-30041	2826	0.12434	-0.071736	0.97795
3.41	77.785	-30041	2826	0.12444	-0.072224	0.97844
3.412	77.806	-30042	2826	0.12405	-0.07115	0.97776
3.414	77.858	-30042	2826	0.12366	-0.070077	0.97707
3.416	77.88	-30042	2826.1	0.12327	-0.069003	0.97639
3.418	77.933	-30042	2826.1	0.12288	-0.06793	0.97571
3.42	77.923	-30043	2826.2	0.12249	-0.066856	0.97502
3.422	77.902	-30041	2826.3	0.12093	-0.067637	0.9761
3.424	77.839	-30040	2826.4	0.11936	-0.068418	0.97717
3.426	77.806	-30044	2826.6	0.1178	-0.069198	0.97824
3.428	77.805	-30047	2826.8	0.11624	-0.069979	0.97932
3.43	77.848	-30044	2827.1	0.11468	-0.07076	0.98039
3.432	77.861	-30042	2827.4	0.11448	-0.070858	0.98029
3.434	77.835	-30043	2827.6	0.11429	-0.070955	0.9802
3.436	77.82	-30044	2827.9	0.11409	-0.071053	0.9801
3.438	77.843	-30040	2828.2	0.1139	-0.07115	0.98
3.44	77.849	-30036	2828.5	0.1137	-0.071248	0.9799
3.442	77.834	-30039	2828.9	0.11546	-0.071541	0.98127
3.444	77.802	-30042	2829.2	0.11722	-0.071834	0.98264
3.446	77.749	-30047	2829.6	0.11897	-0.072126	0.984
3.448	77.839	-30052	2829.9	0.12073	-0.072419	0.98537
3.45	77.902	-30051	2830.3	0.12249	-0.072712	0.98674
3.452	77.89	-30050	2830.6	0.1218	-0.071834	0.98498
3.454	77.874	-30049	2831	0.12112	-0.070955	0.98322
3.456	77.86	-30049	2831.3	0.12044	-0.070077	0.98147
3.458	77.824	-30046	2831.7	0.11976	-0.069198	0.97971
3.46	77.849	-30044	2832.1	0.11907	-0.06832	0.97795
3.462	77.89	-30045	2832.3	0.12044	-0.069003	0.97873
3.464	77.868	-30045	2832.6	0.1218	-0.069686	0.97951
3.466	77.839	-30048	2832.9	0.12317	-0.07037	0.98029
3.468	77.84	-30052	2833.2	0.12454	-0.071053	0.98108
3.47	77.847	-30056	2833.5	0.1259	-0.071736	0.98186
3.472	77.827	-30061	2833.7	0.12542	-0.071346	0.98049
3.474	77.8	-30058	2834	0.12493	-0.070955	0.97912
3.476	77.836	-30056	2834.3	0.12444	-0.070565	0.97776
3.478	77.848	-30052	2834.5	0.12395	-0.070174	0.97639
3.48	77.765	-30048	2834.7	0.12346	-0.069784	0.97502
3.482	77.737	-30050	2834.8	0.12278	-0.070077	0.9761
3.484	77.797	-30052	2834.9	0.1221	-0.07037	0.97717
3.486	77.807	-30048	2835.1	0.12141	-0.070662	0.97824
3.488	77.83	-30045	2835.3	0.12073	-0.070955	0.97932
3.49	77.874	-30047	2835.4	0.12005	-0.071248	0.98039
3.492	77.833	-30050	2835.5	0.1181	-0.072322	0.98049
3.494	77.778	-30053	2835.6	0.11614	-0.073395	0.98059
3.496	77.781	-30057	2835.7	0.11419	-0.074469	0.98068
3.498	77.791	-30056	2835.8	0.11224	-0.075542	0.98078
3.5	77.808	-30054	2835.9	0.11029	-0.076616	0.98088
3.502	77.842	-30056	2835.9	0.11019	-0.077592	0.9801
3.504	77.846	-30058	2836	0.11009	-0.078568	0.97932
3.506	77.798	-30059	2836.1	0.11	-0.079544	0.97854
3.508	77.709	-30060	2836.1	0.1099	-0.08052	0.97776
3.51	77.63	-30054	2836.2	0.1098	-0.081496	0.97698
3.512	77.677	-30047	2836.3	0.11029	-0.080422	0.97805
3.514	77.783	-30053	2836.3	0.11078	-0.079349	0.97912
3.516	77.788	-30059	2836.3	0.11126	-0.078275	0.9802
3.518	77.837	-30058	2836.3	0.11175	-0.077202	0.98127
3.52	77.889	-30058	2836.2	0.11224	-0.076128	0.98234
3.522	77.888	-30057	2836.2	0.11253	-0.076811	0.98166
3.524	77.872	-30056	2836.1	0.11283	-0.077494	0.98098
3.526	77.916	-30052	2836	0.11312	-0.078178	0.98029
3.528	77.897	-30047	2835.9	0.11341	-0.078861	0.97961
3.53	77.921	-30050	2835.9	0.1137	-0.079544	0.97893
3.532	77.898	-30053	2835.7	0.11322	-0.079544	0.97873
3.534	77.847	-30052	2835.5	0.11273	-0.079544	0.97854
3.536	77.809	-30051	2835.3	0.11224	-0.079544	0.97834
3.538	77.791	-30049	2835.1	0.11175	-0.079544	0.97815
3.54	77.849	-30048	2834.8	0.11126	-0.079544	0.97795
3.542	77.883	-30048	2834.5	0.11204	-0.078275	0.97912
3.544	77.945	-30048	2834.3	0.11283	-0.077006	0.98029
3.546	77.993	-30047	2833.9	0.11361	-0.075738	0.98147
3.548	77.942	-30046	2833.6	0.11439	-0.074469	0.98264
3.55	77.896	-30046	2833.2	0.11517	-0.0732	0.98381
3.552	77.873	-30047	2832.8	0.11478	-0.072712	0.98244
3.554	77.835	-30052	2832.4	0.11439	-0.072224	0.98108
3.556	77.843	-30057	2832	0.114	-0.071736	0.97971
3.558	77.891	-30057	2831.6	0.11361	-0.071248	0.97834
3.56	77.892	-30057	2831.2	0.11322	-0.07076	0.97698
3.562	77.854	-30055	2830.7	0.114	-0.070467	0.9762
3.564	77.847	-30053	2830.3	0.11478	-0.070174	0.97541
3.566	77.875	-30055	2829.9	0.11556	-0.069882	0.97463
3.568	77.892	-30057	2829.5	0.11634	-0.069589	0.97385
3.57	77.838	-30057	2829	0.11712	-0.069296	0.97307
3.572	77.767	-30057	2828.6	0.11702	-0.069491	0.97327
3.574	77.776	-30060	2828.1	0.11692	-0.069686	0.97346
3.576	77.818	-30062	2827.7	0.11683	-0.069882	0.97366
3.578	77.887	-30064	2827.2	0.11673	-0.070077	0.97385
3.58	77.924	-30066	2826.7	0.11663	-0.070272	0.97405
3.582	77.817	-30059	2826.4	0.11771	-0.070174	0.97385
3.584	77.805	-30052	2826	0.11878	-0.070077	0.97366
3.586	77.807	-30050	2825.6	0.11985	-0.069979	0.97346
3.588	77.772	-30049	2825.2	0.12093	-0.069882	0.97327
3.59	77.786	-30050	2824.8	0.122	-0.069784	0.97307
3.592	77.818	-30050	2824.4	0.12122	-0.070174	0.97278
3.594	77.909	-30047	2824	0.12044	-0.070565	0.97249
3.596	77.911	-30044	2823.6	0.11966	-0.070955	0.97219
3.598	77.806	-30045	2823.2	0.11888	-0.071346	0.9719
3.6	77.704	-30046	2822.7	0.1181	-0.071736	0.97161
3.602	77.735	-30050	2822.4	0.11878	-0.071443	0.97268
3.604	77.749	-30053	2822	0.11946	-0.07115	0.97376
3.606	77.699	-30055	2821.7	0.12015	-0.070858	0.97483
3.608	77.574	-30058	2821.3	0.12083	-0.070565	0.9759
3.61	77.545	-30063	2820.9	0.12151	-0.070272	0.97698
3.612	77.519	-30068	2820.5	0.12259	-0.070955	0.97698
3.614	77.436	-30064	2820.1	0.12366	-0.071638	0.97698
3.616	77.436	-30059	2819.7	0.12473	-0.072322	0.97698
3.618	77.446	-30053	2819.3	0.12581	-0.073005	0.97698
3.62	77.391	-30047	2818.9	0.12688	-0.073688	0.97698
3.622	77.393	-30046	2818.5	0.12639	-0.073688	0.97659
3.624	77.412	-30045	2818.1	0.1259	-0.073688	0.9762
3.626	77.416	-30054	2817.7	0.12542	-0.073688	0.9758
3.628	77.386	-30062	2817.4	0.12493	-0.073688	0.97541
3.63	77.379	-30064	2817	0.12444	-0.073688	0.97502
3.632	77.477	-30065	2816.6	0.12434	-0.072419	0.97454
3.634	77.613	-30065	2816.2	0.12424	-0.07115	0.97405
3.636	77.674	-30065	2815.8	0.12415	-0.069882	0.97356
3.638	77.701	-30065	2815.4	0.12405	-0.068613	0.97307
3.64	77.756	-30065	2815	0.12395	-0.067344	0.97258
3.642	77.799	-30063	2814.6	0.12483	-0.068613	0.97327
3.644	77.831	-30060	2814.2	0.12571	-0.069882	0.97395
3.646	77.834	-30060	2813.8	0.12659	-0.07115	0.97463
3.648	77.789	-30059	2813.5	0.12747	-0.072419	0.97532
3.65	77.778	-30059	2813.2	0.12834	-0.073688	0.976
3.652	77.788	-30058	2812.8	0.12737	-0.07281	0.97571
3.654	77.798	-30059	2812.4	0.12639	-0.071931	0.97541
3.656	77.814	-30059	2812.1	0.12542	-0.071053	0.97512
3.658	77.796	-30063	2811.7	0.12444	-0.070174	0.97483
3.66	77.693	-30067	2811.3	0.12346	-0.069296	0.97454
3.662	77.634	-30068	2811	0.12356	-0.069784	0.97454
3.664	77.671	-30068	2810.6	0.12366	-0.070272	0.97454
3.666	77.792	-30071	2810.3	0.12376	-0.07076	0.97454
3.668	77.915	-30074	2810	0.12385	-0.071248	0.97454
3.67	77.855	-30076	2809.7	0.12395	-0.071736	0.97454
3.672	77.824	-30079	2809.4	0.12424	-0.072029	0.97444
3.674	77.856	-30078	2809.1	0.12454	-0.072322	0.97434
3.676	77.847	-30077	2808.8	0.12483	-0.072614	0.97424
3.678	77.811	-30077	2808.6	0.12512	-0.072907	0.97415
3.68	77.813	-30077	2808.3	0.12542	-0.0732	0.97405
3.682	77.818	-30078	2808.1	0.12454	-0.073005	0.97561
3.684	77.837	-30079	2807.8	0.12366	-0.07281	0.97717
3.686	77.818	-30082	2807.6	0.12278	-0.072614	0.97873
3.688	77.774	-30086	2807.4	0.1219	-0.072419	0.98029
3.69	77.84	-30084	2807.1	0.12102	-0.072224	0.98186
3.692	77.823	-30083	2806.9	0.12034	-0.07076	0.98137
3.694	77.789	-30081	2806.6	0.11966	-0.069296	0.98088
3.696	77.751	-30080	2806.4	0.11897	-0.067832	0.98039
3.698	77.722	-30079	2806.1	0.11829	-0.066368	0.9799
3.7	77.705	-30079	2805.8	0.11761	-0.064904	0.97942
3.702	77.761	-30080	2805.5	0.11732	-0.064709	0.97971
3.704	77.826	-30082	2805.2	0.11702	-0.064514	0.98
3.706	77.834	-30085	2804.8	0.11673	-0.064318	0.98029
3.708	77.76	-30088	2804.5	0.11644	-0.064123	0.98059
3.71	77.755	-30090	2804.2	0.11614	-0.063928	0.98088
3.712	77.807	-30093	2803.9	0.11858	-0.065197	0.97942
3.714	77.832	-30092	2803.6	0.12102	-0.066466	0.97795
3.716	77.82	-30092	2803.3	0.12346	-0.067734	0.97649
3.718	77.766	-30096	2803	0.1259	-0.069003	0.97502
3.72	77.724	-30099	2802.7	0.12834	-0.070272	0.97356
3.722	77.728	-30100	2802.4	0.12659	-0.069882	0.97385
3.724	77.736	-30101	2802.1	0.12483	-0.069491	0.97415
3.726	77.735	-30094	2801.8	0.12307	-0.069101	0.97444
3.728	77.709	-30088	2801.6	0.12132	-0.06871	0.97473
3.73	77.661	-30099	2801.3	0.11956	-0.06832	0.97502
3.732	77.649	-30110	2801.1	0.11858	-0.069003	0.976
3.734	77.659	-30110	2800.8	0.11761	-0.069686	0.97698
3.736	77.644	-30111	2800.7	0.11663	-0.07037	0.97795
3.738	77.64	-30110	2800.5	0.11566	-0.071053	0.97893
3.74	77.664	-30110	2800.4	0.11468	-0.071736	0.9799
3.742	77.691	-30109	2800.2	0.11644	-0.071931	0.98108
3.744	77.692	-30108	2799.9	0.11819	-0.072126	0.98225
3.746	77.732	-30109	2799.8	0.11995	-0.072322	0.98342
3.748	77.85	-30109	2799.6	0.12171	-0.072517	0.98459
3.75	77.921	-30111	2799.4	0.12346	-0.072712	0.98576
3.752	77.883	-30114	2799.3	0.12434	-0.073786	0.98644
3.754	77.78	-30114	2799.2	0.12522	-0.074859	0.98713
3.756	77.723	-30113	2799.1	0.1261	-0.075933	0.98781
3.758	77.668	-30114	2799	0.12698	-0.077006	0.98849
3.76	77.667	-30116	2798.8	0.12786	-0.07808	0.98918
3.762	77.678	-30117	2798.8	0.12795	-0.07808	0.98966
3.764	77.666	-30119	2798.7	0.12805	-0.07808	0.99015
3.766	77.648	-30117	2798.6	0.12815	-0.07808	0.99064
3.768	77.681	-30115	2798.6	0.12825	-0.07808	0.99113
3.77	77.683	-30121	2798.6	0.12834	-0.07808	0.99162
3.772	77.683	-30126	2798.6	0.12786	-0.078373	0.99093
3.774	77.752	-30129	2798.6	0.12737	-0.078666	0.99025
3.776	77.722	-30132	2798.7	0.12688	-0.078958	0.98957
3.778	77.671	-30134	2798.7	0.12639	-0.079251	0.98888
3.78	77.64	-30136	2798.8	0.1259	-0.079544	0.9882
3.782	77.652	-30140	2798.8	0.126	-0.078958	0.98898
3.784	77.686	-30145	2798.9	0.1261	-0.078373	0.98976
3.786	77.715	-30144	2798.9	0.1262	-0.077787	0.99054
3.788	77.655	-30142	2799	0.12629	-0.077202	0.99132
3.79	77.644	-30140	2799.1	0.12639	-0.076616	0.9921
3.792	77.667	-30137	2799.4	0.12561	-0.075542	0.99132
3.794	77.687	-30133	2799.7	0.12483	-0.074469	0.99054
3.796	77.672	-30129	2800.2	0.12405	-0.073395	0.98976
3.798	77.617	-30134	2800.8	0.12327	-0.072322	0.98898
3.8	77.572	-30138	2801.4	0.12249	-0.071248	0.9882
3.802	77.599	-30140	2802.5	0.12141	-0.071053	0.98605
3.804	77.598	-30141	2803.6	0.12034	-0.070858	0.98391
3.806	77.504	-30142	2804.9	0.11927	-0.070662	0.98176
3.808	77.427	-30142	2806.5	0.11819	-0.070467	0.97961
3.81	77.462	-30143	2808.1	0.11712	-0.070272	0.97746
3.812	77.57	-30143	2810.2	0.1181	-0.069979	0.97649
3.814	77.629	-30148	2812.3	0.11907	-0.069686	0.97551
3.816	77.669	-30153	2814.6	0.12005	-0.069394	0.97454
3.818	77.735	-30154	2817.1	0.12102	-0.069101	0.97356
3.82	77.714	-30154	2819.6	0.122	-0.068808	0.97258
3.822	77.652	-30152	2822.1	0.1221	-0.068515	0.97278
3.824	77.637	-30150	2824.7	0.1222	-0.068222	0.97297
3.826	77.61	-30152	2827.2	0.12229	-0.06793	0.97317
3.828	77.551	-30155	2829.8	0.12239	-0.067637	0.97336
3.83	77.567	-30152	2832.3	0.12249	-0.067344	0.97356
3.832	77.58	-30149	2834.7	0.12239	-0.067539	0.97385
3.834	77.573	-30150	2837	0.12229	-0.067734	0.97415
3.836	77.589	-30150	2839.2	0.1222	-0.06793	0.97444
3.838	77.641	-30150	2841.3	0.1221	-0.068125	0.97473
3.84	77.688	-30150	2843.4	0.122	-0.06832	0.97502
3.842	77.673	-30154	2845.1	0.12112	-0.068906	0.9762
3.844	77.651	-30158	2846.8	0.12024	-0.069491	0.97737
3.846	77.633	-30153	2848.4	0.11936	-0.070077	0.97854
3.848	77.594	-30147	2849.9	0.11849	-0.070662	0.97971
3.85	77.646	-30146	2851.3	0.11761	-0.071248	0.98088
3.852	77.693	-30145	2852.6	0.11771	-0.070858	0.98147
3.854	77.651	-30141	2853.8	0.1178	-0.070467	0.98205
3.856	77.59	-30138	2854.9	0.1179	-0.070077	0.98264
3.858	77.608	-30142	2855.8	0.118	-0.069686	0.98322
3.86	77.659	-30146	2856.8	0.1181	-0.069296	0.98381
3.862	77.641	-30140	2857.6	0.1179	-0.069296	0.98342
3.864	77.707	-30134	2858.5	0.11771	-0.069296	0.98303
3.866	77.7	-30134	2859.2	0.11751	-0.069296	0.98264
3.868	77.655	-30135	2859.9	0.11732	-0.069296	0.98225
3.87	77.655	-30128	2860.5	0.11712	-0.069296	0.98186
3.872	77.691	-30122	2861.1	0.11712	-0.069101	0.98147
3.874	77.713	-30125	2861.7	0.11712	-0.068906	0.98108
3.876	77.735	-30129	2862.2	0.11712	-0.06871	0.98068
3.878	77.661	-30128	2862.6	0.11712	-0.068515	0.98029
3.88	77.632	-30127	2863.1	0.11712	-0.06832	0.9799
3.882	77.638	-30125	2863.4	0.11878	-0.069003	0.97854
3.884	77.642	-30123	2863.8	0.12044	-0.069686	0.97717
3.886	77.661	-30121	2864.1	0.1221	-0.07037	0.9758
3.888	77.678	-30119	2864.3	0.12376	-0.071053	0.97444
3.89	77.683	-30119	2864.6	0.12542	-0.071736	0.97307
3.892	77.75	-30119	2864.7	0.12454	-0.071443	0.97268
3.894	77.83	-30113	2864.9	0.12366	-0.07115	0.97229
3.896	77.862	-30107	2865	0.12278	-0.070858	0.9719
3.898	77.832	-30105	2865.1	0.1219	-0.070565	0.97151
3.9	77.746	-30103	2865.1	0.12102	-0.070272	0.97112
3.902	77.713	-30098	2865.2	0.12112	-0.07076	0.97102
3.904	77.752	-30093	2865.2	0.12122	-0.071248	0.97092
3.906	77.771	-30094	2865.2	0.12132	-0.071736	0.97083
3.908	77.767	-30096	2865.2	0.12141	-0.072224	0.97073
3.91	77.766	-30100	2865.1	0.12151	-0.072712	0.97063
3.912	77.773	-30105	2865	0.12229	-0.073981	0.97102
3.914	77.775	-30096	2865	0.12307	-0.07525	0.97141
3.916	77.761	-30087	2864.9	0.12385	-0.076518	0.9718
3.918	77.79	-30087	2864.8	0.12464	-0.077787	0.97219
3.92	77.742	-30086	2864.7	0.12542	-0.079056	0.97258
3.922	77.689	-30078	2864.6	0.12512	-0.078275	0.97249
3.924	77.67	-30070	2864.5	0.12483	-0.077494	0.97239
3.926	77.732	-30067	2864.3	0.12454	-0.076714	0.97229
3.928	77.775	-30064	2864.1	0.12424	-0.075933	0.97219
3.93	77.784	-30067	2863.9	0.12395	-0.075152	0.9721
3.932	77.831	-30069	2863.6	0.12288	-0.074859	0.97346
3.934	77.803	-30061	2863.4	0.1218	-0.074566	0.97483
3.936	77.726	-30053	2863.1	0.12073	-0.074274	0.9762
3.938	77.738	-30055	2862.8	0.11966	-0.073981	0.97756
3.94	77.706	-30057	2862.5	0.11858	-0.073688	0.97893
3.942	77.667	-30056	2862.1	0.11712	-0.074469	0.97903
3.944	77.695	-30056	2861.8	0.11566	-0.07525	0.97912
3.946	77.799	-30048	2861.4	0.11419	-0.07603	0.97922
3.948	77.782	-30040	2861	0.11273	-0.076811	0.97932
3.95	77.76	-30038	2860.6	0.11126	-0.077592	0.97942
3.952	77.742	-30037	2860.2	0.11283	-0.077202	0.97883
3.954	77.737	-30033	2859.7	0.11439	-0.076811	0.97824
3.956	77.758	-30028	2859.2	0.11595	-0.076421	0.97766
3.958	77.841	-30024	2858.7	0.11751	-0.07603	0.97707
3.96	77.906	-30021	2858.2	0.11907	-0.07564	0.97649
3.962	77.861	-30020	2857.6	0.11819	-0.076128	0.97698
3.964	77.775	-30018	2857.1	0.11732	-0.076616	0.97746
3.966	77.705	-30020	2856.5	0.11644	-0.077104	0.97795
3.968	77.665	-30021	2856	0.11556	-0.077592	0.97844
3.97	77.712	-30021	2855.4	0.11468	-0.07808	0.97893
3.972	77.75	-30020	2854.8	0.11361	-0.077787	0.97912
3.974	77.816	-30015	2854.2	0.11253	-0.077494	0.97932
3.976	77.828	-30009	2853.6	0.11146	-0.077202	0.97951
3.978	77.767	-30017	2852.9	0.11039	-0.076909	0.97971
3.98	77.746	-30025	2852.3	0.10931	-0.076616	0.9799
3.982	77.751	-30017	2851.7	0.1098	-0.076421	0.97981
3.984	77.727	-30008	2851	0.11029	-0.076226	0.97971
3.986	77.671	-30008	2850.4	0.11078	-0.07603	0.97961
3.988	77.64	-30008	2849.8	0.11126	-0.075835	0.97951
3.99	77.672	-30007	2849.1	0.11175	-0.07564	0.97942
3.992	77.716	-30006	2848.5	0.11156	-0.075445	0.97922
3.994	77.75	-30000	2847.8	0.11136	-0.07525	0.97903
3.996	77.751	-29995	2847.2	0.11117	-0.075054	0.97883
3.998	77.696	-29992	2846.6	0.11097	-0.074859	0.97864
4	77.714	-29988	2846	0.11078	-0.074664	0.97844
4.002	77.768	-29996	2845.5	0.11078	-0.074469	0.97834
4.004	77.735	-30004	2844.9	0.11078	-0.074274	0.97824
4.006	77.705	-29998	2844.4	0.11078	-0.074078	0.97815
4.008	77.693	-29993	2843.9	0.11078	-0.073883	0.97805
4.01	77.745	-29989	2843.4	0.11078	-0.073688	0.97795
4.012	77.727	-29984	2842.8	0.11146	-0.072907	0.97746
4.014	77.709	-29988	2842.2	0.11214	-0.072126	0.97698
4.016	77.739	-29992	2841.7	0.11283	-0.071346	0.97649
4.018	77.76	-29991	2841.2	0.11351	-0.070565	0.976
4.02	77.744	-29990	2840.7	0.11419	-0.069784	0.97551
4.022	77.804	-29989	2840.1	0.11595	-0.069198	0.97571
4.024	77.77	-29987	2839.6	0.11771	-0.068613	0.9759
4.026	77.719	-29987	2839	0.11946	-0.068027	0.9761
4.028	77.766	-29988	2838.5	0.12122	-0.067442	0.97629
4.03	77.733	-29987	2837.9	0.12298	-0.066856	0.97649
4.032	77.71	-29987	2837.4	0.12376	-0.067734	0.97659
4.034	77.71	-29986	2836.9	0.12454	-0.068613	0.97668
4.036	77.724	-29985	2836.3	0.12532	-0.069491	0.97678
4.038	77.72	-29987	2835.8	0.1261	-0.07037	0.97688
4.04	77.706	-29988	2835.3	0.12688	-0.071248	0.97698
4.042	77.709	-29990	2834.9	0.12503	-0.07037	0.97785
4.044	77.69	-29991	2834.4	0.12317	-0.069491	0.97873
4.046	77.768	-29989	2834	0.12132	-0.068613	0.97961
4.048	77.808	-29986	2833.5	0.11946	-0.067734	0.98049
4.05	77.781	-29986	2833.1	0.11761	-0.066856	0.98137
4.052	77.755	-29986	2832.7	0.11761	-0.067734	0.98147
4.054	77.731	-29988	2832.3	0.11761	-0.068613	0.98156
4.056	77.747	-29991	2832	0.11761	-0.069491	0.98166
4.058	77.815	-29991	2831.6	0.11761	-0.07037	0.98176
4.06	77.837	-29990	2831.3	0.11761	-0.071248	0.98186
4.062	77.785	-29987	2831.1	0.11829	-0.07115	0.98078
4.064	77.747	-29983	2830.8	0.11897	-0.071053	0.97971
4.066	77.72	-29984	2830.6	0.11966	-0.070955	0.97864
4.068	77.662	-29986	2830.5	0.12034	-0.070858	0.97756
4.07	77.622	-29990	2830.3	0.12102	-0.07076	0.97649
4.072	77.67	-29994	2830.2	0.12161	-0.07115	0.97746
4.074	77.734	-29989	2830.1	0.1222	-0.071541	0.97844
4.076	77.711	-29983	2830	0.12278	-0.071931	0.97942
4.078	77.706	-29984	2830.1	0.12337	-0.072322	0.98039
4.08	77.727	-29984	2830.1	0.12395	-0.072712	0.98137
4.082	77.738	-29990	2830.2	0.12395	-0.072712	0.98117
4.084	77.774	-29995	2830.3	0.12395	-0.072712	0.98098
4.086	77.763	-29992	2830.5	0.12395	-0.072712	0.98078
4.088	77.767	-29988	2830.7	0.12395	-0.072712	0.98059
4.09	77.786	-29987	2831	0.12395	-0.072712	0.98039
4.092	77.806	-29986	2831.3	0.12454	-0.0732	0.98029
4.094	77.76	-29987	2831.6	0.12512	-0.073688	0.9802
4.096	77.698	-29987	2832	0.12571	-0.074176	0.9801
4.098	77.655	-29989	2832.3	0.12629	-0.074664	0.98
4.1	77.687	-29990	2832.6	0.12688	-0.075152	0.9799
4.102	77.73	-29991	2833	0.12766	-0.074957	0.98137
4.104	77.709	-29992	2833.3	0.12844	-0.074762	0.98283
4.106	77.734	-29997	2833.7	0.12922	-0.074566	0.9843
4.108	77.703	-30002	2834.1	0.13	-0.074371	0.98576
4.11	77.716	-29994	2834.5	0.13078	-0.074176	0.98722
4.112	77.679	-29986	2834.9	0.12952	-0.07359	0.98615
4.114	77.7	-29988	2835.2	0.12825	-0.073005	0.98508
4.116	77.719	-29990	2835.6	0.12698	-0.072419	0.984
4.118	77.787	-29986	2836	0.12571	-0.071834	0.98293
4.12	77.775	-29982	2836.4	0.12444	-0.071248	0.98186
4.122	77.689	-29990	2836.7	0.12493	-0.071931	0.98254
4.124	77.7	-29998	2837	0.12542	-0.072614	0.98322
4.126	77.663	-29998	2837.3	0.1259	-0.073298	0.98391
4.128	77.648	-29997	2837.6	0.12639	-0.073981	0.98459
4.13	77.689	-30000	2837.9	0.12688	-0.074664	0.98527
4.132	77.701	-30003	2838.2	0.12649	-0.07525	0.98488
4.134	77.697	-29993	2838.4	0.1261	-0.075835	0.98449
4.136	77.704	-29984	2838.7	0.12571	-0.076421	0.9841
4.138	77.781	-29984	2838.9	0.12532	-0.077006	0.98371
4.14	77.805	-29984	2839.1	0.12493	-0.077592	0.98332
4.142	77.745	-29986	2839.3	0.12356	-0.076421	0.98283
4.144	77.711	-29989	2839.5	0.1222	-0.07525	0.98234
4.146	77.695	-29990	2839.7	0.12083	-0.074078	0.98186
4.148	77.665	-29991	2840	0.11946	-0.072907	0.98137
4.15	77.676	-29990	2840.2	0.1181	-0.071736	0.98088
4.152	77.71	-29990	2840.3	0.11936	-0.071736	0.9799
4.154	77.706	-29988	2840.5	0.12063	-0.071736	0.97893
4.156	77.683	-29987	2840.7	0.1219	-0.071736	0.97795
4.158	77.69	-29990	2840.8	0.12317	-0.071736	0.97698
4.16	77.744	-29994	2840.9	0.12444	-0.071736	0.976
4.162	77.783	-29996	2841.1	0.12405	-0.071736	0.97571
4.164	77.757	-29997	2841.2	0.12366	-0.071736	0.97541
4.166	77.707	-29996	2841.4	0.12327	-0.071736	0.97512
4.168	77.678	-29995	2841.5	0.12288	-0.071736	0.97483
4.17	77.745	-29992	2841.6	0.12249	-0.071736	0.97454
4.172	77.761	-29989	2841.6	0.1222	-0.071736	0.97639
4.174	77.763	-29987	2841.6	0.1219	-0.071736	0.97824
4.176	77.764	-29986	2841.6	0.12161	-0.071736	0.9801
4.178	77.777	-29987	2841.5	0.12132	-0.071736	0.98195
4.18	77.79	-29988	2841.5	0.12102	-0.071736	0.98381
4.182	77.75	-29990	2841.4	0.12024	-0.07115	0.98312
4.184	77.751	-29992	2841.2	0.11946	-0.070565	0.98244
4.186	77.826	-29992	2841.1	0.11868	-0.069979	0.98176
4.188	77.833	-29993	2841	0.1179	-0.069394	0.98108
4.19	77.743	-29986	2840.9	0.11712	-0.068808	0.98039
4.192	77.716	-29979	2840.7	0.11829	-0.068515	0.97942
4.194	77.736	-29979	2840.5	0.11946	-0.068222	0.97844
4.196	77.729	-29979	2840.2	0.12063	-0.06793	0.97746
4.198	77.741	-29982	2839.9	0.1218	-0.067637	0.97649
4.2	77.778	-29984	2839.6	0.12298	-0.067344	0.97551
4.202	77.826	-29985	2839.2	0.12259	-0.067832	0.97541
4.204	77.79	-29985	2838.8	0.1222	-0.06832	0.97532
4.206	77.727	-29985	2838.5	0.1218	-0.068808	0.97522
4.208	77.77	-29985	2838.1	0.12141	-0.069296	0.97512
4.21	77.839	-29984	2837.8	0.12102	-0.069784	0.97502
4.212	77.846	-29984	2837.4	0.12112	-0.069979	0.97522
4.214	77.801	-29983	2837	0.12122	-0.070174	0.97541
4.216	77.756	-29982	2836.7	0.12132	-0.07037	0.97561
4.218	77.735	-29983	2836.3	0.12141	-0.070565	0.9758
4.22	77.729	-29984	2835.9	0.12151	-0.07076	0.976
4.222	77.732	-29985	2835.5	0.12161	-0.071541	0.97629
4.224	77.742	-29986	2835.2	0.12171	-0.072322	0.97659
4.226	77.8	-29984	2834.8	0.1218	-0.073102	0.97688
4.228	77.83	-29982	2834.4	0.1219	-0.073883	0.97717
4.23	77.826	-29983	2834	0.122	-0.074664	0.97746
4.232	77.813	-29983	2833.7	0.1221	-0.074469	0.97668
4.234	77.8	-29983	2833.4	0.1222	-0.074274	0.9759
4.236	77.798	-29983	2833.1	0.12229	-0.074078	0.97512
4.238	77.794	-29983	2832.8	0.12239	-0.073883	0.97434
4.24	77.777	-29983	2832.4	0.12249	-0.073688	0.97356
4.242	77.75	-29983	2832.1	0.12288	-0.074664	0.97317
4.244	77.72	-29984	2831.8	0.12327	-0.07564	0.97278
4.246	77.712	-29984	2831.4	0.12366	-0.076616	0.97239
4.248	77.677	-29983	2831	0.12405	-0.077592	0.972
4.25	77.58	-29983	2830.6	0.12444	-0.078568	0.97161
4.252	77.565	-29983	2830.3	0.122	-0.078373	0.97268
4.254	77.564	-29982	2829.9	0.11956	-0.078178	0.97376
4.256	77.558	-29982	2829.5	0.11712	-0.077982	0.97483
4.258	77.525	-29983	2829.1	0.11468	-0.077787	0.9759
4.26	77.449	-29983	2828.8	0.11224	-0.077592	0.97698
4.262	77.363	-29985	2828.4	0.11429	-0.076518	0.97668
4.264	77.315	-29986	2828	0.11634	-0.075445	0.97639
4.266	77.257	-29989	2827.6	0.11839	-0.074371	0.9761
4.268	77.21	-29991	2827.3	0.12044	-0.073298	0.9758
4.27	77.175	-29993	2826.9	0.12249	-0.072224	0.97551
4.272	77.235	-29994	2826.5	0.12337	-0.073493	0.97483
4.274	77.276	-29988	2826	0.12424	-0.074762	0.97415
4.276	77.33	-29981	2825.6	0.12512	-0.07603	0.97346
4.278	77.291	-29983	2825.1	0.126	-0.077299	0.97278
4.28	77.379	-29984	2824.6	0.12688	-0.078568	0.9721
4.282	77.527	-29986	2824.1	0.12503	-0.076714	0.97385
4.284	77.668	-29988	2823.6	0.12317	-0.074859	0.97561
4.286	77.734	-29986	2823.1	0.12132	-0.073005	0.97737
4.288	77.747	-29984	2822.6	0.11946	-0.07115	0.97912
4.29	77.759	-29984	2822	0.11761	-0.069296	0.98088
4.292	77.718	-29985	2821.6	0.11936	-0.070077	0.98
4.294	77.672	-29985	2821.1	0.12112	-0.070858	0.97912
4.296	77.719	-29986	2820.7	0.12288	-0.071638	0.97824
4.298	77.731	-29989	2820.2	0.12464	-0.072419	0.97737
4.3	77.769	-29991	2819.8	0.12639	-0.0732	0.97649
4.302	77.815	-29991	2819.4	0.1259	-0.072419	0.97541
4.304	77.796	-29991	2818.9	0.12542	-0.071638	0.97434
4.306	77.762	-29990	2818.5	0.12493	-0.070858	0.97327
4.308	77.75	-29989	2818.1	0.12444	-0.070077	0.97219
4.31	77.701	-29994	2817.7	0.12395	-0.069296	0.97112
4.312	77.707	-29999	2817.3	0.12434	-0.070662	0.97161
4.314	77.718	-29998	2816.9	0.12473	-0.072029	0.9721
4.316	77.734	-29996	2816.5	0.12512	-0.073395	0.97258
4.318	77.772	-29994	2816.2	0.12551	-0.074762	0.97307
4.32	77.761	-29993	2815.8	0.1259	-0.076128	0.97356
4.322	77.714	-29998	2815.4	0.12649	-0.076909	0.97356
4.324	77.706	-30003	2815.1	0.12708	-0.07769	0.97356
4.326	77.724	-30003	2814.7	0.12766	-0.07847	0.97356
4.328	77.73	-30002	2814.4	0.12825	-0.079251	0.97356
4.33	77.727	-30001	2814.1	0.12883	-0.080032	0.97356
4.332	77.704	-30000	2813.8	0.12688	-0.078275	0.97463
4.334	77.693	-30001	2813.5	0.12493	-0.076518	0.97571
4.336	77.701	-30001	2813.3	0.12298	-0.074762	0.97678
4.338	77.653	-29997	2813	0.12102	-0.073005	0.97785
4.34	77.572	-29993	2812.8	0.11907	-0.071248	0.97893
4.342	77.52	-29999	2812.6	0.11946	-0.071346	0.97873
4.344	77.656	-30004	2812.4	0.11985	-0.071443	0.97854
4.346	77.802	-30008	2812.2	0.12024	-0.071541	0.97834
4.348	77.765	-30012	2811.9	0.12063	-0.071638	0.97815
4.35	77.721	-30012	2811.7	0.12102	-0.071736	0.97795
4.352	77.686	-30012	2811.5	0.12044	-0.071541	0.97795
4.354	77.674	-30010	2811.3	0.11985	-0.071346	0.97795
4.356	77.703	-30008	2811.1	0.11927	-0.07115	0.97795
4.358	77.665	-30006	2810.9	0.11868	-0.070955	0.97795
4.36	77.518	-30003	2810.7	0.1181	-0.07076	0.97795
4.362	77.462	-30011	2810.5	0.11839	-0.070174	0.97805
4.364	77.552	-30020	2810.2	0.11868	-0.069589	0.97815
4.366	77.763	-30019	2810	0.11897	-0.069003	0.97824
4.368	77.767	-30017	2809.7	0.11927	-0.068418	0.97834
4.37	77.785	-30014	2809.4	0.11956	-0.067832	0.97844
4.372	77.749	-30011	2809.2	0.11917	-0.067539	0.97873
4.374	77.762	-30010	2808.9	0.11878	-0.067246	0.97903
4.376	77.715	-30009	2808.7	0.11839	-0.066954	0.97932
4.378	77.655	-30018	2808.5	0.118	-0.066661	0.97961
4.38	77.669	-30026	2808.2	0.11761	-0.066368	0.9799
4.382	77.695	-30030	2808	0.1179	-0.066563	0.97922
4.384	77.674	-30034	2807.8	0.11819	-0.066758	0.97854
4.386	77.663	-30032	2807.7	0.11849	-0.066954	0.97785
4.388	77.586	-30029	2807.5	0.11878	-0.067149	0.97717
4.39	77.605	-30029	2807.3	0.11907	-0.067344	0.97649
4.392	77.692	-30029	2807	0.11888	-0.067149	0.97649
4.394	77.667	-30030	2806.8	0.11868	-0.066954	0.97649
4.396	77.641	-30031	2806.5	0.11849	-0.066758	0.97649
4.398	77.647	-30033	2806.3	0.11829	-0.066563	0.97649
4.4	77.652	-30036	2806	0.1181	-0.066368	0.97649
4.402	77.647	-30033	2805.8	0.11907	-0.065978	0.976
4.404	77.595	-30030	2805.6	0.12005	-0.065587	0.97551
4.406	77.554	-30038	2805.3	0.12102	-0.065197	0.97502
4.408	77.566	-30047	2805.1	0.122	-0.064806	0.97454
4.41	77.589	-30047	2804.8	0.12298	-0.064416	0.97405
4.412	77.615	-30047	2804.7	0.12395	-0.06588	0.97385
4.414	77.623	-30044	2804.5	0.12493	-0.067344	0.97366
4.416	77.606	-30041	2804.4	0.1259	-0.068808	0.97346
4.418	77.602	-30040	2804.3	0.12688	-0.070272	0.97327
4.42	77.615	-30039	2804.3	0.12786	-0.071736	0.97307
4.422	77.631	-30037	2804.3	0.12668	-0.071834	0.97454
4.424	77.636	-30035	2804.3	0.12551	-0.071931	0.976
4.426	77.589	-30045	2804.4	0.12434	-0.072029	0.97746
4.428	77.528	-30056	2804.5	0.12317	-0.072126	0.97893
4.43	77.484	-30054	2804.6	0.122	-0.072224	0.98039
4.432	77.497	-30052	2804.7	0.12229	-0.071541	0.9802
4.434	77.555	-30051	2804.9	0.12259	-0.070858	0.98
4.436	77.631	-30049	2805.1	0.12288	-0.070174	0.97981
4.438	77.616	-30058	2805.4	0.12317	-0.069491	0.97961
4.44	77.568	-30068	2805.7	0.12346	-0.068808	0.97942
4.442	77.545	-30068	2806.1	0.1221	-0.06871	0.97903
4.444	77.565	-30069	2806.5	0.12073	-0.068613	0.97864
4.446	77.555	-30064	2807.1	0.11936	-0.068515	0.97824
4.448	77.553	-30058	2807.8	0.118	-0.068418	0.97785
4.45	77.524	-30058	2808.5	0.11663	-0.06832	0.97746
4.452	77.518	-30058	2809.6	0.11683	-0.06832	0.97893
4.454	77.529	-30063	2810.8	0.11702	-0.06832	0.98039
4.456	77.531	-30069	2812.1	0.11722	-0.06832	0.98186
4.458	77.595	-30064	2813.7	0.11741	-0.06832	0.98332
4.46	77.598	-30060	2815.2	0.11761	-0.06832	0.98478
4.462	77.518	-30063	2817.3	0.11702	-0.068613	0.98322
4.464	77.559	-30065	2819.4	0.11644	-0.068906	0.98166
4.466	77.56	-30067	2821.6	0.11585	-0.069198	0.9801
4.468	77.498	-30069	2823.9	0.11527	-0.069491	0.97854
4.47	77.511	-30070	2826.2	0.11468	-0.069784	0.97698
4.472	77.523	-30071	2828.7	0.11448	-0.070662	0.97844
4.474	77.54	-30071	2831.1	0.11429	-0.071541	0.9799
4.476	77.577	-30071	2833.5	0.11409	-0.072419	0.98137
4.478	77.575	-30073	2835.8	0.1139	-0.073298	0.98283
4.48	77.537	-30076	2838.1	0.1137	-0.074176	0.9843
4.482	77.52	-30080	2840.2	0.114	-0.073298	0.98332
4.484	77.521	-30084	2842.3	0.11429	-0.072419	0.98234
4.486	77.495	-30081	2844.2	0.11458	-0.071541	0.98137
4.488	77.471	-30078	2845.9	0.11488	-0.070662	0.98039
4.49	77.487	-30074	2847.7	0.11517	-0.069784	0.97942
4.492	77.492	-30071	2849.2	0.11585	-0.070565	0.98049
4.494	77.491	-30071	2850.7	0.11653	-0.071346	0.98156
4.496	77.542	-30071	2852.1	0.11722	-0.072126	0.98264
4.498	77.598	-30066	2853.4	0.1179	-0.072907	0.98371
4.5	77.577	-30062	2854.7	0.11858	-0.073688	0.98478
4.502	77.526	-30060	2855.9	0.1179	-0.0732	0.98381
4.504	77.513	-30058	2857.1	0.11722	-0.072712	0.98283
4.506	77.497	-30060	2858.2	0.11653	-0.072224	0.98186
4.508	77.545	-30061	2859.2	0.11585	-0.071736	0.98088
4.51	77.642	-30059	2860.2	0.11517	-0.071248	0.9799
4.512	77.629	-30058	2861	0.11536	-0.071346	0.98039
4.514	77.631	-30055	2861.9	0.11556	-0.071443	0.98088
4.516	77.682	-30052	2862.8	0.11575	-0.071541	0.98137
4.518	77.709	-30058	2863.6	0.11595	-0.071638	0.98186
4.52	77.671	-30063	2864.4	0.11614	-0.071736	0.98234
4.522	77.644	-30058	2865.1	0.11663	-0.070174	0.98273
4.524	77.635	-30052	2865.8	0.11712	-0.068613	0.98312
4.526	77.617	-30052	2866.4	0.11761	-0.067051	0.98352
4.528	77.595	-30052	2867	0.1181	-0.06549	0.98391
4.53	77.597	-30044	2867.6	0.11858	-0.063928	0.9843
4.532	77.689	-30036	2868	0.1178	-0.065294	0.98361
4.534	77.698	-30041	2868.5	0.11702	-0.066661	0.98293
4.536	77.682	-30047	2868.9	0.11624	-0.068027	0.98225
4.538	77.714	-30041	2869.2	0.11546	-0.069394	0.98156
4.54	77.683	-30035	2869.6	0.11468	-0.07076	0.98088
4.542	77.65	-30035	2869.8	0.11409	-0.071834	0.98166
4.544	77.663	-30034	2870	0.11351	-0.072907	0.98244
4.546	77.682	-30032	2870.2	0.11292	-0.073981	0.98322
4.548	77.646	-30030	2870.4	0.11234	-0.075054	0.984
4.55	77.595	-30027	2870.6	0.11175	-0.076128	0.98478
4.552	77.594	-30024	2870.7	0.11224	-0.075542	0.98449
4.554	77.619	-30019	2870.8	0.11273	-0.074957	0.9842
4.556	77.644	-30014	2870.8	0.11322	-0.074371	0.98391
4.558	77.749	-30013	2870.7	0.1137	-0.073786	0.98361
4.56	77.76	-30011	2870.6	0.11419	-0.0732	0.98332
4.562	77.7	-30010	2870.5	0.1137	-0.074566	0.98264
4.564	77.662	-30009	2870.4	0.11322	-0.075933	0.98195
4.566	77.621	-30003	2870.2	0.11273	-0.077299	0.98127
4.568	77.636	-29996	2870.1	0.11224	-0.078666	0.98059
4.57	77.721	-29994	2869.9	0.11175	-0.080032	0.9799
4.572	77.749	-29993	2869.7	0.11146	-0.079349	0.98049
4.574	77.715	-29983	2869.4	0.11117	-0.078666	0.98108
4.576	77.671	-29974	2869.2	0.11087	-0.077982	0.98166
4.578	77.63	-29976	2868.9	0.11058	-0.077299	0.98225
4.58	77.659	-29978	2868.6	0.11029	-0.076616	0.98283
4.582	77.767	-29979	2868.3	0.11048	-0.076518	0.98264
4.584	77.841	-29981	2868	0.11068	-0.076421	0.98244
4.586	77.817	-29978	2867.6	0.11087	-0.076323	0.98225
4.588	77.732	-29975	2867.2	0.11107	-0.076226	0.98205
4.59	77.684	-29967	2866.8	0.11126	-0.076128	0.98186
4.592	77.695	-29959	2866.2	0.11244	-0.076518	0.9801
4.594	77.675	-29958	2865.7	0.11361	-0.076909	0.97834
4.596	77.664	-29958	2865.2	0.11478	-0.077299	0.97659
4.598	77.653	-29957	2864.7	0.11595	-0.07769	0.97483
4.6	77.65	-29956	2864.2	0.11712	-0.07808	0.97307
4.602	77.701	-29953	2863.6	0.11585	-0.078275	0.97376
4.604	77.753	-29951	2863.1	0.11458	-0.07847	0.97444
4.606	77.717	-29951	2862.5	0.11331	-0.078666	0.97512
4.608	77.702	-29951	2861.9	0.11204	-0.078861	0.9758
