t	ekg	optical	pressure	accel_x	accel_y	accel_z
0	89.616	-27385	2298	-0.37381	0.8052	0.4353
0.002	89.638	-27385	2297.9	-0.37332	0.80579	0.43559
0.004	89.653	-27384	2297.9	-0.37283	0.80637	0.43588
0.006	89.654	-27386	2297.8	-0.37234	0.80696	0.43617
0.008	89.652	-27389	2297.7	-0.37186	0.80754	0.43647
0.01	89.645	-27394	2297.6	-0.37137	0.80813	0.43676
0.012	89.645	-27400	2297.5	-0.37127	0.80744	0.43686
0.014	89.647	-27399	2297.4	-0.37117	0.80676	0.43696
0.016	89.645	-27398	2297.3	-0.37108	0.80608	0.43705
0.018	89.646	-27391	2297.2	-0.37098	0.8054	0.43715
0.02	89.646	-27384	2297.1	-0.37088	0.80471	0.43725
0.022	89.647	-27392	2297	-0.37098	0.8054	0.43735
0.024	89.646	-27401	2297	-0.37108	0.80608	0.43744
0.026	89.643	-27402	2296.9	-0.37117	0.80676	0.43754
0.028	89.642	-27404	2296.8	-0.37127	0.80744	0.43764
0.03	89.642	-27400	2296.8	-0.37137	0.80813	0.43774
0.032	89.645	-27396	2296.7	-0.37147	0.80784	0.43783
0.034	89.651	-27402	2296.6	-0.37156	0.80754	0.43793
0.036	89.654	-27408	2296.5	-0.37166	0.80725	0.43803
0.038	89.652	-27405	2296.5	-0.37176	0.80696	0.43813
0.04	89.646	-27401	2296.4	-0.37186	0.80666	0.43822
0.042	89.648	-27399	2296.4	-0.37039	0.80784	0.4394
0.044	89.652	-27397	2296.3	-0.36893	0.80901	0.44057
0.046	89.654	-27397	2296.3	-0.36746	0.81018	0.44174
0.048	89.659	-27396	2296.2	-0.366	0.81135	0.44291
0.05	89.669	-27397	2296.2	-0.36454	0.81252	0.44408
0.052	89.666	-27398	2296.1	-0.36424	0.81252	0.4434
0.054	89.661	-27400	2296	-0.36395	0.81252	0.44271
0.056	89.656	-27401	2296	-0.36366	0.81252	0.44203
0.058	89.656	-27402	2296	-0.36336	0.81252	0.44135
0.06	89.655	-27404	2295.9	-0.36307	0.81252	0.44066
0.062	89.659	-27404	2295.9	-0.36307	0.81203	0.43998
0.064	89.662	-27403	2295.9	-0.36307	0.81154	0.4393
0.066	89.663	-27402	2295.8	-0.36307	0.81106	0.43861
0.068	89.677	-27401	2295.8	-0.36307	0.81057	0.43793
0.07	89.68	-27401	2295.7	-0.36307	0.81008	0.43725
0.072	89.676	-27402	2295.7	-0.36288	0.81057	0.43842
0.074	89.674	-27395	2295.7	-0.36268	0.81106	0.43959
0.076	89.657	-27387	2295.6	-0.36249	0.81154	0.44076
0.078	89.62	-27396	2295.5	-0.36229	0.81203	0.44193
0.08	89.575	-27405	2295.5	-0.3621	0.81252	0.4431
0.082	89.527	-27407	2295.3	-0.36229	0.81281	0.4431
0.084	89.476	-27410	2295.2	-0.36249	0.81311	0.4431
0.086	89.423	-27410	2295.1	-0.36268	0.8134	0.4431
0.088	89.36	-27409	2295	-0.36288	0.81369	0.4431
0.09	89.299	-27404	2294.9	-0.36307	0.81398	0.4431
0.092	89.231	-27398	2294.8	-0.36278	0.81379	0.44281
0.094	89.155	-27396	2294.6	-0.36249	0.81359	0.44252
0.096	89.084	-27395	2294.5	-0.36219	0.8134	0.44223
0.098	89.021	-27400	2294.4	-0.3619	0.8132	0.44193
0.1	88.975	-27404	2294.3	-0.36161	0.81301	0.44164
0.102	88.944	-27402	2294.1	-0.36171	0.81311	0.44184
0.104	88.926	-27400	2293.9	-0.3618	0.8132	0.44203
0.106	88.926	-27404	2293.8	-0.3619	0.8133	0.44223
0.108	88.952	-27408	2293.6	-0.362	0.8134	0.44242
0.11	89.002	-27406	2293.5	-0.3621	0.8135	0.44262
0.112	89.072	-27404	2293.4	-0.36288	0.81281	0.44262
0.114	89.166	-27405	2293.3	-0.36366	0.81213	0.44262
0.116	89.283	-27405	2293.2	-0.36444	0.81145	0.44262
0.118	89.41	-27402	2293.1	-0.36522	0.81076	0.44262
0.12	89.522	-27399	2293.1	-0.366	0.81008	0.44262
0.122	89.602	-27398	2293	-0.36561	0.81047	0.44262
0.124	89.64	-27397	2293	-0.36522	0.81086	0.44262
0.126	89.645	-27400	2292.9	-0.36483	0.81125	0.44262
0.128	89.643	-27403	2292.8	-0.36444	0.81164	0.44262
0.13	89.649	-27404	2292.7	-0.36405	0.81203	0.44262
0.132	89.654	-27405	2292.7	-0.36434	0.81193	0.44203
0.134	89.652	-27408	2292.7	-0.36463	0.81184	0.44144
0.136	89.659	-27411	2292.7	-0.36493	0.81174	0.44086
0.138	89.662	-27411	2292.7	-0.36522	0.81164	0.44027
0.14	89.664	-27411	2292.6	-0.36551	0.81154	0.43969
0.142	89.666	-27416	2292.7	-0.36541	0.81164	0.44037
0.144	89.661	-27422	2292.8	-0.36532	0.81174	0.44105
0.146	89.655	-27419	2292.9	-0.36522	0.81184	0.44174
0.148	89.653	-27416	2293	-0.36512	0.81193	0.44242
0.15	89.654	-27411	2293	-0.36502	0.81203	0.4431
0.152	89.655	-27407	2293.2	-0.36532	0.81242	0.44359
0.154	89.648	-27407	2293.3	-0.36561	0.81281	0.44408
0.156	89.633	-27407	2293.4	-0.3659	0.8132	0.44457
0.158	89.627	-27407	2293.4	-0.3662	0.81359	0.44506
0.16	89.628	-27408	2293.5	-0.36649	0.81398	0.44554
0.162	89.626	-27406	2293.6	-0.3658	0.81408	0.44554
0.164	89.633	-27405	2293.6	-0.36512	0.81418	0.44554
0.166	89.638	-27411	2293.7	-0.36444	0.81428	0.44554
0.168	89.635	-27418	2293.6	-0.36376	0.81437	0.44554
0.17	89.629	-27419	2293.6	-0.36307	0.81447	0.44554
0.172	89.623	-27420	2293.6	-0.36366	0.81437	0.44535
0.174	89.622	-27413	2293.6	-0.36424	0.81428	0.44515
0.176	89.628	-27407	2293.5	-0.36483	0.81418	0.44496
0.178	89.628	-27407	2293.4	-0.36541	0.81408	0.44476
0.18	89.625	-27407	2293.4	-0.366	0.81398	0.44457
0.182	89.623	-27405	2293.3	-0.3658	0.81389	0.44467
0.184	89.624	-27403	2293.2	-0.36561	0.81379	0.44476
0.186	89.626	-27407	2293.1	-0.36541	0.81369	0.44486
0.188	89.626	-27410	2293	-0.36522	0.81359	0.44496
0.19	89.622	-27416	2292.9	-0.36502	0.8135	0.44506
0.192	89.615	-27422	2292.8	-0.36522	0.8135	0.44515
0.194	89.614	-27412	2292.8	-0.36541	0.8135	0.44525
0.196	89.611	-27403	2292.7	-0.36561	0.8135	0.44535
0.198	89.607	-27405	2292.6	-0.3658	0.8135	0.44545
0.2	89.611	-27408	2292.5	-0.366	0.8135	0.44554
0.202	89.611	-27414	2292.4	-0.3661	0.81272	0.44457
0.204	89.604	-27421	2292.3	-0.3662	0.81193	0.44359
0.206	89.603	-27418	2292.2	-0.36629	0.81115	0.44262
0.208	89.607	-27415	2292	-0.36639	0.81037	0.44164
0.21	89.607	-27421	2291.9	-0.36649	0.80959	0.44066
0.212	89.601	-27427	2291.7	-0.36668	0.81028	0.44193
0.214	89.598	-27426	2291.6	-0.36688	0.81096	0.4432
0.216	89.593	-27426	2291.4	-0.36707	0.81164	0.44447
0.218	89.595	-27421	2291.3	-0.36727	0.81232	0.44574
0.22	89.594	-27416	2291.2	-0.36746	0.81301	0.44701
0.222	89.59	-27423	2291.1	-0.36707	0.81291	0.44642
0.224	89.585	-27429	2290.9	-0.36668	0.81281	0.44584
0.226	89.584	-27422	2290.8	-0.36629	0.81272	0.44525
0.228	89.582	-27415	2290.7	-0.3659	0.81262	0.44467
0.23	89.577	-27414	2290.6	-0.36551	0.81252	0.44408
0.232	89.575	-27414	2290.5	-0.36541	0.81301	0.44418
0.234	89.584	-27411	2290.4	-0.36532	0.8135	0.44428
0.236	89.586	-27409	2290.3	-0.36522	0.81398	0.44437
0.238	89.578	-27414	2290.3	-0.36512	0.81447	0.44447
0.24	89.567	-27420	2290.2	-0.36502	0.81496	0.44457
0.242	89.558	-27425	2290.2	-0.3662	0.81408	0.44496
0.244	89.558	-27430	2290.1	-0.36737	0.8132	0.44535
0.246	89.551	-27426	2290	-0.36854	0.81232	0.44574
0.248	89.549	-27422	2290	-0.36971	0.81145	0.44613
0.25	89.555	-27424	2290	-0.37088	0.81057	0.44652
0.252	89.552	-27426	2289.9	-0.37078	0.81106	0.44652
0.254	89.545	-27423	2289.9	-0.37068	0.81154	0.44652
0.256	89.544	-27420	2289.8	-0.37059	0.81203	0.44652
0.258	89.536	-27422	2289.8	-0.37049	0.81252	0.44652
0.26	89.528	-27424	2289.8	-0.37039	0.81301	0.44652
0.262	89.519	-27423	2289.7	-0.36932	0.81311	0.44584
0.264	89.51	-27423	2289.7	-0.36824	0.8132	0.44515
0.266	89.505	-27428	2289.7	-0.36717	0.8133	0.44447
0.268	89.499	-27433	2289.6	-0.3661	0.8134	0.44379
0.27	89.499	-27431	2289.6	-0.36502	0.8135	0.4431
0.272	89.495	-27428	2289.6	-0.36571	0.8135	0.44379
0.274	89.493	-27428	2289.6	-0.36639	0.8135	0.44447
0.276	89.492	-27429	2289.7	-0.36707	0.8135	0.44515
0.278	89.485	-27426	2289.7	-0.36776	0.8135	0.44584
0.28	89.481	-27423	2289.7	-0.36844	0.8135	0.44652
0.282	89.48	-27422	2289.8	-0.36844	0.81291	0.44476
0.284	89.472	-27420	2289.8	-0.36844	0.81232	0.44301
0.286	89.466	-27425	2289.9	-0.36844	0.81174	0.44125
0.288	89.462	-27430	2290	-0.36844	0.81115	0.43949
0.29	89.455	-27432	2290.1	-0.36844	0.81057	0.43774
0.292	89.457	-27434	2290.4	-0.36912	0.81067	0.43783
0.294	89.45	-27427	2290.6	-0.36981	0.81076	0.43793
0.296	89.443	-27421	2290.8	-0.37049	0.81086	0.43803
0.298	89.443	-27421	2291.1	-0.37117	0.81096	0.43813
0.3	89.445	-27421	2291.3	-0.37186	0.81106	0.43822
0.302	89.439	-27424	2291.5	-0.37147	0.81057	0.43813
0.304	89.437	-27426	2291.8	-0.37108	0.81008	0.43803
0.306	89.435	-27428	2292	-0.37068	0.80959	0.43793
0.308	89.439	-27429	2292.3	-0.37029	0.8091	0.43783
0.31	89.436	-27434	2292.6	-0.3699	0.80862	0.43774
0.312	89.437	-27438	2292.8	-0.3702	0.80832	0.43793
0.314	89.439	-27436	2293.1	-0.37049	0.80803	0.43813
0.316	89.44	-27435	2293.3	-0.37078	0.80774	0.43832
0.318	89.437	-27430	2293.5	-0.37108	0.80744	0.43852
0.32	89.432	-27425	2293.7	-0.37137	0.80715	0.43871
0.322	89.447	-27427	2293.9	-0.37098	0.80705	0.43852
0.324	89.457	-27429	2294.1	-0.37059	0.80696	0.43832
0.326	89.45	-27429	2294.3	-0.3702	0.80686	0.43813
0.328	89.45	-27429	2294.5	-0.36981	0.80676	0.43793
0.33	89.45	-27430	2294.7	-0.36942	0.80666	0.43774
0.332	89.454	-27432	2294.9	-0.37059	0.80666	0.43705
0.334	89.467	-27432	2295	-0.37176	0.80666	0.43637
0.336	89.477	-27432	2295.2	-0.37293	0.80666	0.43569
0.338	89.48	-27434	2295.3	-0.3741	0.80666	0.435
0.34	89.485	-27435	2295.4	-0.37527	0.80666	0.43432
0.342	89.488	-27437	2295.5	-0.3743	0.80666	0.43481
0.344	89.498	-27439	2295.6	-0.37332	0.80666	0.4353
0.346	89.506	-27436	2295.6	-0.37234	0.80666	0.43578
0.348	89.512	-27433	2295.6	-0.37137	0.80666	0.43627
0.35	89.526	-27430	2295.6	-0.37039	0.80666	0.43676
0.352	89.538	-27427	2295.6	-0.37029	0.80676	0.43647
0.354	89.544	-27426	2295.7	-0.3702	0.80686	0.43617
0.356	89.553	-27426	2295.7	-0.3701	0.80696	0.43588
0.358	89.564	-27427	2295.6	-0.37	0.80705	0.43559
0.36	89.571	-27428	2295.5	-0.3699	0.80715	0.4353
0.362	89.577	-27430	2295.5	-0.3701	0.80764	0.43598
0.364	89.585	-27432	2295.6	-0.37029	0.80813	0.43666
0.366	89.591	-27431	2295.6	-0.37049	0.80862	0.43735
0.368	89.597	-27431	2295.5	-0.37068	0.8091	0.43803
0.37	89.607	-27430	2295.4	-0.37088	0.80959	0.43871
0.372	89.615	-27428	2295.4	-0.37156	0.80969	0.43783
0.374	89.622	-27425	2295.4	-0.37225	0.80979	0.43696
0.376	89.626	-27422	2295.3	-0.37293	0.80988	0.43608
0.378	89.627	-27421	2295.3	-0.37361	0.80998	0.4352
0.38	89.63	-27420	2295.2	-0.3743	0.81008	0.43432
0.382	89.64	-27420	2295.1	-0.37488	0.80969	0.43403
0.384	89.646	-27420	2295	-0.37547	0.8093	0.43373
0.386	89.649	-27421	2294.9	-0.37605	0.80891	0.43344
0.388	89.652	-27423	2294.8	-0.37664	0.80852	0.43315
0.39	89.657	-27422	2294.7	-0.37722	0.80813	0.43286
0.392	89.659	-27421	2294.6	-0.37596	0.80744	0.43344
0.394	89.672	-27417	2294.5	-0.37469	0.80676	0.43403
0.396	89.678	-27414	2294.4	-0.37342	0.80608	0.43461
0.398	89.676	-27413	2294.4	-0.37215	0.8054	0.4352
0.4	89.678	-27413	2294.3	-0.37088	0.80471	0.43578
0.402	89.693	-27412	2294.2	-0.37117	0.8051	0.43617
0.404	89.691	-27412	2294.2	-0.37147	0.80549	0.43656
0.406	89.693	-27409	2294.1	-0.37176	0.80588	0.43696
0.408	89.697	-27406	2294.1	-0.37205	0.80627	0.43735
0.41	89.693	-27407	2294	-0.37234	0.80666	0.43774
0.412	89.691	-27408	2294	-0.37254	0.80696	0.43705
0.414	89.69	-27405	2294.1	-0.37273	0.80725	0.43637
0.416	89.694	-27402	2294.1	-0.37293	0.80754	0.43569
0.418	89.701	-27399	2294.1	-0.37312	0.80784	0.435
0.42	89.699	-27396	2294.1	-0.37332	0.80813	0.43432
0.422	89.697	-27402	2294.2	-0.37195	0.80901	0.43617
0.424	89.698	-27408	2294.3	-0.37059	0.80988	0.43803
0.426	89.707	-27406	2294.4	-0.36922	0.81076	0.43988
0.428	89.713	-27404	2294.5	-0.36785	0.81164	0.44174
0.43	89.716	-27402	2294.5	-0.36649	0.81252	0.44359
0.432	89.712	-27400	2294.7	-0.36551	0.81359	0.4433
0.434	89.712	-27404	2294.9	-0.36454	0.81467	0.44301
0.436	89.711	-27409	2295.1	-0.36356	0.81574	0.44271
0.438	89.714	-27408	2295.3	-0.36258	0.81681	0.44242
0.44	89.713	-27407	2295.4	-0.36161	0.81789	0.44213
0.442	89.71	-27403	2295.7	-0.36219	0.81828	0.44223
0.444	89.711	-27399	2295.9	-0.36278	0.81867	0.44232
0.446	89.713	-27394	2296.2	-0.36336	0.81906	0.44242
0.448	89.715	-27390	2296.4	-0.36395	0.81945	0.44252
0.45	89.716	-27392	2296.7	-0.36454	0.81984	0.44262
0.452	89.717	-27395	2296.8	-0.36532	0.81867	0.44301
0.454	89.718	-27399	2297	-0.3661	0.8175	0.4434
0.456	89.718	-27402	2297.2	-0.36688	0.81633	0.44379
0.458	89.721	-27407	2297.4	-0.36766	0.81516	0.44418
0.46	89.722	-27411	2297.6	-0.36844	0.81398	0.44457
0.462	89.725	-27411	2297.8	-0.36834	0.81369	0.44496
0.464	89.722	-27410	2298	-0.36824	0.8134	0.44535
0.466	89.715	-27405	2298.2	-0.36815	0.81311	0.44574
0.468	89.718	-27400	2298.4	-0.36805	0.81281	0.44613
0.47	89.723	-27399	2298.6	-0.36795	0.81252	0.44652
0.472	89.721	-27398	2298.7	-0.36776	0.81232	0.44623
0.474	89.72	-27398	2298.8	-0.36756	0.81213	0.44593
0.476	89.72	-27398	2299	-0.36737	0.81193	0.44564
0.478	89.72	-27397	2299.1	-0.36717	0.81174	0.44535
0.48	89.714	-27397	2299.2	-0.36698	0.81154	0.44506
0.482	89.714	-27399	2299.3	-0.36698	0.81193	0.44554
0.484	89.722	-27401	2299.4	-0.36698	0.81232	0.44603
0.486	89.72	-27400	2299.6	-0.36698	0.81272	0.44652
0.488	89.723	-27400	2299.7	-0.36698	0.81311	0.44701
0.49	89.717	-27399	2299.8	-0.36698	0.8135	0.4475
0.492	89.708	-27397	2299.8	-0.36707	0.81272	0.44662
0.494	89.711	-27400	2299.9	-0.36717	0.81193	0.44574
0.496	89.705	-27402	2299.9	-0.36727	0.81115	0.44486
0.498	89.703	-27407	2300	-0.36737	0.81037	0.44398
0.5	89.707	-27412	2300	-0.36746	0.80959	0.4431
0.502	89.705	-27414	2300	-0.36659	0.81047	0.4431
0.504	89.702	-27415	2299.9	-0.36571	0.81135	0.4431
0.506	89.701	-27412	2299.9	-0.36483	0.81223	0.4431
0.508	89.708	-27409	2299.8	-0.36395	0.81311	0.4431
0.51	89.716	-27405	2299.7	-0.36307	0.81398	0.4431
0.512	89.716	-27400	2299.5	-0.36297	0.81359	0.44301
0.514	89.714	-27397	2299.4	-0.36288	0.8132	0.44291
0.516	89.709	-27394	2299.2	-0.36278	0.81281	0.44281
0.518	89.707	-27393	2299	-0.36268	0.81242	0.44271
0.52	89.708	-27392	2298.8	-0.36258	0.81203	0.44262
0.522	89.707	-27393	2298.6	-0.36268	0.81262	0.44193
0.524	89.701	-27394	2298.3	-0.36278	0.8132	0.44125
0.526	89.698	-27395	2298	-0.36288	0.81379	0.44057
0.528	89.695	-27396	2297.7	-0.36297	0.81437	0.43988
0.53	89.696	-27395	2297.5	-0.36307	0.81496	0.4392
0.532	89.7	-27394	2297.2	-0.36317	0.81447	0.43998
0.534	89.702	-27397	2296.9	-0.36327	0.81398	0.44076
0.536	89.708	-27400	2296.6	-0.36336	0.8135	0.44154
0.538	89.712	-27392	2296.3	-0.36346	0.81301	0.44232
0.54	89.71	-27385	2296	-0.36356	0.81252	0.4431
0.542	89.706	-27387	2295.8	-0.36385	0.81262	0.4433
0.544	89.704	-27389	2295.6	-0.36415	0.81272	0.44349
0.546	89.702	-27389	2295.4	-0.36444	0.81281	0.44369
0.548	89.701	-27388	2295.2	-0.36473	0.81291	0.44388
0.55	89.701	-27389	2294.9	-0.36502	0.81301	0.44408
0.552	89.702	-27391	2294.8	-0.36454	0.8133	0.44418
0.554	89.703	-27394	2294.6	-0.36405	0.81359	0.44428
0.556	89.706	-27397	2294.5	-0.36356	0.81389	0.44437
0.558	89.713	-27398	2294.3	-0.36307	0.81418	0.44447
0.56	89.716	-27399	2294.2	-0.36258	0.81447	0.44457
0.562	89.712	-27400	2294.1	-0.36366	0.81389	0.4431
0.564	89.707	-27402	2294	-0.36473	0.8133	0.44164
0.566	89.703	-27402	2293.9	-0.3658	0.81272	0.44018
0.568	89.703	-27402	2293.9	-0.36688	0.81213	0.43871
0.57	89.707	-27403	2293.8	-0.36795	0.81154	0.43725
0.572	89.711	-27403	2293.9	-0.36942	0.81135	0.43725
0.574	89.713	-27403	2293.9	-0.37088	0.81115	0.43725
0.576	89.71	-27404	2293.9	-0.37234	0.81096	0.43725
0.578	89.708	-27402	2294	-0.37381	0.81076	0.43725
0.58	89.702	-27400	2294.2	-0.37527	0.81057	0.43725
0.582	89.698	-27402	2294.3	-0.37352	0.81096	0.43783
0.584	89.709	-27403	2294.4	-0.37176	0.81135	0.43842
0.586	89.711	-27407	2294.5	-0.37	0.81174	0.439
0.588	89.708	-27412	2294.6	-0.36824	0.81213	0.43959
0.59	89.72	-27409	2294.7	-0.36649	0.81252	0.44018
0.592	89.731	-27406	2294.8	-0.36717	0.81223	0.44125
0.594	89.727	-27403	2295	-0.36785	0.81193	0.44232
0.596	89.726	-27399	2295.2	-0.36854	0.81164	0.4434
0.598	89.725	-27405	2295.3	-0.36922	0.81135	0.44447
0.6	89.73	-27412	2295.5	-0.3699	0.81106	0.44554
0.602	89.733	-27410	2295.7	-0.36912	0.81106	0.44437
0.604	89.733	-27409	2295.9	-0.36834	0.81106	0.4432
0.606	89.735	-27409	2296.1	-0.36756	0.81106	0.44203
0.608	89.734	-27409	2296.2	-0.36678	0.81106	0.44086
0.61	89.737	-27410	2296.4	-0.366	0.81106	0.43969
0.612	89.74	-27411	2296.5	-0.3658	0.81174	0.44037
0.614	89.747	-27407	2296.7	-0.36561	0.81242	0.44105
0.616	89.754	-27403	2296.9	-0.36541	0.81311	0.44174
0.618	89.755	-27402	2297.1	-0.36522	0.81379	0.44242
0.62	89.75	-27401	2297.2	-0.36502	0.81447	0.4431
0.622	89.749	-27401	2297.4	-0.3661	0.8132	0.44193
0.624	89.751	-27402	2297.6	-0.36717	0.81193	0.44076
0.626	89.753	-27405	2297.7	-0.36824	0.81067	0.43959
0.628	89.75	-27407	2297.9	-0.36932	0.8094	0.43842
0.63	89.744	-27402	2298	-0.37039	0.80813	0.43725
0.632	89.75	-27397	2298.1	-0.36932	0.80862	0.43793
0.634	89.756	-27396	2298.2	-0.36824	0.8091	0.43861
0.636	89.758	-27394	2298.3	-0.36717	0.80959	0.4393
0.638	89.762	-27397	2298.5	-0.3661	0.81008	0.43998
0.64	89.762	-27399	2298.6	-0.36502	0.81057	0.44066
0.642	89.757	-27405	2298.7	-0.36512	0.81106	0.44184
0.644	89.755	-27410	2298.8	-0.36522	0.81154	0.44301
0.646	89.76	-27405	2299	-0.36532	0.81203	0.44418
0.648	89.762	-27399	2299.1	-0.36541	0.81252	0.44535
0.65	89.763	-27397	2299.2	-0.36551	0.81301	0.44652
0.652	89.757	-27394	2299.3	-0.3662	0.81262	0.44642
0.654	89.758	-27398	2299.3	-0.36688	0.81223	0.44632
0.656	89.76	-27402	2299.4	-0.36756	0.81184	0.44623
0.658	89.76	-27401	2299.5	-0.36824	0.81145	0.44613
0.66	89.753	-27400	2299.6	-0.36893	0.81106	0.44603
0.662	89.747	-27401	2299.6	-0.36844	0.81135	0.44545
0.664	89.757	-27402	2299.6	-0.36795	0.81164	0.44486
0.666	89.761	-27400	2299.6	-0.36746	0.81193	0.44428
0.668	89.763	-27398	2299.6	-0.36698	0.81223	0.44369
0.67	89.768	-27400	2299.6	-0.36649	0.81252	0.4431
0.672	89.77	-27402	2299.7	-0.36639	0.81272	0.44359
0.674	89.771	-27402	2299.7	-0.36629	0.81291	0.44408
0.676	89.774	-27403	2299.7	-0.3662	0.81311	0.44457
0.678	89.769	-27400	2299.6	-0.3661	0.8133	0.44506
0.68	89.762	-27397	2299.6	-0.366	0.8135	0.44554
0.682	89.764	-27401	2299.5	-0.3659	0.81379	0.44545
0.684	89.767	-27404	2299.4	-0.3658	0.81408	0.44535
0.686	89.762	-27401	2299.3	-0.36571	0.81437	0.44525
0.688	89.759	-27397	2299.2	-0.36561	0.81467	0.44515
0.69	89.762	-27400	2299.1	-0.36551	0.81496	0.44506
0.692	89.77	-27403	2298.9	-0.36532	0.81467	0.44486
0.694	89.773	-27404	2298.7	-0.36512	0.81437	0.44467
0.696	89.775	-27405	2298.6	-0.36493	0.81408	0.44447
0.698	89.77	-27400	2298.4	-0.36473	0.81379	0.44428
0.7	89.766	-27394	2298.2	-0.36454	0.8135	0.44408
0.702	89.768	-27404	2298	-0.36463	0.81311	0.44388
0.704	89.768	-27414	2297.8	-0.36473	0.81272	0.44369
0.706	89.763	-27406	2297.6	-0.36483	0.81232	0.44349
0.708	89.759	-27398	2297.4	-0.36493	0.81193	0.4433
0.71	89.757	-27398	2297.3	-0.36502	0.81154	0.4431
0.712	89.757	-27397	2297.1	-0.36571	0.81174	0.44379
0.714	89.764	-27396	2296.9	-0.36639	0.81193	0.44447
0.716	89.773	-27395	2296.8	-0.36707	0.81213	0.44515
0.718	89.775	-27397	2296.6	-0.36776	0.81232	0.44584
0.72	89.772	-27399	2296.4	-0.36844	0.81252	0.44652
0.722	89.767	-27397	2296.3	-0.36824	0.81223	0.44506
0.724	89.766	-27395	2296.2	-0.36805	0.81193	0.44359
0.726	89.767	-27400	2296	-0.36785	0.81164	0.44213
0.728	89.768	-27404	2295.9	-0.36766	0.81135	0.44066
0.73	89.764	-27400	2295.8	-0.36746	0.81106	0.4392
0.732	89.772	-27397	2295.7	-0.36756	0.81193	0.44027
0.734	89.776	-27400	2295.7	-0.36766	0.81281	0.44135
0.736	89.774	-27403	2295.6	-0.36776	0.81369	0.44242
0.738	89.767	-27402	2295.5	-0.36785	0.81457	0.44349
0.74	89.769	-27401	2295.5	-0.36795	0.81545	0.44457
0.742	89.774	-27399	2295.4	-0.36746	0.81486	0.44379
0.744	89.774	-27398	2295.4	-0.36698	0.81428	0.44301
0.746	89.775	-27400	2295.4	-0.36649	0.81369	0.44223
0.748	89.782	-27403	2295.4	-0.366	0.81311	0.44144
0.75	89.789	-27403	2295.3	-0.36551	0.81252	0.44066
0.752	89.79	-27402	2295.3	-0.36551	0.81252	0.44144
0.754	89.786	-27397	2295.3	-0.36551	0.81252	0.44223
0.756	89.778	-27391	2295.3	-0.36551	0.81252	0.44301
0.758	89.786	-27394	2295.3	-0.36551	0.81252	0.44379
0.76	89.79	-27397	2295.3	-0.36551	0.81252	0.44457
0.762	89.783	-27398	2295.3	-0.3662	0.81184	0.44437
0.764	89.782	-27400	2295.3	-0.36688	0.81115	0.44418
0.766	89.785	-27404	2295.4	-0.36756	0.81047	0.44398
0.768	89.787	-27408	2295.4	-0.36824	0.80979	0.44379
0.77	89.784	-27400	2295.4	-0.36893	0.8091	0.44359
0.772	89.786	-27391	2295.4	-0.36854	0.81008	0.44369
0.774	89.789	-27398	2295.4	-0.36815	0.81106	0.44379
0.776	89.799	-27404	2295.4	-0.36776	0.81203	0.44388
0.778	89.801	-27406	2295.4	-0.36737	0.81301	0.44398
0.78	89.794	-27408	2295.4	-0.36698	0.81398	0.44408
0.782	89.792	-27403	2295.4	-0.36639	0.81359	0.44388
0.784	89.793	-27398	2295.4	-0.3658	0.8132	0.44369
0.786	89.789	-27399	2295.3	-0.36522	0.81281	0.44349
0.788	89.784	-27401	2295.3	-0.36463	0.81242	0.4433
0.79	89.779	-27397	2295.3	-0.36405	0.81203	0.4431
0.792	89.771	-27393	2295.2	-0.36346	0.81184	0.4431
0.794	89.764	-27397	2295.2	-0.36288	0.81164	0.4431
0.796	89.759	-27402	2295.2	-0.36229	0.81145	0.4431
0.798	89.753	-27402	2295.2	-0.36171	0.81125	0.4431
0.8	89.752	-27402	2295.2	-0.36112	0.81106	0.4431
0.802	89.755	-27404	2295.1	-0.36249	0.81067	0.44291
0.804	89.752	-27406	2295.1	-0.36385	0.81028	0.44271
0.806	89.753	-27399	2295	-0.36522	0.80988	0.44252
0.808	89.758	-27391	2295	-0.36659	0.80949	0.44232
0.81	89.763	-27404	2294.9	-0.36795	0.8091	0.44213
0.812	89.757	-27417	2294.9	-0.36834	0.80959	0.44291
0.814	89.751	-27416	2294.8	-0.36873	0.81008	0.44369
0.816	89.757	-27415	2294.7	-0.36912	0.81057	0.44447
0.818	89.753	-27408	2294.7	-0.36951	0.81106	0.44525
0.82	89.748	-27402	2294.7	-0.3699	0.81154	0.44603
0.822	89.747	-27407	2294.6	-0.36883	0.81203	0.44593
0.824	89.737	-27411	2294.5	-0.36776	0.81252	0.44584
0.826	89.734	-27408	2294.5	-0.36668	0.81301	0.44574
0.828	89.738	-27405	2294.5	-0.36561	0.8135	0.44564
0.83	89.738	-27398	2294.5	-0.36454	0.81398	0.44554
0.832	89.745	-27392	2294.4	-0.36463	0.81389	0.44506
0.834	89.762	-27394	2294.3	-0.36473	0.81379	0.44457
0.836	89.755	-27397	2294.3	-0.36483	0.81369	0.44408
0.838	89.759	-27404	2294.2	-0.36493	0.81359	0.44359
0.84	89.747	-27410	2294.2	-0.36502	0.8135	0.4431
0.842	89.746	-27407	2294.2	-0.36571	0.81281	0.4433
0.844	89.746	-27404	2294.2	-0.36639	0.81213	0.44349
0.846	89.735	-27405	2294.1	-0.36707	0.81145	0.44369
0.848	89.733	-27407	2294.1	-0.36776	0.81076	0.44388
0.85	89.739	-27401	2294.1	-0.36844	0.81008	0.44408
0.852	89.746	-27396	2294.1	-0.36776	0.81047	0.44428
0.854	89.758	-27404	2294	-0.36707	0.81086	0.44447
0.856	89.771	-27411	2294.1	-0.36639	0.81125	0.44467
0.858	89.782	-27408	2294.1	-0.36571	0.81164	0.44486
0.86	89.791	-27405	2294.1	-0.36502	0.81203	0.44506
0.862	89.795	-27403	2294.1	-0.36483	0.81213	0.44486
0.864	89.793	-27401	2294	-0.36463	0.81223	0.44467
0.866	89.802	-27406	2294	-0.36444	0.81232	0.44447
0.868	89.818	-27411	2294	-0.36424	0.81242	0.44428
0.87	89.826	-27411	2294	-0.36405	0.81252	0.44408
0.872	89.819	-27412	2294	-0.36454	0.81272	0.44379
0.874	89.819	-27410	2294	-0.36502	0.81291	0.44349
0.876	89.823	-27409	2294	-0.36551	0.81311	0.4432
0.878	89.822	-27411	2294	-0.366	0.8133	0.44291
0.88	89.823	-27414	2293.9	-0.36649	0.8135	0.44262
0.882	89.823	-27406	2293.9	-0.3659	0.81408	0.4432
0.884	89.825	-27398	2293.8	-0.36532	0.81467	0.44379
0.886	89.827	-27404	2293.8	-0.36473	0.81525	0.44437
0.888	89.825	-27409	2293.7	-0.36415	0.81584	0.44496
0.89	89.824	-27409	2293.7	-0.36356	0.81642	0.44554
0.892	89.821	-27410	2293.6	-0.36395	0.81633	0.44525
0.894	89.814	-27407	2293.5	-0.36434	0.81623	0.44496
0.896	89.806	-27405	2293.4	-0.36473	0.81613	0.44467
0.898	89.804	-27405	2293.3	-0.36512	0.81603	0.44437
0.9	89.807	-27406	2293.3	-0.36551	0.81594	0.44408
0.902	89.809	-27405	2293.2	-0.36522	0.81545	0.44388
0.904	89.813	-27405	2293.2	-0.36493	0.81496	0.44369
0.906	89.818	-27408	2293.2	-0.36463	0.81447	0.44349
0.908	89.816	-27411	2293.1	-0.36434	0.81398	0.4433
0.91	89.811	-27413	2293	-0.36405	0.8135	0.4431
0.912	89.811	-27414	2293	-0.36483	0.81301	0.4433
0.914	89.812	-27413	2293	-0.36561	0.81252	0.44349
0.916	89.819	-27411	2293	-0.36639	0.81203	0.44369
0.918	89.823	-27414	2293	-0.36717	0.81154	0.44388
0.92	89.833	-27417	2292.9	-0.36795	0.81106	0.44408
0.922	89.843	-27418	2292.9	-0.36834	0.81008	0.44349
0.924	89.848	-27420	2292.9	-0.36873	0.8091	0.44291
0.926	89.843	-27415	2292.9	-0.36912	0.80813	0.44232
0.928	89.843	-27411	2292.9	-0.36951	0.80715	0.44174
0.93	89.846	-27422	2292.8	-0.3699	0.80618	0.44115
0.932	89.843	-27432	2292.8	-0.36971	0.80647	0.44027
0.934	89.845	-27427	2292.8	-0.36951	0.80676	0.4394
0.936	89.86	-27421	2292.8	-0.36932	0.80705	0.43852
0.938	89.865	-27414	2292.7	-0.36912	0.80735	0.43764
0.94	89.863	-27407	2292.6	-0.36893	0.80764	0.43676
0.942	89.853	-27412	2292.6	-0.36922	0.80715	0.43686
0.944	89.832	-27417	2292.5	-0.36951	0.80666	0.43696
0.946	89.796	-27419	2292.5	-0.36981	0.80618	0.43705
0.948	89.745	-27421	2292.5	-0.3701	0.80569	0.43715
0.95	89.694	-27420	2292.4	-0.37039	0.8052	0.43725
0.952	89.643	-27420	2292.3	-0.37098	0.80598	0.43725
0.954	89.587	-27412	2292.3	-0.37156	0.80676	0.43725
0.956	89.522	-27404	2292.2	-0.37215	0.80754	0.43725
0.958	89.455	-27409	2292.1	-0.37273	0.80832	0.43725
0.96	89.381	-27414	2292	-0.37332	0.8091	0.43725
0.962	89.303	-27414	2291.9	-0.37312	0.80852	0.43735
0.964	89.234	-27413	2291.9	-0.37293	0.80793	0.43744
0.966	89.179	-27412	2291.8	-0.37273	0.80735	0.43754
0.968	89.142	-27411	2291.7	-0.37254	0.80676	0.43764
0.97	89.119	-27411	2291.6	-0.37234	0.80618	0.43774
0.972	89.108	-27411	2291.5	-0.37244	0.80715	0.43813
0.974	89.119	-27412	2291.4	-0.37254	0.80813	0.43852
0.976	89.153	-27413	2291.3	-0.37264	0.8091	0.43891
0.978	89.209	-27413	2291.2	-0.37273	0.81008	0.4393
0.98	89.283	-27412	2291	-0.37283	0.81106	0.43969
0.982	89.382	-27417	2291	-0.37117	0.81203	0.43998
0.984	89.503	-27421	2290.9	-0.36951	0.81301	0.44027
0.986	89.631	-27425	2290.8	-0.36785	0.81398	0.44057
0.988	89.739	-27429	2290.7	-0.3662	0.81496	0.44086
0.99	89.793	-27423	2290.5	-0.36454	0.81594	0.44115
0.992	89.812	-27417	2290.5	-0.36463	0.81555	0.44174
0.994	89.815	-27417	2290.4	-0.36473	0.81516	0.44232
0.996	89.816	-27418	2290.4	-0.36483	0.81476	0.44291
0.998	89.829	-27418	2290.3	-0.36493	0.81437	0.44349
1	89.835	-27417	2290.2	-0.36502	0.81398	0.44408
1.002	89.837	-27417	2290.2	-0.36561	0.8134	0.44418
1.004	89.829	-27416	2290.1	-0.3662	0.81281	0.44428
1.006	89.834	-27415	2290.1	-0.36678	0.81223	0.44437
1.008	89.835	-27414	2290.1	-0.36737	0.81164	0.44447
1.01	89.83	-27417	2290.1	-0.36795	0.81106	0.44457
1.012	89.827	-27421	2290.1	-0.36717	0.81154	0.44447
1.014	89.826	-27423	2290.2	-0.36639	0.81203	0.44437
1.016	89.817	-27426	2290.2	-0.36561	0.81252	0.44428
1.018	89.813	-27427	2290.3	-0.36483	0.81301	0.44418
1.02	89.807	-27428	2290.3	-0.36405	0.8135	0.44408
1.022	89.805	-27427	2290.4	-0.36463	0.81369	0.44398
1.024	89.81	-27427	2290.4	-0.36522	0.81389	0.44388
1.026	89.814	-27424	2290.5	-0.3658	0.81408	0.44379
1.028	89.805	-27421	2290.5	-0.36639	0.81428	0.44369
1.03	89.801	-27420	2290.5	-0.36698	0.81447	0.44359
1.032	89.802	-27419	2290.5	-0.3662	0.81476	0.44369
1.034	89.801	-27422	2290.5	-0.36541	0.81506	0.44379
1.036	89.805	-27425	2290.5	-0.36463	0.81535	0.44388
1.038	89.806	-27423	2290.5	-0.36385	0.81564	0.44398
1.04	89.805	-27421	2290.4	-0.36307	0.81594	0.44408
1.042	89.808	-27420	2290.4	-0.36356	0.81476	0.4432
1.044	89.809	-27419	2290.3	-0.36405	0.81359	0.44232
1.046	89.809	-27427	2290.3	-0.36454	0.81242	0.44144
1.048	89.809	-27434	2290.2	-0.36502	0.81125	0.44057
1.05	89.81	-27436	2290.1	-0.36551	0.81008	0.43969
1.052	89.807	-27438	2290.1	-0.36483	0.81076	0.43969
1.054	89.798	-27437	2290.1	-0.36415	0.81145	0.43969
1.056	89.795	-27437	2290.1	-0.36346	0.81213	0.43969
1.058	89.797	-27437	2290	-0.36278	0.81281	0.43969
1.06	89.796	-27438	2290	-0.3621	0.8135	0.43969
1.062	89.791	-27438	2290	-0.36249	0.81369	0.44027
1.064	89.788	-27438	2289.9	-0.36288	0.81389	0.44086
1.066	89.793	-27437	2289.9	-0.36327	0.81408	0.44144
1.068	89.791	-27435	2289.8	-0.36366	0.81428	0.44203
1.07	89.781	-27436	2289.7	-0.36405	0.81447	0.44262
1.072	89.787	-27438	2289.6	-0.36473	0.81418	0.44213
1.074	89.785	-27437	2289.6	-0.36541	0.81389	0.44164
1.076	89.783	-27435	2289.5	-0.3661	0.81359	0.44115
1.078	89.786	-27435	2289.4	-0.36678	0.8133	0.44066
1.08	89.776	-27435	2289.3	-0.36746	0.81301	0.44018
1.082	89.771	-27435	2289.3	-0.36639	0.8134	0.44047
1.084	89.765	-27435	2289.2	-0.36532	0.81379	0.44076
1.086	89.763	-27432	2289.1	-0.36424	0.81418	0.44105
1.088	89.761	-27430	2289	-0.36317	0.81457	0.44135
1.09	89.77	-27429	2288.9	-0.3621	0.81496	0.44164
1.092	89.762	-27428	2288.7	-0.36229	0.81408	0.44125
1.094	89.76	-27431	2288.6	-0.36249	0.8132	0.44086
1.096	89.757	-27435	2288.5	-0.36268	0.81232	0.44047
1.098	89.752	-27437	2288.5	-0.36288	0.81145	0.44008
1.1	89.766	-27440	2288.4	-0.36307	0.81057	0.43969
1.102	89.764	-27439	2288.4	-0.36336	0.81154	0.44076
1.104	89.748	-27438	2288.3	-0.36366	0.81252	0.44184
1.106	89.741	-27439	2288.3	-0.36395	0.8135	0.44291
1.108	89.736	-27440	2288.3	-0.36424	0.81447	0.44398
1.11	89.732	-27439	2288.3	-0.36454	0.81545	0.44506
1.112	89.728	-27439	2288.3	-0.36561	0.81467	0.44535
1.114	89.725	-27434	2288.3	-0.36668	0.81389	0.44564
1.116	89.722	-27429	2288.3	-0.36776	0.81311	0.44593
1.118	89.719	-27427	2288.3	-0.36883	0.81232	0.44623
1.12	89.711	-27425	2288.3	-0.3699	0.81154	0.44652
1.122	89.704	-27426	2288.3	-0.36912	0.81193	0.44574
1.124	89.704	-27426	2288.3	-0.36834	0.81232	0.44496
1.126	89.704	-27427	2288.3	-0.36756	0.81272	0.44418
1.128	89.694	-27428	2288.3	-0.36678	0.81311	0.4434
1.13	89.689	-27438	2288.3	-0.366	0.8135	0.44262
1.132	89.697	-27447	2288.3	-0.36668	0.81232	0.44174
1.134	89.702	-27447	2288.3	-0.36737	0.81115	0.44086
1.136	89.696	-27447	2288.3	-0.36805	0.80998	0.43998
1.138	89.691	-27443	2288.3	-0.36873	0.80881	0.4391
1.14	89.683	-27440	2288.2	-0.36942	0.80764	0.43822
1.142	89.67	-27437	2288.2	-0.37029	0.80793	0.43764
1.144	89.663	-27434	2288.2	-0.37117	0.80823	0.43705
1.146	89.659	-27436	2288.2	-0.37205	0.80852	0.43647
1.148	89.655	-27438	2288.2	-0.37293	0.80881	0.43588
1.15	89.656	-27440	2288.1	-0.37381	0.8091	0.4353
1.152	89.652	-27443	2288.2	-0.37352	0.80852	0.43539
1.154	89.642	-27442	2288.2	-0.37322	0.80793	0.43549
1.156	89.634	-27441	2288.3	-0.37293	0.80735	0.43559
1.158	89.627	-27441	2288.4	-0.37264	0.80676	0.43569
1.16	89.625	-27441	2288.5	-0.37234	0.80618	0.43578
1.162	89.623	-27441	2288.6	-0.37108	0.80725	0.43686
1.164	89.614	-27441	2288.7	-0.36981	0.80832	0.43793
1.166	89.612	-27442	2288.9	-0.36854	0.8094	0.439
1.168	89.601	-27443	2289.2	-0.36727	0.81047	0.44008
1.17	89.595	-27443	2289.5	-0.366	0.81154	0.44115
1.172	89.595	-27444	2289.7	-0.3659	0.81281	0.44223
1.174	89.597	-27443	2289.9	-0.3658	0.81408	0.4433
1.176	89.594	-27443	2290.2	-0.36571	0.81535	0.44437
1.178	89.584	-27441	2290.5	-0.36561	0.81662	0.44545
1.18	89.589	-27439	2290.8	-0.36551	0.81789	0.44652
1.182	89.596	-27440	2291.1	-0.36551	0.81672	0.44525
1.184	89.598	-27440	2291.4	-0.36551	0.81555	0.44398
1.186	89.604	-27442	2291.6	-0.36551	0.81437	0.44271
1.188	89.602	-27444	2291.9	-0.36551	0.8132	0.44144
1.19	89.599	-27444	2292.2	-0.36551	0.81203	0.44018
1.192	89.607	-27443	2292.3	-0.36522	0.81252	0.44105
1.194	89.61	-27443	2292.5	-0.36493	0.81301	0.44193
1.196	89.615	-27443	2292.7	-0.36463	0.8135	0.44281
1.198	89.612	-27440	2293	-0.36434	0.81398	0.44369
1.2	89.615	-27437	2293.3	-0.36405	0.81447	0.44457
1.202	89.623	-27442	2293.4	-0.36366	0.81467	0.44457
1.204	89.633	-27447	2293.6	-0.36327	0.81486	0.44457
1.206	89.64	-27447	2293.8	-0.36288	0.81506	0.44457
1.208	89.643	-27447	2294	-0.36249	0.81525	0.44457
1.21	89.654	-27447	2294.1	-0.3621	0.81545	0.44457
1.212	89.664	-27447	2294.3	-0.36249	0.81516	0.44388
1.214	89.668	-27446	2294.4	-0.36288	0.81486	0.4432
1.216	89.67	-27446	2294.6	-0.36327	0.81457	0.44252
1.218	89.674	-27441	2294.7	-0.36366	0.81428	0.44184
1.22	89.682	-27436	2294.7	-0.36405	0.81398	0.44115
1.222	89.694	-27436	2294.9	-0.36415	0.81389	0.44193
1.224	89.706	-27437	2295	-0.36424	0.81379	0.44271
1.226	89.715	-27436	2295.1	-0.36434	0.81369	0.44349
1.228	89.72	-27436	2295.2	-0.36444	0.81359	0.44428
1.23	89.723	-27440	2295.3	-0.36454	0.8135	0.44506
1.232	89.728	-27444	2295.4	-0.36454	0.8133	0.44428
1.234	89.737	-27444	2295.4	-0.36454	0.81311	0.44349
1.236	89.75	-27444	2295.5	-0.36454	0.81291	0.44271
1.238	89.759	-27442	2295.6	-0.36454	0.81272	0.44193
1.24	89.761	-27441	2295.7	-0.36454	0.81252	0.44115
1.242	89.766	-27439	2295.7	-0.36502	0.81262	0.44154
1.244	89.773	-27438	2295.7	-0.36551	0.81272	0.44193
1.246	89.778	-27438	2295.7	-0.366	0.81281	0.44232
1.248	89.792	-27438	2295.7	-0.36649	0.81291	0.44271
1.25	89.804	-27441	2295.7	-0.36698	0.81301	0.4431
1.252	89.806	-27443	2295.7	-0.3662	0.8132	0.44301
1.254	89.811	-27440	2295.7	-0.36541	0.8134	0.44291
1.256	89.82	-27436	2295.7	-0.36463	0.81359	0.44281
1.258	89.816	-27437	2295.7	-0.36385	0.81379	0.44271
1.26	89.818	-27438	2295.7	-0.36307	0.81398	0.44262
1.262	89.826	-27436	2295.6	-0.36376	0.8134	0.44242
1.264	89.831	-27435	2295.6	-0.36444	0.81281	0.44223
1.266	89.834	-27434	2295.6	-0.36512	0.81223	0.44203
1.268	89.834	-27434	2295.5	-0.3658	0.81164	0.44184
1.27	89.841	-27429	2295.4	-0.36649	0.81106	0.44164
1.272	89.843	-27425	2295.4	-0.36649	0.81164	0.44232
1.274	89.847	-27427	2295.4	-0.36649	0.81223	0.44301
1.276	89.846	-27429	2295.3	-0.36649	0.81281	0.44369
1.278	89.848	-27430	2295.3	-0.36649	0.8134	0.44437
1.28	89.85	-27431	2295.2	-0.36649	0.81398	0.44506
1.282	89.851	-27429	2295.2	-0.36541	0.81311	0.44447
1.284	89.853	-27427	2295.2	-0.36434	0.81223	0.44388
1.286	89.848	-27429	2295.2	-0.36327	0.81135	0.4433
1.288	89.855	-27431	2295.2	-0.36219	0.81047	0.44271
1.29	89.862	-27427	2295.2	-0.36112	0.80959	0.44213
1.292	89.859	-27424	2295.2	-0.36229	0.81057	0.44271
1.294	89.86	-27419	2295.3	-0.36346	0.81154	0.4433
1.296	89.861	-27414	2295.3	-0.36463	0.81252	0.44388
1.298	89.859	-27416	2295.3	-0.3658	0.8135	0.44447
1.3	89.857	-27418	2295.4	-0.36698	0.81447	0.44506
1.302	89.859	-27416	2295.4	-0.36737	0.81369	0.44457
1.304	89.86	-27413	2295.5	-0.36776	0.81291	0.44408
1.306	89.861	-27414	2295.6	-0.36815	0.81213	0.44359
1.308	89.861	-27415	2295.7	-0.36854	0.81135	0.4431
1.31	89.862	-27415	2295.8	-0.36893	0.81057	0.44262
1.312	89.862	-27415	2295.8	-0.36805	0.81193	0.44291
1.314	89.859	-27417	2295.9	-0.36717	0.8133	0.4432
1.316	89.857	-27419	2296	-0.36629	0.81467	0.44349
1.318	89.858	-27412	2296.1	-0.36541	0.81603	0.44379
1.32	89.857	-27405	2296.2	-0.36454	0.8174	0.44408
1.322	89.856	-27413	2296.4	-0.36512	0.81555	0.4432
1.324	89.86	-27421	2296.5	-0.36571	0.81369	0.44232
1.326	89.863	-27421	2296.7	-0.36629	0.81184	0.44144
1.328	89.859	-27421	2296.8	-0.36688	0.80998	0.44057
1.33	89.854	-27418	2296.9	-0.36746	0.80813	0.43969
1.332	89.863	-27415	2297	-0.36834	0.80784	0.4392
1.334	89.847	-27414	2297.1	-0.36922	0.80754	0.43871
1.336	89.84	-27412	2297.2	-0.3701	0.80725	0.43822
1.338	89.85	-27412	2297.4	-0.37098	0.80696	0.43774
1.34	89.857	-27411	2297.5	-0.37186	0.80666	0.43725
1.342	89.856	-27410	2297.6	-0.37147	0.80686	0.43764
1.344	89.865	-27409	2297.8	-0.37108	0.80705	0.43803
1.346	89.869	-27417	2297.9	-0.37068	0.80725	0.43842
1.348	89.858	-27425	2298.1	-0.37029	0.80744	0.43881
1.35	89.851	-27421	2298.3	-0.3699	0.80764	0.4392
1.352	89.852	-27418	2298.4	-0.37098	0.80803	0.43861
1.354	89.855	-27414	2298.5	-0.37205	0.80842	0.43803
1.356	89.85	-27410	2298.6	-0.37312	0.80881	0.43744
1.358	89.85	-27416	2298.7	-0.3742	0.8092	0.43686
1.36	89.857	-27422	2298.7	-0.37527	0.80959	0.43627
1.362	89.856	-27418	2298.8	-0.37508	0.8094	0.43617
1.364	89.849	-27415	2298.9	-0.37488	0.8092	0.43608
1.366	89.846	-27412	2298.9	-0.37469	0.80901	0.43598
1.368	89.847	-27408	2299	-0.37449	0.80881	0.43588
1.37	89.852	-27411	2299.1	-0.3743	0.80862	0.43578
1.372	89.855	-27414	2299.2	-0.37332	0.80813	0.43666
1.374	89.854	-27416	2299.2	-0.37234	0.80764	0.43754
1.376	89.858	-27419	2299.2	-0.37137	0.80715	0.43842
1.378	89.857	-27423	2299.2	-0.37039	0.80666	0.4393
1.38	89.856	-27428	2299.3	-0.36942	0.80618	0.44018
1.382	89.856	-27426	2299.2	-0.36815	0.80784	0.44057
1.384	89.855	-27424	2299.1	-0.36688	0.80949	0.44096
1.386	89.852	-27421	2299	-0.36561	0.81115	0.44135
1.388	89.845	-27418	2298.9	-0.36434	0.81281	0.44174
1.39	89.843	-27420	2298.7	-0.36307	0.81447	0.44213
1.392	89.847	-27423	2298.5	-0.36327	0.81418	0.44213
1.394	89.847	-27422	2298.2	-0.36346	0.81389	0.44213
1.396	89.846	-27422	2298	-0.36366	0.81359	0.44213
1.398	89.843	-27418	2297.8	-0.36385	0.8133	0.44213
1.4	89.848	-27414	2297.6	-0.36405	0.81301	0.44213
1.402	89.851	-27417	2297.4	-0.36366	0.8133	0.44252
1.404	89.846	-27420	2297.2	-0.36327	0.81359	0.44291
1.406	89.848	-27417	2297	-0.36288	0.81389	0.4433
1.408	89.847	-27414	2296.8	-0.36249	0.81418	0.44369
1.41	89.842	-27419	2296.6	-0.3621	0.81447	0.44408
1.412	89.842	-27424	2296.4	-0.3621	0.81418	0.44379
1.414	89.843	-27419	2296.3	-0.3621	0.81389	0.44349
1.416	89.843	-27414	2296.1	-0.3621	0.81359	0.4432
1.418	89.846	-27408	2295.9	-0.3621	0.8133	0.44291
1.42	89.854	-27403	2295.8	-0.3621	0.81301	0.44262
1.422	89.851	-27409	2295.6	-0.36307	0.81281	0.4431
1.424	89.849	-27416	2295.4	-0.36405	0.81262	0.44359
1.426	89.842	-27423	2295.2	-0.36502	0.81242	0.44408
1.428	89.85	-27431	2295.1	-0.366	0.81223	0.44457
1.43	89.845	-27430	2294.9	-0.36698	0.81203	0.44506
1.432	89.835	-27428	2294.7	-0.3659	0.81281	0.44447
1.434	89.84	-27421	2294.6	-0.36483	0.81359	0.44388
1.436	89.841	-27413	2294.4	-0.36376	0.81437	0.4433
1.438	89.841	-27418	2294.3	-0.36268	0.81516	0.44271
1.44	89.843	-27423	2294.2	-0.36161	0.81594	0.44213
1.442	89.842	-27424	2294.2	-0.36229	0.81603	0.44242
1.444	89.847	-27425	2294.1	-0.36297	0.81613	0.44271
1.446	89.839	-27421	2294.1	-0.36366	0.81623	0.44301
1.448	89.837	-27418	2294.1	-0.36434	0.81633	0.4433
1.45	89.842	-27419	2294.1	-0.36502	0.81642	0.44359
1.452	89.844	-27421	2294.1	-0.36571	0.81555	0.4433
1.454	89.852	-27420	2294.2	-0.36639	0.81467	0.44301
1.456	89.856	-27420	2294.2	-0.36707	0.81379	0.44271
1.458	89.86	-27416	2294.2	-0.36776	0.81291	0.44242
1.46	89.857	-27412	2294.2	-0.36844	0.81203	0.44213
1.462	89.856	-27409	2294.2	-0.36805	0.81252	0.44281
1.464	89.856	-27406	2294.2	-0.36766	0.81301	0.44349
1.466	89.855	-27412	2294.3	-0.36727	0.8135	0.44418
1.468	89.855	-27419	2294.3	-0.36688	0.81398	0.44486
1.47	89.856	-27414	2294.4	-0.36649	0.81447	0.44554
1.472	89.858	-27409	2294.4	-0.36668	0.8134	0.44388
1.474	89.86	-27415	2294.5	-0.36688	0.81232	0.44223
1.476	89.86	-27422	2294.5	-0.36707	0.81125	0.44057
1.478	89.86	-27420	2294.6	-0.36727	0.81018	0.43891
1.48	89.859	-27419	2294.6	-0.36746	0.8091	0.43725
1.482	89.859	-27420	2294.7	-0.36698	0.81076	0.43842
1.484	89.864	-27420	2294.8	-0.36649	0.81242	0.43959
1.486	89.869	-27420	2294.8	-0.366	0.81408	0.44076
1.488	89.869	-27419	2294.9	-0.36551	0.81574	0.44193
1.49	89.868	-27420	2295	-0.36502	0.8174	0.4431
1.492	89.867	-27421	2295.1	-0.36483	0.81642	0.44291
1.494	89.868	-27425	2295.2	-0.36463	0.81545	0.44271
1.496	89.875	-27429	2295.3	-0.36444	0.81447	0.44252
1.498	89.875	-27418	2295.4	-0.36424	0.8135	0.44232
1.5	89.873	-27407	2295.6	-0.36405	0.81252	0.44213
1.502	89.873	-27408	2295.7	-0.36395	0.81281	0.44223
1.504	89.874	-27408	2295.8	-0.36385	0.81311	0.44232
1.506	89.875	-27416	2295.9	-0.36376	0.8134	0.44242
1.508	89.874	-27424	2296	-0.36366	0.81369	0.44252
1.51	89.873	-27421	2296.2	-0.36356	0.81398	0.44262
1.512	89.877	-27417	2296.3	-0.36405	0.81359	0.44232
1.514	89.884	-27418	2296.5	-0.36454	0.8132	0.44203
1.516	89.868	-27419	2296.6	-0.36502	0.81281	0.44174
1.518	89.867	-27423	2296.8	-0.36551	0.81242	0.44144
1.52	89.87	-27426	2296.9	-0.366	0.81203	0.44115
1.522	89.866	-27427	2297	-0.36561	0.81232	0.44154
1.524	89.869	-27428	2297.2	-0.36522	0.81262	0.44193
1.526	89.866	-27422	2297.3	-0.36483	0.81291	0.44232
1.528	89.863	-27416	2297.3	-0.36444	0.8132	0.44271
1.53	89.867	-27414	2297.4	-0.36405	0.8135	0.4431
1.532	89.875	-27412	2297.5	-0.36424	0.81272	0.44271
1.534	89.874	-27419	2297.6	-0.36444	0.81193	0.44232
1.536	89.872	-27425	2297.6	-0.36463	0.81115	0.44193
1.538	89.874	-27421	2297.6	-0.36483	0.81037	0.44154
1.54	89.876	-27417	2297.7	-0.36502	0.80959	0.44115
1.542	89.881	-27411	2297.7	-0.36434	0.81086	0.44144
1.544	89.886	-27405	2297.8	-0.36366	0.81213	0.44174
1.546	89.886	-27405	2297.8	-0.36297	0.8134	0.44203
1.548	89.891	-27405	2297.8	-0.36229	0.81467	0.44232
1.55	89.893	-27411	2297.7	-0.36161	0.81594	0.44262
1.552	89.891	-27417	2297.6	-0.362	0.81535	0.4431
1.554	89.89	-27414	2297.5	-0.36239	0.81476	0.44359
1.556	89.889	-27411	2297.5	-0.36278	0.81418	0.44408
1.558	89.886	-27412	2297.4	-0.36317	0.81359	0.44457
1.56	89.885	-27413	2297.3	-0.36356	0.81301	0.44506
1.562	89.883	-27415	2297.2	-0.36415	0.81291	0.44467
1.564	89.88	-27417	2297.1	-0.36473	0.81281	0.44428
1.566	89.884	-27413	2297	-0.36532	0.81272	0.44388
1.568	89.888	-27408	2296.9	-0.3659	0.81262	0.44349
1.57	89.889	-27410	2296.8	-0.36649	0.81252	0.4431
1.572	89.89	-27412	2296.7	-0.36678	0.81252	0.44349
1.574	89.889	-27410	2296.6	-0.36707	0.81252	0.44388
1.576	89.888	-27409	2296.6	-0.36737	0.81252	0.44428
1.578	89.887	-27416	2296.5	-0.36766	0.81252	0.44467
1.58	89.89	-27422	2296.4	-0.36795	0.81252	0.44506
1.582	89.894	-27421	2296.3	-0.36766	0.81281	0.44476
1.584	89.896	-27421	2296.2	-0.36737	0.81311	0.44447
1.586	89.896	-27416	2296.2	-0.36707	0.8134	0.44418
1.588	89.894	-27412	2296.1	-0.36678	0.81369	0.44388
1.59	89.893	-27410	2296	-0.36649	0.81398	0.44359
1.592	89.904	-27408	2295.9	-0.36532	0.81369	0.4434
1.594	89.901	-27409	2295.8	-0.36415	0.8134	0.4432
1.596	89.894	-27409	2295.7	-0.36297	0.81311	0.44301
1.598	89.89	-27414	2295.6	-0.3618	0.81281	0.44281
1.6	89.892	-27419	2295.6	-0.36063	0.81252	0.44262
1.602	89.886	-27417	2295.5	-0.36122	0.81281	0.4433
1.604	89.886	-27415	2295.5	-0.3618	0.81311	0.44398
1.606	89.894	-27409	2295.4	-0.36239	0.8134	0.44467
1.608	89.892	-27404	2295.4	-0.36297	0.81369	0.44535
1.61	89.889	-27403	2295.3	-0.36356	0.81398	0.44603
1.612	89.889	-27402	2295.3	-0.36463	0.81262	0.44437
1.614	89.889	-27407	2295.3	-0.36571	0.81125	0.44271
1.616	89.891	-27411	2295.2	-0.36678	0.80988	0.44105
1.618	89.894	-27410	2295.3	-0.36785	0.80852	0.4394
1.62	89.893	-27410	2295.3	-0.36893	0.80715	0.43774
1.622	89.892	-27411	2295.3	-0.3701	0.80686	0.43735
1.624	89.895	-27413	2295.3	-0.37127	0.80657	0.43696
1.626	89.891	-27414	2295.3	-0.37244	0.80627	0.43656
1.628	89.893	-27415	2295.3	-0.37361	0.80598	0.43617
1.63	89.897	-27413	2295.3	-0.37478	0.80569	0.43578
1.632	89.895	-27411	2295.3	-0.37439	0.80588	0.43598
1.634	89.888	-27416	2295.3	-0.374	0.80608	0.43617
1.636	89.888	-27422	2295.3	-0.37361	0.80627	0.43637
1.638	89.892	-27416	2295.3	-0.37322	0.80647	0.43656
1.64	89.891	-27411	2295.3	-0.37283	0.80666	0.43676
1.642	89.887	-27411	2295.3	-0.37156	0.80754	0.43725
1.644	89.884	-27410	2295.3	-0.37029	0.80842	0.43774
1.646	89.882	-27411	2295.3	-0.36903	0.8093	0.43822
1.648	89.882	-27411	2295.4	-0.36776	0.81018	0.43871
1.65	89.88	-27413	2295.4	-0.36649	0.81106	0.4392
1.652	89.872	-27415	2295.4	-0.36629	0.81174	0.44037
1.654	89.865	-27414	2295.3	-0.3661	0.81242	0.44154
1.656	89.864	-27414	2295.3	-0.3659	0.81311	0.44271
1.658	89.866	-27414	2295.4	-0.36571	0.81379	0.44388
1.66	89.865	-27414	2295.4	-0.36551	0.81447	0.44506
1.662	89.86	-27413	2295.3	-0.3658	0.81408	0.44486
1.664	89.861	-27412	2295.3	-0.3661	0.81369	0.44467
1.666	89.866	-27414	2295.2	-0.36639	0.8133	0.44447
1.668	89.865	-27416	2295.2	-0.36668	0.81291	0.44428
1.67	89.867	-27414	2295.1	-0.36698	0.81252	0.44408
1.672	89.871	-27412	2295.1	-0.36678	0.81301	0.44369
1.674	89.872	-27411	2295.1	-0.36659	0.8135	0.4433
1.676	89.862	-27409	2295.1	-0.36639	0.81398	0.44291
1.678	89.857	-27411	2295.1	-0.3662	0.81447	0.44252
1.68	89.846	-27412	2295	-0.366	0.81496	0.44213
1.682	89.833	-27413	2295	-0.36561	0.81437	0.44252
1.684	89.836	-27413	2295	-0.36522	0.81379	0.44291
1.686	89.835	-27411	2295	-0.36483	0.8132	0.4433
1.688	89.844	-27408	2294.9	-0.36444	0.81262	0.44369
1.69	89.861	-27408	2294.9	-0.36405	0.81203	0.44408
1.692	89.862	-27408	2294.9	-0.36473	0.81281	0.44388
1.694	89.862	-27410	2294.8	-0.36541	0.81359	0.44369
1.696	89.865	-27411	2294.8	-0.3661	0.81437	0.44349
1.698	89.858	-27415	2294.8	-0.36678	0.81516	0.4433
1.7	89.853	-27419	2294.8	-0.36746	0.81594	0.4431
1.702	89.85	-27421	2294.7	-0.36737	0.81467	0.4433
1.704	89.841	-27423	2294.7	-0.36727	0.8134	0.44349
1.706	89.841	-27419	2294.6	-0.36717	0.81213	0.44369
1.708	89.849	-27415	2294.6	-0.36707	0.81086	0.44388
1.71	89.847	-27414	2294.5	-0.36698	0.80959	0.44408
1.712	89.846	-27412	2294.5	-0.36639	0.81096	0.44398
1.714	89.85	-27412	2294.5	-0.3658	0.81232	0.44388
1.716	89.851	-27412	2294.4	-0.36522	0.81369	0.44379
1.718	89.861	-27412	2294.4	-0.36463	0.81506	0.44369
1.72	89.871	-27413	2294.4	-0.36405	0.81642	0.44359
1.722	89.879	-27414	2294.4	-0.36463	0.81594	0.44408
1.724	89.884	-27415	2294.3	-0.36522	0.81545	0.44457
1.726	89.891	-27415	2294.3	-0.3658	0.81496	0.44506
1.728	89.902	-27416	2294.3	-0.36639	0.81447	0.44554
1.73	89.913	-27417	2294.3	-0.36698	0.81398	0.44603
1.732	89.921	-27418	2294.2	-0.3662	0.81447	0.44554
1.734	89.922	-27419	2294.2	-0.36541	0.81496	0.44506
1.736	89.917	-27420	2294.1	-0.36463	0.81545	0.44457
1.738	89.913	-27420	2294.1	-0.36385	0.81594	0.44408
1.74	89.912	-27420	2294.2	-0.36307	0.81642	0.44359
1.742	89.915	-27418	2294.1	-0.36356	0.81603	0.44349
1.744	89.915	-27417	2294	-0.36405	0.81564	0.4434
1.746	89.906	-27416	2293.9	-0.36454	0.81525	0.4433
1.748	89.899	-27415	2293.8	-0.36502	0.81486	0.4432
1.75	89.902	-27416	2293.7	-0.36551	0.81447	0.4431
1.752	89.901	-27417	2293.5	-0.36541	0.81418	0.44291
1.754	89.899	-27414	2293.4	-0.36532	0.81389	0.44271
1.756	89.901	-27411	2293.3	-0.36522	0.81359	0.44252
1.758	89.908	-27411	2293.2	-0.36512	0.8133	0.44232
1.76	89.907	-27411	2293.1	-0.36502	0.81301	0.44213
1.762	89.907	-27415	2292.9	-0.36541	0.81272	0.44213
1.764	89.906	-27418	2292.8	-0.3658	0.81242	0.44213
1.766	89.905	-27415	2292.7	-0.3662	0.81213	0.44213
1.768	89.9	-27412	2292.6	-0.36659	0.81184	0.44213
1.77	89.898	-27414	2292.6	-0.36698	0.81154	0.44213
1.772	89.897	-27416	2292.4	-0.3662	0.81262	0.44242
1.774	89.896	-27416	2292.3	-0.36541	0.81369	0.44271
1.776	89.898	-27417	2292.2	-0.36463	0.81476	0.44301
1.778	89.894	-27418	2292.1	-0.36385	0.81584	0.4433
1.78	89.89	-27418	2292	-0.36307	0.81691	0.44359
1.782	89.894	-27421	2291.8	-0.36327	0.81594	0.44349
1.784	89.908	-27423	2291.7	-0.36346	0.81496	0.4434
1.786	89.918	-27423	2291.6	-0.36366	0.81398	0.4433
1.788	89.92	-27424	2291.5	-0.36385	0.81301	0.4432
1.79	89.924	-27423	2291.5	-0.36405	0.81203	0.4431
1.792	89.923	-27422	2291.3	-0.36483	0.81164	0.4431
1.794	89.928	-27423	2291.2	-0.36561	0.81125	0.4431
1.796	89.931	-27423	2291.1	-0.36639	0.81086	0.4431
1.798	89.926	-27424	2291	-0.36717	0.81047	0.4431
1.8	89.924	-27426	2291	-0.36795	0.81008	0.4431
1.802	89.909	-27424	2290.8	-0.36785	0.81057	0.44281
1.804	89.882	-27423	2290.7	-0.36776	0.81106	0.44252
1.806	89.842	-27425	2290.5	-0.36766	0.81154	0.44223
1.808	89.794	-27426	2290.4	-0.36756	0.81203	0.44193
1.81	89.735	-27429	2290.2	-0.36746	0.81252	0.44164
1.812	89.674	-27432	2290.1	-0.36707	0.81272	0.44242
1.814	89.613	-27430	2290	-0.36668	0.81291	0.4432
1.816	89.548	-27429	2289.9	-0.36629	0.81311	0.44398
1.818	89.479	-27428	2289.8	-0.3659	0.8133	0.44476
1.82	89.406	-27426	2289.6	-0.36551	0.8135	0.44554
1.822	89.332	-27427	2289.5	-0.3659	0.8133	0.44554
1.824	89.268	-27429	2289.4	-0.36629	0.81311	0.44554
1.826	89.221	-27425	2289.3	-0.36668	0.81291	0.44554
1.828	89.189	-27420	2289.2	-0.36707	0.81272	0.44554
1.83	89.165	-27420	2289.1	-0.36746	0.81252	0.44554
1.832	89.162	-27419	2288.9	-0.36707	0.81262	0.44506
1.834	89.183	-27423	2288.8	-0.36668	0.81272	0.44457
1.836	89.234	-27428	2288.6	-0.36629	0.81281	0.44408
1.838	89.306	-27429	2288.6	-0.3659	0.81291	0.44359
1.84	89.4	-27430	2288.5	-0.36551	0.81301	0.4431
1.842	89.514	-27427	2288.4	-0.36659	0.81301	0.44359
1.844	89.636	-27424	2288.3	-0.36766	0.81301	0.44408
1.846	89.747	-27428	2288.2	-0.36873	0.81301	0.44457
1.848	89.829	-27431	2288.1	-0.36981	0.81301	0.44506
1.85	89.862	-27434	2288	-0.37088	0.81301	0.44554
1.852	89.868	-27437	2287.9	-0.36961	0.81369	0.44457
1.854	89.861	-27436	2287.8	-0.36834	0.81437	0.44359
1.856	89.875	-27436	2287.7	-0.36707	0.81506	0.44262
1.858	89.902	-27435	2287.6	-0.3658	0.81574	0.44164
1.86	89.904	-27435	2287.6	-0.36454	0.81642	0.44066
1.862	89.912	-27431	2287.5	-0.36454	0.81594	0.44086
1.864	89.909	-27428	2287.4	-0.36454	0.81545	0.44105
1.866	89.909	-27433	2287.4	-0.36454	0.81496	0.44125
1.868	89.907	-27438	2287.5	-0.36454	0.81447	0.44144
1.87	89.896	-27432	2287.5	-0.36454	0.81398	0.44164
1.872	89.899	-27426	2287.6	-0.36463	0.81359	0.44144
1.874	89.898	-27429	2287.6	-0.36473	0.8132	0.44125
1.876	89.885	-27432	2287.7	-0.36483	0.81281	0.44105
1.878	89.881	-27431	2287.8	-0.36493	0.81242	0.44086
1.88	89.882	-27430	2287.9	-0.36502	0.81203	0.44066
1.882	89.873	-27429	2288	-0.36502	0.81281	0.44164
1.884	89.866	-27427	2288.2	-0.36502	0.81359	0.44262
1.886	89.868	-27430	2288.3	-0.36502	0.81437	0.44359
1.888	89.869	-27433	2288.4	-0.36502	0.81516	0.44457
1.89	89.867	-27434	2288.5	-0.36502	0.81594	0.44554
1.892	89.862	-27436	2288.5	-0.36483	0.81545	0.44506
1.894	89.86	-27439	2288.5	-0.36463	0.81496	0.44457
1.896	89.853	-27443	2288.6	-0.36444	0.81447	0.44408
1.898	89.847	-27440	2288.6	-0.36424	0.81398	0.44359
1.9	89.849	-27437	2288.6	-0.36405	0.8135	0.4431
1.902	89.857	-27432	2288.6	-0.36415	0.81369	0.4434
1.904	89.864	-27426	2288.6	-0.36424	0.81389	0.44369
1.906	89.861	-27433	2288.5	-0.36434	0.81408	0.44398
1.908	89.852	-27440	2288.5	-0.36444	0.81428	0.44428
1.91	89.849	-27443	2288.5	-0.36454	0.81447	0.44457
1.912	89.847	-27446	2288.4	-0.36483	0.81408	0.44486
1.914	89.844	-27448	2288.4	-0.36512	0.81369	0.44515
1.916	89.844	-27449	2288.3	-0.36541	0.8133	0.44545
1.918	89.843	-27444	2288.3	-0.36571	0.81291	0.44574
1.92	89.836	-27440	2288.3	-0.366	0.81252	0.44603
1.922	89.828	-27442	2288.3	-0.36737	0.81164	0.44359
1.924	89.824	-27443	2288.3	-0.36873	0.81076	0.44115
1.926	89.823	-27444	2288.3	-0.3701	0.80988	0.43871
1.928	89.824	-27445	2288.2	-0.37147	0.80901	0.43627
1.93	89.823	-27443	2288.2	-0.37283	0.80813	0.43383
1.932	89.825	-27441	2288.1	-0.37381	0.80793	0.43364
1.934	89.825	-27443	2287.9	-0.37478	0.80774	0.43344
1.936	89.821	-27444	2287.8	-0.37576	0.80754	0.43325
1.938	89.816	-27442	2287.7	-0.37674	0.80735	0.43305
1.94	89.816	-27441	2287.6	-0.37771	0.80715	0.43286
1.942	89.809	-27443	2287.4	-0.37527	0.80823	0.43432
1.944	89.813	-27445	2287.3	-0.37283	0.8093	0.43578
1.946	89.806	-27444	2287.1	-0.37039	0.81037	0.43725
1.948	89.81	-27442	2287	-0.36795	0.81145	0.43871
1.95	89.813	-27444	2286.8	-0.36551	0.81252	0.44018
1.952	89.803	-27446	2286.7	-0.36737	0.81193	0.43881
1.954	89.792	-27444	2286.6	-0.36922	0.81135	0.43744
1.956	89.789	-27441	2286.5	-0.37108	0.81076	0.43608
1.958	89.795	-27440	2286.3	-0.37293	0.81018	0.43471
1.96	89.796	-27438	2286.2	-0.37478	0.80959	0.43334
1.962	89.795	-27442	2286.1	-0.37361	0.80901	0.43373
1.964	89.792	-27447	2285.9	-0.37244	0.80842	0.43412
1.966	89.78	-27453	2285.8	-0.37127	0.80784	0.43452
1.968	89.774	-27460	2285.7	-0.3701	0.80725	0.43491
1.97	89.774	-27455	2285.6	-0.36893	0.80666	0.4353
1.972	89.776	-27450	2285.6	-0.36834	0.80764	0.43686
1.974	89.766	-27449	2285.5	-0.36776	0.80862	0.43842
1.976	89.755	-27448	2285.5	-0.36717	0.80959	0.43998
1.978	89.751	-27447	2285.5	-0.36659	0.81057	0.44154
1.98	89.745	-27445	2285.5	-0.366	0.81154	0.4431
1.982	89.74	-27452	2285.4	-0.36688	0.81154	0.4431
1.984	89.737	-27459	2285.4	-0.36776	0.81154	0.4431
1.986	89.733	-27453	2285.4	-0.36864	0.81154	0.4431
1.988	89.728	-27448	2285.5	-0.36951	0.81154	0.4431
1.99	89.725	-27444	2285.5	-0.37039	0.81154	0.4431
1.992	89.718	-27440	2285.5	-0.3701	0.81164	0.4434
1.994	89.712	-27442	2285.4	-0.36981	0.81174	0.44369
1.996	89.709	-27445	2285.4	-0.36951	0.81184	0.44398
1.998	89.7	-27441	2285.5	-0.36922	0.81193	0.44428
2	89.694	-27437	2285.6	-0.36893	0.81203	0.44457
2.002	89.691	-27438	2285.6	-0.36824	0.81281	0.44467
2.004	89.683	-27440	2285.6	-0.36756	0.81359	0.44476
2.006	89.675	-27442	2285.6	-0.36688	0.81437	0.44486
2.008	89.672	-27444	2285.7	-0.3662	0.81516	0.44496
2.01	89.664	-27447	2285.8	-0.36551	0.81594	0.44506
2.012	89.657	-27450	2285.9	-0.36522	0.81564	0.44428
2.014	89.651	-27448	2286.1	-0.36493	0.81535	0.44349
2.016	89.655	-27446	2286.3	-0.36463	0.81506	0.44271
2.018	89.649	-27446	2286.5	-0.36434	0.81476	0.44193
2.02	89.639	-27447	2286.7	-0.36405	0.81447	0.44115
2.022	89.637	-27451	2287	-0.36405	0.81476	0.44135
2.024	89.636	-27456	2287.4	-0.36405	0.81506	0.44154
2.026	89.635	-27454	2287.7	-0.36405	0.81535	0.44174
2.028	89.624	-27451	2288.1	-0.36405	0.81564	0.44193
2.03	89.628	-27447	2288.5	-0.36405	0.81594	0.44213
2.032	89.627	-27443	2288.9	-0.3659	0.81476	0.44291
2.034	89.624	-27448	2289.3	-0.36776	0.81359	0.44369
2.036	89.621	-27453	2289.7	-0.36961	0.81242	0.44447
2.038	89.615	-27457	2290.1	-0.37147	0.81125	0.44525
2.04	89.618	-27461	2290.5	-0.37332	0.81008	0.44603
2.042	89.614	-27460	2290.8	-0.37225	0.80959	0.44467
2.044	89.613	-27459	2291.2	-0.37117	0.8091	0.4433
2.046	89.615	-27459	2291.6	-0.3701	0.80862	0.44193
2.048	89.624	-27459	2291.9	-0.36903	0.80813	0.44057
2.05	89.623	-27452	2292.2	-0.36795	0.80764	0.4392
2.052	89.616	-27446	2292.4	-0.36824	0.80803	0.43891
2.054	89.62	-27455	2292.7	-0.36854	0.80842	0.43861
2.056	89.631	-27464	2292.9	-0.36883	0.80881	0.43832
2.058	89.637	-27464	2293.2	-0.36912	0.8092	0.43803
2.06	89.642	-27463	2293.4	-0.36942	0.80959	0.43774
2.062	89.649	-27460	2293.7	-0.3699	0.80891	0.43793
2.064	89.657	-27456	2293.9	-0.37039	0.80823	0.43813
2.066	89.664	-27455	2294.1	-0.37088	0.80754	0.43832
2.068	89.67	-27454	2294.3	-0.37137	0.80686	0.43852
2.07	89.677	-27452	2294.4	-0.37186	0.80618	0.43871
2.072	89.688	-27450	2294.5	-0.37176	0.80579	0.43803
2.074	89.695	-27450	2294.5	-0.37166	0.8054	0.43735
2.076	89.698	-27450	2294.6	-0.37156	0.805	0.43666
2.078	89.706	-27448	2294.6	-0.37147	0.80461	0.43598
2.08	89.718	-27446	2294.7	-0.37137	0.80422	0.4353
2.082	89.732	-27455	2294.7	-0.37029	0.80471	0.43617
2.084	89.743	-27463	2294.7	-0.36922	0.8052	0.43705
2.086	89.751	-27457	2294.7	-0.36815	0.80569	0.43793
2.088	89.751	-27450	2294.7	-0.36707	0.80618	0.43881
2.09	89.753	-27449	2294.7	-0.366	0.80666	0.43969
2.092	89.756	-27448	2294.6	-0.3662	0.80784	0.44008
2.094	89.765	-27451	2294.6	-0.36639	0.80901	0.44047
2.096	89.778	-27454	2294.5	-0.36659	0.81018	0.44086
2.098	89.787	-27449	2294.4	-0.36678	0.81135	0.44125
2.1	89.791	-27445	2294.3	-0.36698	0.81252	0.44164
2.102	89.793	-27449	2294.2	-0.36659	0.81281	0.44193
2.104	89.805	-27454	2294.1	-0.3662	0.81311	0.44223
2.106	89.812	-27447	2294	-0.3658	0.8134	0.44252
2.108	89.815	-27440	2293.9	-0.36541	0.81369	0.44281
2.11	89.823	-27444	2293.7	-0.36502	0.81398	0.4431
2.112	89.825	-27448	2293.6	-0.36493	0.81379	0.4433
2.114	89.82	-27446	2293.5	-0.36483	0.81359	0.44349
2.116	89.817	-27444	2293.4	-0.36473	0.8134	0.44369
2.118	89.822	-27438	2293.3	-0.36463	0.8132	0.44388
2.12	89.835	-27432	2293.1	-0.36454	0.81301	0.44408
2.122	89.837	-27431	2293	-0.36444	0.81389	0.44349
2.124	89.85	-27430	2292.9	-0.36434	0.81476	0.44291
2.126	89.845	-27429	2292.8	-0.36424	0.81564	0.44232
2.128	89.841	-27429	2292.7	-0.36415	0.81652	0.44174
2.13	89.844	-27430	2292.6	-0.36405	0.8174	0.44115
2.132	89.846	-27430	2292.5	-0.36424	0.81642	0.44144
2.134	89.856	-27426	2292.4	-0.36444	0.81545	0.44174
2.136	89.861	-27422	2292.2	-0.36463	0.81447	0.44203
2.138	89.863	-27421	2292.1	-0.36483	0.8135	0.44232
2.14	89.861	-27421	2292	-0.36502	0.81252	0.44262
2.142	89.861	-27428	2292	-0.36502	0.8133	0.4432
2.144	89.855	-27434	2291.9	-0.36502	0.81408	0.44379
2.146	89.851	-27431	2291.9	-0.36502	0.81486	0.44437
2.148	89.856	-27427	2292	-0.36502	0.81564	0.44496
2.15	89.869	-27427	2292	-0.36502	0.81642	0.44554
2.152	89.872	-27427	2292.1	-0.36502	0.81584	0.44457
2.154	89.868	-27424	2292.1	-0.36502	0.81525	0.44359
2.156	89.866	-27420	2292.2	-0.36502	0.81467	0.44262
2.158	89.869	-27426	2292.3	-0.36502	0.81408	0.44164
2.16	89.871	-27432	2292.5	-0.36502	0.8135	0.44066
2.162	89.868	-27431	2292.6	-0.36512	0.81379	0.44144
2.164	89.871	-27431	2292.7	-0.36522	0.81408	0.44223
2.166	89.877	-27427	2292.9	-0.36532	0.81437	0.44301
2.168	89.877	-27424	2293.1	-0.36541	0.81467	0.44379
2.17	89.873	-27424	2293.3	-0.36551	0.81496	0.44457
2.172	89.871	-27425	2293.4	-0.36541	0.81584	0.44447
2.174	89.876	-27424	2293.5	-0.36532	0.81672	0.44437
2.176	89.88	-27424	2293.7	-0.36522	0.8176	0.44428
2.178	89.883	-27424	2293.9	-0.36512	0.81847	0.44418
2.18	89.878	-27425	2294.2	-0.36502	0.81935	0.44408
2.182	89.874	-27424	2294.3	-0.36522	0.81847	0.44388
2.184	89.876	-27423	2294.5	-0.36541	0.8176	0.44369
2.186	89.878	-27424	2294.7	-0.36561	0.81672	0.44349
2.188	89.877	-27424	2294.9	-0.3658	0.81584	0.4433
2.19	89.876	-27427	2295.1	-0.366	0.81496	0.4431
2.192	89.878	-27430	2295.3	-0.3662	0.81437	0.44291
2.194	89.884	-27426	2295.4	-0.36639	0.81379	0.44271
2.196	89.881	-27421	2295.6	-0.36659	0.8132	0.44252
2.198	89.865	-27421	2295.8	-0.36678	0.81262	0.44232
2.2	89.869	-27420	2295.9	-0.36698	0.81203	0.44213
2.202	89.884	-27425	2296.1	-0.36639	0.81232	0.44232
2.204	89.877	-27429	2296.2	-0.3658	0.81262	0.44252
2.206	89.872	-27429	2296.4	-0.36522	0.81291	0.44271
2.208	89.87	-27430	2296.5	-0.36463	0.8132	0.44291
2.21	89.866	-27425	2296.7	-0.36405	0.8135	0.4431
2.212	89.864	-27420	2296.8	-0.36415	0.81311	0.44291
2.214	89.867	-27424	2296.9	-0.36424	0.81272	0.44271
2.216	89.87	-27428	2297.1	-0.36434	0.81232	0.44252
2.218	89.868	-27425	2297.2	-0.36444	0.81193	0.44232
2.22	89.862	-27421	2297.3	-0.36454	0.81154	0.44213
2.222	89.86	-27420	2297.4	-0.36512	0.81203	0.4434
2.224	89.86	-27419	2297.4	-0.36571	0.81252	0.44467
2.226	89.859	-27423	2297.4	-0.36629	0.81301	0.44593
2.228	89.856	-27427	2297.5	-0.36688	0.8135	0.4472
2.23	89.856	-27427	2297.5	-0.36746	0.81398	0.44847
2.232	89.858	-27427	2297.5	-0.36746	0.81408	0.44828
2.234	89.859	-27423	2297.5	-0.36746	0.81418	0.44808
2.236	89.856	-27419	2297.4	-0.36746	0.81428	0.44789
2.238	89.854	-27415	2297.3	-0.36746	0.81437	0.44769
2.24	89.858	-27411	2297.2	-0.36746	0.81447	0.4475
2.242	89.858	-27414	2297	-0.36737	0.81428	0.44701
2.244	89.854	-27417	2296.9	-0.36727	0.81408	0.44652
2.246	89.854	-27416	2296.7	-0.36717	0.81389	0.44603
2.248	89.851	-27415	2296.4	-0.36707	0.81369	0.44554
2.25	89.846	-27417	2296.1	-0.36698	0.8135	0.44506
2.252	89.844	-27419	2295.9	-0.36639	0.81272	0.44388
2.254	89.845	-27420	2295.6	-0.3658	0.81193	0.44271
2.256	89.846	-27422	2295.4	-0.36522	0.81115	0.44154
2.258	89.843	-27420	2295.1	-0.36463	0.81037	0.44037
2.26	89.841	-27418	2294.8	-0.36405	0.80959	0.4392
2.262	89.835	-27419	2294.5	-0.36356	0.81047	0.43979
2.264	89.837	-27419	2294.1	-0.36307	0.81135	0.44037
2.266	89.84	-27419	2293.8	-0.36258	0.81223	0.44096
2.268	89.84	-27418	2293.4	-0.3621	0.81311	0.44154
2.27	89.841	-27416	2293.1	-0.36161	0.81398	0.44213
2.272	89.839	-27414	2292.8	-0.36229	0.81379	0.44242
2.274	89.838	-27412	2292.4	-0.36297	0.81359	0.44271
2.276	89.84	-27410	2292.1	-0.36366	0.8134	0.44301
2.278	89.841	-27414	2291.8	-0.36434	0.8132	0.4433
2.28	89.836	-27419	2291.4	-0.36502	0.81301	0.44359
2.282	89.837	-27416	2291.2	-0.36532	0.81359	0.44369
2.284	89.838	-27414	2290.9	-0.36561	0.81418	0.44379
2.286	89.847	-27421	2290.6	-0.3659	0.81476	0.44388
2.288	89.85	-27429	2290.4	-0.3662	0.81535	0.44398
2.29	89.849	-27429	2290.1	-0.36649	0.81594	0.44408
2.292	89.846	-27429	2289.9	-0.36678	0.81516	0.44437
2.294	89.854	-27425	2289.7	-0.36707	0.81437	0.44467
2.296	89.849	-27421	2289.6	-0.36737	0.81359	0.44496
2.298	89.852	-27422	2289.4	-0.36766	0.81281	0.44525
2.3	89.848	-27423	2289.2	-0.36795	0.81203	0.44554
2.302	89.854	-27422	2289.1	-0.36737	0.81242	0.44496
2.304	89.86	-27421	2289.1	-0.36678	0.81281	0.44437
2.306	89.862	-27421	2289	-0.3662	0.8132	0.44379
2.308	89.858	-27421	2288.9	-0.36561	0.81359	0.4432
2.31	89.852	-27423	2288.8	-0.36502	0.81398	0.44262
2.312	89.849	-27425	2288.8	-0.36532	0.81408	0.44281
2.314	89.845	-27420	2288.8	-0.36561	0.81418	0.44301
2.316	89.846	-27415	2288.8	-0.3659	0.81428	0.4432
2.318	89.848	-27418	2288.8	-0.3662	0.81437	0.4434
2.32	89.849	-27421	2288.9	-0.36649	0.81447	0.44359
2.322	89.852	-27421	2288.9	-0.3662	0.81418	0.44369
2.324	89.852	-27422	2289	-0.3659	0.81389	0.44379
2.326	89.85	-27423	2289.1	-0.36561	0.81359	0.44388
2.328	89.85	-27424	2289.3	-0.36532	0.8133	0.44398
2.33	89.849	-27422	2289.4	-0.36502	0.81301	0.44408
2.332	89.849	-27419	2289.5	-0.3658	0.81154	0.44262
2.334	89.85	-27418	2289.7	-0.36659	0.81008	0.44115
2.336	89.85	-27418	2289.8	-0.36737	0.80862	0.43969
2.338	89.846	-27417	2290	-0.36815	0.80715	0.43822
2.34	89.841	-27417	2290.2	-0.36893	0.80569	0.43676
2.342	89.838	-27421	2290.4	-0.36932	0.8054	0.43744
2.344	89.846	-27424	2290.6	-0.36971	0.8051	0.43813
2.346	89.853	-27425	2290.8	-0.3701	0.80481	0.43881
2.348	89.857	-27427	2291	-0.37049	0.80452	0.43949
2.35	89.856	-27427	2291.3	-0.37088	0.80422	0.44018
2.352	89.855	-27426	2291.5	-0.36981	0.80657	0.44047
2.354	89.859	-27426	2291.6	-0.36873	0.80891	0.44076
2.356	89.865	-27426	2291.9	-0.36766	0.81125	0.44105
2.358	89.866	-27427	2292.1	-0.36659	0.81359	0.44135
2.36	89.863	-27427	2292.4	-0.36551	0.81594	0.44164
2.362	89.868	-27426	2292.6	-0.36571	0.81555	0.44242
2.364	89.864	-27425	2292.8	-0.3659	0.81516	0.4432
2.366	89.859	-27425	2293	-0.3661	0.81476	0.44398
2.368	89.86	-27424	2293.2	-0.36629	0.81437	0.44476
2.37	89.87	-27424	2293.4	-0.36649	0.81398	0.44554
2.372	89.875	-27424	2293.5	-0.36659	0.8135	0.44447
2.374	89.867	-27424	2293.7	-0.36668	0.81301	0.4434
2.376	89.86	-27424	2293.8	-0.36678	0.81252	0.44232
2.378	89.87	-27424	2293.9	-0.36688	0.81203	0.44125
2.38	89.876	-27424	2294.1	-0.36698	0.81154	0.44018
2.382	89.882	-27425	2294.1	-0.36659	0.81223	0.44096
2.384	89.887	-27426	2294.2	-0.3662	0.81291	0.44174
2.386	89.881	-27427	2294.3	-0.3658	0.81359	0.44252
2.388	89.881	-27428	2294.4	-0.36541	0.81428	0.4433
2.39	89.884	-27428	2294.5	-0.36502	0.81496	0.44408
2.392	89.879	-27429	2294.5	-0.36532	0.81369	0.44379
2.394	89.876	-27429	2294.6	-0.36561	0.81242	0.44349
2.396	89.879	-27428	2294.6	-0.3659	0.81115	0.4432
2.398	89.881	-27426	2294.6	-0.3662	0.80988	0.44291
2.4	89.88	-27425	2294.6	-0.36649	0.80862	0.44262
2.402	89.877	-27423	2294.5	-0.36649	0.80901	0.44242
2.404	89.874	-27421	2294.5	-0.36649	0.8094	0.44223
2.406	89.873	-27419	2294.5	-0.36649	0.80979	0.44203
2.408	89.875	-27417	2294.5	-0.36649	0.81018	0.44184
2.41	89.877	-27416	2294.4	-0.36649	0.81057	0.44164
2.412	89.874	-27415	2294.3	-0.36678	0.81037	0.44232
2.414	89.874	-27418	2294.3	-0.36707	0.81018	0.44301
2.416	89.881	-27421	2294.2	-0.36737	0.80998	0.44369
2.418	89.887	-27421	2294	-0.36766	0.80979	0.44437
2.42	89.885	-27421	2293.9	-0.36795	0.80959	0.44506
2.422	89.886	-27418	2293.8	-0.36893	0.8093	0.44301
2.424	89.887	-27415	2293.7	-0.3699	0.80901	0.44096
2.426	89.882	-27415	2293.5	-0.37088	0.80871	0.43891
2.428	89.885	-27414	2293.4	-0.37186	0.80842	0.43686
2.43	89.886	-27412	2293.2	-0.37283	0.80813	0.43481
2.432	89.885	-27410	2293	-0.37176	0.80881	0.43559
2.434	89.883	-27410	2292.9	-0.37068	0.80949	0.43637
2.436	89.882	-27410	2292.7	-0.36961	0.81018	0.43715
2.438	89.883	-27415	2292.5	-0.36854	0.81086	0.43793
2.44	89.883	-27419	2292.3	-0.36746	0.81154	0.43871
2.442	89.888	-27419	2292.1	-0.36737	0.81174	0.43969
2.444	89.896	-27418	2292	-0.36727	0.81193	0.44066
2.446	89.898	-27418	2291.8	-0.36717	0.81213	0.44164
2.448	89.884	-27419	2291.6	-0.36707	0.81232	0.44262
2.45	89.881	-27421	2291.4	-0.36698	0.81252	0.44359
2.452	89.882	-27423	2291.2	-0.36717	0.81262	0.44428
2.454	89.878	-27421	2291.1	-0.36737	0.81272	0.44496
2.456	89.88	-27420	2290.9	-0.36756	0.81281	0.44564
2.458	89.879	-27420	2290.7	-0.36776	0.81291	0.44632
2.46	89.88	-27419	2290.5	-0.36795	0.81301	0.44701
2.462	89.885	-27419	2290.4	-0.36756	0.81311	0.44652
2.464	89.88	-27419	2290.2	-0.36717	0.8132	0.44603
2.466	89.873	-27416	2290	-0.36678	0.8133	0.44554
2.468	89.874	-27412	2289.9	-0.36639	0.8134	0.44506
2.47	89.873	-27411	2289.8	-0.366	0.8135	0.44457
2.472	89.876	-27410	2289.6	-0.36512	0.8135	0.44369
2.474	89.869	-27414	2289.5	-0.36424	0.8135	0.44281
2.476	89.862	-27419	2289.3	-0.36336	0.8135	0.44193
2.478	89.859	-27416	2289.2	-0.36249	0.8135	0.44105
2.48	89.85	-27413	2289.1	-0.36161	0.8135	0.44018
2.482	89.842	-27417	2289	-0.362	0.81398	0.44105
2.484	89.84	-27421	2288.9	-0.36239	0.81447	0.44193
2.486	89.832	-27420	2288.8	-0.36278	0.81496	0.44281
2.488	89.826	-27419	2288.7	-0.36317	0.81545	0.44369
2.49	89.825	-27425	2288.6	-0.36356	0.81594	0.44457
2.492	89.819	-27432	2288.6	-0.36366	0.81545	0.44408
2.494	89.811	-27426	2288.5	-0.36376	0.81496	0.44359
2.496	89.814	-27420	2288.4	-0.36385	0.81447	0.4431
2.498	89.826	-27416	2288.4	-0.36395	0.81398	0.44262
2.5	89.831	-27412	2288.4	-0.36405	0.8135	0.44213
2.502	89.829	-27412	2288.4	-0.36473	0.81369	0.44281
2.504	89.83	-27413	2288.4	-0.36541	0.81389	0.44349
2.506	89.827	-27414	2288.4	-0.3661	0.81408	0.44418
2.508	89.822	-27415	2288.4	-0.36678	0.81428	0.44486
2.51	89.821	-27421	2288.5	-0.36746	0.81447	0.44554
2.512	89.815	-27427	2288.5	-0.36698	0.81428	0.44457
2.514	89.805	-27429	2288.5	-0.36649	0.81408	0.44359
2.516	89.805	-27430	2288.6	-0.366	0.81389	0.44262
2.518	89.805	-27427	2288.6	-0.36551	0.81369	0.44164
2.52	89.802	-27425	2288.6	-0.36502	0.8135	0.44066
2.522	89.81	-27423	2288.6	-0.36541	0.8135	0.44125
2.524	89.817	-27421	2288.6	-0.3658	0.8135	0.44184
2.526	89.819	-27426	2288.6	-0.3662	0.8135	0.44242
2.528	89.818	-27430	2288.6	-0.36659	0.8135	0.44301
2.53	89.811	-27425	2288.6	-0.36698	0.8135	0.44359
2.532	89.812	-27421	2288.6	-0.36639	0.8134	0.44359
2.534	89.81	-27424	2288.7	-0.3658	0.8133	0.44359
2.536	89.806	-27426	2288.7	-0.36522	0.8132	0.44359
2.538	89.798	-27428	2288.7	-0.36463	0.81311	0.44359
2.54	89.796	-27430	2288.7	-0.36405	0.81301	0.44359
2.542	89.803	-27429	2288.7	-0.36532	0.81291	0.44398
2.544	89.808	-27428	2288.8	-0.36659	0.81281	0.44437
2.546	89.807	-27425	2288.8	-0.36785	0.81272	0.44476
2.548	89.81	-27422	2288.8	-0.36912	0.81262	0.44515
2.55	89.819	-27427	2288.8	-0.37039	0.81252	0.44554
2.552	89.826	-27431	2288.8	-0.36922	0.81301	0.44535
2.554	89.837	-27426	2288.8	-0.36805	0.8135	0.44515
2.556	89.855	-27421	2288.8	-0.36688	0.81398	0.44496
2.558	89.868	-27418	2288.8	-0.36571	0.81447	0.44476
2.56	89.882	-27416	2288.9	-0.36454	0.81496	0.44457
2.562	89.887	-27424	2288.9	-0.36541	0.81506	0.44476
2.564	89.888	-27433	2288.9	-0.36629	0.81516	0.44496
2.566	89.889	-27434	2289	-0.36717	0.81525	0.44515
2.568	89.882	-27434	2289	-0.36805	0.81535	0.44535
2.57	89.879	-27434	2289	-0.36893	0.81545	0.44554
2.572	89.875	-27434	2289.1	-0.36903	0.81506	0.44574
2.574	89.871	-27431	2289.1	-0.36912	0.81467	0.44593
2.576	89.868	-27427	2289.2	-0.36922	0.81428	0.44613
2.578	89.866	-27431	2289.2	-0.36932	0.81389	0.44632
2.58	89.867	-27435	2289.2	-0.36942	0.8135	0.44652
2.582	89.869	-27434	2289.3	-0.36844	0.81369	0.44564
2.584	89.872	-27432	2289.3	-0.36746	0.81389	0.44476
2.586	89.878	-27434	2289.4	-0.36649	0.81408	0.44388
2.588	89.878	-27436	2289.4	-0.36551	0.81428	0.44301
2.59	89.876	-27430	2289.5	-0.36454	0.81447	0.44213
2.592	89.882	-27424	2289.5	-0.36493	0.81379	0.44184
2.594	89.884	-27431	2289.5	-0.36532	0.81311	0.44154
2.596	89.879	-27438	2289.5	-0.36571	0.81242	0.44125
2.598	89.883	-27438	2289.5	-0.3661	0.81174	0.44096
2.6	89.886	-27438	2289.5	-0.36649	0.81106	0.44066
2.602	89.883	-27436	2289.5	-0.36639	0.81135	0.44105
2.604	89.874	-27434	2289.5	-0.36629	0.81164	0.44144
2.606	89.877	-27439	2289.5	-0.3662	0.81193	0.44184
2.608	89.886	-27443	2289.6	-0.3661	0.81223	0.44223
2.61	89.891	-27441	2289.6	-0.366	0.81252	0.44262
2.612	89.892	-27439	2289.6	-0.3662	0.81223	0.4432
2.614	89.883	-27440	2289.6	-0.36639	0.81193	0.44379
2.616	89.88	-27442	2289.5	-0.36659	0.81164	0.44437
2.618	89.891	-27440	2289.5	-0.36678	0.81135	0.44496
2.62	89.892	-27438	2289.4	-0.36698	0.81106	0.44554
2.622	89.893	-27441	2289.4	-0.36707	0.81086	0.44467
2.624	89.889	-27444	2289.4	-0.36717	0.81067	0.44379
2.626	89.891	-27441	2289.3	-0.36727	0.81047	0.44291
2.628	89.899	-27439	2289.2	-0.36737	0.81028	0.44203
2.63	89.893	-27434	2289.2	-0.36746	0.81008	0.44115
2.632	89.874	-27429	2289.1	-0.36649	0.81086	0.44164
2.634	89.851	-27426	2289	-0.36551	0.81164	0.44213
2.636	89.817	-27424	2288.9	-0.36454	0.81242	0.44262
2.638	89.773	-27427	2288.8	-0.36356	0.8132	0.4431
2.64	89.721	-27429	2288.7	-0.36258	0.81398	0.44359
2.642	89.661	-27426	2288.6	-0.36307	0.81398	0.44359
2.644	89.593	-27422	2288.5	-0.36356	0.81398	0.44359
2.646	89.536	-27423	2288.4	-0.36405	0.81398	0.44359
2.648	89.475	-27425	2288.2	-0.36454	0.81398	0.44359
2.65	89.396	-27427	2288.1	-0.36502	0.81398	0.44359
2.652	89.32	-27430	2288	-0.36483	0.81428	0.44369
2.654	89.245	-27430	2287.8	-0.36463	0.81457	0.44379
2.656	89.193	-27430	2287.6	-0.36444	0.81486	0.44388
2.658	89.157	-27433	2287.5	-0.36424	0.81516	0.44398
2.66	89.125	-27436	2287.4	-0.36405	0.81545	0.44408
2.662	89.109	-27435	2287.3	-0.36454	0.81555	0.44398
2.664	89.118	-27434	2287.2	-0.36502	0.81564	0.44388
2.666	89.161	-27434	2287	-0.36551	0.81574	0.44379
2.668	89.228	-27435	2286.9	-0.366	0.81584	0.44369
2.67	89.311	-27437	2286.7	-0.36649	0.81594	0.44359
2.672	89.417	-27439	2286.6	-0.3661	0.81555	0.44398
2.674	89.541	-27435	2286.5	-0.36571	0.81516	0.44437
2.676	89.661	-27431	2286.4	-0.36532	0.81476	0.44476
2.678	89.755	-27428	2286.3	-0.36493	0.81437	0.44515
2.68	89.813	-27424	2286.1	-0.36454	0.81398	0.44554
2.682	89.838	-27427	2286	-0.36473	0.81389	0.44467
2.684	89.838	-27429	2285.8	-0.36493	0.81379	0.44379
2.686	89.837	-27427	2285.7	-0.36512	0.81369	0.44291
2.688	89.853	-27425	2285.6	-0.36532	0.81359	0.44203
2.69	89.861	-27433	2285.5	-0.36551	0.8135	0.44115
2.692	89.852	-27440	2285.4	-0.36522	0.81379	0.44125
2.694	89.836	-27435	2285.3	-0.36493	0.81408	0.44135
2.696	89.834	-27430	2285.2	-0.36463	0.81437	0.44144
2.698	89.838	-27433	2285.2	-0.36434	0.81467	0.44154
2.7	89.838	-27436	2285.2	-0.36405	0.81496	0.44164
2.702	89.843	-27437	2285.2	-0.36483	0.81447	0.44232
2.704	89.841	-27437	2285.2	-0.36561	0.81398	0.44301
2.706	89.843	-27439	2285.3	-0.36639	0.8135	0.44369
2.708	89.847	-27441	2285.3	-0.36717	0.81301	0.44437
2.71	89.826	-27438	2285.3	-0.36795	0.81252	0.44506
2.712	89.815	-27434	2285.4	-0.36922	0.81184	0.44301
2.714	89.817	-27433	2285.4	-0.37049	0.81115	0.44096
2.716	89.815	-27433	2285.5	-0.37176	0.81047	0.43891
2.718	89.812	-27431	2285.5	-0.37303	0.80979	0.43686
2.72	89.818	-27430	2285.6	-0.3743	0.8091	0.43481
2.722	89.823	-27436	2285.6	-0.37342	0.80862	0.4353
2.724	89.816	-27441	2285.7	-0.37254	0.80813	0.43578
2.726	89.813	-27438	2285.7	-0.37166	0.80764	0.43627
2.728	89.808	-27434	2285.8	-0.37078	0.80715	0.43676
2.73	89.811	-27436	2285.9	-0.3699	0.80666	0.43725
2.732	89.814	-27439	2285.9	-0.36864	0.80842	0.43861
2.734	89.807	-27444	2285.9	-0.36737	0.81018	0.43998
2.736	89.798	-27450	2286	-0.3661	0.81193	0.44135
2.738	89.798	-27441	2286	-0.36483	0.81369	0.44271
2.74	89.799	-27432	2286.1	-0.36356	0.81545	0.44408
2.742	89.798	-27437	2286.1	-0.36424	0.81506	0.44418
2.744	89.794	-27441	2286.2	-0.36493	0.81467	0.44428
2.746	89.791	-27442	2286.3	-0.36561	0.81428	0.44437
2.748	89.791	-27442	2286.3	-0.36629	0.81389	0.44447
2.75	89.787	-27437	2286.4	-0.36698	0.8135	0.44457
2.752	89.782	-27432	2286.5	-0.3658	0.81379	0.44398
2.754	89.783	-27428	2286.5	-0.36463	0.81408	0.4434
2.756	89.785	-27424	2286.6	-0.36346	0.81437	0.44281
2.758	89.78	-27428	2286.7	-0.36229	0.81467	0.44223
2.76	89.775	-27431	2286.7	-0.36112	0.81496	0.44164
2.762	89.771	-27431	2286.8	-0.36219	0.81476	0.44135
2.764	89.766	-27431	2286.8	-0.36327	0.81457	0.44105
2.766	89.766	-27431	2286.8	-0.36434	0.81437	0.44076
2.768	89.769	-27432	2286.8	-0.36541	0.81418	0.44047
2.77	89.77	-27435	2286.9	-0.36649	0.81398	0.44018
2.772	89.776	-27437	2286.9	-0.36649	0.81359	0.44037
2.774	89.78	-27433	2286.9	-0.36649	0.8132	0.44057
2.776	89.778	-27429	2286.9	-0.36649	0.81281	0.44076
2.778	89.77	-27440	2286.8	-0.36649	0.81242	0.44096
2.78	89.765	-27452	2286.8	-0.36649	0.81203	0.44115
2.782	89.754	-27444	2286.8	-0.3659	0.81184	0.44105
2.784	89.748	-27435	2286.8	-0.36532	0.81164	0.44096
2.786	89.746	-27443	2286.8	-0.36473	0.81145	0.44086
2.788	89.745	-27452	2286.7	-0.36415	0.81125	0.44076
2.79	89.749	-27437	2286.7	-0.36356	0.81106	0.44066
2.792	89.731	-27423	2286.6	-0.36385	0.81232	0.44086
2.794	89.733	-27439	2286.5	-0.36415	0.81359	0.44105
2.796	89.73	-27455	2286.5	-0.36444	0.81486	0.44125
2.798	89.724	-27452	2286.4	-0.36473	0.81613	0.44144
2.8	89.718	-27450	2286.4	-0.36502	0.8174	0.44164
2.802	89.719	-27445	2286.3	-0.36532	0.81584	0.44174
2.804	89.718	-27440	2286.2	-0.36561	0.81428	0.44184
2.806	89.708	-27439	2286.1	-0.3659	0.81272	0.44193
2.808	89.697	-27437	2286.1	-0.3662	0.81115	0.44203
2.81	89.696	-27438	2286.1	-0.36649	0.80959	0.44213
2.812	89.695	-27439	2286	-0.36688	0.80988	0.44281
2.814	89.687	-27443	2286	-0.36727	0.81018	0.44349
2.816	89.67	-27447	2285.9	-0.36766	0.81047	0.44418
2.818	89.66	-27443	2285.9	-0.36805	0.81076	0.44486
2.82	89.66	-27438	2285.8	-0.36844	0.81106	0.44554
2.822	89.66	-27441	2285.7	-0.36815	0.81106	0.44486
2.824	89.656	-27443	2285.7	-0.36785	0.81106	0.44418
2.826	89.648	-27444	2285.6	-0.36756	0.81106	0.44349
2.828	89.64	-27444	2285.6	-0.36727	0.81106	0.44281
2.83	89.631	-27445	2285.5	-0.36698	0.81106	0.44213
2.832	89.623	-27446	2285.4	-0.36727	0.81086	0.44135
2.834	89.62	-27444	2285.3	-0.36756	0.81067	0.44057
2.836	89.613	-27441	2285.2	-0.36785	0.81047	0.43979
2.838	89.605	-27448	2285.2	-0.36815	0.81028	0.439
2.84	89.6	-27455	2285.1	-0.36844	0.81008	0.43822
2.842	89.594	-27450	2285.1	-0.3699	0.80979	0.43715
2.844	89.584	-27445	2285	-0.37137	0.80949	0.43608
2.846	89.577	-27450	2285	-0.37283	0.8092	0.435
2.848	89.575	-27456	2285.1	-0.3743	0.80891	0.43393
2.85	89.572	-27455	2285.1	-0.37576	0.80862	0.43286
2.852	89.572	-27455	2285.2	-0.37469	0.80803	0.43364
2.854	89.571	-27448	2285.4	-0.37361	0.80744	0.43442
2.856	89.568	-27441	2285.5	-0.37254	0.80686	0.4352
2.858	89.564	-27447	2285.7	-0.37147	0.80627	0.43598
2.86	89.563	-27453	2285.8	-0.37039	0.80569	0.43676
2.862	89.57	-27445	2286.1	-0.37098	0.80657	0.43774
2.864	89.573	-27437	2286.4	-0.37156	0.80744	0.43871
2.866	89.57	-27434	2286.6	-0.37215	0.80832	0.43969
2.868	89.568	-27432	2286.8	-0.37273	0.8092	0.44066
2.87	89.569	-27438	2287.1	-0.37332	0.81008	0.44164
2.872	89.568	-27444	2287.3	-0.37342	0.80959	0.44018
2.874	89.566	-27445	2287.5	-0.37352	0.8091	0.43871
2.876	89.557	-27446	2287.7	-0.37361	0.80862	0.43725
2.878	89.558	-27449	2287.9	-0.37371	0.80813	0.43578
2.88	89.563	-27451	2288.1	-0.37381	0.80764	0.43432
2.882	89.573	-27452	2288.3	-0.37371	0.80705	0.43461
2.884	89.588	-27452	2288.4	-0.37361	0.80647	0.43491
2.886	89.585	-27450	2288.6	-0.37352	0.80588	0.4352
2.888	89.586	-27448	2288.8	-0.37342	0.8053	0.43549
2.89	89.584	-27447	2288.9	-0.37332	0.80471	0.43578
2.892	89.585	-27445	2289.1	-0.37234	0.8053	0.43588
2.894	89.598	-27448	2289.3	-0.37137	0.80588	0.43598
2.896	89.602	-27450	2289.5	-0.37039	0.80647	0.43608
2.898	89.6	-27447	2289.7	-0.36942	0.80705	0.43617
2.9	89.611	-27444	2289.9	-0.36844	0.80764	0.43627
2.902	89.622	-27447	2290	-0.36912	0.80676	0.43617
2.904	89.623	-27449	2290.2	-0.36981	0.80588	0.43608
2.906	89.628	-27442	2290.3	-0.37049	0.805	0.43598
2.908	89.639	-27435	2290.4	-0.37117	0.80413	0.43588
2.91	89.649	-27441	2290.5	-0.37186	0.80325	0.43578
2.912	89.659	-27447	2290.6	-0.37225	0.80344	0.43617
2.914	89.664	-27448	2290.7	-0.37264	0.80364	0.43656
2.916	89.674	-27449	2290.8	-0.37303	0.80383	0.43696
2.918	89.683	-27443	2290.9	-0.37342	0.80403	0.43735
2.92	89.691	-27436	2291.1	-0.37381	0.80422	0.43774
2.922	89.698	-27435	2291.2	-0.3742	0.80452	0.43744
2.924	89.705	-27434	2291.3	-0.37459	0.80481	0.43715
2.926	89.716	-27436	2291.3	-0.37498	0.8051	0.43686
2.928	89.73	-27437	2291.4	-0.37537	0.8054	0.43656
2.93	89.742	-27439	2291.5	-0.37576	0.80569	0.43627
2.932	89.747	-27440	2291.5	-0.37459	0.80588	0.43666
2.934	89.754	-27444	2291.6	-0.37342	0.80608	0.43705
2.936	89.76	-27447	2291.7	-0.37225	0.80627	0.43744
2.938	89.764	-27440	2291.7	-0.37108	0.80647	0.43783
2.94	89.772	-27434	2291.8	-0.3699	0.80666	0.43822
2.942	89.782	-27439	2291.8	-0.36961	0.80666	0.43813
2.944	89.782	-27445	2291.9	-0.36932	0.80666	0.43803
2.946	89.78	-27445	2292	-0.36903	0.80666	0.43793
2.948	89.782	-27444	2292	-0.36873	0.80666	0.43783
2.95	89.788	-27445	2292.1	-0.36844	0.80666	0.43774
2.952	89.793	-27447	2292.2	-0.36922	0.80696	0.43735
2.954	89.791	-27451	2292.3	-0.37	0.80725	0.43696
2.956	89.797	-27455	2292.3	-0.37078	0.80754	0.43656
2.958	89.797	-27457	2292.3	-0.37156	0.80784	0.43617
2.96	89.799	-27460	2292.3	-0.37234	0.80813	0.43578
2.962	89.801	-27451	2292.3	-0.37205	0.80823	0.43637
2.964	89.801	-27441	2292.4	-0.37176	0.80832	0.43696
2.966	89.807	-27440	2292.5	-0.37147	0.80842	0.43754
2.968	89.809	-27439	2292.5	-0.37117	0.80852	0.43813
2.97	89.81	-27443	2292.6	-0.37088	0.80862	0.43871
2.972	89.826	-27447	2292.6	-0.37127	0.80852	0.43822
2.974	89.829	-27448	2292.7	-0.37166	0.80842	0.43774
2.976	89.832	-27449	2292.8	-0.37205	0.80832	0.43725
2.978	89.831	-27443	2292.8	-0.37244	0.80823	0.43676
2.98	89.83	-27438	2292.9	-0.37283	0.80813	0.43627
2.982	89.823	-27439	2292.9	-0.37117	0.8092	0.43793
2.984	89.824	-27440	2293	-0.36951	0.81028	0.43959
2.986	89.825	-27441	2293.1	-0.36785	0.81135	0.44125
2.988	89.825	-27441	2293.2	-0.3662	0.81242	0.44291
2.99	89.826	-27437	2293.3	-0.36454	0.8135	0.44457
2.992	89.825	-27432	2293.3	-0.36424	0.81408	0.44447
2.994	89.828	-27432	2293.4	-0.36395	0.81467	0.44437
2.996	89.828	-27433	2293.5	-0.36366	0.81525	0.44428
2.998	89.822	-27432	2293.6	-0.36336	0.81584	0.44418
3	89.82	-27431	2293.7	-0.36307	0.81642	0.44408
3.002	89.815	-27433	2293.8	-0.36415	0.81496	0.4434
3.004	89.811	-27434	2293.8	-0.36522	0.8135	0.44271
3.006	89.809	-27432	2293.9	-0.36629	0.81203	0.44203
3.008	89.81	-27429	2294.1	-0.36737	0.81057	0.44135
3.01	89.809	-27428	2294.2	-0.36844	0.8091	0.44066
3.012	89.808	-27427	2294.3	-0.36815	0.80988	0.44115
3.014	89.814	-27430	2294.3	-0.36785	0.81067	0.44164
3.016	89.816	-27433	2294.4	-0.36756	0.81145	0.44213
3.018	89.815	-27433	2294.5	-0.36727	0.81223	0.44262
3.02	89.818	-27434	2294.6	-0.36698	0.81301	0.4431
3.022	89.818	-27434	2294.6	-0.36668	0.81359	0.4434
3.024	89.817	-27435	2294.7	-0.36639	0.81418	0.44369
3.026	89.823	-27430	2294.7	-0.3661	0.81476	0.44398
3.028	89.829	-27425	2294.8	-0.3658	0.81535	0.44428
3.03	89.829	-27424	2294.9	-0.36551	0.81594	0.44457
3.032	89.82	-27424	2295	-0.36668	0.81496	0.44506
3.034	89.808	-27422	2295.1	-0.36785	0.81398	0.44554
3.036	89.806	-27421	2295.2	-0.36903	0.81301	0.44603
3.038	89.805	-27422	2295.2	-0.3702	0.81203	0.44652
3.04	89.806	-27423	2295.3	-0.37137	0.81106	0.44701
3.042	89.813	-27423	2295.4	-0.37	0.81135	0.44584
3.044	89.796	-27422	2295.5	-0.36864	0.81164	0.44467
3.046	89.791	-27422	2295.6	-0.36727	0.81193	0.44349
3.048	89.794	-27421	2295.7	-0.3659	0.81223	0.44232
3.05	89.806	-27426	2295.8	-0.36454	0.81252	0.44115
3.052	89.807	-27431	2295.9	-0.36473	0.81223	0.44154
3.054	89.803	-27432	2296	-0.36493	0.81193	0.44193
3.056	89.809	-27432	2296.1	-0.36512	0.81164	0.44232
3.058	89.816	-27430	2296.2	-0.36532	0.81135	0.44271
3.06	89.814	-27427	2296.3	-0.36551	0.81106	0.4431
3.062	89.805	-27424	2296.4	-0.3662	0.81096	0.44359
3.064	89.805	-27421	2296.4	-0.36688	0.81086	0.44408
3.066	89.804	-27423	2296.4	-0.36756	0.81076	0.44457
3.068	89.806	-27426	2296.3	-0.36824	0.81067	0.44506
3.07	89.808	-27423	2296.3	-0.36893	0.81057	0.44554
3.072	89.799	-27421	2296.2	-0.36776	0.81115	0.44506
3.074	89.802	-27418	2296.2	-0.36659	0.81174	0.44457
3.076	89.805	-27415	2296.1	-0.36541	0.81232	0.44408
3.078	89.802	-27417	2295.9	-0.36424	0.81291	0.44359
3.08	89.8	-27419	2295.8	-0.36307	0.8135	0.4431
3.082	89.801	-27419	2295.5	-0.36327	0.81291	0.44271
3.084	89.804	-27419	2295.3	-0.36346	0.81232	0.44232
3.086	89.804	-27424	2295	-0.36366	0.81174	0.44193
3.088	89.798	-27429	2294.8	-0.36385	0.81115	0.44154
3.09	89.794	-27425	2294.5	-0.36405	0.81057	0.44115
3.092	89.793	-27421	2294.2	-0.36356	0.81115	0.44115
3.094	89.795	-27414	2293.9	-0.36307	0.81174	0.44115
3.096	89.792	-27407	2293.6	-0.36258	0.81232	0.44115
3.098	89.788	-27406	2293.3	-0.3621	0.81291	0.44115
3.1	89.789	-27404	2293.1	-0.36161	0.8135	0.44115
3.102	89.793	-27404	2292.8	-0.36424	0.81252	0.43988
3.104	89.793	-27404	2292.4	-0.36688	0.81154	0.43861
3.106	89.791	-27405	2292.2	-0.36951	0.81057	0.43735
3.108	89.792	-27406	2291.9	-0.37215	0.80959	0.43608
3.11	89.79	-27406	2291.6	-0.37478	0.80862	0.43481
3.112	89.79	-27406	2291.5	-0.37449	0.80813	0.43481
3.114	89.796	-27407	2291.3	-0.3742	0.80764	0.43481
3.116	89.8	-27409	2291.1	-0.37391	0.80715	0.43481
3.118	89.798	-27410	2291	-0.37361	0.80666	0.43481
3.12	89.793	-27412	2290.8	-0.37332	0.80618	0.43481
3.122	89.795	-27412	2290.7	-0.37352	0.80637	0.43539
3.124	89.797	-27413	2290.6	-0.37371	0.80657	0.43598
3.126	89.798	-27412	2290.5	-0.37391	0.80676	0.43656
3.128	89.798	-27411	2290.4	-0.3741	0.80696	0.43715
3.13	89.791	-27410	2290.3	-0.3743	0.80715	0.43774
3.132	89.792	-27409	2290.3	-0.37352	0.80705	0.43744
3.134	89.789	-27412	2290.2	-0.37273	0.80696	0.43715
3.136	89.787	-27414	2290.2	-0.37195	0.80686	0.43686
3.138	89.794	-27416	2290.1	-0.37117	0.80676	0.43656
3.14	89.797	-27417	2290.1	-0.37039	0.80666	0.43627
3.142	89.806	-27414	2290.1	-0.37078	0.80696	0.43637
3.144	89.811	-27411	2290.2	-0.37117	0.80725	0.43647
3.146	89.801	-27409	2290.3	-0.37156	0.80754	0.43656
3.148	89.797	-27407	2290.4	-0.37195	0.80784	0.43666
3.15	89.797	-27409	2290.5	-0.37234	0.80813	0.43676
3.152	89.799	-27410	2290.5	-0.37176	0.80793	0.43676
3.154	89.802	-27413	2290.6	-0.37117	0.80774	0.43676
3.156	89.805	-27416	2290.6	-0.37059	0.80754	0.43676
3.158	89.807	-27415	2290.7	-0.37	0.80735	0.43676
3.16	89.81	-27414	2290.7	-0.36942	0.80715	0.43676
3.162	89.808	-27416	2290.8	-0.36981	0.80784	0.43656
3.164	89.811	-27419	2290.8	-0.3702	0.80852	0.43637
3.166	89.81	-27412	2290.9	-0.37059	0.8092	0.43617
3.168	89.81	-27404	2290.9	-0.37098	0.80988	0.43598
3.17	89.812	-27408	2290.9	-0.37137	0.81057	0.43578
3.172	89.814	-27412	2290.9	-0.37215	0.81008	0.43549
3.174	89.811	-27406	2291	-0.37293	0.80959	0.4352
3.176	89.81	-27400	2291	-0.37371	0.8091	0.43491
3.178	89.817	-27407	2291.1	-0.37449	0.80862	0.43461
3.18	89.822	-27414	2291.2	-0.37527	0.80813	0.43432
3.182	89.824	-27414	2291.2	-0.37459	0.80832	0.4351
3.184	89.825	-27415	2291.3	-0.37391	0.80852	0.43588
3.186	89.824	-27410	2291.4	-0.37322	0.80871	0.43666
3.188	89.823	-27406	2291.4	-0.37254	0.80891	0.43744
3.19	89.822	-27408	2291.4	-0.37186	0.8091	0.43822
3.192	89.82	-27410	2291.5	-0.37303	0.80871	0.43764
3.194	89.819	-27409	2291.6	-0.3742	0.80832	0.43705
3.196	89.821	-27409	2291.6	-0.37537	0.80793	0.43647
3.198	89.827	-27411	2291.7	-0.37654	0.80754	0.43588
3.2	89.825	-27414	2291.8	-0.37771	0.80715	0.4353
3.202	89.819	-27408	2292	-0.37644	0.80696	0.43588
3.204	89.815	-27402	2292.1	-0.37517	0.80676	0.43647
3.206	89.806	-27406	2292.3	-0.37391	0.80657	0.43705
3.208	89.802	-27411	2292.4	-0.37264	0.80637	0.43764
3.21	89.81	-27413	2292.5	-0.37137	0.80618	0.43822
3.212	89.814	-27415	2292.6	-0.37088	0.80686	0.43832
3.214	89.809	-27410	2292.7	-0.37039	0.80754	0.43842
3.216	89.807	-27405	2292.8	-0.3699	0.80823	0.43852
3.218	89.8	-27403	2292.9	-0.36942	0.80891	0.43861
3.22	89.801	-27401	2293.1	-0.36893	0.80959	0.43871
3.222	89.804	-27402	2293.1	-0.36922	0.81008	0.43979
3.224	89.803	-27403	2293.1	-0.36951	0.81057	0.44086
3.226	89.801	-27408	2293.1	-0.36981	0.81106	0.44193
3.228	89.806	-27413	2293.2	-0.3701	0.81154	0.44301
3.23	89.813	-27415	2293.2	-0.37039	0.81203	0.44408
3.232	89.816	-27417	2293.1	-0.36922	0.81232	0.44379
3.234	89.817	-27415	2293	-0.36805	0.81262	0.44349
3.236	89.819	-27414	2292.8	-0.36688	0.81291	0.4432
3.238	89.819	-27403	2292.6	-0.36571	0.8132	0.44291
3.24	89.826	-27392	2292.5	-0.36454	0.8135	0.44262
3.242	89.822	-27392	2292.3	-0.36502	0.8133	0.4434
3.244	89.823	-27393	2292.1	-0.36551	0.81311	0.44418
3.246	89.827	-27396	2292	-0.366	0.81291	0.44496
3.248	89.82	-27400	2291.8	-0.36649	0.81272	0.44574
3.25	89.817	-27402	2291.6	-0.36698	0.81252	0.44652
3.252	89.822	-27403	2291.4	-0.36776	0.81174	0.44428
3.254	89.821	-27402	2291.2	-0.36854	0.81096	0.44203
3.256	89.822	-27402	2291	-0.36932	0.81018	0.43979
3.258	89.826	-27402	2290.7	-0.3701	0.8094	0.43754
3.26	89.828	-27403	2290.5	-0.37088	0.80862	0.4353
3.262	89.831	-27403	2290.2	-0.37195	0.80871	0.43569
3.264	89.832	-27402	2290	-0.37303	0.80881	0.43608
3.266	89.829	-27405	2289.7	-0.3741	0.80891	0.43647
3.268	89.826	-27408	2289.5	-0.37517	0.80901	0.43686
3.27	89.825	-27408	2289.2	-0.37625	0.8091	0.43725
3.272	89.825	-27409	2288.9	-0.37674	0.8091	0.43696
3.274	89.821	-27411	2288.6	-0.37722	0.8091	0.43666
3.276	89.817	-27412	2288.3	-0.37771	0.8091	0.43637
3.278	89.816	-27408	2288	-0.3782	0.8091	0.43608
3.28	89.816	-27403	2287.7	-0.37869	0.8091	0.43578
3.282	89.818	-27407	2287.5	-0.37791	0.80871	0.4353
3.284	89.816	-27410	2287.2	-0.37713	0.80832	0.43481
3.286	89.806	-27409	2287	-0.37635	0.80793	0.43432
3.288	89.797	-27408	2286.8	-0.37556	0.80754	0.43383
3.29	89.793	-27407	2286.6	-0.37478	0.80715	0.43334
3.292	89.787	-27405	2286.4	-0.37381	0.80696	0.43422
3.294	89.782	-27403	2286.3	-0.37283	0.80676	0.4351
3.296	89.778	-27402	2286.2	-0.37186	0.80657	0.43598
3.298	89.774	-27398	2286.1	-0.37088	0.80637	0.43686
3.3	89.776	-27394	2286	-0.3699	0.80618	0.43774
3.302	89.779	-27393	2286	-0.37059	0.80598	0.43774
3.304	89.786	-27392	2286	-0.37127	0.80579	0.43774
3.306	89.786	-27397	2286.1	-0.37195	0.80559	0.43774
3.308	89.787	-27402	2286.1	-0.37264	0.8054	0.43774
3.31	89.785	-27403	2286.2	-0.37332	0.8052	0.43774
3.312	89.782	-27403	2286.3	-0.374	0.80657	0.43764
3.314	89.774	-27404	2286.4	-0.37469	0.80793	0.43754
3.316	89.756	-27404	2286.5	-0.37537	0.8093	0.43744
3.318	89.746	-27404	2286.7	-0.37605	0.81067	0.43735
3.32	89.754	-27404	2286.8	-0.37674	0.81203	0.43725
3.322	89.754	-27397	2287	-0.37439	0.81193	0.43793
3.324	89.755	-27391	2287.2	-0.37205	0.81184	0.43861
3.326	89.765	-27389	2287.4	-0.36971	0.81174	0.4393
3.328	89.776	-27388	2287.6	-0.36737	0.81164	0.43998
3.33	89.777	-27400	2287.8	-0.36502	0.81154	0.44066
3.332	89.775	-27411	2288	-0.36454	0.81223	0.44115
3.334	89.775	-27406	2288.2	-0.36405	0.81291	0.44164
3.336	89.771	-27401	2288.3	-0.36356	0.81359	0.44213
3.338	89.765	-27398	2288.5	-0.36307	0.81428	0.44262
3.34	89.762	-27394	2288.6	-0.36258	0.81496	0.4431
3.342	89.756	-27399	2288.7	-0.36346	0.81486	0.4433
3.344	89.76	-27403	2288.8	-0.36434	0.81476	0.44349
3.346	89.767	-27401	2288.9	-0.36522	0.81467	0.44369
3.348	89.768	-27399	2288.9	-0.3661	0.81457	0.44388
3.35	89.767	-27399	2288.9	-0.36698	0.81447	0.44408
3.352	89.773	-27400	2288.9	-0.36737	0.81408	0.44418
3.354	89.782	-27405	2288.9	-0.36776	0.81369	0.44428
3.356	89.784	-27410	2288.9	-0.36815	0.8133	0.44437
3.358	89.791	-27399	2288.8	-0.36854	0.81291	0.44447
3.36	89.798	-27388	2288.8	-0.36893	0.81252	0.44457
3.362	89.803	-27387	2288.7	-0.36746	0.81223	0.44379
3.364	89.817	-27386	2288.5	-0.366	0.81193	0.44301
3.366	89.828	-27394	2288.4	-0.36454	0.81164	0.44223
3.368	89.836	-27402	2288.2	-0.36307	0.81135	0.44144
3.37	89.846	-27401	2288	-0.36161	0.81106	0.44066
3.372	89.852	-27401	2287.9	-0.3618	0.81203	0.44115
3.374	89.849	-27403	2287.7	-0.362	0.81301	0.44164
3.376	89.841	-27406	2287.5	-0.36219	0.81398	0.44213
3.378	89.835	-27401	2287.3	-0.36239	0.81496	0.44262
3.38	89.838	-27396	2287.1	-0.36258	0.81594	0.4431
3.382	89.842	-27398	2287	-0.36336	0.81555	0.44281
3.384	89.84	-27401	2286.8	-0.36415	0.81516	0.44252
3.386	89.838	-27405	2286.6	-0.36493	0.81476	0.44223
3.388	89.845	-27409	2286.4	-0.36571	0.81437	0.44193
3.39	89.849	-27398	2286.2	-0.36649	0.81398	0.44164
3.392	89.853	-27387	2286.1	-0.3661	0.81389	0.44213
3.394	89.85	-27393	2285.9	-0.36571	0.81379	0.44262
3.396	89.85	-27400	2285.8	-0.36532	0.81369	0.4431
3.398	89.851	-27400	2285.7	-0.36493	0.81359	0.44359
3.4	89.852	-27401	2285.6	-0.36454	0.8135	0.44408
3.402	89.853	-27399	2285.6	-0.36512	0.8134	0.44418
3.404	89.858	-27398	2285.5	-0.36571	0.8133	0.44428
3.406	89.861	-27399	2285.5	-0.36629	0.8132	0.44437
3.408	89.853	-27401	2285.5	-0.36688	0.81311	0.44447
3.41	89.847	-27403	2285.5	-0.36746	0.81301	0.44457
3.412	89.848	-27406	2285.4	-0.36766	0.81281	0.44359
3.414	89.845	-27408	2285.4	-0.36785	0.81262	0.44262
3.416	89.842	-27411	2285.5	-0.36805	0.81242	0.44164
3.418	89.839	-27412	2285.5	-0.36824	0.81223	0.44066
3.42	89.842	-27412	2285.6	-0.36844	0.81203	0.43969
3.422	89.851	-27407	2285.6	-0.36746	0.81203	0.44047
3.424	89.861	-27402	2285.6	-0.36649	0.81203	0.44125
3.426	89.864	-27407	2285.7	-0.36551	0.81203	0.44203
3.428	89.862	-27412	2285.7	-0.36454	0.81203	0.44281
3.43	89.862	-27407	2285.8	-0.36356	0.81203	0.44359
3.432	89.865	-27401	2285.8	-0.36376	0.81232	0.4432
3.434	89.865	-27396	2285.8	-0.36395	0.81262	0.44281
3.436	89.857	-27391	2285.9	-0.36415	0.81291	0.44242
3.438	89.841	-27395	2285.8	-0.36434	0.8132	0.44203
3.44	89.814	-27399	2285.8	-0.36454	0.8135	0.44164
3.442	89.768	-27406	2285.8	-0.36463	0.8134	0.44144
3.444	89.712	-27413	2285.8	-0.36473	0.8133	0.44125
3.446	89.654	-27411	2285.7	-0.36483	0.8132	0.44105
3.448	89.598	-27408	2285.6	-0.36493	0.81311	0.44086
3.45	89.543	-27409	2285.6	-0.36502	0.81301	0.44066
3.452	89.481	-27411	2285.5	-0.36493	0.8133	0.44164
3.454	89.41	-27412	2285.5	-0.36483	0.81359	0.44262
3.456	89.336	-27414	2285.4	-0.36473	0.81389	0.44359
3.458	89.263	-27414	2285.3	-0.36463	0.81418	0.44457
3.46	89.207	-27413	2285.3	-0.36454	0.81447	0.44554
3.462	89.164	-27412	2285.2	-0.36473	0.81467	0.44525
3.464	89.123	-27410	2285.1	-0.36493	0.81486	0.44496
3.466	89.093	-27410	2285	-0.36512	0.81506	0.44467
3.468	89.089	-27409	2284.9	-0.36532	0.81525	0.44437
3.47	89.103	-27408	2284.8	-0.36551	0.81545	0.44408
3.472	89.159	-27406	2284.7	-0.36493	0.81545	0.44418
3.474	89.235	-27409	2284.5	-0.36434	0.81545	0.44428
3.476	89.326	-27413	2284.4	-0.36376	0.81545	0.44437
3.478	89.437	-27412	2284.3	-0.36317	0.81545	0.44447
3.48	89.565	-27411	2284.2	-0.36258	0.81545	0.44457
3.482	89.692	-27412	2284	-0.36336	0.81486	0.44428
3.484	89.777	-27413	2283.9	-0.36415	0.81428	0.44398
3.486	89.822	-27415	2283.7	-0.36493	0.81369	0.44369
3.488	89.837	-27416	2283.6	-0.36571	0.81311	0.4434
3.49	89.829	-27409	2283.5	-0.36649	0.81252	0.4431
3.492	89.828	-27403	2283.4	-0.36571	0.81311	0.44349
3.494	89.839	-27402	2283.3	-0.36493	0.81369	0.44388
3.496	89.843	-27401	2283.2	-0.36415	0.81428	0.44428
3.498	89.833	-27403	2283.1	-0.36336	0.81486	0.44467
3.5	89.831	-27405	2283	-0.36258	0.81545	0.44506
3.502	89.83	-27406	2282.9	-0.36317	0.81516	0.44486
3.504	89.82	-27407	2282.8	-0.36376	0.81486	0.44467
3.506	89.807	-27407	2282.8	-0.36434	0.81457	0.44447
3.508	89.802	-27407	2282.7	-0.36493	0.81428	0.44428
3.51	89.803	-27413	2282.7	-0.36551	0.81398	0.44408
3.512	89.801	-27419	2282.7	-0.36493	0.81408	0.44369
3.514	89.803	-27416	2282.7	-0.36434	0.81418	0.4433
3.516	89.81	-27413	2282.7	-0.36376	0.81428	0.44291
3.518	89.81	-27414	2282.8	-0.36317	0.81437	0.44252
3.52	89.808	-27415	2282.8	-0.36258	0.81447	0.44213
3.522	89.808	-27410	2282.8	-0.36336	0.81447	0.44213
3.524	89.803	-27406	2282.9	-0.36415	0.81447	0.44213
3.526	89.8	-27409	2282.9	-0.36493	0.81447	0.44213
3.528	89.802	-27411	2282.9	-0.36571	0.81447	0.44213
3.53	89.799	-27411	2282.9	-0.36649	0.81447	0.44213
3.532	89.793	-27411	2282.9	-0.36698	0.81408	0.44262
3.534	89.789	-27407	2282.9	-0.36746	0.81369	0.4431
3.536	89.788	-27403	2282.8	-0.36795	0.8133	0.44359
3.538	89.783	-27405	2282.8	-0.36844	0.81291	0.44408
3.54	89.784	-27407	2282.8	-0.36893	0.81252	0.44457
3.542	89.784	-27410	2282.9	-0.36815	0.81242	0.44398
3.544	89.782	-27414	2282.9	-0.36737	0.81232	0.4434
3.546	89.787	-27413	2282.9	-0.36659	0.81223	0.44281
3.548	89.794	-27412	2282.8	-0.3658	0.81213	0.44223
3.55	89.797	-27413	2282.8	-0.36502	0.81203	0.44164
3.552	89.796	-27415	2282.8	-0.36522	0.81242	0.44242
3.554	89.795	-27413	2282.7	-0.36541	0.81281	0.4432
3.556	89.787	-27411	2282.7	-0.36561	0.8132	0.44398
3.558	89.784	-27415	2282.7	-0.3658	0.81359	0.44476
3.56	89.789	-27420	2282.7	-0.366	0.81398	0.44554
3.562	89.786	-27417	2282.6	-0.3661	0.81369	0.44554
3.564	89.774	-27414	2282.6	-0.3662	0.8134	0.44554
3.566	89.769	-27414	2282.6	-0.36629	0.81311	0.44554
3.568	89.769	-27413	2282.6	-0.36639	0.81281	0.44554
3.57	89.76	-27418	2282.6	-0.36649	0.81252	0.44554
3.572	89.759	-27424	2282.6	-0.3662	0.81291	0.44515
3.574	89.773	-27417	2282.5	-0.3659	0.8133	0.44476
3.576	89.767	-27410	2282.5	-0.36561	0.81369	0.44437
3.578	89.757	-27413	2282.4	-0.36532	0.81408	0.44398
3.58	89.755	-27417	2282.3	-0.36502	0.81447	0.44359
3.582	89.75	-27412	2282.2	-0.36512	0.81457	0.44359
3.584	89.752	-27407	2282.1	-0.36522	0.81467	0.44359
3.586	89.749	-27412	2282	-0.36532	0.81476	0.44359
3.588	89.749	-27417	2282	-0.36541	0.81486	0.44359
3.59	89.742	-27417	2281.9	-0.36551	0.81496	0.44359
3.592	89.73	-27416	2281.8	-0.36463	0.81457	0.44349
3.594	89.727	-27420	2281.7	-0.36376	0.81418	0.4434
3.596	89.726	-27424	2281.6	-0.36288	0.81379	0.4433
3.598	89.722	-27421	2281.6	-0.362	0.8134	0.4432
3.6	89.724	-27417	2281.5	-0.36112	0.81301	0.4431
3.602	89.726	-27416	2281.5	-0.36219	0.81272	0.44252
3.604	89.72	-27415	2281.4	-0.36327	0.81242	0.44193
3.606	89.715	-27416	2281.4	-0.36434	0.81213	0.44135
3.608	89.712	-27418	2281.3	-0.36541	0.81184	0.44076
3.61	89.704	-27420	2281.3	-0.36649	0.81154	0.44018
3.612	89.696	-27423	2281.3	-0.36854	0.81086	0.43871
3.614	89.691	-27415	2281.4	-0.37059	0.81018	0.43725
3.616	89.684	-27408	2281.4	-0.37264	0.80949	0.43578
3.618	89.68	-27418	2281.4	-0.37469	0.80881	0.43432
3.62	89.676	-27428	2281.4	-0.37674	0.80813	0.43286
3.622	89.666	-27425	2281.5	-0.37517	0.80959	0.4353
3.624	89.66	-27422	2281.6	-0.37361	0.81106	0.43774
3.626	89.659	-27421	2281.7	-0.37205	0.81252	0.44018
3.628	89.65	-27421	2281.7	-0.37049	0.81398	0.44262
3.63	89.638	-27422	2281.8	-0.36893	0.81545	0.44506
3.632	89.629	-27423	2281.8	-0.36824	0.81516	0.44447
3.634	89.623	-27425	2281.8	-0.36756	0.81486	0.44388
3.636	89.615	-27426	2281.9	-0.36688	0.81457	0.4433
3.638	89.614	-27423	2281.9	-0.3662	0.81428	0.44271
3.64	89.605	-27419	2281.9	-0.36551	0.81398	0.44213
3.642	89.608	-27417	2282	-0.36522	0.81476	0.44184
3.644	89.597	-27414	2282	-0.36493	0.81555	0.44154
3.646	89.585	-27416	2282.1	-0.36463	0.81633	0.44125
3.648	89.588	-27417	2282.2	-0.36434	0.81711	0.44096
3.65	89.578	-27425	2282.3	-0.36405	0.81789	0.44066
3.652	89.587	-27432	2282.4	-0.36434	0.8172	0.44115
3.654	89.587	-27430	2282.5	-0.36463	0.81652	0.44164
3.656	89.579	-27427	2282.7	-0.36493	0.81584	0.44213
3.658	89.577	-27425	2282.8	-0.36522	0.81516	0.44262
3.66	89.567	-27423	2283	-0.36551	0.81447	0.4431
3.662	89.562	-27426	2283.3	-0.36551	0.81496	0.4431
3.664	89.564	-27428	2283.6	-0.36551	0.81545	0.4431
3.666	89.558	-27426	2283.8	-0.36551	0.81594	0.4431
3.668	89.56	-27424	2284	-0.36551	0.81642	0.4431
3.67	89.565	-27426	2284.3	-0.36551	0.81691	0.4431
3.672	89.565	-27428	2284.5	-0.36502	0.81613	0.44291
3.674	89.564	-27432	2284.7	-0.36454	0.81535	0.44271
3.676	89.563	-27435	2284.9	-0.36405	0.81457	0.44252
3.678	89.562	-27430	2285.2	-0.36356	0.81379	0.44232
3.68	89.562	-27424	2285.4	-0.36307	0.81301	0.44213
3.682	89.56	-27422	2285.6	-0.36336	0.81272	0.44203
3.684	89.559	-27419	2285.8	-0.36366	0.81242	0.44193
3.686	89.56	-27423	2286	-0.36395	0.81213	0.44184
3.688	89.565	-27427	2286.2	-0.36424	0.81184	0.44174
3.69	89.571	-27428	2286.4	-0.36454	0.81154	0.44164
3.692	89.571	-27428	2286.6	-0.36532	0.81076	0.44164
3.694	89.571	-27430	2286.8	-0.3661	0.80998	0.44164
3.696	89.577	-27432	2287	-0.36688	0.8092	0.44164
3.698	89.586	-27428	2287.2	-0.36766	0.80842	0.44164
3.7	89.593	-27425	2287.3	-0.36844	0.80764	0.44164
3.702	89.6	-27422	2287.4	-0.36737	0.8093	0.44184
3.704	89.61	-27419	2287.5	-0.36629	0.81096	0.44203
3.706	89.62	-27420	2287.6	-0.36522	0.81262	0.44223
3.708	89.624	-27421	2287.8	-0.36415	0.81428	0.44242
3.71	89.623	-27421	2287.9	-0.36307	0.81594	0.44262
3.712	89.634	-27421	2288	-0.36307	0.81555	0.4431
3.714	89.646	-27422	2288.1	-0.36307	0.81516	0.44359
3.716	89.65	-27424	2288.1	-0.36307	0.81476	0.44408
3.718	89.657	-27424	2288.2	-0.36307	0.81437	0.44457
3.72	89.664	-27425	2288.2	-0.36307	0.81398	0.44506
3.722	89.672	-27421	2288.2	-0.36366	0.8133	0.44398
3.724	89.677	-27418	2288.2	-0.36424	0.81262	0.44291
3.726	89.693	-27415	2288.2	-0.36483	0.81193	0.44184
3.728	89.705	-27412	2288.3	-0.36541	0.81125	0.44076
3.73	89.717	-27412	2288.3	-0.366	0.81057	0.43969
3.732	89.728	-27412	2288.3	-0.3658	0.81096	0.44047
3.734	89.738	-27416	2288.3	-0.36561	0.81135	0.44125
3.736	89.743	-27420	2288.3	-0.36541	0.81174	0.44203
3.738	89.747	-27417	2288.3	-0.36522	0.81213	0.44281
3.74	89.757	-27414	2288.3	-0.36502	0.81252	0.44359
3.742	89.76	-27414	2288.3	-0.36551	0.81213	0.44271
3.744	89.768	-27414	2288.4	-0.366	0.81174	0.44184
3.746	89.772	-27411	2288.4	-0.36649	0.81135	0.44096
3.748	89.774	-27407	2288.5	-0.36698	0.81096	0.44008
3.75	89.775	-27405	2288.5	-0.36746	0.81057	0.4392
3.752	89.781	-27402	2288.5	-0.36639	0.81106	0.43949
3.754	89.789	-27402	2288.5	-0.36532	0.81154	0.43979
3.756	89.785	-27403	2288.5	-0.36424	0.81203	0.44008
3.758	89.79	-27408	2288.5	-0.36317	0.81252	0.44037
3.76	89.797	-27414	2288.5	-0.3621	0.81301	0.44066
3.762	89.801	-27412	2288.6	-0.362	0.8133	0.44027
3.764	89.806	-27410	2288.6	-0.3619	0.81359	0.43988
3.766	89.805	-27404	2288.7	-0.3618	0.81389	0.43949
3.768	89.811	-27397	2288.7	-0.36171	0.81418	0.4391
3.77	89.811	-27396	2288.7	-0.36161	0.81447	0.43871
3.772	89.808	-27394	2288.7	-0.3621	0.81457	0.43959
3.774	89.81	-27394	2288.8	-0.36258	0.81467	0.44047
3.776	89.811	-27395	2288.8	-0.36307	0.81476	0.44135
3.778	89.811	-27395	2288.9	-0.36356	0.81486	0.44223
3.78	89.812	-27395	2289	-0.36405	0.81496	0.4431
3.782	89.813	-27389	2289.1	-0.36493	0.81486	0.44349
3.784	89.813	-27383	2289.2	-0.3658	0.81476	0.44388
3.786	89.814	-27382	2289.2	-0.36668	0.81467	0.44428
3.788	89.814	-27382	2289.3	-0.36756	0.81457	0.44467
3.79	89.815	-27384	2289.4	-0.36844	0.81447	0.44506
3.792	89.821	-27387	2289.5	-0.36785	0.81467	0.44535
3.794	89.828	-27391	2289.7	-0.36727	0.81486	0.44564
3.796	89.829	-27394	2289.8	-0.36668	0.81506	0.44593
3.798	89.828	-27393	2289.9	-0.3661	0.81525	0.44623
3.8	89.826	-27392	2290	-0.36551	0.81545	0.44652
3.802	89.826	-27390	2290.1	-0.3659	0.81574	0.44603
3.804	89.822	-27388	2290.3	-0.36629	0.81603	0.44554
3.806	89.821	-27386	2290.4	-0.36668	0.81633	0.44506
3.808	89.825	-27384	2290.6	-0.36707	0.81662	0.44457
3.81	89.815	-27382	2290.7	-0.36746	0.81691	0.44408
3.812	89.806	-27380	2290.9	-0.36717	0.81642	0.44418
3.814	89.803	-27383	2291	-0.36688	0.81594	0.44428
3.816	89.802	-27386	2291.1	-0.36659	0.81545	0.44437
3.818	89.801	-27387	2291.2	-0.36629	0.81496	0.44447
3.82	89.798	-27388	2291.4	-0.366	0.81447	0.44457
3.822	89.802	-27389	2291.5	-0.3658	0.81428	0.44437
3.824	89.808	-27390	2291.6	-0.36561	0.81408	0.44418
3.826	89.811	-27385	2291.7	-0.36541	0.81389	0.44398
3.828	89.808	-27381	2291.8	-0.36522	0.81369	0.44379
3.83	89.81	-27381	2292	-0.36502	0.8135	0.44359
3.832	89.807	-27380	2292.1	-0.36532	0.8135	0.44398
3.834	89.798	-27377	2292.2	-0.36561	0.8135	0.44437
3.836	89.792	-27373	2292.3	-0.3659	0.8135	0.44476
3.838	89.797	-27377	2292.4	-0.3662	0.8135	0.44515
3.84	89.794	-27382	2292.5	-0.36649	0.8135	0.44554
3.842	89.789	-27382	2292.6	-0.3662	0.81359	0.44496
3.844	89.79	-27382	2292.7	-0.3659	0.81369	0.44437
3.846	89.8	-27380	2292.7	-0.36561	0.81379	0.44379
3.848	89.801	-27377	2292.8	-0.36532	0.81389	0.4432
3.85	89.797	-27377	2292.9	-0.36502	0.81398	0.44262
3.852	89.801	-27378	2293	-0.36541	0.81428	0.44271
3.854	89.8	-27376	2293.1	-0.3658	0.81457	0.44281
3.856	89.797	-27374	2293.2	-0.3662	0.81486	0.44291
3.858	89.794	-27379	2293.2	-0.36659	0.81516	0.44301
3.86	89.791	-27384	2293.2	-0.36698	0.81545	0.4431
3.862	89.788	-27379	2293.3	-0.36727	0.81457	0.44301
3.864	89.782	-27374	2293.4	-0.36756	0.81369	0.44291
3.866	89.776	-27375	2293.4	-0.36785	0.81281	0.44281
3.868	89.775	-27377	2293.4	-0.36815	0.81193	0.44271
3.87	89.776	-27377	2293.4	-0.36844	0.81106	0.44262
3.872	89.779	-27378	2293.4	-0.36805	0.81115	0.44281
3.874	89.779	-27375	2293.4	-0.36766	0.81125	0.44301
3.876	89.778	-27371	2293.4	-0.36727	0.81135	0.4432
3.878	89.782	-27366	2293.3	-0.36688	0.81145	0.4434
3.88	89.785	-27361	2293.3	-0.36649	0.81154	0.44359
3.882	89.783	-27362	2293.1	-0.36776	0.81057	0.44223
3.884	89.781	-27364	2293	-0.36903	0.80959	0.44086
3.886	89.776	-27369	2292.9	-0.37029	0.80862	0.43949
3.888	89.777	-27375	2292.7	-0.37156	0.80764	0.43813
3.89	89.781	-27376	2292.6	-0.37283	0.80666	0.43676
3.892	89.78	-27376	2292.4	-0.37283	0.80647	0.43676
3.894	89.78	-27375	2292.2	-0.37283	0.80627	0.43676
3.896	89.767	-27373	2292	-0.37283	0.80608	0.43676
3.898	89.773	-27372	2291.8	-0.37283	0.80588	0.43676
3.9	89.782	-27370	2291.7	-0.37283	0.80569	0.43676
3.902	89.784	-27371	2291.5	-0.37332	0.80618	0.43656
3.904	89.784	-27372	2291.3	-0.37381	0.80666	0.43637
3.906	89.785	-27372	2291.1	-0.3743	0.80715	0.43617
3.908	89.778	-27371	2290.8	-0.37478	0.80764	0.43598
3.91	89.777	-27377	2290.6	-0.37527	0.80813	0.43578
3.912	89.776	-27382	2290.4	-0.37508	0.80735	0.43588
3.914	89.77	-27374	2290.3	-0.37488	0.80657	0.43598
3.916	89.771	-27365	2290.1	-0.37469	0.80579	0.43608
3.918	89.781	-27364	2289.9	-0.37449	0.805	0.43617
3.92	89.784	-27364	2289.7	-0.3743	0.80422	0.43627
3.922	89.781	-27372	2289.6	-0.37459	0.80481	0.43598
3.924	89.782	-27379	2289.4	-0.37488	0.8054	0.43569
3.926	89.783	-27380	2289.2	-0.37517	0.80598	0.43539
3.928	89.785	-27380	2289.1	-0.37547	0.80657	0.4351
3.93	89.785	-27378	2288.9	-0.37576	0.80715	0.43481
3.932	89.781	-27375	2288.9	-0.374	0.80784	0.43569
3.934	89.781	-27375	2288.8	-0.37225	0.80852	0.43656
3.936	89.784	-27375	2288.7	-0.37049	0.8092	0.43744
3.938	89.788	-27376	2288.7	-0.36873	0.80988	0.43832
3.94	89.787	-27378	2288.6	-0.36698	0.81057	0.4392
3.942	89.779	-27377	2288.6	-0.36649	0.81115	0.44008
3.944	89.78	-27377	2288.5	-0.366	0.81174	0.44096
3.946	89.793	-27372	2288.5	-0.36551	0.81232	0.44184
3.948	89.796	-27367	2288.5	-0.36502	0.81291	0.44271
3.95	89.789	-27374	2288.5	-0.36454	0.8135	0.44359
3.952	89.787	-27380	2288.5	-0.36532	0.8133	0.44379
3.954	89.792	-27381	2288.6	-0.3661	0.81311	0.44398
3.956	89.797	-27381	2288.6	-0.36688	0.81291	0.44418
3.958	89.792	-27381	2288.7	-0.36766	0.81272	0.44437
3.96	89.782	-27381	2288.7	-0.36844	0.81252	0.44457
3.962	89.786	-27376	2288.8	-0.36834	0.81262	0.44437
3.964	89.79	-27370	2288.9	-0.36824	0.81272	0.44418
3.966	89.788	-27369	2289	-0.36815	0.81281	0.44398
3.968	89.79	-27368	2289.1	-0.36805	0.81291	0.44379
3.97	89.791	-27373	2289.2	-0.36795	0.81301	0.44359
3.972	89.793	-27378	2289.3	-0.36737	0.81232	0.4433
3.974	89.793	-27375	2289.5	-0.36678	0.81164	0.44301
3.976	89.794	-27372	2289.6	-0.3662	0.81096	0.44271
3.978	89.802	-27379	2289.8	-0.36561	0.81028	0.44242
3.98	89.796	-27386	2289.9	-0.36502	0.80959	0.44213
3.982	89.792	-27380	2290	-0.36551	0.81018	0.44232
3.984	89.799	-27373	2290.2	-0.366	0.81076	0.44252
3.986	89.809	-27374	2290.4	-0.36649	0.81135	0.44271
3.988	89.81	-27375	2290.6	-0.36698	0.81193	0.44291
3.99	89.81	-27377	2290.7	-0.36746	0.81252	0.4431
3.992	89.801	-27378	2291	-0.36756	0.81193	0.4434
3.994	89.806	-27373	2291.2	-0.36766	0.81135	0.44369
3.996	89.805	-27368	2291.3	-0.36776	0.81076	0.44398
3.998	89.807	-27369	2291.5	-0.36785	0.81018	0.44428
4	89.806	-27370	2291.7	-0.36795	0.80959	0.44457
4.002	89.804	-27375	2291.9	-0.36668	0.81106	0.44447
4.004	89.811	-27380	2292.1	-0.36541	0.81252	0.44437
4.006	89.815	-27376	2292.3	-0.36415	0.81398	0.44428
4.008	89.817	-27371	2292.5	-0.36288	0.81545	0.44418
4.01	89.83	-27371	2292.7	-0.36161	0.81691	0.44408
4.012	89.832	-27370	2292.8	-0.3621	0.81652	0.44418
4.014	89.821	-27372	2293	-0.36258	0.81613	0.44428
4.016	89.821	-27373	2293.1	-0.36307	0.81574	0.44437
4.018	89.826	-27371	2293.2	-0.36356	0.81535	0.44447
4.02	89.825	-27370	2293.4	-0.36405	0.81496	0.44457
4.022	89.816	-27369	2293.5	-0.36473	0.81408	0.44437
4.024	89.817	-27369	2293.7	-0.36541	0.8132	0.44418
4.026	89.815	-27368	2293.8	-0.3661	0.81232	0.44398
4.028	89.809	-27366	2293.8	-0.36678	0.81145	0.44379
4.03	89.81	-27369	2293.9	-0.36746	0.81057	0.44359
4.032	89.814	-27372	2294	-0.36668	0.81145	0.44369
4.034	89.814	-27372	2294	-0.3659	0.81232	0.44379
4.036	89.812	-27372	2294.1	-0.36512	0.8132	0.44388
4.038	89.814	-27376	2294.2	-0.36434	0.81408	0.44398
4.04	89.814	-27380	2294.2	-0.36356	0.81496	0.44408
4.042	89.813	-27371	2294.2	-0.36366	0.81516	0.44369
4.044	89.817	-27361	2294.2	-0.36376	0.81535	0.4433
4.046	89.82	-27369	2294.1	-0.36385	0.81555	0.44291
4.048	89.823	-27376	2294	-0.36395	0.81574	0.44252
4.05	89.824	-27378	2293.9	-0.36405	0.81594	0.44213
4.052	89.822	-27379	2293.8	-0.36405	0.81594	0.44242
4.054	89.818	-27372	2293.7	-0.36405	0.81594	0.44271
4.056	89.814	-27365	2293.6	-0.36405	0.81594	0.44301
4.058	89.817	-27368	2293.5	-0.36405	0.81594	0.4433
4.06	89.821	-27370	2293.3	-0.36405	0.81594	0.44359
4.062	89.82	-27369	2293.1	-0.36444	0.81447	0.4433
4.064	89.814	-27367	2292.9	-0.36483	0.81301	0.44301
4.066	89.808	-27371	2292.7	-0.36522	0.81154	0.44271
4.068	89.811	-27375	2292.5	-0.36561	0.81008	0.44242
4.07	89.808	-27375	2292.3	-0.366	0.80862	0.44213
4.072	89.809	-27374	2292.1	-0.36512	0.80949	0.44213
4.074	89.813	-27368	2291.9	-0.36424	0.81037	0.44213
4.076	89.81	-27362	2291.7	-0.36336	0.81125	0.44213
4.078	89.817	-27368	2291.4	-0.36249	0.81213	0.44213
4.08	89.82	-27375	2291.1	-0.36161	0.81301	0.44213
4.082	89.809	-27371	2290.9	-0.36278	0.81252	0.44242
4.084	89.808	-27368	2290.7	-0.36395	0.81203	0.44271
4.086	89.807	-27366	2290.5	-0.36512	0.81154	0.44301
4.088	89.802	-27364	2290.2	-0.36629	0.81106	0.4433
4.09	89.808	-27361	2290	-0.36746	0.81057	0.44359
4.092	89.809	-27358	2289.7	-0.36688	0.81164	0.4433
4.094	89.803	-27364	2289.5	-0.36629	0.81272	0.44301
4.096	89.803	-27369	2289.3	-0.36571	0.81379	0.44271
4.098	89.799	-27366	2289.1	-0.36512	0.81486	0.44242
4.1	89.791	-27362	2288.8	-0.36454	0.81594	0.44213
4.102	89.778	-27361	2288.6	-0.36512	0.81623	0.44281
4.104	89.774	-27359	2288.4	-0.36571	0.81652	0.44349
4.106	89.769	-27361	2288.3	-0.36629	0.81681	0.44418
4.108	89.765	-27364	2288.1	-0.36688	0.81711	0.44486
4.11	89.768	-27362	2287.9	-0.36746	0.8174	0.44554
4.112	89.769	-27361	2287.8	-0.36727	0.81652	0.44515
4.114	89.767	-27362	2287.7	-0.36707	0.81564	0.44476
4.116	89.771	-27363	2287.6	-0.36688	0.81476	0.44437
4.118	89.778	-27366	2287.5	-0.36668	0.81389	0.44398
4.12	89.778	-27369	2287.4	-0.36649	0.81301	0.44359
4.122	89.773	-27367	2287.3	-0.3661	0.8134	0.44388
4.124	89.768	-27364	2287.2	-0.36571	0.81379	0.44418
4.126	89.76	-27362	2287.2	-0.36532	0.81418	0.44447
4.128	89.746	-27360	2287.2	-0.36493	0.81457	0.44476
4.13	89.735	-27362	2287.1	-0.36454	0.81496	0.44506
4.132	89.732	-27364	2287.1	-0.36444	0.81467	0.44457
4.134	89.731	-27366	2287.1	-0.36434	0.81437	0.44408
4.136	89.73	-27368	2287.1	-0.36424	0.81408	0.44359
4.138	89.739	-27369	2287.2	-0.36415	0.81379	0.4431
4.14	89.747	-27370	2287.2	-0.36405	0.8135	0.44262
4.142	89.756	-27370	2287.2	-0.36376	0.81369	0.44262
4.144	89.754	-27370	2287.2	-0.36346	0.81389	0.44262
4.146	89.75	-27370	2287.2	-0.36317	0.81408	0.44262
4.148	89.741	-27370	2287.3	-0.36288	0.81428	0.44262
4.15	89.736	-27370	2287.3	-0.36258	0.81447	0.44262
4.152	89.736	-27369	2287.3	-0.36366	0.81428	0.44262
4.154	89.738	-27366	2287.3	-0.36473	0.81408	0.44262
4.156	89.742	-27364	2287.3	-0.3658	0.81389	0.44262
4.158	89.745	-27358	2287.3	-0.36688	0.81369	0.44262
4.16	89.746	-27353	2287.3	-0.36795	0.8135	0.44262
4.162	89.748	-27359	2287.3	-0.36756	0.8134	0.4431
4.164	89.747	-27366	2287.3	-0.36717	0.8133	0.44359
4.166	89.759	-27362	2287.4	-0.36678	0.8132	0.44408
4.168	89.766	-27358	2287.3	-0.36639	0.81311	0.44457
4.17	89.77	-27365	2287.3	-0.366	0.81301	0.44506
4.172	89.782	-27372	2287.3	-0.36561	0.8132	0.44457
4.174	89.786	-27368	2287.3	-0.36522	0.8134	0.44408
4.176	89.793	-27363	2287.3	-0.36483	0.81359	0.44359
4.178	89.805	-27365	2287.2	-0.36444	0.81379	0.4431
4.18	89.821	-27367	2287.1	-0.36405	0.81398	0.44262
4.182	89.825	-27368	2287.1	-0.36424	0.81408	0.4431
4.184	89.822	-27369	2287.1	-0.36444	0.81418	0.44359
4.186	89.822	-27366	2287	-0.36463	0.81428	0.44408
4.188	89.82	-27362	2287	-0.36483	0.81437	0.44457
4.19	89.817	-27367	2286.9	-0.36502	0.81447	0.44506
4.192	89.816	-27372	2286.9	-0.36512	0.81457	0.44437
4.194	89.811	-27372	2286.8	-0.36522	0.81467	0.44369
4.196	89.81	-27372	2286.8	-0.36532	0.81476	0.44301
4.198	89.817	-27369	2286.8	-0.36541	0.81486	0.44232
4.2	89.82	-27365	2286.8	-0.36551	0.81496	0.44164
4.202	89.824	-27368	2286.8	-0.36483	0.81457	0.44184
4.204	89.825	-27371	2286.9	-0.36415	0.81418	0.44203
4.206	89.821	-27370	2286.9	-0.36346	0.81379	0.44223
4.208	89.818	-27370	2286.9	-0.36278	0.8134	0.44242
4.21	89.816	-27367	2286.9	-0.3621	0.81301	0.44262
4.212	89.818	-27364	2286.9	-0.36288	0.8133	0.44349
4.214	89.823	-27370	2286.9	-0.36366	0.81359	0.44437
4.216	89.825	-27376	2286.9	-0.36444	0.81389	0.44525
4.218	89.827	-27373	2286.9	-0.36522	0.81418	0.44613
4.22	89.83	-27371	2286.9	-0.366	0.81447	0.44701
4.222	89.831	-27373	2287	-0.366	0.81437	0.44613
4.224	89.83	-27375	2287	-0.366	0.81428	0.44525
4.226	89.827	-27376	2287	-0.366	0.81418	0.44437
4.228	89.823	-27377	2287.1	-0.366	0.81408	0.44349
4.23	89.82	-27371	2287.1	-0.366	0.81398	0.44262
4.232	89.82	-27366	2287.1	-0.3658	0.81379	0.44301
4.234	89.82	-27367	2287.1	-0.36561	0.81359	0.4434
4.236	89.822	-27369	2287.1	-0.36541	0.8134	0.44379
4.238	89.829	-27366	2287	-0.36522	0.8132	0.44418
4.24	89.835	-27363	2287	-0.36502	0.81301	0.44457
4.242	89.841	-27368	2286.9	-0.36463	0.8132	0.44369
4.244	89.84	-27374	2286.9	-0.36424	0.8134	0.44281
4.246	89.845	-27376	2286.8	-0.36385	0.81359	0.44193
4.248	89.849	-27378	2286.8	-0.36346	0.81379	0.44105
4.25	89.831	-27374	2286.8	-0.36307	0.81398	0.44018
4.252	89.812	-27370	2286.7	-0.36463	0.8133	0.44076
4.254	89.771	-27374	2286.6	-0.3662	0.81262	0.44135
4.256	89.706	-27378	2286.6	-0.36776	0.81193	0.44193
4.258	89.651	-27376	2286.5	-0.36932	0.81125	0.44252
4.26	89.595	-27374	2286.4	-0.37088	0.81057	0.4431
4.262	89.533	-27377	2286.3	-0.36971	0.81145	0.44359
4.264	89.466	-27380	2286.2	-0.36854	0.81232	0.44408
4.266	89.393	-27377	2286.1	-0.36737	0.8132	0.44457
4.268	89.316	-27374	2285.9	-0.3662	0.81408	0.44506
4.27	89.241	-27376	2285.8	-0.36502	0.81496	0.44554
4.272	89.177	-27378	2285.7	-0.3659	0.81408	0.44486
4.274	89.135	-27375	2285.5	-0.36678	0.8132	0.44418
4.276	89.098	-27371	2285.4	-0.36766	0.81232	0.44349
4.278	89.073	-27374	2285.3	-0.36854	0.81145	0.44281
4.28	89.074	-27376	2285.1	-0.36942	0.81057	0.44213
4.282	89.096	-27372	2284.9	-0.36873	0.81086	0.44223
4.284	89.14	-27369	2284.7	-0.36805	0.81115	0.44232
4.286	89.207	-27372	2284.5	-0.36737	0.81145	0.44242
4.288	89.293	-27375	2284.3	-0.36668	0.81174	0.44252
4.29	89.406	-27377	2284.2	-0.366	0.81203	0.44262
4.292	89.539	-27379	2284	-0.36532	0.81213	0.44291
4.294	89.66	-27379	2283.8	-0.36463	0.81223	0.4432
4.296	89.743	-27380	2283.7	-0.36395	0.81232	0.44349
4.298	89.779	-27378	2283.5	-0.36327	0.81242	0.44379
4.3	89.788	-27377	2283.3	-0.36258	0.81252	0.44408
4.302	89.794	-27376	2283.1	-0.36288	0.81223	0.44408
4.304	89.801	-27375	2282.9	-0.36317	0.81193	0.44408
4.306	89.813	-27375	2282.7	-0.36346	0.81164	0.44408
4.308	89.822	-27376	2282.6	-0.36376	0.81135	0.44408
4.31	89.821	-27376	2282.5	-0.36405	0.81106	0.44408
4.312	89.812	-27376	2282.4	-0.36424	0.81115	0.44447
4.314	89.808	-27376	2282.3	-0.36444	0.81125	0.44486
4.316	89.806	-27376	2282.2	-0.36463	0.81135	0.44525
4.318	89.804	-27376	2282.1	-0.36483	0.81145	0.44564
4.32	89.798	-27375	2282	-0.36502	0.81154	0.44603
4.322	89.799	-27377	2282	-0.36512	0.81184	0.44506
4.324	89.8	-27378	2282	-0.36522	0.81213	0.44408
4.326	89.795	-27377	2282	-0.36532	0.81242	0.4431
4.328	89.779	-27375	2282	-0.36541	0.81272	0.44213
4.33	89.774	-27372	2282	-0.36551	0.81301	0.44115
4.332	89.783	-27370	2282	-0.36522	0.8133	0.44125
4.334	89.781	-27371	2282	-0.36493	0.81359	0.44135
4.336	89.781	-27373	2282.1	-0.36463	0.81389	0.44144
4.338	89.773	-27375	2282.2	-0.36434	0.81418	0.44154
4.34	89.774	-27378	2282.3	-0.36405	0.81447	0.44164
4.342	89.784	-27381	2282.3	-0.36376	0.81457	0.44223
4.344	89.789	-27384	2282.3	-0.36346	0.81467	0.44281
4.346	89.788	-27382	2282.3	-0.36317	0.81476	0.4434
4.348	89.78	-27380	2282.3	-0.36288	0.81486	0.44398
4.35	89.773	-27381	2282.3	-0.36258	0.81496	0.44457
4.352	89.771	-27381	2282.3	-0.36327	0.81467	0.44437
4.354	89.77	-27381	2282.4	-0.36395	0.81437	0.44418
4.356	89.757	-27380	2282.4	-0.36463	0.81408	0.44398
4.358	89.753	-27382	2282.5	-0.36532	0.81379	0.44379
4.36	89.752	-27384	2282.5	-0.366	0.8135	0.44359
4.362	89.749	-27383	2282.5	-0.36668	0.8133	0.44388
4.364	89.749	-27382	2282.6	-0.36737	0.81311	0.44418
4.366	89.747	-27381	2282.6	-0.36805	0.81291	0.44447
4.368	89.744	-27380	2282.7	-0.36873	0.81272	0.44476
4.37	89.744	-27381	2282.7	-0.36942	0.81252	0.44506
4.372	89.743	-27381	2282.7	-0.36844	0.81262	0.44457
4.374	89.737	-27382	2282.8	-0.36746	0.81272	0.44408
4.376	89.74	-27383	2282.8	-0.36649	0.81281	0.44359
4.378	89.747	-27383	2282.8	-0.36551	0.81291	0.4431
4.38	89.748	-27383	2282.9	-0.36454	0.81301	0.44262
4.382	89.745	-27381	2282.9	-0.36385	0.8133	0.44262
4.384	89.741	-27378	2283	-0.36317	0.81359	0.44262
4.386	89.736	-27379	2283	-0.36249	0.81389	0.44262
4.388	89.729	-27380	2283	-0.3618	0.81418	0.44262
4.39	89.722	-27381	2283.1	-0.36112	0.81447	0.44262
4.392	89.715	-27381	2283.1	-0.36161	0.81496	0.44262
4.394	89.712	-27388	2283.1	-0.3621	0.81545	0.44262
4.396	89.708	-27396	2283.1	-0.36258	0.81594	0.44262
4.398	89.705	-27394	2283.1	-0.36307	0.81642	0.44262
4.4	89.708	-27391	2283.1	-0.36356	0.81691	0.44262
4.402	89.701	-27389	2283.1	-0.36405	0.81681	0.4432
4.404	89.704	-27386	2283.1	-0.36454	0.81672	0.44379
4.406	89.707	-27386	2283.1	-0.36502	0.81662	0.44437
4.408	89.709	-27386	2283.1	-0.36551	0.81652	0.44496
4.41	89.706	-27386	2283.1	-0.366	0.81642	0.44554
4.412	89.699	-27385	2283.1	-0.36551	0.81603	0.44535
4.414	89.687	-27386	2283.1	-0.36502	0.81564	0.44515
4.416	89.69	-27387	2283	-0.36454	0.81525	0.44496
4.418	89.684	-27385	2283	-0.36405	0.81486	0.44476
4.42	89.68	-27383	2283	-0.36356	0.81447	0.44457
4.422	89.672	-27383	2283	-0.36376	0.81398	0.44428
4.424	89.661	-27384	2283	-0.36395	0.8135	0.44398
4.426	89.655	-27386	2283	-0.36415	0.81301	0.44369
4.428	89.648	-27389	2282.9	-0.36434	0.81252	0.4434
4.43	89.652	-27385	2282.9	-0.36454	0.81203	0.4431
4.432	89.65	-27381	2282.9	-0.36532	0.81262	0.44349
4.434	89.65	-27380	2282.9	-0.3661	0.8132	0.44388
4.436	89.647	-27380	2282.9	-0.36688	0.81379	0.44428
4.438	89.636	-27382	2282.8	-0.36766	0.81437	0.44467
4.44	89.616	-27384	2282.7	-0.36844	0.81496	0.44506
4.442	89.608	-27383	2282.7	-0.36776	0.81428	0.44447
4.444	89.606	-27382	2282.6	-0.36707	0.81359	0.44388
4.446	89.601	-27384	2282.5	-0.36639	0.81291	0.4433
4.448	89.596	-27386	2282.4	-0.36571	0.81223	0.44271
4.45	89.59	-27389	2282.3	-0.36502	0.81154	0.44213
4.452	89.585	-27392	2282.2	-0.36473	0.81242	0.44271
4.454	89.58	-27387	2282.1	-0.36444	0.8133	0.4433
4.456	89.574	-27383	2282	-0.36415	0.81418	0.44388
4.458	89.569	-27382	2281.9	-0.36385	0.81506	0.44447
4.46	89.562	-27380	2281.8	-0.36356	0.81594	0.44506
4.462	89.56	-27382	2281.7	-0.36415	0.81564	0.44515
4.464	89.556	-27383	2281.6	-0.36473	0.81535	0.44525
4.466	89.543	-27383	2281.6	-0.36532	0.81506	0.44535
4.468	89.539	-27382	2281.5	-0.3659	0.81476	0.44545
4.47	89.543	-27385	2281.5	-0.36649	0.81447	0.44554
4.472	89.537	-27388	2281.6	-0.3662	0.81476	0.44506
4.474	89.527	-27393	2281.7	-0.3659	0.81506	0.44457
4.476	89.521	-27398	2281.8	-0.36561	0.81535	0.44408
4.478	89.52	-27397	2282	-0.36532	0.81564	0.44359
4.48	89.519	-27395	2282.1	-0.36502	0.81594	0.4431
4.482	89.52	-27391	2282.2	-0.36571	0.81476	0.4431
4.484	89.519	-27387	2282.4	-0.36639	0.81359	0.4431
4.486	89.513	-27391	2282.6	-0.36707	0.81242	0.4431
4.488	89.513	-27394	2282.8	-0.36776	0.81125	0.4431
4.49	89.514	-27392	2283	-0.36844	0.81008	0.4431
4.492	89.525	-27391	2283.2	-0.36766	0.81067	0.44349
4.494	89.517	-27391	2283.4	-0.36688	0.81125	0.44388
4.496	89.517	-27392	2283.7	-0.3661	0.81184	0.44428
4.498	89.514	-27389	2283.9	-0.36532	0.81242	0.44467
4.5	89.53	-27385	2284.2	-0.36454	0.81301	0.44506
4.502	89.537	-27388	2284.4	-0.36551	0.81291	0.44496
4.504	89.533	-27390	2284.6	-0.36649	0.81281	0.44486
4.506	89.534	-27398	2284.9	-0.36746	0.81272	0.44476
4.508	89.528	-27405	2285.1	-0.36844	0.81262	0.44467
4.51	89.536	-27397	2285.3	-0.36942	0.81252	0.44457
4.512	89.544	-27389	2285.5	-0.36864	0.81291	0.44428
4.514	89.548	-27389	2285.8	-0.36785	0.8133	0.44398
4.516	89.552	-27388	2286	-0.36707	0.81369	0.44369
4.518	89.56	-27393	2286.3	-0.36629	0.81408	0.4434
4.52	89.576	-27398	2286.5	-0.36551	0.81447	0.4431
4.522	89.585	-27394	2286.8	-0.3662	0.8135	0.44174
4.524	89.588	-27390	2287	-0.36688	0.81252	0.44037
4.526	89.595	-27392	2287.3	-0.36756	0.81154	0.439
4.528	89.605	-27394	2287.5	-0.36824	0.81057	0.43764
4.53	89.612	-27384	2287.7	-0.36893	0.80959	0.43627
4.532	89.623	-27375	2287.9	-0.36932	0.8092	0.43637
4.534	89.637	-27378	2288.1	-0.36971	0.80881	0.43647
4.536	89.648	-27382	2288.3	-0.3701	0.80842	0.43656
4.538	89.659	-27386	2288.5	-0.37049	0.80803	0.43666
4.54	89.666	-27389	2288.7	-0.37088	0.80764	0.43676
4.542	89.674	-27383	2288.9	-0.37127	0.80803	0.43637
4.544	89.682	-27376	2289.1	-0.37166	0.80842	0.43598
4.546	89.688	-27379	2289.2	-0.37205	0.80881	0.43559
4.548	89.696	-27382	2289.4	-0.37244	0.8092	0.4352
4.55	89.706	-27377	2289.5	-0.37283	0.80959	0.43481
4.552	89.713	-27372	2289.7	-0.37234	0.80949	0.43539
4.554	89.716	-27365	2289.8	-0.37186	0.8094	0.43598
4.556	89.719	-27358	2289.9	-0.37137	0.8093	0.43656
4.558	89.722	-27371	2290	-0.37088	0.8092	0.43715
4.56	89.725	-27383	2290.1	-0.37039	0.8091	0.43774
4.562	89.739	-27377	2290.2	-0.37127	0.80891	0.43705
4.564	89.748	-27371	2290.3	-0.37215	0.80871	0.43637
4.566	89.744	-27369	2290.3	-0.37303	0.80852	0.43569
4.568	89.747	-27366	2290.4	-0.37391	0.80832	0.435
4.57	89.753	-27368	2290.4	-0.37478	0.80813	0.43432
4.572	89.76	-27370	2290.5	-0.37391	0.80852	0.43452
4.574	89.76	-27371	2290.5	-0.37303	0.80891	0.43471
4.576	89.757	-27371	2290.5	-0.37215	0.8093	0.43491
4.578	89.756	-27369	2290.5	-0.37127	0.80969	0.4351
4.58	89.762	-27367	2290.5	-0.37039	0.81008	0.4353
4.582	89.765	-27368	2290.4	-0.37127	0.81028	0.43549
4.584	89.753	-27369	2290.4	-0.37215	0.81047	0.43569
4.586	89.761	-27368	2290.3	-0.37303	0.81067	0.43588
4.588	89.762	-27368	2290.2	-0.37391	0.81086	0.43608
4.59	89.759	-27370	2290.2	-0.37478	0.81106	0.43627
4.592	89.761	-27373	2290.1	-0.374	0.81037	0.4352
4.594	89.768	-27365	2290	-0.37322	0.80969	0.43412
4.596	89.772	-27357	2289.9	-0.37244	0.80901	0.43305
4.598	89.771	-27359	2289.9	-0.37166	0.80832	0.43198
4.6	89.764	-27360	2289.8	-0.37088	0.80764	0.4309
4.602	89.769	-27362	2289.8	-0.37127	0.80764	0.43208
4.604	89.769	-27364	2289.8	-0.37166	0.80764	0.43325
4.606	89.769	-27361	2289.8	-0.37205	0.80764	0.43442
4.608	89.768	-27358	2289.8	-0.37244	0.80764	0.43559
4.61	89.766	-27358	2289.8	-0.37283	0.80764	0.43676
4.612	89.77	-27358	2289.8	-0.37215	0.80813	0.43676
4.614	89.78	-27359	2289.8	-0.37147	0.80862	0.43676
4.616	89.781	-27359	2289.8	-0.37078	0.8091	0.43676
4.618	89.774	-27359	2289.9	-0.3701	0.80959	0.43676
4.62	89.775	-27359	2289.9	-0.36942	0.81008	0.43676
4.622	89.775	-27358	2289.9	-0.3699	0.81057	0.43725
4.624	89.774	-27358	2290	-0.37039	0.81106	0.43774
4.626	89.771	-27353	2290	-0.37088	0.81154	0.43822
4.628	89.769	-27348	2290.1	-0.37137	0.81203	0.43871
4.63	89.768	-27351	2290.2	-0.37186	0.81252	0.4392
4.632	89.764	-27355	2290.3	-0.37068	0.8132	0.44047
4.634	89.762	-27356	2290.4	-0.36951	0.81389	0.44174
4.636	89.763	-27357	2290.5	-0.36834	0.81457	0.44301
4.638	89.765	-27355	2290.6	-0.36717	0.81525	0.44428
4.64	89.765	-27353	2290.6	-0.366	0.81594	0.44554
4.642	89.761	-27352	2290.8	-0.36659	0.81525	0.44554
4.644	89.758	-27350	2290.9	-0.36717	0.81457	0.44554
4.646	89.758	-27351	2291	-0.36776	0.81389	0.44554
4.648	89.754	-27352	2291.1	-0.36834	0.8132	0.44554
4.65	89.749	-27350	2291.3	-0.36893	0.81252	0.44554
4.652	89.751	-27348	2291.4	-0.36815	0.81311	0.44564
4.654	89.753	-27345	2291.6	-0.36737	0.81369	0.44574
4.656	89.749	-27342	2291.7	-0.36659	0.81428	0.44584
4.658	89.754	-27341	2291.9	-0.3658	0.81486	0.44593
4.66	89.758	-27341	2292.1	-0.36502	0.81545	0.44603
4.662	89.753	-27347	2292.2	-0.36463	0.81506	0.44496
4.664	89.743	-27353	2292.4	-0.36424	0.81467	0.44388
4.666	89.747	-27354	2292.6	-0.36385	0.81428	0.44281
4.668	89.743	-27354	2292.8	-0.36346	0.81389	0.44174
4.67	89.738	-27354	2293	-0.36307	0.8135	0.44066
4.672	89.733	-27354	2293.2	-0.36454	0.81301	0.44144
4.674	89.733	-27350	2293.4	-0.366	0.81252	0.44223
4.676	89.742	-27346	2293.5	-0.36746	0.81203	0.44301
4.678	89.745	-27351	2293.7	-0.36893	0.81154	0.44379
4.68	89.746	-27357	2293.8	-0.37039	0.81106	0.44457
4.682	89.746	-27354	2294	-0.36981	0.81174	0.44437
4.684	89.743	-27351	2294.1	-0.36922	0.81242	0.44418
4.686	89.74	-27350	2294.2	-0.36864	0.81311	0.44398
4.688	89.744	-27348	2294.3	-0.36805	0.81379	0.44379
