t	ekg	optical	pressure	accel_x	accel_y	accel_z
0	72.341	-32480	2491.5	0.17178	-0.01708	0.97307
0.002	72.363	-32477	2492	0.17129	-0.017178	0.97307
0.004	72.483	-32475	2492.5	0.1708	-0.017275	0.97307
0.006	72.536	-32472	2493	0.17031	-0.017373	0.97307
0.008	72.492	-32470	2493.5	0.16982	-0.01747	0.97307
0.01	72.432	-32468	2494	0.16934	-0.017568	0.97307
0.012	72.371	-32464	2494.4	0.16748	-0.017568	0.97376
0.014	72.383	-32460	2494.8	0.16563	-0.017568	0.97444
0.016	72.459	-32453	2495.1	0.16377	-0.017568	0.97512
0.018	72.571	-32445	2495.5	0.16192	-0.017568	0.9758
0.02	72.603	-32445	2495.8	0.16006	-0.017568	0.97649
0.022	72.521	-32445	2496.1	0.1584	-0.016787	0.97746
0.024	72.475	-32447	2496.4	0.15675	-0.016006	0.97844
0.026	72.479	-32449	2496.7	0.15509	-0.015226	0.97942
0.028	72.472	-32443	2497	0.15343	-0.014445	0.98039
0.03	72.504	-32437	2497.2	0.15177	-0.013664	0.98137
0.032	72.519	-32437	2497.5	0.15372	-0.014054	0.97981
0.034	72.476	-32436	2497.8	0.15567	-0.014445	0.97824
0.036	72.475	-32436	2498.1	0.15762	-0.014835	0.97668
0.038	72.484	-32436	2498.3	0.15958	-0.015226	0.97512
0.04	72.48	-32420	2498.6	0.16153	-0.015616	0.97356
0.042	72.51	-32404	2498.8	0.16084	-0.016006	0.9719
0.044	72.552	-32406	2499	0.16016	-0.016397	0.97024
0.046	72.496	-32408	2499.2	0.15948	-0.016787	0.96858
0.048	72.439	-32410	2499.4	0.1588	-0.017178	0.96692
0.05	72.448	-32412	2499.6	0.15811	-0.017568	0.96526
0.052	72.497	-32402	2499.7	0.15723	-0.017275	0.96575
0.054	72.567	-32392	2499.8	0.15636	-0.016982	0.96624
0.056	72.572	-32390	2499.9	0.15548	-0.01669	0.96673
0.058	72.614	-32387	2500	0.1546	-0.016397	0.96722
0.06	72.581	-32385	2500	0.15372	-0.016104	0.9677
0.062	72.526	-32382	2500	0.15362	-0.016202	0.96634
0.064	72.516	-32376	2499.9	0.15352	-0.016299	0.96497
0.066	72.476	-32370	2499.9	0.15343	-0.016397	0.9636
0.068	72.433	-32370	2499.8	0.15333	-0.016494	0.96224
0.07	72.458	-32369	2499.7	0.15323	-0.016592	0.96087
0.072	72.49	-32368	2499.6	0.15274	-0.016787	0.96195
0.074	72.466	-32367	2499.5	0.15226	-0.016982	0.96302
0.076	72.438	-32362	2499.5	0.15177	-0.017178	0.96409
0.078	72.487	-32358	2499.4	0.15128	-0.017373	0.96517
0.08	72.595	-32355	2499.3	0.15079	-0.017568	0.96624
0.082	72.561	-32353	2499.2	0.15187	-0.017568	0.96624
0.084	72.518	-32349	2499.1	0.15294	-0.017568	0.96624
0.086	72.47	-32345	2499	0.15401	-0.017568	0.96624
0.088	72.469	-32336	2498.8	0.15509	-0.017568	0.96624
0.09	72.533	-32327	2498.6	0.15616	-0.017568	0.96624
0.092	72.561	-32326	2498.5	0.15645	-0.01747	0.96683
0.094	72.54	-32324	2498.3	0.15675	-0.017373	0.96741
0.096	72.494	-32324	2498.1	0.15704	-0.017275	0.968
0.098	72.484	-32325	2497.9	0.15733	-0.017178	0.96858
0.1	72.497	-32318	2497.7	0.15762	-0.01708	0.96917
0.102	72.498	-32312	2497.5	0.15684	-0.017666	0.9679
0.104	72.5	-32310	2497.2	0.15606	-0.018251	0.96663
0.106	72.511	-32309	2497	0.15528	-0.018837	0.96536
0.108	72.511	-32310	2496.8	0.1545	-0.019422	0.96409
0.11	72.493	-32310	2496.5	0.15372	-0.020008	0.96282
0.112	72.504	-32306	2496.3	0.15382	-0.01991	0.96263
0.114	72.51	-32302	2496	0.15392	-0.019813	0.96243
0.116	72.476	-32298	2495.7	0.15401	-0.019715	0.96224
0.118	72.507	-32295	2495.4	0.15411	-0.019618	0.96204
0.12	72.584	-32297	2495	0.15421	-0.01952	0.96185
0.122	72.588	-32299	2494.6	0.15382	-0.019422	0.96156
0.124	72.521	-32291	2494.2	0.15343	-0.019325	0.96126
0.126	72.481	-32284	2493.8	0.15304	-0.019227	0.96097
0.128	72.443	-32282	2493.4	0.15265	-0.01913	0.96068
0.13	72.406	-32280	2492.9	0.15226	-0.019032	0.96038
0.132	72.43	-32281	2492.4	0.15187	-0.019618	0.96048
0.134	72.44	-32283	2491.9	0.15148	-0.020203	0.96058
0.136	72.435	-32279	2491.5	0.15108	-0.020789	0.96068
0.138	72.472	-32275	2491	0.15069	-0.021374	0.96077
0.14	72.556	-32274	2490.6	0.1503	-0.02196	0.96087
0.142	72.531	-32272	2490.1	0.15079	-0.021374	0.96068
0.144	72.553	-32276	2489.7	0.15128	-0.020789	0.96048
0.146	72.502	-32280	2489.2	0.15177	-0.020203	0.96029
0.148	72.486	-32279	2488.8	0.15226	-0.019618	0.96009
0.15	72.553	-32279	2488.3	0.15274	-0.019032	0.9599
0.152	72.545	-32271	2487.8	0.15274	-0.018739	0.96019
0.154	72.48	-32263	2487.3	0.15274	-0.018446	0.96048
0.156	72.559	-32271	2486.8	0.15274	-0.018154	0.96077
0.158	72.545	-32278	2486.4	0.15274	-0.017861	0.96107
0.16	72.483	-32275	2485.9	0.15274	-0.017568	0.96136
0.162	72.486	-32271	2485.5	0.15421	-0.01747	0.96087
0.164	72.532	-32270	2485.1	0.15567	-0.017373	0.96038
0.166	72.621	-32270	2484.7	0.15714	-0.017275	0.9599
0.168	72.607	-32267	2484.4	0.1586	-0.017178	0.95941
0.17	72.531	-32263	2484.2	0.16006	-0.01708	0.95892
0.172	72.395	-32266	2483.9	0.16016	-0.016202	0.96009
0.174	72.344	-32269	2483.7	0.16026	-0.015323	0.96126
0.176	72.426	-32273	2483.5	0.16036	-0.014445	0.96243
0.178	72.537	-32277	2483.3	0.16045	-0.013566	0.9636
0.18	72.511	-32271	2483.1	0.16055	-0.012688	0.96478
0.182	72.479	-32265	2482.9	0.16075	-0.012493	0.96517
0.184	72.514	-32271	2482.8	0.16094	-0.012298	0.96556
0.186	72.54	-32276	2482.6	0.16114	-0.012102	0.96595
0.188	72.543	-32271	2482.5	0.16133	-0.011907	0.96634
0.19	72.504	-32265	2482.3	0.16153	-0.011712	0.96673
0.192	72.467	-32268	2482.3	0.16202	-0.010248	0.96614
0.194	72.492	-32271	2482.2	0.1625	-0.008784	0.96556
0.196	72.503	-32272	2482.2	0.16299	-0.00732	0.96497
0.198	72.453	-32272	2482.1	0.16348	-0.005856	0.96439
0.2	72.399	-32276	2482	0.16397	-0.004392	0.9638
0.202	72.375	-32279	2481.9	0.16426	-0.0041968	0.96439
0.204	72.372	-32276	2481.9	0.16455	-0.0040016	0.96497
0.206	72.377	-32274	2481.9	0.16485	-0.0038064	0.96556
0.208	72.367	-32274	2481.9	0.16514	-0.0036112	0.96614
0.21	72.38	-32274	2481.9	0.16543	-0.003416	0.96673
0.212	72.454	-32277	2481.8	0.16699	-0.0041968	0.96761
0.214	72.474	-32280	2481.8	0.16856	-0.0049776	0.96848
0.216	72.528	-32281	2481.7	0.17012	-0.0057584	0.96936
0.218	72.535	-32281	2481.8	0.17168	-0.0065392	0.97024
0.22	72.452	-32279	2481.9	0.17324	-0.00732	0.97112
0.222	72.468	-32276	2481.9	0.17324	-0.0081984	0.97288
0.224	72.513	-32273	2481.9	0.17324	-0.0090768	0.97463
0.226	72.487	-32270	2482	0.17324	-0.0099552	0.97639
0.228	72.457	-32279	2482.1	0.17324	-0.010834	0.97815
0.23	72.428	-32287	2482.2	0.17324	-0.011712	0.9799
0.232	72.381	-32283	2482.3	0.17353	-0.01259	0.98039
0.234	72.395	-32278	2482.4	0.17383	-0.013469	0.98088
0.236	72.447	-32285	2482.5	0.17412	-0.014347	0.98137
0.238	72.41	-32291	2482.7	0.17441	-0.015226	0.98186
0.24	72.365	-32285	2482.8	0.1747	-0.016104	0.98234
0.242	72.368	-32278	2483	0.17695	-0.014738	0.98478
0.244	72.42	-32285	2483.1	0.17919	-0.013371	0.98722
0.246	72.366	-32293	2483.3	0.18144	-0.012005	0.98966
0.248	72.378	-32297	2483.5	0.18368	-0.010638	0.9921
0.25	72.399	-32301	2483.8	0.18593	-0.009272	0.99454
0.252	72.43	-32302	2483.9	0.18564	-0.0085888	0.99337
0.254	72.414	-32303	2484.1	0.18534	-0.0079056	0.9922
0.256	72.409	-32300	2484.3	0.18505	-0.0072224	0.99103
0.258	72.466	-32296	2484.4	0.18476	-0.0065392	0.98986
0.26	72.438	-32293	2484.5	0.18446	-0.005856	0.98869
0.262	72.359	-32290	2484.6	0.18417	-0.0062464	0.98888
0.264	72.361	-32291	2484.7	0.18388	-0.0066368	0.98908
0.266	72.428	-32291	2484.8	0.18359	-0.0070272	0.98927
0.268	72.485	-32291	2484.8	0.18329	-0.0074176	0.98947
0.27	72.471	-32291	2484.9	0.183	-0.007808	0.98966
0.272	72.423	-32293	2485.1	0.17929	-0.0086864	0.99142
0.274	72.394	-32296	2485.2	0.17558	-0.0095648	0.99318
0.276	72.326	-32296	2485.3	0.17187	-0.010443	0.99493
0.278	72.257	-32296	2485.3	0.16816	-0.011322	0.99669
0.28	72.267	-32299	2485.4	0.16446	-0.0122	0.99845
0.282	72.321	-32302	2485.5	0.16377	-0.013371	0.99728
0.284	72.397	-32298	2485.6	0.16309	-0.014542	0.99611
0.286	72.45	-32294	2485.6	0.16241	-0.015714	0.99493
0.288	72.426	-32297	2485.6	0.16172	-0.016885	0.99376
0.29	72.392	-32299	2485.6	0.16104	-0.018056	0.99259
0.292	72.408	-32295	2485.7	0.16299	-0.017958	0.9923
0.294	72.433	-32290	2485.8	0.16494	-0.017861	0.99201
0.296	72.438	-32289	2485.9	0.1669	-0.017763	0.99171
0.298	72.464	-32288	2486.1	0.16885	-0.017666	0.99142
0.3	72.505	-32290	2486.3	0.1708	-0.017568	0.99113
0.302	72.458	-32292	2486.4	0.16943	-0.01747	0.99171
0.304	72.395	-32287	2486.5	0.16807	-0.017373	0.9923
0.306	72.313	-32281	2486.7	0.1667	-0.017275	0.99288
0.308	72.364	-32285	2486.8	0.16533	-0.017178	0.99347
0.31	72.511	-32290	2487	0.16397	-0.01708	0.99406
0.312	72.541	-32292	2487.1	0.16416	-0.01708	0.99367
0.314	72.474	-32293	2487.3	0.16436	-0.01708	0.99328
0.316	72.474	-32298	2487.4	0.16455	-0.01708	0.99288
0.318	72.51	-32302	2487.6	0.16475	-0.01708	0.99249
0.32	72.422	-32302	2487.7	0.16494	-0.01708	0.9921
0.322	72.3	-32301	2487.8	0.16514	-0.01708	0.99152
0.324	72.321	-32297	2487.8	0.16533	-0.01708	0.99093
0.326	72.447	-32293	2487.9	0.16553	-0.01708	0.99035
0.328	72.517	-32291	2488	0.16572	-0.01708	0.98976
0.33	72.461	-32289	2488	0.16592	-0.01708	0.98918
0.332	72.394	-32291	2488	0.16475	-0.017178	0.98859
0.334	72.44	-32292	2488	0.16358	-0.017275	0.988
0.336	72.435	-32305	2488	0.16241	-0.017373	0.98742
0.338	72.4	-32317	2488	0.16124	-0.01747	0.98683
0.34	72.447	-32315	2487.9	0.16006	-0.017568	0.98625
0.342	72.473	-32312	2487.8	0.15772	-0.01747	0.98556
0.344	72.509	-32316	2487.7	0.15538	-0.017373	0.98488
0.346	72.534	-32320	2487.6	0.15304	-0.017275	0.9842
0.348	72.519	-32321	2487.5	0.15069	-0.017178	0.98352
0.35	72.494	-32323	2487.5	0.14835	-0.01708	0.98283
0.352	72.485	-32320	2487.4	0.14855	-0.01708	0.98205
0.354	72.475	-32317	2487.3	0.14874	-0.01708	0.98127
0.356	72.43	-32316	2487.2	0.14894	-0.01708	0.98049
0.358	72.397	-32314	2487.1	0.14913	-0.01708	0.97971
0.36	72.44	-32315	2487.1	0.14933	-0.01708	0.97893
0.362	72.487	-32316	2486.9	0.15187	-0.01708	0.97776
0.364	72.513	-32318	2486.8	0.1544	-0.01708	0.97659
0.366	72.532	-32321	2486.8	0.15694	-0.01708	0.97541
0.368	72.55	-32320	2486.8	0.15948	-0.01708	0.97424
0.37	72.496	-32320	2486.8	0.16202	-0.01708	0.97307
0.372	72.334	-32323	2486.7	0.1627	-0.017178	0.97278
0.374	72.29	-32327	2486.7	0.16338	-0.017275	0.97249
0.376	72.424	-32325	2486.7	0.16407	-0.017373	0.97219
0.378	72.508	-32323	2486.6	0.16475	-0.01747	0.9719
0.38	72.459	-32323	2486.5	0.16543	-0.017568	0.97161
0.382	72.392	-32323	2486.5	0.16416	-0.017666	0.97092
0.384	72.363	-32324	2486.4	0.16289	-0.017763	0.97024
0.386	72.364	-32324	2486.4	0.16163	-0.017861	0.96956
0.388	72.338	-32330	2486.3	0.16036	-0.017958	0.96888
0.39	72.31	-32336	2486.3	0.15909	-0.018056	0.96819
0.392	72.219	-32332	2486.2	0.15928	-0.018154	0.96829
0.394	72.161	-32329	2486.2	0.15948	-0.018251	0.96839
0.396	72.202	-32328	2486.1	0.15967	-0.018349	0.96848
0.398	72.162	-32327	2486	0.15987	-0.018446	0.96858
0.4	72.118	-32330	2485.9	0.16006	-0.018544	0.96868
0.402	72.162	-32333	2485.9	0.15938	-0.018251	0.968
0.404	72.201	-32333	2485.8	0.1587	-0.017958	0.96731
0.406	72.199	-32333	2485.7	0.15801	-0.017666	0.96663
0.408	72.189	-32337	2485.7	0.15733	-0.017373	0.96595
0.41	72.229	-32341	2485.6	0.15665	-0.01708	0.96526
0.412	72.371	-32334	2485.5	0.15714	-0.01708	0.96439
0.414	72.448	-32327	2485.4	0.15762	-0.01708	0.96351
0.416	72.517	-32336	2485.3	0.15811	-0.01708	0.96263
0.418	72.561	-32345	2485.3	0.1586	-0.01708	0.96175
0.42	72.581	-32343	2485.2	0.15909	-0.01708	0.96087
0.422	72.508	-32341	2485.1	0.15997	-0.01708	0.96156
0.424	72.517	-32341	2485.1	0.16084	-0.01708	0.96224
0.426	72.505	-32340	2485	0.16172	-0.01708	0.96292
0.428	72.487	-32337	2484.8	0.1626	-0.01708	0.9636
0.43	72.486	-32335	2484.7	0.16348	-0.01708	0.96429
0.432	72.487	-32337	2484.6	0.16475	-0.017178	0.9639
0.434	72.429	-32339	2484.5	0.16602	-0.017275	0.96351
0.436	72.389	-32336	2484.4	0.16729	-0.017373	0.96312
0.438	72.438	-32334	2484.3	0.16856	-0.01747	0.96273
0.44	72.543	-32341	2484.2	0.16982	-0.017568	0.96234
0.442	72.537	-32347	2484	0.16787	-0.017666	0.96243
0.444	72.465	-32343	2483.8	0.16592	-0.017763	0.96253
0.446	72.436	-32338	2483.7	0.16397	-0.017861	0.96263
0.448	72.473	-32341	2483.6	0.16202	-0.017958	0.96273
0.45	72.49	-32344	2483.4	0.16006	-0.018056	0.96282
0.452	72.454	-32343	2483.2	0.16036	-0.017861	0.96302
0.454	72.48	-32342	2483.1	0.16065	-0.017666	0.96321
0.456	72.522	-32339	2482.9	0.16094	-0.01747	0.96341
0.458	72.491	-32337	2482.7	0.16124	-0.017275	0.9636
0.46	72.456	-32341	2482.5	0.16153	-0.01708	0.9638
0.462	72.456	-32344	2482.3	0.16104	-0.017178	0.9639
0.464	72.541	-32346	2482.2	0.16055	-0.017275	0.964
0.466	72.589	-32347	2482	0.16006	-0.017373	0.96409
0.468	72.52	-32356	2481.9	0.15958	-0.01747	0.96419
0.47	72.425	-32365	2481.8	0.15909	-0.017568	0.96429
0.472	72.365	-32366	2481.8	0.16084	-0.01747	0.96341
0.474	72.357	-32367	2481.9	0.1626	-0.017373	0.96253
0.476	72.468	-32367	2481.9	0.16436	-0.017275	0.96165
0.478	72.506	-32367	2481.9	0.16612	-0.017178	0.96077
0.48	72.456	-32363	2481.9	0.16787	-0.01708	0.9599
0.482	72.452	-32360	2481.9	0.16699	-0.01669	0.96097
0.484	72.463	-32364	2481.8	0.16612	-0.016299	0.96204
0.486	72.444	-32368	2481.8	0.16524	-0.015909	0.96312
0.488	72.446	-32365	2481.8	0.16436	-0.015518	0.96419
0.49	72.394	-32361	2481.8	0.16348	-0.015128	0.96526
0.492	72.465	-32363	2481.8	0.16241	-0.015616	0.96487
0.494	72.482	-32365	2481.7	0.16133	-0.016104	0.96448
0.496	72.452	-32368	2481.7	0.16026	-0.016592	0.96409
0.498	72.459	-32372	2481.7	0.15919	-0.01708	0.9637
0.5	72.451	-32380	2481.7	0.15811	-0.017568	0.96331
0.502	72.444	-32387	2481.7	0.15909	-0.017666	0.96321
0.504	72.446	-32381	2481.7	0.16006	-0.017763	0.96312
0.506	72.397	-32376	2481.6	0.16104	-0.017861	0.96302
0.508	72.372	-32379	2481.6	0.16202	-0.017958	0.96292
0.51	72.338	-32382	2481.5	0.16299	-0.018056	0.96282
0.512	72.402	-32387	2481.4	0.16299	-0.017861	0.96321
0.514	72.398	-32393	2481.4	0.16299	-0.017666	0.9636
0.516	72.401	-32393	2481.3	0.16299	-0.01747	0.964
0.518	72.429	-32394	2481.3	0.16299	-0.017275	0.96439
0.52	72.397	-32401	2481.2	0.16299	-0.01708	0.96478
0.522	72.406	-32408	2481.2	0.16407	-0.015909	0.96624
0.524	72.411	-32408	2481.1	0.16514	-0.014738	0.9677
0.526	72.475	-32407	2481	0.16621	-0.013566	0.96917
0.528	72.537	-32405	2480.9	0.16729	-0.012395	0.97063
0.53	72.5	-32403	2480.8	0.16836	-0.011224	0.9721
0.532	72.435	-32406	2480.8	0.16797	-0.010834	0.97317
0.534	72.423	-32408	2480.7	0.16758	-0.010443	0.97424
0.536	72.444	-32410	2480.6	0.16719	-0.010053	0.97532
0.538	72.463	-32412	2480.5	0.1668	-0.0096624	0.97639
0.54	72.433	-32413	2480.4	0.16641	-0.009272	0.97746
0.542	72.37	-32414	2480.3	0.16797	-0.00976	0.97688
0.544	72.346	-32416	2480.3	0.16953	-0.010248	0.97629
0.546	72.337	-32419	2480.2	0.17109	-0.010736	0.97571
0.548	72.363	-32425	2480.1	0.17265	-0.011224	0.97512
0.55	72.431	-32431	2480	0.17422	-0.011712	0.97454
0.552	72.465	-32436	2479.9	0.17402	-0.012688	0.97327
0.554	72.385	-32442	2479.8	0.17383	-0.013664	0.972
0.556	72.36	-32435	2479.7	0.17363	-0.01464	0.97073
0.558	72.4	-32428	2479.7	0.17344	-0.015616	0.96946
0.56	72.441	-32440	2479.6	0.17324	-0.016592	0.96819
0.562	72.42	-32451	2479.5	0.17148	-0.01464	0.9679
0.564	72.357	-32452	2479.4	0.16973	-0.012688	0.96761
0.566	72.311	-32454	2479.3	0.16797	-0.010736	0.96731
0.568	72.273	-32452	2479.2	0.16621	-0.008784	0.96702
0.57	72.313	-32451	2479.1	0.16446	-0.006832	0.96673
0.572	72.394	-32448	2479.1	0.16533	-0.0074176	0.9678
0.574	72.358	-32444	2479.1	0.16621	-0.0080032	0.96888
0.576	72.304	-32454	2479.1	0.16709	-0.0085888	0.96995
0.578	72.423	-32463	2479.1	0.16797	-0.0091744	0.97102
0.58	72.426	-32462	2479.1	0.16885	-0.00976	0.9721
0.582	72.333	-32461	2479.1	0.16826	-0.0098576	0.97307
0.584	72.306	-32461	2479	0.16768	-0.0099552	0.97405
0.586	72.314	-32461	2479	0.16709	-0.010053	0.97502
0.588	72.332	-32458	2478.9	0.16651	-0.01015	0.976
0.59	72.377	-32455	2478.9	0.16592	-0.010248	0.97698
0.592	72.395	-32456	2478.9	0.16485	-0.011712	0.97649
0.594	72.42	-32457	2479	0.16377	-0.013176	0.976
0.596	72.376	-32462	2479.1	0.1627	-0.01464	0.97551
0.598	72.289	-32466	2479.1	0.16163	-0.016104	0.97502
0.6	72.259	-32468	2479.2	0.16055	-0.017568	0.97454
0.602	72.249	-32470	2479.4	0.16114	-0.017763	0.97463
0.604	72.282	-32474	2479.7	0.16172	-0.017958	0.97473
0.606	72.405	-32479	2480	0.16231	-0.018154	0.97483
0.608	72.456	-32484	2480.3	0.16289	-0.018349	0.97493
0.61	72.47	-32488	2480.6	0.16348	-0.018544	0.97502
0.612	72.504	-32491	2481.1	0.16358	-0.018251	0.97522
0.614	72.504	-32494	2481.6	0.16368	-0.017958	0.97541
0.616	72.428	-32495	2482.1	0.16377	-0.017666	0.97561
0.618	72.322	-32495	2482.7	0.16387	-0.017373	0.9758
0.62	72.268	-32496	2483.2	0.16397	-0.01708	0.976
0.622	72.316	-32496	2483.8	0.16455	-0.01708	0.97502
0.624	72.41	-32498	2484.3	0.16514	-0.01708	0.97405
0.626	72.453	-32500	2484.9	0.16572	-0.01708	0.97307
0.628	72.417	-32502	2485.5	0.16631	-0.01708	0.9721
0.63	72.376	-32503	2486	0.1669	-0.01708	0.97112
0.632	72.411	-32502	2486.6	0.16621	-0.016885	0.97229
0.634	72.423	-32501	2487.3	0.16553	-0.01669	0.97346
0.636	72.409	-32500	2487.9	0.16485	-0.016494	0.97463
0.638	72.44	-32499	2488.6	0.16416	-0.016299	0.9758
0.64	72.451	-32499	2489.2	0.16348	-0.016104	0.97698
0.642	72.415	-32498	2489.9	0.1627	-0.016299	0.97737
0.644	72.391	-32497	2490.5	0.16192	-0.016494	0.97776
0.646	72.416	-32496	2491.1	0.16114	-0.01669	0.97815
0.648	72.457	-32498	2491.7	0.16036	-0.016885	0.97854
0.65	72.445	-32499	2492.4	0.15958	-0.01708	0.97893
0.652	72.454	-32498	2492.9	0.15899	-0.01708	0.97922
0.654	72.471	-32496	2493.5	0.1584	-0.01708	0.97951
0.656	72.495	-32495	2494	0.15782	-0.01708	0.97981
0.658	72.498	-32494	2494.5	0.15723	-0.01708	0.9801
0.66	72.505	-32494	2494.9	0.15665	-0.01708	0.98039
0.662	72.463	-32493	2495.3	0.15675	-0.017178	0.9802
0.664	72.433	-32484	2495.7	0.15684	-0.017275	0.98
0.666	72.421	-32475	2496.1	0.15694	-0.017373	0.97981
0.668	72.442	-32475	2496.5	0.15704	-0.01747	0.97961
0.67	72.438	-32475	2496.9	0.15714	-0.017568	0.97942
0.672	72.346	-32475	2497.1	0.15772	-0.017568	0.97903
0.674	72.316	-32474	2497.4	0.15831	-0.017568	0.97864
0.676	72.392	-32473	2497.7	0.15889	-0.017568	0.97824
0.678	72.405	-32471	2498	0.15948	-0.017568	0.97785
0.68	72.404	-32466	2498.3	0.16006	-0.017568	0.97746
0.682	72.482	-32462	2498.4	0.16055	-0.017568	0.97707
0.684	72.572	-32457	2498.6	0.16104	-0.017568	0.97668
0.686	72.557	-32453	2498.8	0.16153	-0.017568	0.97629
0.688	72.472	-32449	2498.9	0.16202	-0.017568	0.9759
0.69	72.519	-32446	2499.1	0.1625	-0.017568	0.97551
0.692	72.585	-32441	2499.2	0.1627	-0.01747	0.97532
0.694	72.517	-32435	2499.3	0.16289	-0.017373	0.97512
0.696	72.471	-32435	2499.4	0.16309	-0.017275	0.97493
0.698	72.456	-32434	2499.5	0.16328	-0.017178	0.97473
0.7	72.436	-32432	2499.5	0.16348	-0.01708	0.97454
0.702	72.45	-32431	2499.6	0.16377	-0.016202	0.97541
0.704	72.457	-32424	2499.7	0.16407	-0.015323	0.97629
0.706	72.484	-32417	2499.7	0.16436	-0.014445	0.97717
0.708	72.532	-32413	2499.8	0.16465	-0.013566	0.97805
0.71	72.513	-32408	2499.9	0.16494	-0.012688	0.97893
0.712	72.518	-32402	2500	0.16485	-0.01181	0.97844
0.714	72.577	-32395	2500	0.16475	-0.010931	0.97795
0.716	72.567	-32393	2500.1	0.16465	-0.010053	0.97746
0.718	72.558	-32390	2500.2	0.16455	-0.0091744	0.97698
0.72	72.569	-32389	2500.3	0.16446	-0.008296	0.97649
0.722	72.501	-32389	2500.4	0.16504	-0.0081984	0.97698
0.724	72.464	-32388	2500.4	0.16563	-0.0081008	0.97746
0.726	72.54	-32387	2500.4	0.16621	-0.0080032	0.97795
0.728	72.592	-32387	2500.4	0.1668	-0.0079056	0.97844
0.73	72.566	-32388	2500.3	0.16738	-0.007808	0.97893
0.732	72.533	-32386	2500.2	0.16846	-0.0081984	0.97805
0.734	72.493	-32384	2500.2	0.16953	-0.0085888	0.97717
0.736	72.456	-32378	2500.1	0.1706	-0.0089792	0.97629
0.738	72.459	-32373	2499.9	0.17168	-0.0093696	0.97541
0.74	72.424	-32369	2499.8	0.17275	-0.00976	0.97454
0.742	72.407	-32365	2499.5	0.1709	-0.0095648	0.97512
0.744	72.439	-32361	2499.3	0.16904	-0.0093696	0.97571
0.746	72.449	-32356	2499	0.16719	-0.0091744	0.97629
0.748	72.397	-32357	2498.7	0.16533	-0.0089792	0.97688
0.75	72.378	-32359	2498.4	0.16348	-0.008784	0.97746
0.752	72.359	-32359	2498.2	0.16455	-0.01015	0.97668
0.754	72.369	-32359	2497.9	0.16563	-0.011517	0.9759
0.756	72.524	-32358	2497.6	0.1667	-0.012883	0.97512
0.758	72.575	-32357	2497.3	0.16777	-0.01425	0.97434
0.76	72.47	-32353	2497	0.16885	-0.015616	0.97356
0.762	72.403	-32350	2496.7	0.16709	-0.015909	0.97171
0.764	72.446	-32350	2496.4	0.16533	-0.016202	0.96985
0.766	72.492	-32350	2496.1	0.16358	-0.016494	0.968
0.768	72.424	-32351	2495.8	0.16182	-0.016787	0.96614
0.77	72.377	-32352	2495.5	0.16006	-0.01708	0.96429
0.772	72.43	-32349	2495.2	0.16036	-0.017178	0.96409
0.774	72.53	-32346	2495	0.16065	-0.017275	0.9639
0.776	72.582	-32345	2494.8	0.16094	-0.017373	0.9637
0.778	72.526	-32344	2494.6	0.16124	-0.01747	0.96351
0.78	72.504	-32343	2494.4	0.16153	-0.017568	0.96331
0.782	72.465	-32343	2494.2	0.16368	-0.016885	0.96536
0.784	72.466	-32342	2494	0.16582	-0.016202	0.96741
0.786	72.53	-32341	2493.8	0.16797	-0.015518	0.96946
0.788	72.503	-32339	2493.6	0.17012	-0.014835	0.97151
0.79	72.454	-32338	2493.3	0.17226	-0.014152	0.97356
0.792	72.503	-32337	2493.1	0.17021	-0.014152	0.97444
0.794	72.556	-32336	2492.9	0.16816	-0.014152	0.97532
0.796	72.525	-32337	2492.7	0.16612	-0.014152	0.9762
0.798	72.465	-32338	2492.4	0.16407	-0.014152	0.97707
0.8	72.447	-32336	2492.2	0.16202	-0.014152	0.97795
0.802	72.435	-32335	2491.9	0.1626	-0.013664	0.97824
0.804	72.424	-32341	2491.7	0.16319	-0.013176	0.97854
0.806	72.467	-32346	2491.5	0.16377	-0.012688	0.97883
0.808	72.529	-32341	2491.2	0.16436	-0.0122	0.97912
0.81	72.548	-32336	2491	0.16494	-0.011712	0.97942
0.812	72.523	-32343	2490.7	0.16475	-0.012395	0.97893
0.814	72.433	-32349	2490.4	0.16455	-0.013078	0.97844
0.816	72.387	-32347	2490.2	0.16436	-0.013762	0.97795
0.818	72.396	-32346	2489.9	0.16416	-0.014445	0.97746
0.82	72.471	-32343	2489.6	0.16397	-0.015128	0.97698
0.822	72.553	-32341	2489.3	0.16426	-0.014542	0.97649
0.824	72.586	-32343	2489.1	0.16455	-0.013957	0.976
0.826	72.587	-32346	2488.8	0.16485	-0.013371	0.97551
0.828	72.487	-32347	2488.5	0.16514	-0.012786	0.97502
0.83	72.392	-32349	2488.2	0.16543	-0.0122	0.97454
0.832	72.388	-32345	2488	0.16612	-0.013176	0.97317
0.834	72.455	-32341	2487.8	0.1668	-0.014152	0.9718
0.836	72.537	-32345	2487.5	0.16748	-0.015128	0.97044
0.838	72.45	-32349	2487.3	0.16816	-0.016104	0.96907
0.84	72.508	-32354	2487	0.16885	-0.01708	0.9677
0.842	72.504	-32359	2486.8	0.17002	-0.01708	0.96839
0.844	72.477	-32356	2486.5	0.17119	-0.01708	0.96907
0.846	72.519	-32352	2486.3	0.17236	-0.01708	0.96975
0.848	72.469	-32356	2486.1	0.17353	-0.01708	0.97044
0.85	72.408	-32359	2485.9	0.1747	-0.01708	0.97112
0.852	72.436	-32356	2485.9	0.17422	-0.017178	0.97112
0.854	72.465	-32353	2485.9	0.17373	-0.017275	0.97112
0.856	72.434	-32353	2485.9	0.17324	-0.017373	0.97112
0.858	72.427	-32353	2485.8	0.17275	-0.01747	0.97112
0.86	72.408	-32361	2485.8	0.17226	-0.017568	0.97112
0.862	72.384	-32370	2485.8	0.17168	-0.01747	0.97102
0.864	72.414	-32367	2485.8	0.17109	-0.017373	0.97092
0.866	72.444	-32365	2485.8	0.17051	-0.017275	0.97083
0.868	72.395	-32365	2485.9	0.16992	-0.017178	0.97073
0.87	72.408	-32364	2486	0.16934	-0.01708	0.97063
0.872	72.484	-32369	2486.1	0.16934	-0.017178	0.97102
0.874	72.487	-32374	2486.1	0.16934	-0.017275	0.97141
0.876	72.444	-32371	2486.2	0.16934	-0.017373	0.9718
0.878	72.443	-32369	2486.4	0.16934	-0.01747	0.97219
0.88	72.487	-32368	2486.5	0.16934	-0.017568	0.97258
0.882	72.487	-32367	2486.7	0.1706	-0.01747	0.97239
0.884	72.44	-32367	2486.9	0.17187	-0.017373	0.97219
0.886	72.422	-32367	2487	0.17314	-0.017275	0.972
0.888	72.43	-32369	2487.1	0.17441	-0.017178	0.9718
0.89	72.494	-32372	2487.2	0.17568	-0.01708	0.97161
0.892	72.514	-32375	2487.3	0.17578	-0.016885	0.97268
0.894	72.482	-32378	2487.4	0.17588	-0.01669	0.97376
0.896	72.404	-32379	2487.5	0.17597	-0.016494	0.97483
0.898	72.361	-32381	2487.6	0.17607	-0.016299	0.9759
0.9	72.411	-32376	2487.8	0.17617	-0.016104	0.97698
0.902	72.442	-32372	2487.8	0.17353	-0.015714	0.97795
0.904	72.419	-32373	2487.9	0.1709	-0.015323	0.97893
0.906	72.362	-32375	2488	0.16826	-0.014933	0.9799
0.908	72.405	-32375	2488	0.16563	-0.014542	0.98088
0.91	72.497	-32376	2488	0.16299	-0.014152	0.98186
0.912	72.548	-32382	2488	0.1628	-0.014738	0.98068
0.914	72.462	-32388	2488	0.1626	-0.015323	0.97951
0.916	72.441	-32381	2488	0.16241	-0.015909	0.97834
0.918	72.492	-32375	2488	0.16221	-0.016494	0.97717
0.92	72.471	-32372	2488	0.16202	-0.01708	0.976
0.922	72.451	-32370	2488	0.16299	-0.015714	0.97649
0.924	72.405	-32379	2488	0.16397	-0.014347	0.97698
0.926	72.436	-32388	2488.1	0.16494	-0.012981	0.97746
0.928	72.496	-32380	2488.1	0.16592	-0.011614	0.97795
0.93	72.495	-32372	2488.2	0.1669	-0.010248	0.97844
0.932	72.452	-32377	2488.3	0.16777	-0.0098576	0.97795
0.934	72.467	-32381	2488.4	0.16865	-0.0094672	0.97746
0.936	72.533	-32376	2488.5	0.16953	-0.0090768	0.97698
0.938	72.558	-32371	2488.5	0.17041	-0.0086864	0.97649
0.94	72.496	-32376	2488.5	0.17129	-0.008296	0.976
0.942	72.406	-32382	2488.6	0.17021	-0.008296	0.9761
0.944	72.338	-32381	2488.6	0.16914	-0.008296	0.9762
0.946	72.311	-32379	2488.6	0.16807	-0.008296	0.97629
0.948	72.373	-32378	2488.7	0.16699	-0.008296	0.97639
0.95	72.494	-32378	2488.7	0.16592	-0.008296	0.97649
0.952	72.555	-32382	2488.7	0.16602	-0.0093696	0.97766
0.954	72.551	-32387	2488.7	0.16612	-0.010443	0.97883
0.956	72.498	-32385	2488.6	0.16621	-0.011517	0.98
0.958	72.453	-32382	2488.6	0.16631	-0.01259	0.98117
0.96	72.495	-32385	2488.5	0.16641	-0.013664	0.98234
0.962	72.525	-32387	2488.3	0.16514	-0.014347	0.98147
0.964	72.508	-32384	2488.2	0.16387	-0.01503	0.98059
0.966	72.488	-32380	2488.1	0.1626	-0.015714	0.97971
0.968	72.469	-32384	2488	0.16133	-0.016397	0.97883
0.97	72.489	-32389	2487.8	0.16006	-0.01708	0.97795
0.972	72.506	-32383	2487.7	0.16124	-0.016592	0.97668
0.974	72.506	-32377	2487.6	0.16241	-0.016104	0.97541
0.976	72.51	-32377	2487.4	0.16358	-0.015616	0.97415
0.978	72.55	-32377	2487.3	0.16475	-0.015128	0.97288
0.98	72.567	-32385	2487.2	0.16592	-0.01464	0.97161
0.982	72.548	-32394	2487.1	0.16582	-0.013859	0.97219
0.984	72.522	-32392	2486.9	0.16572	-0.013078	0.97278
0.986	72.504	-32389	2486.8	0.16563	-0.012298	0.97336
0.988	72.509	-32389	2486.7	0.16553	-0.011517	0.97395
0.99	72.475	-32389	2486.6	0.16543	-0.010736	0.97454
0.992	72.354	-32387	2486.5	0.16377	-0.011322	0.9759
0.994	72.366	-32384	2486.5	0.16211	-0.011907	0.97727
0.996	72.498	-32390	2486.4	0.16045	-0.012493	0.97864
0.998	72.536	-32396	2486.4	0.1588	-0.013078	0.98
1	72.504	-32393	2486.3	0.15714	-0.013664	0.98137
1.002	72.446	-32389	2486.4	0.15743	-0.012981	0.98137
1.004	72.299	-32386	2486.4	0.15772	-0.012298	0.98137
1.006	72.313	-32383	2486.4	0.15801	-0.011614	0.98137
1.008	72.377	-32385	2486.5	0.15831	-0.010931	0.98137
1.01	72.339	-32387	2486.6	0.1586	-0.010248	0.98137
1.012	72.265	-32384	2486.6	0.16084	-0.0085888	0.98
1.014	72.186	-32381	2486.6	0.16309	-0.0069296	0.97864
1.016	72.162	-32387	2486.7	0.16533	-0.0052704	0.97727
1.018	72.133	-32393	2486.7	0.16758	-0.0036112	0.9759
1.02	72.142	-32394	2486.7	0.16982	-0.001952	0.97454
1.022	72.189	-32396	2486.7	0.1709	-0.0037088	0.97415
1.024	72.262	-32394	2486.7	0.17197	-0.0054656	0.97376
1.026	72.252	-32392	2486.7	0.17304	-0.0072224	0.97336
1.028	72.209	-32392	2486.6	0.17412	-0.0089792	0.97297
1.03	72.214	-32392	2486.6	0.17519	-0.010736	0.97258
1.032	72.298	-32394	2486.4	0.17539	-0.011029	0.97317
1.034	72.423	-32396	2486.2	0.17558	-0.011322	0.97376
1.036	72.514	-32405	2486	0.17578	-0.011614	0.97434
1.038	72.585	-32414	2485.8	0.17597	-0.011907	0.97493
1.04	72.61	-32403	2485.6	0.17617	-0.0122	0.97551
1.042	72.536	-32393	2485.4	0.17353	-0.012688	0.97629
1.044	72.451	-32401	2485.2	0.1709	-0.013176	0.97707
1.046	72.452	-32410	2485	0.16826	-0.013664	0.97785
1.048	72.519	-32409	2484.8	0.16563	-0.014152	0.97864
1.05	72.581	-32408	2484.5	0.16299	-0.01464	0.97942
1.052	72.597	-32408	2484.3	0.16524	-0.015128	0.97776
1.054	72.583	-32407	2484	0.16748	-0.015616	0.9761
1.056	72.544	-32410	2483.8	0.16973	-0.016104	0.97444
1.058	72.48	-32414	2483.6	0.17197	-0.016592	0.97278
1.06	72.45	-32417	2483.3	0.17422	-0.01708	0.97112
1.062	72.449	-32420	2483.1	0.1749	-0.017666	0.97092
1.064	72.432	-32419	2482.8	0.17558	-0.018251	0.97073
1.066	72.471	-32418	2482.5	0.17627	-0.018837	0.97053
1.068	72.559	-32420	2482.3	0.17695	-0.019422	0.97034
1.07	72.574	-32423	2482.1	0.17763	-0.020008	0.97014
1.072	72.521	-32416	2482	0.17509	-0.019618	0.96956
1.074	72.513	-32408	2481.8	0.17256	-0.019227	0.96897
1.076	72.441	-32413	2481.7	0.17002	-0.018837	0.96839
1.078	72.47	-32417	2481.5	0.16748	-0.018446	0.9678
1.08	72.486	-32419	2481.4	0.16494	-0.018056	0.96722
1.082	72.479	-32421	2481.3	0.16475	-0.017958	0.96761
1.084	72.506	-32424	2481.1	0.16455	-0.017861	0.968
1.086	72.517	-32426	2481	0.16436	-0.017763	0.96839
1.088	72.495	-32430	2480.9	0.16416	-0.017666	0.96878
1.09	72.438	-32434	2480.8	0.16397	-0.017568	0.96917
1.092	72.457	-32434	2480.7	0.16494	-0.01747	0.96966
1.094	72.506	-32434	2480.6	0.16592	-0.017373	0.97014
1.096	72.515	-32434	2480.5	0.1669	-0.017275	0.97063
1.098	72.471	-32435	2480.5	0.16787	-0.017178	0.97112
1.1	72.445	-32432	2480.4	0.16885	-0.01708	0.97161
1.102	72.445	-32430	2480.3	0.16914	-0.01708	0.97132
1.104	72.499	-32432	2480.2	0.16943	-0.01708	0.97102
1.106	72.515	-32434	2480.1	0.16973	-0.01708	0.97073
1.108	72.455	-32437	2480	0.17002	-0.01708	0.97044
1.11	72.427	-32439	2479.9	0.17031	-0.01708	0.97014
1.112	72.398	-32445	2479.8	0.1706	-0.01708	0.96975
1.114	72.343	-32450	2479.7	0.1709	-0.01708	0.96936
1.116	72.362	-32451	2479.6	0.17119	-0.01708	0.96897
1.118	72.427	-32451	2479.4	0.17148	-0.01708	0.96858
1.12	72.47	-32452	2479.3	0.17178	-0.01708	0.96819
1.122	72.485	-32453	2479.1	0.17158	-0.017178	0.96897
1.124	72.444	-32456	2478.9	0.17139	-0.017275	0.96975
1.126	72.396	-32459	2478.8	0.17119	-0.017373	0.97053
1.128	72.417	-32455	2478.6	0.171	-0.01747	0.97132
1.13	72.462	-32451	2478.5	0.1708	-0.017568	0.9721
1.132	72.468	-32455	2478.3	0.16895	-0.01747	0.97083
1.134	72.473	-32459	2478.2	0.16709	-0.017373	0.96956
1.136	72.481	-32463	2478	0.16524	-0.017275	0.96829
1.138	72.465	-32468	2477.9	0.16338	-0.017178	0.96702
1.14	72.43	-32465	2477.8	0.16153	-0.01708	0.96575
1.142	72.408	-32462	2477.7	0.16192	-0.017373	0.96546
1.144	72.465	-32460	2477.7	0.16231	-0.017666	0.96517
1.146	72.511	-32457	2477.6	0.1627	-0.017958	0.96487
1.148	72.447	-32467	2477.6	0.16309	-0.018251	0.96458
1.15	72.423	-32477	2477.5	0.16348	-0.018544	0.96429
1.152	72.421	-32476	2477.5	0.1627	-0.018739	0.96439
1.154	72.384	-32476	2477.5	0.16192	-0.018934	0.96448
1.156	72.389	-32473	2477.6	0.16114	-0.01913	0.96458
1.158	72.415	-32470	2477.6	0.16036	-0.019325	0.96468
1.16	72.437	-32479	2477.6	0.15958	-0.01952	0.96478
1.162	72.471	-32487	2477.6	0.16016	-0.01913	0.96526
1.164	72.469	-32483	2477.6	0.16075	-0.018739	0.96575
1.166	72.439	-32478	2477.6	0.16133	-0.018349	0.96624
1.168	72.393	-32483	2477.6	0.16192	-0.017958	0.96673
1.17	72.404	-32488	2477.7	0.1625	-0.017568	0.96722
1.172	72.377	-32491	2477.7	0.16368	-0.016494	0.96809
1.174	72.322	-32493	2477.8	0.16485	-0.015421	0.96897
1.176	72.419	-32493	2477.8	0.16602	-0.014347	0.96985
1.178	72.377	-32493	2477.8	0.16719	-0.013274	0.97073
1.18	72.32	-32493	2477.9	0.16836	-0.0122	0.97161
1.182	72.43	-32492	2477.9	0.16953	-0.012981	0.97141
1.184	72.438	-32491	2478	0.1707	-0.013762	0.97122
1.186	72.416	-32490	2478.1	0.17187	-0.014542	0.97102
1.188	72.355	-32491	2478.1	0.17304	-0.015323	0.97083
1.19	72.328	-32491	2478.1	0.17422	-0.016104	0.97063
1.192	72.353	-32495	2478.1	0.17285	-0.015421	0.97053
1.194	72.387	-32499	2478.1	0.17148	-0.014738	0.97044
1.196	72.344	-32506	2478.1	0.17012	-0.014054	0.97034
1.198	72.293	-32512	2478	0.16875	-0.013371	0.97024
1.2	72.356	-32509	2478	0.16738	-0.012688	0.97014
1.202	72.44	-32505	2478	0.16621	-0.013566	0.96917
1.204	72.412	-32506	2478.1	0.16504	-0.014445	0.96819
1.206	72.322	-32507	2478.2	0.16387	-0.015323	0.96722
1.208	72.291	-32513	2478.3	0.1627	-0.016202	0.96624
1.21	72.316	-32520	2478.5	0.16153	-0.01708	0.96526
1.212	72.369	-32519	2478.8	0.16163	-0.017178	0.96458
1.214	72.378	-32519	2479.1	0.16172	-0.017275	0.9639
1.216	72.377	-32525	2479.5	0.16182	-0.017373	0.96321
1.218	72.382	-32531	2479.9	0.16192	-0.01747	0.96253
1.22	72.363	-32522	2480.3	0.16202	-0.017568	0.96185
1.222	72.334	-32514	2480.8	0.1625	-0.01747	0.96253
1.224	72.334	-32518	2481.4	0.16299	-0.017373	0.96321
1.226	72.392	-32522	2482	0.16348	-0.017275	0.9639
1.228	72.426	-32527	2482.7	0.16397	-0.017178	0.96458
1.23	72.431	-32532	2483.3	0.16446	-0.01708	0.96526
1.232	72.426	-32534	2484	0.16377	-0.017178	0.96595
1.234	72.37	-32536	2484.6	0.16309	-0.017275	0.96663
1.236	72.327	-32536	2485.2	0.16241	-0.017373	0.96731
1.238	72.342	-32536	2485.8	0.16172	-0.01747	0.968
1.24	72.424	-32534	2486.4	0.16104	-0.017568	0.96868
1.242	72.48	-32533	2487.1	0.16231	-0.01747	0.96868
1.244	72.49	-32533	2487.9	0.16358	-0.017373	0.96868
1.246	72.399	-32533	2488.7	0.16485	-0.017275	0.96868
1.248	72.347	-32530	2489.6	0.16612	-0.017178	0.96868
1.25	72.413	-32528	2490.4	0.16738	-0.01708	0.96868
1.252	72.522	-32524	2491	0.16729	-0.015714	0.97014
1.254	72.505	-32519	2491.6	0.16719	-0.014347	0.97161
1.256	72.435	-32519	2492.3	0.16709	-0.012981	0.97307
1.258	72.465	-32519	2492.8	0.16699	-0.011614	0.97454
1.26	72.482	-32520	2493.4	0.1669	-0.010248	0.976
1.262	72.475	-32520	2494	0.16748	-0.00976	0.9758
1.264	72.47	-32518	2494.5	0.16807	-0.009272	0.97561
1.266	72.45	-32517	2495	0.16865	-0.008784	0.97541
1.268	72.456	-32516	2495.4	0.16924	-0.008296	0.97522
1.27	72.449	-32516	2495.9	0.16982	-0.007808	0.97502
1.272	72.406	-32513	2496.4	0.16992	-0.0080032	0.97463
1.274	72.398	-32509	2496.9	0.17002	-0.0081984	0.97424
1.276	72.415	-32502	2497.3	0.17012	-0.0083936	0.97385
1.278	72.43	-32496	2497.8	0.17021	-0.0085888	0.97346
1.28	72.432	-32495	2498.2	0.17031	-0.008784	0.97307
1.282	72.421	-32495	2498.6	0.17041	-0.010541	0.97219
1.284	72.416	-32493	2498.9	0.17051	-0.012298	0.97132
1.286	72.435	-32492	2499.3	0.1706	-0.014054	0.97044
1.288	72.419	-32489	2499.5	0.1707	-0.015811	0.96956
1.29	72.375	-32485	2499.8	0.1708	-0.017568	0.96868
1.292	72.345	-32481	2500	0.17119	-0.01747	0.96878
1.294	72.359	-32477	2500.3	0.17158	-0.017373	0.96888
1.296	72.397	-32469	2500.6	0.17197	-0.017275	0.96897
1.298	72.474	-32462	2500.8	0.17236	-0.017178	0.96907
1.3	72.533	-32455	2501	0.17275	-0.01708	0.96917
1.302	72.522	-32449	2501.2	0.17275	-0.017178	0.97024
1.304	72.471	-32448	2501.4	0.17275	-0.017275	0.97132
1.306	72.497	-32447	2501.5	0.17275	-0.017373	0.97239
1.308	72.543	-32445	2501.7	0.17275	-0.01747	0.97346
1.31	72.476	-32444	2501.9	0.17275	-0.017568	0.97454
1.312	72.452	-32436	2502	0.17265	-0.017568	0.97415
1.314	72.516	-32428	2502.1	0.17256	-0.017568	0.97376
1.316	72.521	-32424	2502.2	0.17246	-0.017568	0.97336
1.318	72.457	-32419	2502.2	0.17236	-0.017568	0.97297
1.32	72.409	-32415	2502.3	0.17226	-0.017568	0.97258
1.322	72.446	-32410	2502.3	0.17217	-0.017568	0.97258
1.324	72.513	-32407	2502.3	0.17207	-0.017568	0.97258
1.326	72.475	-32404	2502.3	0.17197	-0.017568	0.97258
1.328	72.432	-32401	2502.3	0.17187	-0.017568	0.97258
1.33	72.408	-32399	2502.3	0.17178	-0.017568	0.97258
1.332	72.391	-32395	2502.3	0.17031	-0.017568	0.97171
1.334	72.387	-32391	2502.2	0.16885	-0.017568	0.97083
1.336	72.508	-32383	2502.2	0.16738	-0.017568	0.96995
1.338	72.595	-32376	2502.1	0.16592	-0.017568	0.96907
1.34	72.579	-32372	2502	0.16446	-0.017568	0.96819
1.342	72.594	-32368	2501.8	0.16377	-0.01747	0.9678
1.344	72.532	-32366	2501.7	0.16309	-0.017373	0.96741
1.346	72.465	-32364	2501.5	0.16241	-0.017275	0.96702
1.348	72.453	-32358	2501.3	0.16172	-0.017178	0.96663
1.35	72.444	-32352	2501.1	0.16104	-0.01708	0.96624
1.352	72.457	-32352	2501	0.16045	-0.01747	0.96624
1.354	72.446	-32352	2500.8	0.15987	-0.017861	0.96624
1.356	72.424	-32351	2500.6	0.15928	-0.018251	0.96624
1.358	72.42	-32350	2500.4	0.1587	-0.018642	0.96624
1.36	72.424	-32344	2500.3	0.15811	-0.019032	0.96624
1.362	72.448	-32339	2500	0.15782	-0.018837	0.96565
1.364	72.474	-32338	2499.8	0.15753	-0.018642	0.96507
1.366	72.441	-32337	2499.5	0.15723	-0.018446	0.96448
1.368	72.394	-32335	2499.3	0.15694	-0.018251	0.9639
1.37	72.343	-32334	2499.1	0.15665	-0.018056	0.96331
1.372	72.352	-32328	2498.8	0.15801	-0.018056	0.96331
1.374	72.471	-32322	2498.5	0.15938	-0.018056	0.96331
1.376	72.507	-32322	2498.2	0.16075	-0.018056	0.96331
1.378	72.501	-32321	2498	0.16211	-0.018056	0.96331
1.38	72.52	-32320	2497.8	0.16348	-0.018056	0.96331
1.382	72.494	-32319	2497.5	0.16319	-0.018446	0.96448
1.384	72.431	-32313	2497.3	0.16289	-0.018837	0.96565
1.386	72.401	-32307	2497	0.1626	-0.019227	0.96683
1.388	72.373	-32307	2496.8	0.16231	-0.019618	0.968
1.39	72.334	-32306	2496.5	0.16202	-0.020008	0.96917
1.392	72.403	-32302	2496.3	0.16358	-0.01913	0.97014
1.394	72.53	-32299	2496.1	0.16514	-0.018251	0.97112
1.396	72.515	-32297	2495.9	0.1667	-0.017373	0.9721
1.398	72.418	-32295	2495.6	0.16826	-0.016494	0.97307
1.4	72.368	-32293	2495.3	0.16982	-0.015616	0.97405
1.402	72.363	-32292	2495	0.17031	-0.015909	0.97415
1.404	72.429	-32291	2494.7	0.1708	-0.016202	0.97424
1.406	72.54	-32289	2494.4	0.17129	-0.016494	0.97434
1.408	72.575	-32296	2494.1	0.17178	-0.016787	0.97444
1.41	72.507	-32304	2493.8	0.17226	-0.01708	0.97454
1.412	72.429	-32299	2493.5	0.17041	-0.016885	0.97463
1.414	72.414	-32295	2493.1	0.16856	-0.01669	0.97473
1.416	72.434	-32289	2492.8	0.1667	-0.016494	0.97483
1.418	72.386	-32283	2492.5	0.16485	-0.016299	0.97493
1.42	72.397	-32283	2492.2	0.16299	-0.016104	0.97502
1.422	72.439	-32284	2492	0.16397	-0.016104	0.97502
1.424	72.419	-32286	2491.7	0.16494	-0.016104	0.97502
1.426	72.441	-32288	2491.5	0.16592	-0.016104	0.97502
1.428	72.417	-32291	2491.2	0.1669	-0.016104	0.97502
1.43	72.444	-32294	2490.9	0.16787	-0.016104	0.97502
1.432	72.467	-32291	2490.7	0.16758	-0.016397	0.97522
1.434	72.417	-32289	2490.4	0.16729	-0.01669	0.97541
1.436	72.361	-32286	2490.2	0.16699	-0.016982	0.97561
1.438	72.383	-32284	2490	0.1667	-0.017275	0.9758
1.44	72.482	-32282	2489.8	0.16641	-0.017568	0.976
1.442	72.513	-32280	2489.7	0.16787	-0.01747	0.97541
1.444	72.538	-32282	2489.6	0.16934	-0.017373	0.97483
1.446	72.522	-32284	2489.5	0.1708	-0.017275	0.97424
1.448	72.477	-32288	2489.5	0.17226	-0.017178	0.97366
1.45	72.469	-32293	2489.5	0.17373	-0.01708	0.97307
1.452	72.419	-32295	2489.4	0.17373	-0.01708	0.97356
1.454	72.385	-32296	2489.3	0.17373	-0.01708	0.97405
1.456	72.412	-32291	2489.3	0.17373	-0.01708	0.97454
1.458	72.466	-32285	2489.2	0.17373	-0.01708	0.97502
1.46	72.458	-32282	2489.2	0.17373	-0.01708	0.97551
1.462	72.421	-32279	2489.2	0.17324	-0.016787	0.97707
1.464	72.424	-32283	2489.3	0.17275	-0.016494	0.97864
1.466	72.48	-32287	2489.3	0.17226	-0.016202	0.9802
1.468	72.552	-32290	2489.3	0.17178	-0.015909	0.98176
1.47	72.5	-32292	2489.3	0.17129	-0.015616	0.98332
1.472	72.397	-32293	2489.4	0.17187	-0.015128	0.9841
1.474	72.404	-32293	2489.5	0.17246	-0.01464	0.98488
1.476	72.422	-32290	2489.6	0.17304	-0.014152	0.98566
1.478	72.391	-32288	2489.7	0.17363	-0.013664	0.98644
1.48	72.375	-32292	2489.7	0.17422	-0.013176	0.98722
1.482	72.378	-32297	2489.8	0.17285	-0.013859	0.98615
1.484	72.408	-32297	2489.8	0.17148	-0.014542	0.98508
1.486	72.412	-32298	2489.9	0.17012	-0.015226	0.984
1.488	72.373	-32299	2490.1	0.16875	-0.015909	0.98293
1.49	72.345	-32301	2490.2	0.16738	-0.016592	0.98186
1.492	72.358	-32302	2490.3	0.16729	-0.015421	0.98195
1.494	72.373	-32302	2490.4	0.16719	-0.01425	0.98205
1.496	72.343	-32303	2490.6	0.16709	-0.013078	0.98215
1.498	72.376	-32303	2490.7	0.16699	-0.011907	0.98225
1.5	72.494	-32304	2490.8	0.1669	-0.010736	0.98234
1.502	72.529	-32305	2490.9	0.1669	-0.011419	0.98225
1.504	72.474	-32304	2491	0.1669	-0.012102	0.98215
1.506	72.43	-32302	2491.1	0.1669	-0.012786	0.98205
1.508	72.423	-32304	2491.2	0.1669	-0.013469	0.98195
1.51	72.343	-32307	2491.3	0.1669	-0.014152	0.98186
1.512	72.301	-32305	2491.4	0.16758	-0.013762	0.98215
1.514	72.362	-32303	2491.6	0.16826	-0.013371	0.98244
1.516	72.375	-32303	2491.7	0.16895	-0.012981	0.98273
1.518	72.346	-32303	2491.7	0.16963	-0.01259	0.98303
1.52	72.329	-32298	2491.8	0.17031	-0.0122	0.98332
1.522	72.327	-32293	2491.9	0.1708	-0.013078	0.98361
1.524	72.49	-32303	2491.9	0.17129	-0.013957	0.98391
1.526	72.507	-32313	2492	0.17178	-0.014835	0.9842
1.528	72.459	-32310	2492	0.17226	-0.015714	0.98449
1.53	72.471	-32308	2492	0.17275	-0.016592	0.98478
1.532	72.444	-32305	2492.1	0.17207	-0.015421	0.98498
1.534	72.418	-32302	2492.2	0.17139	-0.01425	0.98517
1.536	72.422	-32302	2492.2	0.1707	-0.013078	0.98537
1.538	72.412	-32302	2492.2	0.17002	-0.011907	0.98556
1.54	72.356	-32300	2492.2	0.16934	-0.010736	0.98576
1.542	72.374	-32298	2492.2	0.16934	-0.011029	0.98605
1.544	72.422	-32299	2492.2	0.16934	-0.011322	0.98635
1.546	72.482	-32301	2492.2	0.16934	-0.011614	0.98664
1.548	72.518	-32304	2492.3	0.16934	-0.011907	0.98693
1.55	72.505	-32308	2492.3	0.16934	-0.0122	0.98722
1.552	72.469	-32306	2492.4	0.16846	-0.01181	0.98693
1.554	72.447	-32304	2492.5	0.16758	-0.011419	0.98664
1.556	72.4	-32309	2492.6	0.1667	-0.011029	0.98635
1.558	72.39	-32314	2492.7	0.16582	-0.010638	0.98605
1.56	72.442	-32305	2492.8	0.16494	-0.010248	0.98576
1.562	72.462	-32296	2492.9	0.16397	-0.010834	0.98469
1.564	72.479	-32301	2493	0.16299	-0.011419	0.98361
1.566	72.496	-32306	2493.1	0.16202	-0.012005	0.98254
1.568	72.461	-32303	2493.2	0.16104	-0.01259	0.98147
1.57	72.459	-32300	2493.4	0.16006	-0.013176	0.98039
1.572	72.491	-32299	2493.4	0.16143	-0.013664	0.97981
1.574	72.479	-32298	2493.5	0.1628	-0.014152	0.97922
1.576	72.476	-32298	2493.5	0.16416	-0.01464	0.97864
1.578	72.481	-32298	2493.5	0.16553	-0.015128	0.97805
1.58	72.419	-32308	2493.5	0.1669	-0.015616	0.97746
1.582	72.373	-32318	2493.4	0.1666	-0.015226	0.97864
1.584	72.365	-32307	2493.4	0.16631	-0.014835	0.97981
1.586	72.401	-32296	2493.3	0.16602	-0.014445	0.98098
1.588	72.495	-32296	2493.2	0.16572	-0.014054	0.98215
1.59	72.505	-32296	2493.1	0.16543	-0.013664	0.98332
1.592	72.563	-32302	2493	0.16533	-0.014347	0.98156
1.594	72.571	-32308	2492.9	0.16524	-0.01503	0.97981
1.596	72.503	-32302	2492.8	0.16514	-0.015714	0.97805
1.598	72.447	-32295	2492.6	0.16504	-0.016397	0.97629
1.6	72.356	-32299	2492.5	0.16494	-0.01708	0.97454
1.602	72.35	-32302	2492.3	0.16631	-0.01708	0.97366
1.604	72.466	-32306	2492.2	0.16768	-0.01708	0.97278
1.606	72.503	-32310	2492	0.16904	-0.01708	0.9719
1.608	72.521	-32306	2491.8	0.17041	-0.01708	0.97102
1.61	72.486	-32301	2491.6	0.17178	-0.01708	0.97014
1.612	72.487	-32301	2491.5	0.17148	-0.01708	0.97063
1.614	72.516	-32302	2491.4	0.17119	-0.01708	0.97112
1.616	72.461	-32298	2491.2	0.1709	-0.01708	0.97161
1.618	72.54	-32294	2491.1	0.1706	-0.01708	0.9721
1.62	72.513	-32300	2490.9	0.17031	-0.01708	0.97258
1.622	72.322	-32306	2490.8	0.17002	-0.015811	0.97307
1.624	72.276	-32303	2490.7	0.16973	-0.014542	0.97356
1.626	72.346	-32299	2490.6	0.16943	-0.013274	0.97405
1.628	72.376	-32311	2490.5	0.16914	-0.012005	0.97454
1.63	72.295	-32323	2490.4	0.16885	-0.010736	0.97502
1.632	72.281	-32315	2490.3	0.16875	-0.011029	0.97473
1.634	72.281	-32308	2490.2	0.16865	-0.011322	0.97444
1.636	72.215	-32306	2490.1	0.16856	-0.011614	0.97415
1.638	72.189	-32304	2490	0.16846	-0.011907	0.97385
1.64	72.201	-32305	2489.9	0.16836	-0.0122	0.97356
1.642	72.21	-32305	2489.7	0.16748	-0.012395	0.97434
1.644	72.222	-32308	2489.5	0.1666	-0.01259	0.97512
1.646	72.217	-32311	2489.3	0.16572	-0.012786	0.9759
1.648	72.179	-32310	2489.2	0.16485	-0.012981	0.97668
1.65	72.138	-32309	2489	0.16397	-0.013176	0.97746
1.652	72.139	-32314	2488.9	0.16397	-0.013371	0.97727
1.654	72.199	-32318	2488.7	0.16397	-0.013566	0.97707
1.656	72.334	-32317	2488.5	0.16397	-0.013762	0.97688
1.658	72.506	-32316	2488.4	0.16397	-0.013957	0.97668
1.66	72.562	-32317	2488.3	0.16397	-0.014152	0.97649
1.662	72.501	-32318	2488.1	0.16416	-0.01464	0.97551
1.664	72.519	-32314	2487.9	0.16436	-0.015128	0.97454
1.666	72.592	-32310	2487.7	0.16455	-0.015616	0.97356
1.668	72.54	-32305	2487.5	0.16475	-0.016104	0.97258
1.67	72.439	-32300	2487.3	0.16494	-0.016592	0.97161
1.672	72.503	-32307	2487.1	0.16328	-0.016885	0.96966
1.674	72.569	-32315	2486.9	0.16163	-0.017178	0.9677
1.676	72.517	-32323	2486.7	0.15997	-0.01747	0.96575
1.678	72.545	-32331	2486.5	0.15831	-0.017763	0.9638
1.68	72.532	-32323	2486.3	0.15665	-0.018056	0.96185
1.682	72.483	-32315	2486.1	0.15792	-0.018349	0.96116
1.684	72.452	-32309	2485.9	0.15919	-0.018642	0.96048
1.686	72.406	-32304	2485.7	0.16045	-0.018934	0.9598
1.688	72.463	-32317	2485.6	0.16172	-0.019227	0.95912
1.69	72.519	-32330	2485.4	0.16299	-0.01952	0.95843
1.692	72.414	-32327	2485.2	0.1625	-0.019422	0.95794
1.694	72.327	-32324	2485	0.16202	-0.019325	0.95746
1.696	72.289	-32325	2484.9	0.16153	-0.019227	0.95697
1.698	72.416	-32326	2484.7	0.16104	-0.01913	0.95648
1.7	72.5	-32326	2484.5	0.16055	-0.019032	0.95599
1.702	72.496	-32326	2484.4	0.16075	-0.019813	0.95619
1.704	72.483	-32331	2484.2	0.16094	-0.020594	0.95638
1.706	72.496	-32335	2484.1	0.16114	-0.021374	0.95658
1.708	72.491	-32332	2484	0.16133	-0.022155	0.95677
1.71	72.437	-32329	2483.9	0.16153	-0.022936	0.95697
1.712	72.398	-32335	2483.8	0.16241	-0.021765	0.95726
1.714	72.384	-32341	2483.7	0.16328	-0.020594	0.95755
1.716	72.34	-32343	2483.6	0.16416	-0.019422	0.95785
1.718	72.371	-32346	2483.6	0.16504	-0.018251	0.95814
1.72	72.459	-32346	2483.6	0.16592	-0.01708	0.95843
1.722	72.524	-32346	2483.6	0.16485	-0.017178	0.95941
1.724	72.491	-32345	2483.5	0.16377	-0.017275	0.96038
1.726	72.399	-32344	2483.5	0.1627	-0.017373	0.96136
1.728	72.385	-32341	2483.5	0.16163	-0.01747	0.96234
1.73	72.486	-32338	2483.5	0.16055	-0.017568	0.96331
1.732	72.539	-32346	2483.5	0.16006	-0.017958	0.9637
1.734	72.468	-32355	2483.5	0.15958	-0.018349	0.96409
1.736	72.39	-32356	2483.5	0.15909	-0.018739	0.96448
1.738	72.352	-32357	2483.5	0.1586	-0.01913	0.96487
1.74	72.35	-32357	2483.4	0.15811	-0.01952	0.96526
1.742	72.352	-32357	2483.4	0.15928	-0.01913	0.96614
1.744	72.342	-32365	2483.3	0.16045	-0.018739	0.96702
1.746	72.39	-32373	2483.2	0.16163	-0.018349	0.9679
1.748	72.5	-32370	2483.1	0.1628	-0.017958	0.96878
1.75	72.574	-32368	2483	0.16397	-0.017568	0.96966
1.752	72.485	-32368	2482.9	0.16446	-0.01747	0.96946
1.754	72.356	-32367	2482.8	0.16494	-0.017373	0.96927
1.756	72.341	-32370	2482.7	0.16543	-0.017275	0.96907
1.758	72.455	-32373	2482.6	0.16592	-0.017178	0.96888
1.76	72.45	-32373	2482.5	0.16641	-0.01708	0.96868
1.762	72.385	-32373	2482.3	0.16738	-0.017178	0.96927
1.764	72.37	-32372	2482.2	0.16836	-0.017275	0.96985
1.766	72.414	-32371	2482	0.16934	-0.017373	0.97044
1.768	72.436	-32375	2482	0.17031	-0.01747	0.97102
1.77	72.364	-32379	2481.9	0.17129	-0.017568	0.97161
1.772	72.358	-32379	2481.8	0.1709	-0.017568	0.972
1.774	72.396	-32379	2481.7	0.17051	-0.017568	0.97239
1.776	72.369	-32379	2481.6	0.17012	-0.017568	0.97278
1.778	72.351	-32379	2481.5	0.16973	-0.017568	0.97317
1.78	72.415	-32384	2481.4	0.16934	-0.017568	0.97356
1.782	72.438	-32388	2481.3	0.16885	-0.017568	0.97395
1.784	72.391	-32381	2481.2	0.16836	-0.017568	0.97434
1.786	72.344	-32374	2481.2	0.16787	-0.017568	0.97473
1.788	72.333	-32385	2481.1	0.16738	-0.017568	0.97512
1.79	72.322	-32396	2481.1	0.1669	-0.017568	0.97551
1.792	72.327	-32398	2481.1	0.16768	-0.01747	0.97512
1.794	72.315	-32399	2481.1	0.16846	-0.017373	0.97473
1.796	72.334	-32395	2481.1	0.16924	-0.017275	0.97434
1.798	72.328	-32391	2481.1	0.17002	-0.017178	0.97395
1.8	72.328	-32393	2481.1	0.1708	-0.01708	0.97356
1.802	72.363	-32394	2481.1	0.16836	-0.017763	0.97502
1.804	72.378	-32402	2481.1	0.16592	-0.018446	0.97649
1.806	72.357	-32410	2481.2	0.16348	-0.01913	0.97795
1.808	72.331	-32410	2481.2	0.16104	-0.019813	0.97942
1.81	72.319	-32410	2481.3	0.1586	-0.020496	0.98088
1.812	72.32	-32413	2481.4	0.15919	-0.020398	0.9801
1.814	72.314	-32415	2481.5	0.15977	-0.020301	0.97932
1.816	72.294	-32413	2481.6	0.16036	-0.020203	0.97854
1.818	72.315	-32410	2481.7	0.16094	-0.020106	0.97776
1.82	72.34	-32415	2481.8	0.16153	-0.020008	0.97698
1.822	72.291	-32419	2482	0.16231	-0.01952	0.97688
1.824	72.238	-32425	2482.1	0.16309	-0.019032	0.97678
1.826	72.239	-32431	2482.3	0.16387	-0.018544	0.97668
1.828	72.272	-32433	2482.6	0.16465	-0.018056	0.97659
1.83	72.319	-32436	2482.9	0.16543	-0.017568	0.97649
1.832	72.361	-32432	2483.4	0.16514	-0.01747	0.97727
1.834	72.381	-32429	2483.8	0.16485	-0.017373	0.97805
1.836	72.355	-32431	2484.3	0.16455	-0.017275	0.97883
1.838	72.33	-32433	2484.8	0.16426	-0.017178	0.97961
1.84	72.346	-32434	2485.3	0.16397	-0.01708	0.98039
1.842	72.328	-32434	2486	0.16553	-0.017178	0.97912
1.844	72.325	-32438	2486.8	0.16709	-0.017275	0.97785
1.846	72.338	-32442	2487.5	0.16865	-0.017373	0.97659
1.848	72.299	-32441	2488.2	0.17021	-0.01747	0.97532
1.85	72.273	-32440	2488.8	0.17178	-0.017568	0.97405
1.852	72.262	-32439	2489.6	0.17217	-0.017666	0.97395
1.854	72.302	-32438	2490.3	0.17256	-0.017763	0.97385
1.856	72.379	-32431	2491.1	0.17295	-0.017861	0.97376
1.858	72.399	-32423	2491.9	0.17334	-0.017958	0.97366
1.86	72.351	-32429	2492.7	0.17373	-0.018056	0.97356
1.862	72.385	-32435	2493.4	0.17285	-0.017861	0.97434
1.864	72.396	-32438	2494.2	0.17197	-0.017666	0.97512
1.866	72.378	-32441	2495	0.17109	-0.01747	0.9759
1.868	72.367	-32436	2495.6	0.17021	-0.017275	0.97668
1.87	72.355	-32432	2496.3	0.16934	-0.01708	0.97746
1.872	72.336	-32431	2497	0.16777	-0.01708	0.97776
1.874	72.356	-32430	2497.6	0.16621	-0.01708	0.97805
1.876	72.358	-32427	2498.2	0.16465	-0.01708	0.97834
1.878	72.355	-32423	2498.8	0.16309	-0.01708	0.97864
1.88	72.369	-32421	2499.3	0.16153	-0.01708	0.97893
1.882	72.35	-32419	2499.9	0.1626	-0.016787	0.97854
1.884	72.26	-32419	2500.4	0.16368	-0.016494	0.97815
1.886	72.284	-32419	2500.9	0.16475	-0.016202	0.97776
1.888	72.385	-32414	2501.3	0.16582	-0.015909	0.97737
1.89	72.416	-32408	2501.8	0.1669	-0.015616	0.97698
1.892	72.388	-32406	2502.3	0.16602	-0.015128	0.97698
1.894	72.346	-32403	2502.8	0.16514	-0.01464	0.97698
1.896	72.351	-32403	2503.3	0.16426	-0.014152	0.97698
1.898	72.402	-32402	2503.7	0.16338	-0.013664	0.97698
1.9	72.419	-32391	2504.2	0.1625	-0.013176	0.97698
1.902	72.414	-32380	2504.6	0.1628	-0.013176	0.97785
1.904	72.402	-32380	2504.9	0.16309	-0.013176	0.97873
1.906	72.341	-32381	2505.3	0.16338	-0.013176	0.97961
1.908	72.269	-32382	2505.7	0.16368	-0.013176	0.98049
1.91	72.276	-32383	2506.1	0.16397	-0.013176	0.98137
1.912	72.361	-32371	2506.4	0.16465	-0.012883	0.98117
1.914	72.397	-32358	2506.7	0.16533	-0.01259	0.98098
1.916	72.416	-32354	2507	0.16602	-0.012298	0.98078
1.918	72.436	-32350	2507.3	0.1667	-0.012005	0.98059
1.92	72.429	-32345	2507.6	0.16738	-0.011712	0.98039
1.922	72.402	-32340	2507.8	0.1667	-0.012786	0.97961
1.924	72.389	-32332	2508	0.16602	-0.013859	0.97883
1.926	72.381	-32325	2508.1	0.16533	-0.014933	0.97805
1.928	72.392	-32320	2508.2	0.16465	-0.016006	0.97727
1.93	72.399	-32315	2508.3	0.16397	-0.01708	0.97649
1.932	72.385	-32310	2508.2	0.16504	-0.017178	0.97532
1.934	72.316	-32305	2508.2	0.16612	-0.017275	0.97415
1.936	72.295	-32303	2508.1	0.16719	-0.017373	0.97297
1.938	72.392	-32301	2508.1	0.16826	-0.01747	0.9718
1.94	72.426	-32297	2508	0.16934	-0.017568	0.97063
1.942	72.413	-32294	2507.9	0.16699	-0.017861	0.96975
1.944	72.447	-32288	2507.8	0.16465	-0.018154	0.96888
1.946	72.494	-32282	2507.7	0.16231	-0.018446	0.968
1.948	72.512	-32279	2507.6	0.15997	-0.018739	0.96712
1.95	72.451	-32276	2507.4	0.15762	-0.019032	0.96624
1.952	72.394	-32274	2507.3	0.15753	-0.01991	0.96673
1.954	72.419	-32272	2507.2	0.15743	-0.020789	0.96722
1.956	72.399	-32267	2507	0.15733	-0.021667	0.9677
1.958	72.341	-32262	2506.9	0.15723	-0.022546	0.96819
1.96	72.353	-32256	2506.7	0.15714	-0.023424	0.96868
1.962	72.449	-32250	2506.6	0.15684	-0.023326	0.9678
1.964	72.54	-32249	2506.5	0.15655	-0.023229	0.96692
1.966	72.583	-32248	2506.4	0.15626	-0.023131	0.96604
1.968	72.492	-32242	2506.2	0.15596	-0.023034	0.96517
1.97	72.406	-32236	2506.1	0.15567	-0.022936	0.96429
1.972	72.429	-32230	2506	0.15548	-0.022253	0.9638
1.974	72.482	-32223	2505.8	0.15528	-0.02157	0.96331
1.976	72.447	-32222	2505.6	0.15509	-0.020886	0.96282
1.978	72.419	-32221	2505.5	0.15489	-0.020203	0.96234
1.98	72.481	-32218	2505.3	0.1547	-0.01952	0.96185
1.982	72.544	-32215	2505.2	0.15401	-0.019618	0.96321
1.984	72.54	-32218	2505.1	0.15333	-0.019715	0.96458
1.986	72.498	-32221	2505.1	0.15265	-0.019813	0.96595
1.988	72.484	-32214	2505	0.15196	-0.01991	0.96731
1.99	72.474	-32207	2505	0.15128	-0.020008	0.96868
1.992	72.393	-32198	2504.9	0.15138	-0.019813	0.96917
1.994	72.344	-32189	2504.8	0.15148	-0.019618	0.96966
1.996	72.431	-32187	2504.8	0.15157	-0.019422	0.97014
1.998	72.495	-32186	2504.7	0.15167	-0.019227	0.97063
2	72.465	-32184	2504.6	0.15177	-0.019032	0.97112
2.002	72.478	-32183	2504.6	0.15313	-0.020203	0.97229
2.004	72.476	-32181	2504.6	0.1545	-0.021374	0.97346
2.006	72.387	-32180	2504.5	0.15587	-0.022546	0.97463
2.008	72.387	-32179	2504.3	0.15723	-0.023717	0.9758
2.01	72.47	-32178	2504.2	0.1586	-0.024888	0.97698
2.012	72.512	-32178	2504	0.15899	-0.024498	0.97629
2.014	72.427	-32178	2503.9	0.15938	-0.024107	0.97561
2.016	72.418	-32178	2503.7	0.15977	-0.023717	0.97493
2.018	72.411	-32179	2503.6	0.16016	-0.023326	0.97424
2.02	72.405	-32179	2503.4	0.16055	-0.022936	0.97356
2.022	72.389	-32179	2503.3	0.16163	-0.022448	0.97297
2.024	72.422	-32175	2503.1	0.1627	-0.02196	0.97239
2.026	72.435	-32171	2502.9	0.16377	-0.021472	0.9718
2.028	72.424	-32167	2502.8	0.16485	-0.020984	0.97122
2.03	72.524	-32162	2502.6	0.16592	-0.020496	0.97063
2.032	72.514	-32166	2502.5	0.16436	-0.020106	0.96956
2.034	72.446	-32170	2502.3	0.1628	-0.019715	0.96848
2.036	72.416	-32169	2502.1	0.16124	-0.019325	0.96741
2.038	72.347	-32168	2502	0.15967	-0.018934	0.96634
2.04	72.347	-32164	2501.8	0.15811	-0.018544	0.96526
2.042	72.353	-32160	2501.6	0.15889	-0.018837	0.96595
2.044	72.392	-32160	2501.4	0.15967	-0.01913	0.96663
2.046	72.367	-32160	2501.2	0.16045	-0.019422	0.96731
2.048	72.369	-32159	2501.1	0.16124	-0.019715	0.968
2.05	72.447	-32158	2500.9	0.16202	-0.020008	0.96868
2.052	72.442	-32157	2500.8	0.16377	-0.019422	0.96907
2.054	72.372	-32156	2500.6	0.16553	-0.018837	0.96946
2.056	72.346	-32157	2500.5	0.16729	-0.018251	0.96985
2.058	72.349	-32159	2500.4	0.16904	-0.017666	0.97024
2.06	72.425	-32159	2500.3	0.1708	-0.01708	0.97063
2.062	72.521	-32160	2500.2	0.17109	-0.017373	0.97171
2.064	72.533	-32158	2500.1	0.17139	-0.017666	0.97278
2.066	72.503	-32156	2500	0.17168	-0.017958	0.97385
2.068	72.486	-32158	2499.9	0.17197	-0.018251	0.97493
2.07	72.479	-32161	2499.8	0.17226	-0.018544	0.976
2.072	72.449	-32163	2499.7	0.17246	-0.018349	0.97571
2.074	72.43	-32166	2499.6	0.17265	-0.018154	0.97541
2.076	72.453	-32167	2499.6	0.17285	-0.017958	0.97512
2.078	72.456	-32168	2499.5	0.17304	-0.017763	0.97483
2.08	72.442	-32168	2499.5	0.17324	-0.017568	0.97454
2.082	72.44	-32168	2499.4	0.17344	-0.018349	0.97463
2.084	72.436	-32168	2499.3	0.17363	-0.01913	0.97473
2.086	72.436	-32168	2499.2	0.17383	-0.01991	0.97483
2.088	72.447	-32165	2499.2	0.17402	-0.020691	0.97493
2.09	72.463	-32161	2499.2	0.17422	-0.021472	0.97502
2.092	72.473	-32165	2499.2	0.17519	-0.020984	0.97415
2.094	72.456	-32169	2499.2	0.17617	-0.020496	0.97327
2.096	72.43	-32171	2499.2	0.17714	-0.020008	0.97239
2.098	72.447	-32173	2499.2	0.17812	-0.01952	0.97151
2.1	72.441	-32164	2499.2	0.1791	-0.019032	0.97063
2.102	72.4	-32155	2499.2	0.179	-0.018642	0.97034
2.104	72.388	-32158	2499.2	0.1789	-0.018251	0.97005
2.106	72.397	-32162	2499.3	0.1788	-0.017861	0.96975
2.108	72.347	-32164	2499.3	0.17871	-0.01747	0.96946
2.11	72.311	-32165	2499.4	0.17861	-0.01708	0.96917
2.112	72.314	-32160	2499.4	0.17763	-0.018154	0.96975
2.114	72.296	-32155	2499.5	0.17666	-0.019227	0.97034
2.116	72.377	-32158	2499.5	0.17568	-0.020301	0.97092
2.118	72.485	-32161	2499.5	0.1747	-0.021374	0.97151
2.12	72.473	-32162	2499.6	0.17373	-0.022448	0.9721
2.122	72.305	-32163	2499.6	0.17344	-0.021765	0.97239
2.124	72.26	-32166	2499.6	0.17314	-0.021082	0.97268
2.126	72.267	-32169	2499.7	0.17285	-0.020398	0.97297
2.128	72.367	-32163	2499.8	0.17256	-0.019715	0.97327
2.13	72.406	-32158	2499.9	0.17226	-0.019032	0.97356
2.132	72.336	-32160	2499.9	0.17002	-0.018642	0.97424
2.134	72.407	-32163	2500	0.16777	-0.018251	0.97493
2.136	72.469	-32159	2500.1	0.16553	-0.017861	0.97561
2.138	72.48	-32154	2500.2	0.16328	-0.01747	0.97629
2.14	72.473	-32156	2500.3	0.16104	-0.01708	0.97698
2.142	72.442	-32157	2500.5	0.16065	-0.017178	0.97678
2.144	72.438	-32157	2500.6	0.16026	-0.017275	0.97659
2.146	72.439	-32157	2500.8	0.15987	-0.017373	0.97639
2.148	72.381	-32162	2500.9	0.15948	-0.01747	0.9762
2.15	72.299	-32166	2501	0.15909	-0.017568	0.976
2.152	72.311	-32163	2501.1	0.15948	-0.017861	0.97551
2.154	72.413	-32160	2501.3	0.15987	-0.018154	0.97502
2.156	72.425	-32160	2501.4	0.16026	-0.018446	0.97454
2.158	72.369	-32161	2501.4	0.16065	-0.018739	0.97405
2.16	72.355	-32159	2501.5	0.16104	-0.019032	0.97356
2.162	72.359	-32157	2501.5	0.16221	-0.018544	0.97327
2.164	72.378	-32155	2501.5	0.16338	-0.018056	0.97297
2.166	72.395	-32152	2501.5	0.16455	-0.017568	0.97268
2.168	72.412	-32153	2501.4	0.16572	-0.01708	0.97239
2.17	72.421	-32154	2501.4	0.1669	-0.016592	0.9721
2.172	72.436	-32153	2501.4	0.16709	-0.016787	0.972
2.174	72.451	-32151	2501.4	0.16729	-0.016982	0.9719
2.176	72.459	-32147	2501.4	0.16748	-0.017178	0.9718
2.178	72.449	-32144	2501.3	0.16768	-0.017373	0.97171
2.18	72.46	-32146	2501.3	0.16787	-0.017568	0.97161
2.182	72.432	-32148	2501.2	0.16719	-0.017568	0.97122
2.184	72.386	-32152	2501.2	0.16651	-0.017568	0.97083
2.186	72.317	-32156	2501.1	0.16582	-0.017568	0.97044
2.188	72.331	-32158	2501	0.16514	-0.017568	0.97005
2.19	72.346	-32161	2500.9	0.16446	-0.017568	0.96966
2.192	72.33	-32159	2500.8	0.1628	-0.018056	0.96907
2.194	72.374	-32156	2500.6	0.16114	-0.018544	0.96848
2.196	72.41	-32156	2500.5	0.15948	-0.019032	0.9679
2.198	72.588	-32157	2500.4	0.15782	-0.01952	0.96731
2.2	72.653	-32150	2500.3	0.15616	-0.020008	0.96673
2.202	72.572	-32143	2500.2	0.15479	-0.019422	0.96692
2.204	72.482	-32145	2500.1	0.15343	-0.018837	0.96712
2.206	72.451	-32148	2500	0.15206	-0.018251	0.96731
2.208	72.415	-32150	2499.9	0.15069	-0.017666	0.96751
2.21	72.414	-32153	2499.7	0.14933	-0.01708	0.9677
2.212	72.441	-32153	2499.7	0.15021	-0.017178	0.96868
2.214	72.43	-32154	2499.6	0.15108	-0.017275	0.96966
2.216	72.365	-32157	2499.5	0.15196	-0.017373	0.97063
2.218	72.329	-32160	2499.4	0.15284	-0.01747	0.97161
2.22	72.299	-32154	2499.3	0.15372	-0.017568	0.97258
2.222	72.304	-32148	2499.2	0.1547	-0.018154	0.97258
2.224	72.421	-32152	2499	0.15567	-0.018739	0.97258
2.226	72.569	-32156	2498.9	0.15665	-0.019325	0.97258
2.228	72.573	-32156	2498.7	0.15762	-0.01991	0.97258
2.23	72.53	-32155	2498.6	0.1586	-0.020496	0.97258
2.232	72.473	-32157	2498.5	0.15948	-0.020203	0.97239
2.234	72.424	-32159	2498.4	0.16036	-0.01991	0.97219
2.236	72.43	-32160	2498.3	0.16124	-0.019618	0.972
2.238	72.45	-32160	2498.2	0.16211	-0.019325	0.9718
2.24	72.384	-32155	2498	0.16299	-0.019032	0.97161
2.242	72.322	-32151	2498	0.16368	-0.018739	0.9719
2.244	72.367	-32151	2498	0.16436	-0.018446	0.97219
2.246	72.428	-32152	2497.9	0.16504	-0.018154	0.97249
2.248	72.432	-32155	2497.8	0.16572	-0.017861	0.97278
2.25	72.407	-32159	2497.7	0.16641	-0.017568	0.97307
2.252	72.383	-32161	2497.6	0.16729	-0.018056	0.97336
2.254	72.382	-32163	2497.4	0.16816	-0.018544	0.97366
2.256	72.406	-32165	2497.3	0.16904	-0.019032	0.97395
2.258	72.362	-32168	2497.1	0.16992	-0.01952	0.97424
2.26	72.299	-32167	2497	0.1708	-0.020008	0.97454
2.262	72.187	-32165	2496.8	0.17021	-0.019618	0.97376
2.264	72.106	-32166	2496.5	0.16963	-0.019227	0.97297
2.266	72.139	-32167	2496.4	0.16904	-0.018837	0.97219
2.268	72.149	-32163	2496.2	0.16846	-0.018446	0.97141
2.27	72.129	-32159	2496.1	0.16787	-0.018056	0.97063
2.272	72.143	-32161	2495.9	0.16719	-0.017958	0.97063
2.274	72.142	-32164	2495.6	0.16651	-0.017861	0.97063
2.276	72.046	-32167	2495.5	0.16582	-0.017763	0.97063
2.278	72.102	-32171	2495.3	0.16514	-0.017666	0.97063
2.28	72.205	-32172	2495.1	0.16446	-0.017568	0.97063
2.282	72.196	-32172	2494.9	0.16504	-0.017568	0.97102
2.284	72.138	-32173	2494.8	0.16563	-0.017568	0.97141
2.286	72.238	-32174	2494.6	0.16621	-0.017568	0.9718
2.288	72.405	-32176	2494.4	0.1668	-0.017568	0.97219
2.29	72.511	-32178	2494.3	0.16738	-0.017568	0.97258
2.292	72.624	-32179	2494.1	0.16787	-0.017568	0.97249
2.294	72.554	-32180	2494	0.16836	-0.017568	0.97239
2.296	72.488	-32183	2493.9	0.16885	-0.017568	0.97229
2.298	72.447	-32187	2493.8	0.16934	-0.017568	0.97219
2.3	72.443	-32192	2493.8	0.16982	-0.017568	0.9721
2.302	72.461	-32197	2493.7	0.17051	-0.017568	0.97161
2.304	72.455	-32191	2493.7	0.17119	-0.017568	0.97112
2.306	72.452	-32184	2493.7	0.17187	-0.017568	0.97063
2.308	72.488	-32191	2493.7	0.17256	-0.017568	0.97014
2.31	72.475	-32199	2493.7	0.17324	-0.017568	0.96966
2.312	72.487	-32191	2493.8	0.17353	-0.018349	0.96985
2.314	72.547	-32184	2493.8	0.17383	-0.01913	0.97005
2.316	72.537	-32195	2493.7	0.17412	-0.01991	0.97024
2.318	72.463	-32205	2493.6	0.17441	-0.020691	0.97044
2.32	72.412	-32194	2493.5	0.1747	-0.021472	0.97063
2.322	72.38	-32183	2493.5	0.17373	-0.021472	0.97053
2.324	72.351	-32196	2493.4	0.17275	-0.021472	0.97044
2.326	72.354	-32209	2493.3	0.17178	-0.021472	0.97034
2.328	72.382	-32210	2493.1	0.1708	-0.021472	0.97024
2.33	72.403	-32211	2493	0.16982	-0.021472	0.97014
2.332	72.414	-32203	2492.9	0.16846	-0.021472	0.96975
2.334	72.408	-32194	2492.8	0.16709	-0.021472	0.96936
2.336	72.377	-32204	2492.7	0.16572	-0.021472	0.96897
2.338	72.32	-32214	2492.5	0.16436	-0.021472	0.96858
2.34	72.257	-32214	2492.3	0.16299	-0.021472	0.96819
2.342	72.235	-32213	2492.1	0.16387	-0.02157	0.96888
2.344	72.285	-32215	2491.8	0.16475	-0.021667	0.96956
2.346	72.405	-32217	2491.7	0.16563	-0.021765	0.97024
2.348	72.416	-32219	2491.5	0.16651	-0.021862	0.97092
2.35	72.439	-32221	2491.4	0.16738	-0.02196	0.97161
2.352	72.457	-32224	2491.2	0.1667	-0.021374	0.97063
2.354	72.452	-32227	2491	0.16602	-0.020789	0.96966
2.356	72.451	-32230	2490.8	0.16533	-0.020203	0.96868
2.358	72.406	-32234	2490.7	0.16465	-0.019618	0.9677
2.36	72.371	-32236	2490.5	0.16397	-0.019032	0.96673
2.362	72.377	-32238	2490.4	0.16514	-0.01952	0.96731
2.364	72.385	-32234	2490.2	0.16631	-0.020008	0.9679
2.366	72.458	-32231	2490	0.16748	-0.020496	0.96848
2.368	72.511	-32230	2489.9	0.16865	-0.020984	0.96907
2.37	72.444	-32228	2489.7	0.16982	-0.021472	0.96966
2.372	72.335	-32233	2489.6	0.16924	-0.020691	0.96985
2.374	72.35	-32238	2489.5	0.16865	-0.01991	0.97005
2.376	72.291	-32241	2489.4	0.16807	-0.01913	0.97024
2.378	72.319	-32245	2489.3	0.16748	-0.018349	0.97044
2.38	72.483	-32245	2489.1	0.1669	-0.017568	0.97063
2.382	72.484	-32245	2489.1	0.16768	-0.017568	0.97102
2.384	72.421	-32244	2489	0.16846	-0.017568	0.97141
2.386	72.404	-32243	2489	0.16924	-0.017568	0.9718
2.388	72.392	-32245	2489	0.17002	-0.017568	0.97219
2.39	72.386	-32247	2489	0.1708	-0.017568	0.97258
2.392	72.386	-32248	2489	0.16914	-0.017666	0.9721
2.394	72.352	-32250	2489	0.16748	-0.017763	0.97161
2.396	72.337	-32253	2488.9	0.16582	-0.017861	0.97112
2.398	72.343	-32256	2488.9	0.16416	-0.017958	0.97063
2.4	72.324	-32256	2488.8	0.1625	-0.018056	0.97014
2.402	72.286	-32256	2488.8	0.16319	-0.017958	0.97132
2.404	72.273	-32257	2488.7	0.16387	-0.017861	0.97249
2.406	72.316	-32258	2488.7	0.16455	-0.017763	0.97366
2.408	72.378	-32261	2488.6	0.16524	-0.017666	0.97483
2.41	72.423	-32263	2488.6	0.16592	-0.017568	0.976
2.412	72.39	-32266	2488.5	0.16582	-0.017568	0.97532
2.414	72.311	-32269	2488.4	0.16572	-0.017568	0.97463
2.416	72.291	-32270	2488.3	0.16563	-0.017568	0.97395
2.418	72.31	-32271	2488.2	0.16553	-0.017568	0.97327
2.42	72.289	-32270	2488.1	0.16543	-0.017568	0.97258
2.422	72.25	-32269	2488	0.16416	-0.017861	0.97161
2.424	72.256	-32270	2487.8	0.16289	-0.018154	0.97063
2.426	72.276	-32270	2487.7	0.16163	-0.018446	0.96966
2.428	72.289	-32273	2487.6	0.16036	-0.018739	0.96868
2.43	72.296	-32276	2487.5	0.15909	-0.019032	0.9677
2.432	72.283	-32283	2487.4	0.15831	-0.019618	0.9679
2.434	72.258	-32289	2487.3	0.15753	-0.020203	0.96809
2.436	72.274	-32290	2487.3	0.15675	-0.020789	0.96829
2.438	72.276	-32291	2487.3	0.15596	-0.021374	0.96848
2.44	72.238	-32289	2487.3	0.15518	-0.02196	0.96868
2.442	72.299	-32288	2487.3	0.15762	-0.021082	0.96917
2.444	72.38	-32290	2487.4	0.16006	-0.020203	0.96966
2.446	72.342	-32291	2487.4	0.1625	-0.019325	0.97014
2.448	72.326	-32297	2487.5	0.16494	-0.018446	0.97063
2.45	72.354	-32304	2487.6	0.16738	-0.017568	0.97112
2.452	72.388	-32302	2487.8	0.1669	-0.01747	0.97122
2.454	72.384	-32300	2488	0.16641	-0.017373	0.97132
2.456	72.313	-32304	2488.3	0.16592	-0.017275	0.97141
2.458	72.269	-32307	2488.5	0.16543	-0.017178	0.97151
2.46	72.233	-32306	2488.8	0.16494	-0.01708	0.97161
2.462	72.233	-32305	2489.3	0.16592	-0.017178	0.97171
2.464	72.229	-32305	2489.7	0.1669	-0.017275	0.9718
2.466	72.234	-32305	2490.1	0.16787	-0.017373	0.9719
2.468	72.267	-32309	2490.6	0.16885	-0.01747	0.972
2.47	72.293	-32313	2491.2	0.16982	-0.017568	0.9721
2.472	72.297	-32313	2491.8	0.17012	-0.017958	0.97219
2.474	72.313	-32314	2492.4	0.17041	-0.018349	0.97229
2.476	72.353	-32318	2493.1	0.1707	-0.018739	0.97239
2.478	72.374	-32322	2493.8	0.171	-0.01913	0.97249
2.48	72.338	-32321	2494.5	0.17129	-0.01952	0.97258
2.482	72.301	-32320	2495.2	0.17002	-0.019227	0.97132
2.484	72.248	-32320	2496	0.16875	-0.018934	0.97005
2.486	72.211	-32320	2496.7	0.16748	-0.018642	0.96878
2.488	72.205	-32321	2497.5	0.16621	-0.018349	0.96751
2.49	72.272	-32322	2498.2	0.16494	-0.018056	0.96624
2.492	72.351	-32315	2498.9	0.16602	-0.018154	0.96722
2.494	72.373	-32307	2499.6	0.16709	-0.018251	0.96819
2.496	72.353	-32305	2500.2	0.16816	-0.018349	0.96917
2.498	72.314	-32303	2500.8	0.16924	-0.018446	0.97014
2.5	72.267	-32305	2501.4	0.17031	-0.018544	0.97112
2.502	72.248	-32306	2502	0.16924	-0.018446	0.9721
2.504	72.273	-32301	2502.5	0.16816	-0.018349	0.97307
2.506	72.284	-32295	2503.1	0.16709	-0.018251	0.97405
2.508	72.29	-32293	2503.6	0.16602	-0.018154	0.97502
2.51	72.311	-32291	2504	0.16494	-0.018056	0.976
2.512	72.305	-32292	2504.5	0.1628	-0.018446	0.97649
2.514	72.266	-32293	2505	0.16065	-0.018837	0.97698
2.516	72.226	-32288	2505.5	0.1585	-0.019227	0.97746
2.518	72.263	-32283	2505.9	0.15636	-0.019618	0.97795
2.52	72.366	-32282	2506.4	0.15421	-0.020008	0.97844
2.522	72.422	-32282	2506.8	0.15411	-0.019813	0.97805
2.524	72.361	-32273	2507.2	0.15401	-0.019618	0.97766
2.526	72.303	-32265	2507.6	0.15392	-0.019422	0.97727
2.528	72.33	-32259	2508	0.15382	-0.019227	0.97688
2.53	72.406	-32254	2508.4	0.15372	-0.019032	0.97649
2.532	72.474	-32252	2508.8	0.15411	-0.019715	0.97659
2.534	72.495	-32251	2509.2	0.1545	-0.020398	0.97668
2.536	72.43	-32248	2509.7	0.15489	-0.021082	0.97678
2.538	72.311	-32246	2510.1	0.15528	-0.021765	0.97688
2.54	72.277	-32242	2510.5	0.15567	-0.022448	0.97698
2.542	72.428	-32237	2510.8	0.15772	-0.021472	0.97659
2.544	72.56	-32231	2511.1	0.15977	-0.020496	0.9762
2.546	72.452	-32226	2511.4	0.16182	-0.01952	0.9758
2.548	72.333	-32221	2511.6	0.16387	-0.018544	0.97541
2.55	72.336	-32216	2511.9	0.16592	-0.017568	0.97502
2.552	72.364	-32209	2512.1	0.1668	-0.01747	0.97493
2.554	72.366	-32203	2512.4	0.16768	-0.017373	0.97483
2.556	72.34	-32200	2512.5	0.16856	-0.017275	0.97473
2.558	72.288	-32196	2512.7	0.16943	-0.017178	0.97463
2.56	72.268	-32193	2512.8	0.17031	-0.01708	0.97454
2.562	72.318	-32189	2512.9	0.16904	-0.017178	0.97463
2.564	72.388	-32177	2513	0.16777	-0.017275	0.97473
2.566	72.379	-32164	2513	0.16651	-0.017373	0.97483
2.568	72.365	-32160	2513	0.16524	-0.01747	0.97493
2.57	72.361	-32157	2513	0.16397	-0.017568	0.97502
2.572	72.362	-32157	2513	0.16553	-0.01747	0.97473
2.574	72.406	-32158	2513	0.16709	-0.017373	0.97444
2.576	72.443	-32152	2512.9	0.16865	-0.017275	0.97415
2.578	72.449	-32147	2512.8	0.17021	-0.017178	0.97385
2.58	72.39	-32142	2512.8	0.17178	-0.01708	0.97356
2.582	72.31	-32136	2512.7	0.17129	-0.017178	0.97346
2.584	72.334	-32133	2512.6	0.1708	-0.017275	0.97336
2.586	72.404	-32129	2512.5	0.17031	-0.017373	0.97327
2.588	72.43	-32129	2512.4	0.16982	-0.01747	0.97317
2.59	72.416	-32129	2512.3	0.16934	-0.017568	0.97307
2.592	72.351	-32127	2512.2	0.16816	-0.01708	0.97317
2.594	72.312	-32124	2512.2	0.16699	-0.016592	0.97327
2.596	72.365	-32114	2512.1	0.16582	-0.016104	0.97336
2.598	72.409	-32104	2511.9	0.16465	-0.015616	0.97346
2.6	72.404	-32099	2511.8	0.16348	-0.015128	0.97356
2.602	72.388	-32093	2511.7	0.16328	-0.015518	0.97356
2.604	72.348	-32090	2511.7	0.16309	-0.015909	0.97356
2.606	72.395	-32087	2511.6	0.16289	-0.016299	0.97356
2.608	72.472	-32084	2511.4	0.1627	-0.01669	0.97356
2.61	72.489	-32081	2511.3	0.1625	-0.01708	0.97356
2.612	72.461	-32079	2511.3	0.1628	-0.01669	0.97346
2.614	72.433	-32077	2511.2	0.16309	-0.016299	0.97336
2.616	72.408	-32077	2511.1	0.16338	-0.015909	0.97327
2.618	72.404	-32078	2511	0.16368	-0.015518	0.97317
2.62	72.436	-32075	2510.9	0.16397	-0.015128	0.97307
2.622	72.451	-32071	2510.8	0.16514	-0.015518	0.97268
2.624	72.451	-32066	2510.7	0.16631	-0.015909	0.97229
2.626	72.401	-32061	2510.5	0.16748	-0.016299	0.9719
2.628	72.361	-32056	2510.3	0.16865	-0.01669	0.97151
2.63	72.265	-32051	2510.2	0.16982	-0.01708	0.97112
2.632	72.272	-32051	2510	0.16904	-0.01708	0.97053
2.634	72.425	-32052	2509.9	0.16826	-0.01708	0.96995
2.636	72.44	-32051	2509.7	0.16748	-0.01708	0.96936
2.638	72.406	-32051	2509.6	0.1667	-0.01708	0.96878
2.64	72.408	-32049	2509.4	0.16592	-0.01708	0.96819
2.642	72.426	-32048	2509.3	0.16426	-0.01747	0.96809
2.644	72.402	-32038	2509.1	0.1626	-0.017861	0.968
2.646	72.348	-32029	2509	0.16094	-0.018251	0.9679
2.648	72.333	-32027	2508.9	0.15928	-0.018642	0.9678
2.65	72.3	-32025	2508.7	0.15762	-0.019032	0.9677
2.652	72.255	-32026	2508.7	0.15723	-0.019325	0.96702
2.654	72.296	-32028	2508.6	0.15684	-0.019618	0.96634
2.656	72.352	-32028	2508.6	0.15645	-0.01991	0.96565
2.658	72.376	-32028	2508.5	0.15606	-0.020203	0.96497
2.66	72.418	-32027	2508.5	0.15567	-0.020496	0.96429
2.662	72.393	-32025	2508.5	0.15704	-0.020691	0.96468
2.664	72.319	-32020	2508.4	0.1584	-0.020886	0.96507
2.666	72.257	-32015	2508.4	0.15977	-0.021082	0.96546
2.668	72.246	-32010	2508.3	0.16114	-0.021277	0.96585
2.67	72.386	-32005	2508.2	0.1625	-0.021472	0.96624
2.672	72.566	-32005	2508.2	0.16358	-0.020789	0.96663
2.674	72.556	-32004	2508.2	0.16465	-0.020106	0.96702
2.676	72.444	-32007	2508.2	0.16572	-0.019422	0.96741
2.678	72.399	-32010	2508.3	0.1668	-0.018739	0.9678
2.68	72.39	-32007	2508.3	0.16787	-0.018056	0.96819
2.682	72.405	-32005	2508.3	0.16846	-0.017861	0.96927
2.684	72.411	-32000	2508.4	0.16904	-0.017666	0.97034
2.686	72.42	-31995	2508.4	0.16963	-0.01747	0.97141
2.688	72.455	-31994	2508.4	0.17021	-0.017275	0.97249
2.69	72.452	-31994	2508.5	0.1708	-0.01708	0.97356
2.692	72.431	-31996	2508.5	0.1706	-0.017958	0.97356
2.694	72.339	-31998	2508.6	0.17041	-0.018837	0.97356
2.696	72.367	-31997	2508.7	0.17021	-0.019715	0.97356
2.698	72.401	-31997	2508.7	0.17002	-0.020594	0.97356
2.7	72.397	-31998	2508.7	0.16982	-0.021472	0.97356
2.702	72.494	-31999	2508.7	0.1707	-0.022741	0.97444
2.704	72.508	-32001	2508.8	0.17158	-0.02401	0.97532
2.706	72.433	-32003	2508.8	0.17246	-0.025278	0.9762
2.708	72.415	-31998	2508.9	0.17334	-0.026547	0.97707
2.71	72.37	-31993	2509	0.17422	-0.027816	0.97795
2.712	72.368	-31997	2509	0.17363	-0.026938	0.97698
2.714	72.367	-32002	2509.1	0.17304	-0.026059	0.976
2.716	72.307	-32000	2509.2	0.17246	-0.025181	0.97502
2.718	72.338	-31998	2509.3	0.17187	-0.024302	0.97405
2.72	72.397	-31999	2509.4	0.17129	-0.023424	0.97307
2.722	72.391	-32000	2509.5	0.1709	-0.023619	0.97385
2.724	72.405	-32004	2509.6	0.17051	-0.023814	0.97463
2.726	72.403	-32008	2509.7	0.17012	-0.02401	0.97541
2.728	72.383	-32004	2509.7	0.16973	-0.024205	0.9762
2.73	72.357	-32001	2509.8	0.16934	-0.0244	0.97698
2.732	72.334	-32000	2509.9	0.16973	-0.025083	0.97698
2.734	72.338	-31999	2510	0.17012	-0.025766	0.97698
2.736	72.348	-32002	2510.2	0.17051	-0.02645	0.97698
2.738	72.336	-32005	2510.3	0.1709	-0.027133	0.97698
2.74	72.303	-32001	2510.5	0.17129	-0.027816	0.97698
2.742	72.328	-31997	2510.6	0.17002	-0.027035	0.97785
2.744	72.379	-31993	2510.7	0.16875	-0.026254	0.97873
2.746	72.402	-31989	2510.8	0.16748	-0.025474	0.97961
2.748	72.372	-31990	2510.9	0.16621	-0.024693	0.98049
2.75	72.345	-31991	2511	0.16494	-0.023912	0.98137
2.752	72.377	-31993	2511.1	0.16514	-0.023619	0.98039
2.754	72.405	-31996	2511.2	0.16533	-0.023326	0.97942
2.756	72.358	-31992	2511.3	0.16553	-0.023034	0.97844
2.758	72.33	-31988	2511.3	0.16572	-0.022741	0.97746
2.76	72.393	-31988	2511.3	0.16592	-0.022448	0.97649
2.762	72.446	-31989	2511.4	0.16563	-0.022546	0.97698
2.764	72.41	-31987	2511.5	0.16533	-0.022643	0.97746
2.766	72.348	-31985	2511.6	0.16504	-0.022741	0.97795
2.768	72.385	-31988	2511.6	0.16475	-0.022838	0.97844
2.77	72.41	-31992	2511.6	0.16446	-0.022936	0.97893
2.772	72.38	-31987	2511.6	0.16592	-0.022936	0.97805
2.774	72.298	-31981	2511.7	0.16738	-0.022936	0.97717
2.776	72.189	-31982	2511.7	0.16885	-0.022936	0.97629
2.778	72.187	-31982	2511.7	0.17031	-0.022936	0.97541
2.78	72.268	-31984	2511.7	0.17178	-0.022936	0.97454
2.782	72.334	-31986	2511.6	0.17119	-0.022155	0.97463
2.784	72.405	-31984	2511.6	0.1706	-0.021374	0.97473
2.786	72.368	-31982	2511.4	0.17002	-0.020594	0.97483
2.788	72.415	-31981	2511.3	0.16943	-0.019813	0.97493
2.79	72.407	-31980	2511.1	0.16885	-0.019032	0.97502
2.792	72.353	-31978	2511	0.16816	-0.018739	0.97473
2.794	72.327	-31977	2510.9	0.16748	-0.018446	0.97444
2.796	72.29	-31984	2510.8	0.1668	-0.018154	0.97415
2.798	72.295	-31992	2510.7	0.16612	-0.017861	0.97385
2.8	72.276	-31990	2510.5	0.16543	-0.017568	0.97356
2.802	72.379	-31988	2510.4	0.16533	-0.017568	0.97415
2.804	72.388	-31987	2510.3	0.16524	-0.017568	0.97473
2.806	72.377	-31987	2510.1	0.16514	-0.017568	0.97532
2.808	72.381	-31985	2509.9	0.16504	-0.017568	0.9759
2.81	72.378	-31983	2509.7	0.16494	-0.017568	0.97649
2.812	72.364	-31980	2509.5	0.16299	-0.017861	0.97688
2.814	72.355	-31978	2509.3	0.16104	-0.018154	0.97727
2.816	72.346	-31979	2509.2	0.15909	-0.018446	0.97766
2.818	72.401	-31979	2509	0.15714	-0.018739	0.97805
2.82	72.429	-31975	2508.8	0.15518	-0.019032	0.97844
2.822	72.422	-31971	2508.5	0.15548	-0.019032	0.97766
2.824	72.37	-31973	2508.3	0.15577	-0.019032	0.97688
2.826	72.325	-31975	2508	0.15606	-0.019032	0.9761
2.828	72.322	-31976	2507.7	0.15636	-0.019032	0.97532
2.83	72.333	-31977	2507.5	0.15665	-0.019032	0.97454
2.832	72.348	-31980	2507.2	0.15684	-0.020398	0.97512
2.834	72.386	-31984	2506.9	0.15704	-0.021765	0.97571
2.836	72.439	-31982	2506.6	0.15723	-0.023131	0.97629
2.838	72.453	-31981	2506.3	0.15743	-0.024498	0.97688
2.84	72.427	-31983	2506.1	0.15762	-0.025864	0.97746
2.842	72.388	-31984	2505.9	0.1585	-0.024888	0.97649
2.844	72.359	-31982	2505.6	0.15938	-0.023912	0.97551
2.846	72.372	-31981	2505.4	0.16026	-0.022936	0.97454
2.848	72.38	-31976	2505.2	0.16114	-0.02196	0.97356
2.85	72.379	-31971	2505	0.16202	-0.020984	0.97258
2.852	72.391	-31973	2504.8	0.16065	-0.020496	0.97132
2.854	72.352	-31974	2504.6	0.15928	-0.020008	0.97005
2.856	72.28	-31977	2504.4	0.15792	-0.01952	0.96878
2.858	72.255	-31980	2504.2	0.15655	-0.019032	0.96751
2.86	72.327	-31980	2504	0.15518	-0.018544	0.96624
2.862	72.434	-31979	2503.8	0.15675	-0.018446	0.96702
2.864	72.413	-31976	2503.6	0.15831	-0.018349	0.9678
2.866	72.353	-31973	2503.5	0.15987	-0.018251	0.96858
2.868	72.293	-31978	2503.3	0.16143	-0.018154	0.96936
2.87	72.393	-31984	2503.1	0.16299	-0.018056	0.97014
2.872	72.558	-31982	2502.9	0.16377	-0.017178	0.97161
2.874	72.585	-31979	2502.7	0.16455	-0.016299	0.97307
2.876	72.465	-31984	2502.5	0.16533	-0.015421	0.97454
2.878	72.383	-31988	2502.3	0.16612	-0.014542	0.976
2.88	72.365	-31989	2502.1	0.1669	-0.013664	0.97746
2.882	72.366	-31990	2501.8	0.16582	-0.014347	0.97776
2.884	72.384	-31987	2501.6	0.16475	-0.01503	0.97805
2.886	72.382	-31984	2501.3	0.16368	-0.015714	0.97834
2.888	72.444	-31984	2501	0.1626	-0.016397	0.97864
2.89	72.487	-31985	2500.8	0.16153	-0.01708	0.97893
2.892	72.404	-31986	2500.5	0.16211	-0.015909	0.97893
2.894	72.33	-31986	2500.2	0.1627	-0.014738	0.97893
2.896	72.277	-31988	2499.9	0.16328	-0.013566	0.97893
2.898	72.252	-31989	2499.5	0.16387	-0.012395	0.97893
2.9	72.282	-31992	2499.1	0.16446	-0.011224	0.97893
2.902	72.305	-31995	2498.8	0.16455	-0.012395	0.97776
2.904	72.267	-31998	2498.4	0.16465	-0.013566	0.97659
2.906	72.272	-32001	2498.2	0.16475	-0.014738	0.97541
2.908	72.28	-32001	2497.9	0.16485	-0.015909	0.97424
2.91	72.235	-32000	2497.6	0.16494	-0.01708	0.97307
2.912	72.179	-32005	2497.4	0.16514	-0.016885	0.97249
2.914	72.112	-32010	2497.1	0.16533	-0.01669	0.9719
2.916	72.07	-32007	2496.9	0.16553	-0.016494	0.97132
2.918	71.999	-32004	2496.7	0.16572	-0.016299	0.97073
2.92	71.913	-32006	2496.5	0.16592	-0.016104	0.97014
2.922	71.944	-32008	2496.3	0.1667	-0.015616	0.97112
2.924	72.051	-32017	2496.2	0.16748	-0.015128	0.9721
2.926	72.122	-32027	2496	0.16826	-0.01464	0.97307
2.928	72.209	-32024	2495.9	0.16904	-0.014152	0.97405
2.93	72.294	-32020	2495.8	0.16982	-0.013664	0.97502
2.932	72.32	-32021	2495.6	0.16943	-0.014445	0.97434
2.934	72.373	-32022	2495.5	0.16904	-0.015226	0.97366
2.936	72.435	-32022	2495.4	0.16865	-0.016006	0.97297
2.938	72.424	-32023	2495.3	0.16826	-0.016787	0.97229
2.94	72.395	-32026	2495.2	0.16787	-0.017568	0.97161
2.942	72.448	-32028	2495.2	0.16885	-0.017666	0.97249
2.944	72.485	-32036	2495.1	0.16982	-0.017763	0.97336
2.946	72.49	-32043	2495.1	0.1708	-0.017861	0.97424
2.948	72.499	-32033	2495.1	0.17178	-0.017958	0.97512
2.95	72.421	-32023	2495.1	0.17275	-0.018056	0.976
2.952	72.355	-32032	2495.1	0.17207	-0.017958	0.97551
2.954	72.356	-32042	2495.1	0.17139	-0.017861	0.97502
2.956	72.403	-32044	2495.1	0.1707	-0.017763	0.97454
2.958	72.424	-32047	2495	0.17002	-0.017666	0.97405
2.96	72.487	-32050	2494.9	0.16934	-0.017568	0.97356
2.962	72.39	-32053	2494.8	0.17002	-0.017958	0.97376
2.964	72.33	-32047	2494.7	0.1707	-0.018349	0.97395
2.966	72.392	-32042	2494.5	0.17139	-0.018739	0.97415
2.968	72.395	-32045	2494.4	0.17207	-0.01913	0.97434
2.97	72.349	-32048	2494.3	0.17275	-0.01952	0.97454
2.972	72.309	-32042	2494.1	0.17285	-0.020398	0.97395
2.974	72.288	-32036	2493.9	0.17295	-0.021277	0.97336
2.976	72.323	-32049	2493.7	0.17304	-0.022155	0.97278
2.978	72.364	-32061	2493.4	0.17314	-0.023034	0.97219
2.98	72.409	-32057	2493.2	0.17324	-0.023912	0.97161
2.982	72.421	-32052	2493	0.17334	-0.024302	0.97219
2.984	72.357	-32056	2492.8	0.17344	-0.024693	0.97278
2.986	72.329	-32061	2492.7	0.17353	-0.025083	0.97336
2.988	72.409	-32062	2492.6	0.17363	-0.025474	0.97395
2.99	72.406	-32062	2492.4	0.17373	-0.025864	0.97454
2.992	72.34	-32060	2492.2	0.17324	-0.025376	0.97424
2.994	72.32	-32057	2492	0.17275	-0.024888	0.97395
2.996	72.326	-32063	2491.9	0.17226	-0.0244	0.97366
2.998	72.339	-32070	2491.7	0.17178	-0.023912	0.97336
3	72.343	-32069	2491.5	0.17129	-0.023424	0.97307
3.002	72.273	-32067	2491.4	0.16963	-0.023522	0.97229
3.004	72.275	-32069	2491.3	0.16797	-0.023619	0.97151
3.006	72.377	-32072	2491.2	0.16631	-0.023717	0.97073
3.008	72.444	-32071	2491	0.16465	-0.023814	0.96995
3.01	72.462	-32070	2490.9	0.16299	-0.023912	0.96917
3.012	72.452	-32078	2490.8	0.16299	-0.023424	0.96907
3.014	72.378	-32085	2490.8	0.16299	-0.022936	0.96897
3.016	72.284	-32089	2490.7	0.16299	-0.022448	0.96888
3.018	72.305	-32092	2490.7	0.16299	-0.02196	0.96878
3.02	72.408	-32097	2490.6	0.16299	-0.021472	0.96868
3.022	72.436	-32102	2490.6	0.1627	-0.02157	0.96927
3.024	72.417	-32094	2490.6	0.16241	-0.021667	0.96985
3.026	72.403	-32086	2490.5	0.16211	-0.021765	0.97044
3.028	72.383	-32089	2490.5	0.16182	-0.021862	0.97102
3.03	72.332	-32091	2490.4	0.16153	-0.02196	0.97161
3.032	72.274	-32094	2490.4	0.16182	-0.02196	0.97122
3.034	72.271	-32098	2490.4	0.16211	-0.02196	0.97083
3.036	72.276	-32098	2490.4	0.16241	-0.02196	0.97044
3.038	72.255	-32099	2490.4	0.1627	-0.02196	0.97005
3.04	72.291	-32097	2490.4	0.16299	-0.02196	0.96966
3.042	72.267	-32095	2490.5	0.16377	-0.020984	0.96927
3.044	72.287	-32096	2490.5	0.16455	-0.020008	0.96888
3.046	72.34	-32098	2490.4	0.16533	-0.019032	0.96848
3.048	72.3	-32106	2490.4	0.16612	-0.018056	0.96809
3.05	72.358	-32114	2490.4	0.1669	-0.01708	0.9677
3.052	72.366	-32114	2490.3	0.16777	-0.017275	0.96809
3.054	72.366	-32114	2490.3	0.16865	-0.01747	0.96848
3.056	72.384	-32113	2490.2	0.16953	-0.017666	0.96888
3.058	72.335	-32113	2490.1	0.17041	-0.017861	0.96927
3.06	72.249	-32118	2490	0.17129	-0.018056	0.96966
3.062	72.29	-32123	2489.9	0.16963	-0.018837	0.96956
3.064	72.333	-32125	2489.8	0.16797	-0.019618	0.96946
3.066	72.299	-32128	2489.7	0.16631	-0.020398	0.96936
3.068	72.303	-32129	2489.5	0.16465	-0.021179	0.96927
3.07	72.253	-32131	2489.4	0.16299	-0.02196	0.96917
3.072	72.209	-32133	2489.2	0.16309	-0.021374	0.96907
3.074	72.267	-32135	2489	0.16319	-0.020789	0.96897
3.076	72.278	-32131	2488.9	0.16328	-0.020203	0.96888
3.078	72.255	-32126	2488.7	0.16338	-0.019618	0.96878
3.08	72.207	-32132	2488.6	0.16348	-0.019032	0.96868
3.082	72.192	-32137	2488.5	0.16299	-0.01952	0.96848
3.084	72.241	-32145	2488.4	0.1625	-0.020008	0.96829
3.086	72.263	-32154	2488.3	0.16202	-0.020496	0.96809
3.088	72.251	-32150	2488.2	0.16153	-0.020984	0.9679
3.09	72.308	-32147	2488.1	0.16104	-0.021472	0.9677
3.092	72.377	-32146	2488.1	0.16163	-0.020691	0.96809
3.094	72.377	-32145	2488.1	0.16221	-0.01991	0.96848
3.096	72.333	-32155	2488.1	0.1628	-0.01913	0.96888
3.098	72.285	-32165	2488.2	0.16338	-0.018349	0.96927
3.1	72.272	-32164	2488.3	0.16397	-0.017568	0.96966
3.102	72.272	-32163	2488.5	0.16309	-0.018446	0.96878
3.104	72.243	-32162	2488.8	0.16221	-0.019325	0.9679
3.106	72.184	-32161	2489.1	0.16133	-0.020203	0.96702
3.108	72.123	-32167	2489.5	0.16045	-0.021082	0.96614
3.11	72.128	-32172	2489.9	0.15958	-0.02196	0.96526
3.112	72.212	-32172	2490.4	0.15958	-0.022155	0.96585
3.114	72.311	-32172	2491	0.15958	-0.02235	0.96644
3.116	72.329	-32174	2491.5	0.15958	-0.022546	0.96702
3.118	72.297	-32176	2492.1	0.15958	-0.022741	0.96761
3.12	72.252	-32175	2492.7	0.15958	-0.022936	0.96819
3.122	72.234	-32174	2493.3	0.16192	-0.022838	0.96907
3.124	72.289	-32174	2493.9	0.16426	-0.022741	0.96995
3.126	72.325	-32175	2494.6	0.1666	-0.022643	0.97083
3.128	72.3	-32179	2495.3	0.16895	-0.022546	0.97171
3.13	72.263	-32184	2496	0.17129	-0.022448	0.97258
3.132	72.218	-32185	2496.7	0.171	-0.021472	0.9721
3.134	72.231	-32186	2497.4	0.1707	-0.020496	0.97161
3.136	72.308	-32184	2498	0.17041	-0.01952	0.97112
3.138	72.353	-32183	2498.7	0.17012	-0.018544	0.97063
3.14	72.26	-32183	2499.3	0.16982	-0.017568	0.97014
3.142	72.201	-32182	2500	0.16973	-0.017861	0.97024
3.144	72.213	-32181	2500.6	0.16963	-0.018154	0.97034
3.146	72.265	-32180	2501.1	0.16953	-0.018446	0.97044
3.148	72.257	-32174	2501.6	0.16943	-0.018739	0.97053
3.15	72.338	-32169	2502.1	0.16934	-0.019032	0.97063
3.152	72.364	-32171	2502.6	0.16924	-0.019032	0.97132
3.154	72.302	-32172	2503	0.16914	-0.019032	0.972
3.156	72.259	-32165	2503.5	0.16904	-0.019032	0.97268
3.158	72.248	-32159	2504	0.16895	-0.019032	0.97336
3.16	72.287	-32157	2504.5	0.16885	-0.019032	0.97405
3.162	72.317	-32156	2504.9	0.16826	-0.018837	0.97376
3.164	72.29	-32150	2505.2	0.16768	-0.018642	0.97346
3.166	72.305	-32144	2505.6	0.16709	-0.018446	0.97317
3.168	72.359	-32141	2506	0.16651	-0.018251	0.97288
3.17	72.377	-32138	2506.4	0.16592	-0.018056	0.97258
3.172	72.348	-32134	2506.8	0.16504	-0.019032	0.97327
3.174	72.343	-32131	2507.2	0.16416	-0.020008	0.97395
3.176	72.319	-32130	2507.6	0.16328	-0.020984	0.97463
3.178	72.26	-32130	2507.9	0.16241	-0.02196	0.97532
3.18	72.242	-32129	2508.3	0.16153	-0.022936	0.976
3.182	72.294	-32128	2508.6	0.16211	-0.02196	0.9759
3.184	72.397	-32120	2509	0.1627	-0.020984	0.9758
3.186	72.455	-32113	2509.3	0.16328	-0.020008	0.97571
3.188	72.386	-32109	2509.6	0.16387	-0.019032	0.97561
3.19	72.304	-32105	2509.9	0.16446	-0.018056	0.97551
3.192	72.3	-32102	2510.2	0.16504	-0.017861	0.97483
3.194	72.333	-32099	2510.5	0.16563	-0.017666	0.97415
3.196	72.342	-32085	2510.7	0.16621	-0.01747	0.97346
3.198	72.3	-32071	2511	0.1668	-0.017275	0.97278
3.2	72.301	-32066	2511.2	0.16738	-0.01708	0.9721
3.202	72.322	-32060	2511.4	0.16592	-0.017568	0.97258
3.204	72.286	-32060	2511.6	0.16446	-0.018056	0.97307
3.206	72.312	-32060	2511.8	0.16299	-0.018544	0.97356
3.208	72.352	-32058	2511.9	0.16153	-0.019032	0.97405
3.21	72.4	-32056	2512	0.16006	-0.01952	0.97454
3.212	72.366	-32049	2512.1	0.16075	-0.019227	0.97434
3.214	72.316	-32043	2512.3	0.16143	-0.018934	0.97415
3.216	72.268	-32037	2512.4	0.16211	-0.018642	0.97395
3.218	72.398	-32032	2512.4	0.1628	-0.018349	0.97376
3.22	72.347	-32028	2512.5	0.16348	-0.018056	0.97356
3.222	72.292	-32025	2512.5	0.16309	-0.018154	0.97356
3.224	72.271	-32021	2512.4	0.1627	-0.018251	0.97356
3.226	72.24	-32017	2512.4	0.16231	-0.018349	0.97356
3.228	72.247	-32015	2512.4	0.16192	-0.018446	0.97356
3.23	72.321	-32013	2512.4	0.16153	-0.018544	0.97356
3.232	72.392	-32010	2512.4	0.16211	-0.018251	0.97297
3.234	72.365	-32007	2512.3	0.1627	-0.017958	0.97239
3.236	72.352	-32001	2512.3	0.16328	-0.017666	0.9718
3.238	72.397	-31994	2512.2	0.16387	-0.017373	0.97122
3.24	72.36	-31989	2512.2	0.16446	-0.01708	0.97063
3.242	72.327	-31983	2512.1	0.16426	-0.017275	0.97151
3.244	72.308	-31984	2512	0.16407	-0.01747	0.97239
3.246	72.341	-31985	2511.8	0.16387	-0.017666	0.97327
3.248	72.445	-31983	2511.7	0.16368	-0.017861	0.97415
3.25	72.439	-31980	2511.5	0.16348	-0.018056	0.97502
3.252	72.379	-31969	2511.3	0.1626	-0.018154	0.97493
3.254	72.342	-31958	2511.2	0.16172	-0.018251	0.97483
3.256	72.345	-31957	2511.1	0.16084	-0.018349	0.97473
3.258	72.337	-31956	2510.9	0.15997	-0.018446	0.97463
3.26	72.336	-31953	2510.8	0.15909	-0.018544	0.97454
3.262	72.33	-31950	2510.7	0.15977	-0.018446	0.97415
3.264	72.344	-31946	2510.6	0.16045	-0.018349	0.97376
3.266	72.358	-31942	2510.6	0.16114	-0.018251	0.97336
3.268	72.343	-31939	2510.5	0.16182	-0.018154	0.97297
3.27	72.364	-31937	2510.4	0.1625	-0.018056	0.97258
3.272	72.375	-31934	2510.2	0.16368	-0.017861	0.97229
3.274	72.318	-31931	2510.1	0.16485	-0.017666	0.972
3.276	72.31	-31931	2510	0.16602	-0.01747	0.97171
3.278	72.367	-31931	2509.9	0.16719	-0.017275	0.97141
3.28	72.359	-31930	2509.8	0.16836	-0.01708	0.97112
3.282	72.366	-31929	2509.6	0.16719	-0.01708	0.97239
3.284	72.378	-31925	2509.5	0.16602	-0.01708	0.97366
3.286	72.31	-31921	2509.3	0.16485	-0.01708	0.97493
3.288	72.265	-31919	2509.2	0.16368	-0.01708	0.9762
3.29	72.29	-31917	2509	0.1625	-0.01708	0.97746
3.292	72.331	-31919	2508.8	0.16319	-0.016982	0.97776
3.294	72.386	-31920	2508.7	0.16387	-0.016885	0.97805
3.296	72.415	-31919	2508.5	0.16455	-0.016787	0.97834
3.298	72.389	-31917	2508.2	0.16524	-0.01669	0.97864
3.3	72.347	-31915	2508	0.16592	-0.016592	0.97893
3.302	72.338	-31914	2507.8	0.16582	-0.016104	0.97834
3.304	72.316	-31913	2507.6	0.16572	-0.015616	0.97776
3.306	72.305	-31912	2507.4	0.16563	-0.015128	0.97717
3.308	72.272	-31914	2507.1	0.16553	-0.01464	0.97659
3.31	72.215	-31915	2506.8	0.16543	-0.014152	0.976
3.312	72.314	-31916	2506.5	0.16631	-0.013469	0.976
3.314	72.3	-31916	2506.2	0.16719	-0.012786	0.976
3.316	72.324	-31913	2505.9	0.16807	-0.012102	0.976
3.318	72.443	-31910	2505.6	0.16895	-0.011419	0.976
3.32	72.445	-31909	2505.3	0.16982	-0.010736	0.976
3.322	72.404	-31908	2505	0.16816	-0.011712	0.97659
3.324	72.365	-31907	2504.7	0.16651	-0.012688	0.97717
3.326	72.355	-31906	2504.4	0.16485	-0.013664	0.97776
3.328	72.335	-31904	2504.1	0.16319	-0.01464	0.97834
3.33	72.236	-31902	2503.8	0.16153	-0.015616	0.97893
3.332	72.199	-31902	2503.6	0.16426	-0.016104	0.97815
3.334	72.301	-31903	2503.3	0.16699	-0.016592	0.97737
3.336	72.348	-31905	2503.1	0.16973	-0.01708	0.97659
3.338	72.36	-31908	2503	0.17246	-0.017568	0.9758
3.34	72.37	-31908	2502.8	0.17519	-0.018056	0.97502
3.342	72.394	-31908	2502.6	0.17548	-0.018154	0.97454
3.344	72.407	-31906	2502.4	0.17578	-0.018251	0.97405
3.346	72.389	-31904	2502.3	0.17607	-0.018349	0.97356
3.348	72.344	-31907	2502.1	0.17636	-0.018446	0.97307
3.35	72.31	-31909	2502	0.17666	-0.018544	0.97258
3.352	72.37	-31907	2501.9	0.17588	-0.018349	0.97219
3.354	72.458	-31906	2501.9	0.17509	-0.018154	0.9718
3.356	72.441	-31908	2501.8	0.17431	-0.017958	0.97141
3.358	72.368	-31910	2501.8	0.17353	-0.017763	0.97102
3.36	72.323	-31910	2501.8	0.17275	-0.017568	0.97063
3.362	72.321	-31910	2501.8	0.17226	-0.017958	0.97073
3.364	72.349	-31912	2501.8	0.17178	-0.018349	0.97083
3.366	72.384	-31914	2501.8	0.17129	-0.018739	0.97092
3.368	72.378	-31912	2501.8	0.1708	-0.01913	0.97102
3.37	72.366	-31910	2501.8	0.17031	-0.01952	0.97112
3.372	72.335	-31910	2501.9	0.16924	-0.01913	0.97073
3.374	72.291	-31909	2502	0.16816	-0.018739	0.97034
3.376	72.307	-31914	2502	0.16709	-0.018349	0.96995
3.378	72.319	-31918	2502	0.16602	-0.017958	0.96956
3.38	72.274	-31917	2502	0.16494	-0.017568	0.96917
3.382	72.329	-31915	2502	0.16368	-0.01991	0.97044
3.384	72.371	-31912	2502.1	0.16241	-0.022253	0.97171
3.386	72.408	-31909	2502.1	0.16114	-0.024595	0.97297
3.388	72.481	-31912	2502.1	0.15987	-0.026938	0.97424
3.39	72.486	-31915	2502.1	0.1586	-0.02928	0.97551
3.392	72.385	-31915	2502.1	0.15928	-0.028011	0.97512
3.394	72.32	-31916	2502.1	0.15997	-0.026742	0.97473
3.396	72.345	-31917	2502.1	0.16065	-0.025474	0.97434
3.398	72.344	-31919	2502.1	0.16133	-0.024205	0.97395
3.4	72.313	-31920	2502.2	0.16202	-0.022936	0.97356
3.402	72.23	-31922	2502.2	0.16182	-0.022546	0.97288
3.404	72.217	-31914	2502.2	0.16163	-0.022155	0.97219
3.406	72.292	-31907	2502.3	0.16143	-0.021765	0.97151
3.408	72.342	-31908	2502.4	0.16124	-0.021374	0.97083
3.41	72.341	-31910	2502.5	0.16104	-0.020984	0.97014
3.412	72.368	-31911	2502.6	0.16104	-0.021179	0.96956
3.414	72.419	-31911	2502.7	0.16104	-0.021374	0.96897
3.416	72.377	-31915	2502.8	0.16104	-0.02157	0.96839
3.418	72.337	-31918	2502.9	0.16104	-0.021765	0.9678
3.42	72.308	-31916	2503	0.16104	-0.02196	0.96722
3.422	72.254	-31914	2503	0.16055	-0.022253	0.96751
3.424	72.179	-31912	2503	0.16006	-0.022546	0.9678
3.426	72.167	-31910	2503	0.15958	-0.022838	0.96809
3.428	72.269	-31903	2503	0.15909	-0.023131	0.96839
3.43	72.416	-31896	2503	0.1586	-0.023424	0.96868
3.432	72.507	-31897	2502.9	0.16104	-0.022448	0.96956
3.434	72.505	-31899	2502.9	0.16348	-0.021472	0.97044
3.436	72.446	-31897	2502.9	0.16592	-0.020496	0.97132
3.438	72.388	-31895	2502.9	0.16836	-0.01952	0.97219
3.44	72.355	-31903	2502.8	0.1708	-0.018544	0.97307
3.442	72.314	-31911	2502.8	0.16963	-0.018739	0.97249
3.444	72.24	-31909	2502.8	0.16846	-0.018934	0.9719
3.446	72.191	-31907	2502.8	0.16729	-0.01913	0.97132
3.448	72.195	-31904	2502.8	0.16612	-0.019325	0.97073
3.45	72.225	-31901	2502.8	0.16494	-0.01952	0.97014
3.452	72.294	-31906	2502.8	0.16465	-0.020106	0.97005
3.454	72.295	-31910	2502.8	0.16436	-0.020691	0.96995
3.456	72.254	-31910	2502.8	0.16407	-0.021277	0.96985
3.458	72.28	-31910	2502.8	0.16377	-0.021862	0.96975
3.46	72.336	-31911	2502.8	0.16348	-0.022448	0.96966
3.462	72.317	-31913	2502.8	0.16319	-0.022155	0.96927
3.464	72.263	-31913	2502.8	0.16289	-0.021862	0.96888
3.466	72.349	-31913	2502.8	0.1626	-0.02157	0.96848
3.468	72.37	-31911	2502.8	0.16231	-0.021277	0.96809
3.47	72.281	-31909	2502.8	0.16202	-0.020984	0.9677
3.472	72.27	-31911	2502.8	0.16358	-0.020789	0.96858
3.474	72.327	-31913	2502.9	0.16514	-0.020594	0.96946
3.476	72.426	-31922	2502.9	0.1667	-0.020398	0.97034
3.478	72.492	-31932	2502.8	0.16826	-0.020203	0.97122
3.48	72.409	-31923	2502.8	0.16982	-0.020008	0.9721
3.482	72.346	-31914	2502.7	0.16885	-0.020008	0.97278
3.484	72.328	-31916	2502.6	0.16787	-0.020008	0.97346
3.486	72.331	-31918	2502.5	0.1669	-0.020008	0.97415
3.488	72.305	-31919	2502.4	0.16592	-0.020008	0.97483
3.49	72.283	-31921	2502.3	0.16494	-0.020008	0.97551
3.492	72.383	-31922	2502.2	0.16455	-0.020008	0.97532
3.494	72.415	-31923	2502	0.16416	-0.020008	0.97512
3.496	72.415	-31923	2501.9	0.16377	-0.020008	0.97493
3.498	72.374	-31922	2501.8	0.16338	-0.020008	0.97473
3.5	72.307	-31920	2501.7	0.16299	-0.020008	0.97454
3.502	72.327	-31918	2501.6	0.16446	-0.019715	0.97415
3.504	72.381	-31918	2501.5	0.16592	-0.019422	0.97376
3.506	72.378	-31918	2501.5	0.16738	-0.01913	0.97336
3.508	72.339	-31914	2501.4	0.16885	-0.018837	0.97297
3.51	72.321	-31910	2501.3	0.17031	-0.018544	0.97258
3.512	72.35	-31910	2501.1	0.17031	-0.018642	0.97239
3.514	72.378	-31911	2501	0.17031	-0.018739	0.97219
3.516	72.373	-31915	2500.8	0.17031	-0.018837	0.972
3.518	72.367	-31918	2500.7	0.17031	-0.018934	0.9718
3.52	72.349	-31924	2500.5	0.17031	-0.019032	0.97161
3.522	72.354	-31930	2500.4	0.17051	-0.019422	0.9718
3.524	72.364	-31929	2500.2	0.1707	-0.019813	0.972
3.526	72.363	-31927	2500.1	0.1709	-0.020203	0.97219
3.528	72.403	-31924	2499.9	0.17109	-0.020594	0.97239
3.53	72.413	-31922	2499.8	0.17129	-0.020984	0.97258
3.532	72.343	-31927	2499.6	0.17148	-0.020984	0.97268
3.534	72.282	-31932	2499.4	0.17168	-0.020984	0.97278
3.536	72.317	-31933	2499.2	0.17187	-0.020984	0.97288
3.538	72.321	-31933	2499	0.17207	-0.020984	0.97297
3.54	72.313	-31926	2498.8	0.17226	-0.020984	0.97307
3.542	72.394	-31919	2498.6	0.17275	-0.021374	0.97317
3.544	72.388	-31927	2498.4	0.17324	-0.021765	0.97327
3.546	72.42	-31935	2498.3	0.17373	-0.022155	0.97336
3.548	72.365	-31937	2498.1	0.17422	-0.022546	0.97346
3.55	72.273	-31938	2498	0.1747	-0.022936	0.97356
3.552	72.308	-31929	2497.8	0.1749	-0.022546	0.97288
3.554	72.375	-31920	2497.6	0.17509	-0.022155	0.97219
3.556	72.446	-31928	2497.5	0.17529	-0.021765	0.97151
3.558	72.417	-31937	2497.3	0.17548	-0.021374	0.97083
3.56	72.317	-31935	2497.2	0.17568	-0.020984	0.97014
3.562	72.249	-31932	2497.1	0.1748	-0.020301	0.97034
3.564	72.307	-31935	2497.1	0.17392	-0.019618	0.97053
3.566	72.369	-31938	2497	0.17304	-0.018934	0.97073
3.568	72.386	-31941	2496.9	0.17217	-0.018251	0.97092
3.57	72.284	-31943	2496.8	0.17129	-0.017568	0.97112
3.572	72.253	-31940	2496.8	0.17207	-0.018349	0.97112
3.574	72.22	-31937	2496.7	0.17285	-0.01913	0.97112
3.576	72.138	-31947	2496.7	0.17363	-0.01991	0.97112
3.578	72.089	-31958	2496.6	0.17441	-0.020691	0.97112
3.58	72.067	-31957	2496.6	0.17519	-0.021472	0.97112
3.582	72.003	-31956	2496.5	0.17353	-0.020691	0.97141
3.584	71.978	-31959	2496.5	0.17187	-0.01991	0.97171
3.586	71.989	-31961	2496.4	0.17021	-0.01913	0.972
3.588	72.001	-31962	2496.4	0.16856	-0.018349	0.97229
3.59	72.011	-31964	2496.3	0.1669	-0.017568	0.97258
3.592	72.063	-31961	2496.2	0.16602	-0.017666	0.97297
3.594	72.111	-31958	2496.1	0.16514	-0.017763	0.97336
3.596	72.126	-31960	2496	0.16426	-0.017861	0.97376
3.598	72.138	-31961	2495.9	0.16338	-0.017958	0.97415
3.6	72.213	-31964	2495.9	0.1625	-0.018056	0.97454
3.602	72.336	-31967	2495.7	0.16338	-0.017958	0.97434
3.604	72.418	-31964	2495.5	0.16426	-0.017861	0.97415
3.606	72.42	-31961	2495.3	0.16514	-0.017763	0.97395
3.608	72.387	-31966	2495.2	0.16602	-0.017666	0.97376
3.61	72.391	-31972	2495.1	0.1669	-0.017568	0.97356
3.612	72.393	-31977	2495.1	0.1667	-0.01747	0.97297
3.614	72.357	-31983	2495	0.16651	-0.017373	0.97239
3.616	72.35	-31986	2494.9	0.16631	-0.017275	0.9718
3.618	72.355	-31989	2494.8	0.16612	-0.017178	0.97122
3.62	72.351	-31991	2494.7	0.16592	-0.01708	0.97063
3.622	72.359	-31993	2494.6	0.16602	-0.017178	0.97063
3.624	72.349	-31994	2494.6	0.16612	-0.017275	0.97063
3.626	72.367	-31994	2494.5	0.16621	-0.017373	0.97063
3.628	72.35	-31989	2494.4	0.16631	-0.01747	0.97063
3.63	72.388	-31983	2494.3	0.16641	-0.017568	0.97063
3.632	72.392	-31992	2494.2	0.16563	-0.018056	0.97044
3.634	72.324	-32002	2494.1	0.16485	-0.018544	0.97024
3.636	72.306	-32001	2494.1	0.16407	-0.019032	0.97005
3.638	72.278	-32000	2494	0.16328	-0.01952	0.96985
3.64	72.331	-32000	2494	0.1625	-0.020008	0.96966
3.642	72.296	-32001	2494	0.16319	-0.01952	0.96946
3.644	72.292	-32004	2494	0.16387	-0.019032	0.96927
3.646	72.34	-32007	2494	0.16455	-0.018544	0.96907
3.648	72.288	-32010	2494	0.16524	-0.018056	0.96888
3.65	72.259	-32014	2494	0.16592	-0.017568	0.96868
3.652	72.333	-32014	2494	0.16582	-0.017568	0.96975
3.654	72.402	-32014	2493.9	0.16572	-0.017568	0.97083
3.656	72.378	-32013	2493.9	0.16563	-0.017568	0.9719
3.658	72.341	-32013	2493.9	0.16553	-0.017568	0.97297
3.66	72.274	-32012	2493.8	0.16543	-0.017568	0.97405
3.662	72.306	-32012	2493.8	0.16543	-0.017373	0.97454
3.664	72.25	-32012	2493.8	0.16543	-0.017178	0.97502
3.666	72.235	-32013	2493.8	0.16543	-0.016982	0.97551
3.668	72.298	-32013	2493.8	0.16543	-0.016787	0.976
3.67	72.368	-32013	2493.8	0.16543	-0.016592	0.97649
3.672	72.404	-32017	2493.8	0.16436	-0.016885	0.97707
3.674	72.338	-32020	2493.8	0.16328	-0.017178	0.97766
3.676	72.357	-32028	2493.8	0.16221	-0.01747	0.97824
3.678	72.382	-32036	2493.8	0.16114	-0.017763	0.97883
3.68	72.372	-32035	2493.7	0.16006	-0.018056	0.97942
3.682	72.318	-32035	2493.7	0.16016	-0.018446	0.97873
3.684	72.259	-32031	2493.6	0.16026	-0.018837	0.97805
3.686	72.222	-32028	2493.6	0.16036	-0.019227	0.97737
3.688	72.184	-32035	2493.6	0.16045	-0.019618	0.97668
3.69	72.167	-32042	2493.6	0.16055	-0.020008	0.976
3.692	72.216	-32037	2493.5	0.16143	-0.019422	0.9758
3.694	72.345	-32033	2493.4	0.16231	-0.018837	0.97561
3.696	72.412	-32037	2493.3	0.16319	-0.018251	0.97541
3.698	72.345	-32040	2493.2	0.16407	-0.017666	0.97522
3.7	72.266	-32042	2493.1	0.16494	-0.01708	0.97502
3.702	72.233	-32043	2493	0.16563	-0.017178	0.97493
3.704	72.213	-32043	2492.9	0.16631	-0.017275	0.97483
3.706	72.158	-32044	2492.9	0.16699	-0.017373	0.97473
3.708	72.184	-32049	2492.8	0.16768	-0.01747	0.97463
3.71	72.273	-32055	2492.7	0.16836	-0.017568	0.97454
3.712	72.325	-32053	2492.6	0.16973	-0.017958	0.97434
3.714	72.287	-32051	2492.6	0.17109	-0.018349	0.97415
3.716	72.253	-32055	2492.5	0.17246	-0.018739	0.97395
3.718	72.301	-32060	2492.4	0.17383	-0.01913	0.97376
3.72	72.295	-32063	2492.3	0.17519	-0.01952	0.97356
3.722	72.243	-32065	2492.2	0.17539	-0.019227	0.97346
3.724	72.262	-32069	2492.2	0.17558	-0.018934	0.97336
3.726	72.242	-32073	2492.1	0.17578	-0.018642	0.97327
3.728	72.238	-32079	2492.1	0.17597	-0.018349	0.97317
3.73	72.215	-32084	2492	0.17617	-0.018056	0.97307
3.732	72.199	-32079	2491.9	0.17588	-0.018446	0.97307
3.734	72.214	-32074	2491.8	0.17558	-0.018837	0.97307
3.736	72.312	-32077	2491.7	0.17529	-0.019227	0.97307
3.738	72.315	-32080	2491.6	0.175	-0.019618	0.97307
3.74	72.271	-32086	2491.6	0.1747	-0.020008	0.97307
3.742	72.229	-32093	2491.5	0.17441	-0.020301	0.97229
3.744	72.21	-32092	2491.5	0.17412	-0.020594	0.97151
3.746	72.185	-32091	2491.5	0.17383	-0.020886	0.97073
3.748	72.203	-32097	2491.5	0.17353	-0.021179	0.96995
3.75	72.273	-32103	2491.5	0.17324	-0.021472	0.96917
3.752	72.283	-32100	2491.4	0.17334	-0.021374	0.96975
3.754	72.243	-32096	2491.4	0.17344	-0.021277	0.97034
3.756	72.181	-32102	2491.4	0.17353	-0.021179	0.97092
3.758	72.162	-32108	2491.4	0.17363	-0.021082	0.97151
3.76	72.2	-32107	2491.5	0.17373	-0.020984	0.9721
3.762	72.214	-32105	2491.5	0.17285	-0.020203	0.97122
3.764	72.199	-32111	2491.6	0.17197	-0.019422	0.97034
3.766	72.213	-32117	2491.7	0.17109	-0.018642	0.96946
3.768	72.236	-32117	2491.8	0.17021	-0.017861	0.96858
3.77	72.28	-32116	2491.9	0.16934	-0.01708	0.9677
3.772	72.326	-32120	2492.1	0.16787	-0.017275	0.96809
3.774	72.288	-32123	2492.3	0.16641	-0.01747	0.96848
3.776	72.211	-32118	2492.6	0.16494	-0.017666	0.96888
3.778	72.191	-32113	2492.9	0.16348	-0.017861	0.96927
3.78	72.173	-32118	2493.2	0.16202	-0.018056	0.96966
3.782	72.13	-32123	2493.6	0.1628	-0.018349	0.97024
3.784	72.146	-32128	2494	0.16358	-0.018642	0.97083
3.786	72.223	-32133	2494.4	0.16436	-0.018934	0.97141
3.788	72.273	-32134	2494.9	0.16514	-0.019227	0.972
3.79	72.263	-32136	2495.4	0.16592	-0.01952	0.97258
3.792	72.26	-32140	2495.9	0.16563	-0.01991	0.972
3.794	72.254	-32144	2496.5	0.16533	-0.020301	0.97141
3.796	72.223	-32145	2497	0.16504	-0.020691	0.97083
3.798	72.2	-32146	2497.5	0.16475	-0.021082	0.97024
3.8	72.167	-32145	2498.1	0.16446	-0.021472	0.96966
3.802	72.2	-32143	2498.6	0.16407	-0.02196	0.96966
3.804	72.127	-32142	2499.2	0.16368	-0.022448	0.96966
3.806	72.077	-32141	2499.7	0.16328	-0.022936	0.96966
3.808	72.155	-32135	2500.3	0.16289	-0.023424	0.96966
3.81	72.265	-32128	2500.8	0.1625	-0.023912	0.96966
3.812	72.303	-32127	2501.3	0.16319	-0.02401	0.97024
3.814	72.343	-32125	2501.8	0.16387	-0.024107	0.97083
3.816	72.277	-32128	2502.4	0.16455	-0.024205	0.97141
3.818	72.21	-32130	2502.9	0.16524	-0.024302	0.972
3.82	72.158	-32130	2503.4	0.16592	-0.0244	0.97258
3.822	72.202	-32129	2503.9	0.16582	-0.02401	0.97229
3.824	72.232	-32124	2504.4	0.16572	-0.023619	0.972
3.826	72.207	-32119	2504.9	0.16563	-0.023229	0.97171
3.828	72.217	-32112	2505.4	0.16553	-0.022838	0.97141
3.83	72.319	-32104	2505.9	0.16543	-0.022448	0.97112
3.832	72.356	-32102	2506.3	0.16651	-0.021862	0.97151
3.834	72.323	-32100	2506.7	0.16758	-0.021277	0.9719
3.836	72.285	-32093	2507.2	0.16865	-0.020691	0.97229
3.838	72.277	-32087	2507.6	0.16973	-0.020106	0.97268
3.84	72.286	-32082	2507.9	0.1708	-0.01952	0.97307
3.842	72.252	-32076	2508.3	0.17129	-0.020691	0.97366
3.844	72.277	-32081	2508.7	0.17178	-0.021862	0.97424
3.846	72.341	-32085	2509	0.17226	-0.023034	0.97483
3.848	72.344	-32080	2509.3	0.17275	-0.024205	0.97541
3.85	72.323	-32075	2509.6	0.17324	-0.025376	0.976
3.852	72.353	-32068	2509.9	0.17246	-0.024107	0.97512
3.854	72.345	-32061	2510.1	0.17168	-0.022838	0.97424
3.856	72.316	-32058	2510.4	0.1709	-0.02157	0.97336
3.858	72.319	-32056	2510.6	0.17012	-0.020301	0.97249
3.86	72.298	-32054	2510.8	0.16934	-0.019032	0.97161
3.862	72.28	-32052	2511	0.16973	-0.019032	0.9718
3.864	72.313	-32048	2511.2	0.17012	-0.019032	0.972
3.866	72.336	-32043	2511.4	0.17051	-0.019032	0.97219
3.868	72.272	-32037	2511.4	0.1709	-0.019032	0.97239
3.87	72.183	-32030	2511.5	0.17129	-0.019032	0.97258
3.872	72.156	-32024	2511.6	0.17109	-0.018739	0.97249
3.874	72.182	-32019	2511.7	0.1709	-0.018446	0.97239
3.876	72.263	-32014	2511.8	0.1707	-0.018154	0.97229
3.878	72.335	-32010	2511.8	0.17051	-0.017861	0.97219
3.88	72.358	-32004	2511.9	0.17031	-0.017568	0.9721
3.882	72.292	-31998	2511.8	0.1707	-0.017568	0.97219
3.884	72.288	-31993	2511.8	0.17109	-0.017568	0.97229
3.886	72.352	-31988	2511.8	0.17148	-0.017568	0.97239
3.888	72.37	-31985	2511.7	0.17187	-0.017568	0.97249
3.89	72.298	-31982	2511.7	0.17226	-0.017568	0.97258
3.892	72.225	-31978	2511.6	0.17265	-0.017763	0.97239
3.894	72.255	-31975	2511.5	0.17304	-0.017958	0.97219
3.896	72.313	-31971	2511.5	0.17344	-0.018154	0.972
3.898	72.371	-31967	2511.4	0.17383	-0.018349	0.9718
3.9	72.364	-31965	2511.4	0.17422	-0.018544	0.97161
3.902	72.367	-31963	2511.3	0.17431	-0.018544	0.97141
3.904	72.317	-31960	2511.2	0.17441	-0.018544	0.97122
3.906	72.263	-31956	2511.1	0.17451	-0.018544	0.97102
3.908	72.305	-31954	2511	0.17461	-0.018544	0.97083
3.91	72.436	-31952	2510.8	0.1747	-0.018544	0.97063
3.912	72.421	-31948	2510.7	0.17422	-0.018739	0.97161
3.914	72.364	-31944	2510.6	0.17373	-0.018934	0.97258
3.916	72.326	-31929	2510.5	0.17324	-0.01913	0.97356
3.918	72.316	-31914	2510.4	0.17275	-0.019325	0.97454
3.92	72.266	-31913	2510.2	0.17226	-0.01952	0.97551
3.922	72.29	-31913	2510	0.17041	-0.018642	0.97659
3.924	72.32	-31918	2509.9	0.16856	-0.017763	0.97766
3.926	72.287	-31923	2509.7	0.1667	-0.016885	0.97873
3.928	72.265	-31931	2509.6	0.16485	-0.016006	0.97981
3.93	72.251	-31939	2509.4	0.16299	-0.015128	0.98088
3.932	72.287	-31936	2509.3	0.16289	-0.015616	0.97971
3.934	72.326	-31933	2509.1	0.1628	-0.016104	0.97854
3.936	72.278	-31930	2508.9	0.1627	-0.016592	0.97737
3.938	72.205	-31926	2508.7	0.1626	-0.01708	0.9762
3.94	72.209	-31924	2508.5	0.1625	-0.017568	0.97502
3.942	72.282	-31922	2508.3	0.16426	-0.017373	0.97483
3.944	72.346	-31919	2508.1	0.16602	-0.017178	0.97463
3.946	72.362	-31917	2507.9	0.16777	-0.016982	0.97444
3.948	72.372	-31911	2507.7	0.16953	-0.016787	0.97424
3.95	72.357	-31906	2507.5	0.17129	-0.016592	0.97405
3.952	72.312	-31905	2507.3	0.171	-0.01669	0.97307
3.954	72.27	-31905	2507.1	0.1707	-0.016787	0.9721
3.956	72.228	-31905	2506.9	0.17041	-0.016885	0.97112
3.958	72.215	-31906	2506.7	0.17012	-0.016982	0.97014
3.96	72.241	-31906	2506.5	0.16982	-0.01708	0.96917
3.962	72.265	-31905	2506.3	0.16816	-0.01708	0.97073
3.964	72.248	-31905	2506.1	0.16651	-0.01708	0.97229
3.966	72.276	-31904	2505.9	0.16485	-0.01708	0.97385
3.968	72.302	-31905	2505.7	0.16319	-0.01708	0.97541
3.97	72.348	-31905	2505.4	0.16153	-0.01708	0.97698
3.972	72.431	-31901	2505.2	0.16114	-0.01708	0.97746
3.974	72.392	-31896	2504.9	0.16075	-0.01708	0.97795
3.976	72.234	-31897	2504.7	0.16036	-0.01708	0.97844
3.978	72.175	-31898	2504.4	0.15997	-0.01708	0.97893
3.98	72.259	-31892	2504.2	0.15958	-0.01708	0.97942
3.982	72.3	-31885	2504	0.16124	-0.01669	0.97834
3.984	72.329	-31892	2503.9	0.16289	-0.016299	0.97727
3.986	72.391	-31898	2503.6	0.16455	-0.015909	0.9762
3.988	72.385	-31897	2503.4	0.16621	-0.015518	0.97512
3.99	72.367	-31895	2503.2	0.16787	-0.015128	0.97405
3.992	72.291	-31887	2503	0.1669	-0.015616	0.97366
3.994	72.277	-31879	2502.8	0.16592	-0.016104	0.97327
3.996	72.258	-31888	2502.6	0.16494	-0.016592	0.97288
3.998	72.292	-31897	2502.4	0.16397	-0.01708	0.97249
4	72.253	-31894	2502.2	0.16299	-0.017568	0.9721
4.002	72.193	-31891	2502	0.16475	-0.017568	0.97229
4.004	72.171	-31893	2501.8	0.16651	-0.017568	0.97249
4.006	72.239	-31896	2501.7	0.16826	-0.017568	0.97268
4.008	72.322	-31897	2501.5	0.17002	-0.017568	0.97288
4.01	72.407	-31897	2501.4	0.17178	-0.017568	0.97307
4.012	72.375	-31900	2501.3	0.17236	-0.017861	0.97219
4.014	72.283	-31903	2501.1	0.17295	-0.018154	0.97132
4.016	72.227	-31900	2500.9	0.17353	-0.018446	0.97044
4.018	72.215	-31896	2500.8	0.17412	-0.018739	0.96956
4.02	72.278	-31899	2500.6	0.1747	-0.019032	0.96868
4.022	72.328	-31902	2500.4	0.17431	-0.019227	0.96878
4.024	72.349	-31907	2500.2	0.17392	-0.019422	0.96888
4.026	72.317	-31913	2500	0.17353	-0.019618	0.96897
4.028	72.283	-31915	2499.9	0.17314	-0.019813	0.96907
4.03	72.275	-31917	2499.7	0.17275	-0.020008	0.96917
4.032	72.236	-31908	2499.7	0.17246	-0.019618	0.96966
4.034	72.216	-31899	2499.6	0.17217	-0.019227	0.97014
4.036	72.234	-31897	2499.6	0.17187	-0.018837	0.97063
4.038	72.262	-31895	2499.6	0.17158	-0.018446	0.97112
4.04	72.305	-31897	2499.5	0.17129	-0.018056	0.97161
4.042	72.341	-31899	2499.5	0.1707	-0.017958	0.97132
4.044	72.361	-31892	2499.5	0.17012	-0.017861	0.97102
4.046	72.33	-31886	2499.6	0.16953	-0.017763	0.97073
4.048	72.322	-31891	2499.6	0.16895	-0.017666	0.97044
4.05	72.328	-31897	2499.7	0.16836	-0.017568	0.97014
4.052	72.253	-31895	2499.8	0.16748	-0.018056	0.97044
4.054	72.201	-31894	2500	0.1666	-0.018544	0.97073
4.056	72.258	-31892	2500.1	0.16572	-0.019032	0.97102
4.058	72.337	-31889	2500.2	0.16485	-0.01952	0.97132
4.06	72.321	-31896	2500.3	0.16397	-0.020008	0.97161
4.062	72.226	-31902	2500.4	0.16426	-0.019618	0.97122
4.064	72.179	-31905	2500.6	0.16455	-0.019227	0.97083
4.066	72.275	-31908	2500.8	0.16485	-0.018837	0.97044
4.068	72.361	-31903	2500.9	0.16514	-0.018446	0.97005
4.07	72.394	-31899	2501.1	0.16543	-0.018056	0.96966
4.072	72.424	-31897	2501.3	0.16612	-0.018056	0.97024
4.074	72.348	-31895	2501.5	0.1668	-0.018056	0.97083
4.076	72.281	-31897	2501.7	0.16748	-0.018056	0.97141
4.078	72.262	-31899	2501.9	0.16816	-0.018056	0.972
4.08	72.29	-31897	2502.1	0.16885	-0.018056	0.97258
4.082	72.294	-31896	2502.2	0.16963	-0.018642	0.97307
4.084	72.275	-31894	2502.4	0.17041	-0.019227	0.97356
4.086	72.266	-31892	2502.5	0.17119	-0.019813	0.97405
4.088	72.271	-31896	2502.6	0.17197	-0.020398	0.97454
4.09	72.268	-31899	2502.6	0.17275	-0.020984	0.97502
4.092	72.282	-31905	2502.7	0.17109	-0.021765	0.976
4.094	72.269	-31912	2502.7	0.16943	-0.022546	0.97698
4.096	72.253	-31910	2502.7	0.16777	-0.023326	0.97795
4.098	72.274	-31909	2502.6	0.16612	-0.024107	0.97893
4.1	72.282	-31906	2502.5	0.16446	-0.024888	0.9799
4.102	72.29	-31902	2502.4	0.16602	-0.024888	0.97815
4.104	72.278	-31899	2502.3	0.16758	-0.024888	0.97639
4.106	72.23	-31896	2502.1	0.16914	-0.024888	0.97463
4.108	72.188	-31898	2501.8	0.1707	-0.024888	0.97288
4.11	72.193	-31900	2501.6	0.17226	-0.024888	0.97112
4.112	72.231	-31898	2501.3	0.17021	-0.024302	0.97014
4.114	72.243	-31895	2501	0.16816	-0.023717	0.96917
4.116	72.239	-31899	2500.7	0.16612	-0.023131	0.96819
4.118	72.218	-31904	2500.5	0.16407	-0.022546	0.96722
4.12	72.207	-31903	2500.2	0.16202	-0.02196	0.96624
4.122	72.215	-31902	2499.9	0.1625	-0.022643	0.96731
4.124	72.175	-31902	2499.6	0.16299	-0.023326	0.96839
4.126	72.201	-31902	2499.4	0.16348	-0.02401	0.96946
4.128	72.363	-31896	2499.1	0.16397	-0.024693	0.97053
4.13	72.419	-31891	2498.8	0.16446	-0.025376	0.97161
4.132	72.345	-31897	2498.6	0.1626	-0.02479	0.97053
4.134	72.326	-31904	2498.4	0.16075	-0.024205	0.96946
4.136	72.314	-31910	2498.3	0.15889	-0.023619	0.96839
4.138	72.294	-31917	2498.2	0.15704	-0.023034	0.96731
4.14	72.224	-31912	2498.1	0.15518	-0.022448	0.96624
4.142	72.231	-31906	2498	0.15548	-0.021765	0.96507
4.144	72.284	-31904	2498	0.15577	-0.021082	0.9639
4.146	72.247	-31901	2497.9	0.15606	-0.020398	0.96273
4.148	72.156	-31904	2497.8	0.15636	-0.019715	0.96156
4.15	72.172	-31907	2497.7	0.15665	-0.019032	0.96038
4.152	72.234	-31905	2497.7	0.15636	-0.019325	0.96126
4.154	72.299	-31903	2497.6	0.15606	-0.019618	0.96214
4.156	72.383	-31906	2497.5	0.15577	-0.01991	0.96302
4.158	72.4	-31909	2497.4	0.15548	-0.020203	0.9639
4.16	72.4	-31904	2497.3	0.15518	-0.020496	0.96478
4.162	72.41	-31899	2497.2	0.15538	-0.01991	0.96497
4.164	72.444	-31904	2497.2	0.15557	-0.019325	0.96517
4.166	72.354	-31910	2497.1	0.15577	-0.018739	0.96536
4.168	72.323	-31912	2497	0.15596	-0.018154	0.96556
4.17	72.334	-31914	2496.8	0.15616	-0.017568	0.96575
4.172	72.396	-31910	2496.7	0.15694	-0.017958	0.96624
4.174	72.407	-31907	2496.6	0.15772	-0.018349	0.96673
4.176	72.373	-31908	2496.5	0.1585	-0.018739	0.96722
4.178	72.3	-31909	2496.4	0.15928	-0.01913	0.9677
4.18	72.244	-31918	2496.3	0.16006	-0.01952	0.96819
4.182	72.223	-31928	2496.2	0.16006	-0.01952	0.9678
4.184	72.226	-31924	2496.1	0.16006	-0.01952	0.96741
4.186	72.246	-31919	2496	0.16006	-0.01952	0.96702
4.188	72.315	-31922	2495.8	0.16006	-0.01952	0.96663
4.19	72.372	-31925	2495.7	0.16006	-0.01952	0.96624
4.192	72.337	-31929	2495.5	0.16055	-0.019325	0.96526
4.194	72.303	-31933	2495.4	0.16104	-0.01913	0.96429
4.196	72.28	-31933	2495.2	0.16153	-0.018934	0.96331
4.198	72.247	-31933	2495.1	0.16202	-0.018739	0.96234
4.2	72.265	-31937	2494.9	0.1625	-0.018544	0.96136
4.202	72.291	-31942	2494.8	0.16416	-0.018349	0.96126
4.204	72.308	-31938	2494.7	0.16582	-0.018154	0.96116
4.206	72.31	-31934	2494.6	0.16748	-0.017958	0.96107
4.208	72.344	-31927	2494.6	0.16914	-0.017763	0.96097
4.21	72.42	-31920	2494.5	0.1708	-0.017568	0.96087
4.212	72.39	-31924	2494.4	0.16924	-0.017568	0.96204
4.214	72.305	-31929	2494.4	0.16768	-0.017568	0.96321
4.216	72.276	-31929	2494.3	0.16612	-0.017568	0.96439
4.218	72.258	-31929	2494.2	0.16455	-0.017568	0.96556
4.22	72.277	-31935	2494	0.16299	-0.017568	0.96673
4.222	72.328	-31941	2493.9	0.16426	-0.016982	0.96868
4.224	72.398	-31938	2493.7	0.16553	-0.016397	0.97063
4.226	72.378	-31934	2493.6	0.1668	-0.015811	0.97258
4.228	72.332	-31934	2493.4	0.16807	-0.015226	0.97454
4.23	72.304	-31935	2493.2	0.16934	-0.01464	0.97649
4.232	72.23	-31932	2493	0.16943	-0.015128	0.97561
4.234	72.263	-31930	2492.8	0.16953	-0.015616	0.97473
4.236	72.379	-31939	2492.7	0.16963	-0.016104	0.97385
4.238	72.373	-31947	2492.6	0.16973	-0.016592	0.97297
4.24	72.338	-31948	2492.4	0.16982	-0.01708	0.9721
4.242	72.195	-31948	2492.2	0.16982	-0.017178	0.97249
4.244	72.129	-31953	2492.1	0.16982	-0.017275	0.97288
4.246	72.122	-31958	2491.9	0.16982	-0.017373	0.97327
4.248	72.096	-31954	2491.7	0.16982	-0.01747	0.97366
4.25	72.072	-31951	2491.6	0.16982	-0.017568	0.97405
4.252	72.032	-31957	2491.4	0.16963	-0.01747	0.97346
4.254	72.027	-31963	2491.3	0.16943	-0.017373	0.97288
4.256	71.988	-31970	2491.2	0.16924	-0.017275	0.97229
4.258	71.916	-31978	2491.2	0.16904	-0.017178	0.97171
4.26	71.939	-31974	2491.1	0.16885	-0.01708	0.97112
4.262	72.002	-31969	2491.1	0.16934	-0.017373	0.97132
4.264	72.034	-31971	2491.1	0.16982	-0.017666	0.97151
4.266	72.099	-31973	2491.1	0.17031	-0.017958	0.97171
4.268	72.142	-31968	2491.1	0.1708	-0.018251	0.9719
4.27	72.16	-31963	2491.1	0.17129	-0.018544	0.9721
4.272	72.246	-31972	2491.1	0.17217	-0.018934	0.97278
4.274	72.329	-31982	2491.2	0.17304	-0.019325	0.97346
4.276	72.415	-31985	2491.1	0.17392	-0.019715	0.97415
4.278	72.424	-31988	2491.1	0.1748	-0.020106	0.97483
4.28	72.372	-31989	2491.1	0.17568	-0.020496	0.97551
4.282	72.359	-31990	2491.1	0.17617	-0.020203	0.97483
4.284	72.423	-31992	2491	0.17666	-0.01991	0.97415
4.286	72.48	-31993	2491	0.17714	-0.019618	0.97346
4.288	72.444	-31998	2490.9	0.17763	-0.019325	0.97278
4.29	72.379	-32002	2490.9	0.17812	-0.019032	0.9721
4.292	72.338	-31995	2490.8	0.17773	-0.01991	0.97288
4.294	72.289	-31988	2490.7	0.17734	-0.020789	0.97366
4.296	72.232	-31991	2490.6	0.17695	-0.021667	0.97444
4.298	72.213	-31994	2490.5	0.17656	-0.022546	0.97522
4.3	72.266	-31996	2490.4	0.17617	-0.023424	0.976
4.302	72.325	-31998	2490.4	0.17597	-0.022741	0.97561
4.304	72.35	-32005	2490.3	0.17578	-0.022058	0.97522
4.306	72.41	-32013	2490.3	0.17558	-0.021374	0.97483
4.308	72.396	-32014	2490.1	0.17539	-0.020691	0.97444
4.31	72.333	-32015	2490	0.17519	-0.020008	0.97405
4.312	72.32	-32012	2489.9	0.1749	-0.019715	0.97395
4.314	72.364	-32010	2489.8	0.17461	-0.019422	0.97385
4.316	72.373	-32010	2489.7	0.17431	-0.01913	0.97376
4.318	72.361	-32011	2489.6	0.17402	-0.018837	0.97366
4.32	72.301	-32015	2489.5	0.17373	-0.018544	0.97356
4.322	72.293	-32019	2489.5	0.17314	-0.018642	0.97405
4.324	72.352	-32022	2489.4	0.17256	-0.018739	0.97454
4.326	72.422	-32026	2489.3	0.17197	-0.018837	0.97502
4.328	72.382	-32025	2489.3	0.17139	-0.018934	0.97551
4.33	72.312	-32025	2489.2	0.1708	-0.019032	0.976
4.332	72.332	-32027	2489.1	0.171	-0.018739	0.97551
4.334	72.362	-32030	2489	0.17119	-0.018446	0.97502
4.336	72.357	-32033	2488.9	0.17139	-0.018154	0.97454
4.338	72.31	-32035	2488.9	0.17158	-0.017861	0.97405
4.34	72.245	-32036	2488.8	0.17178	-0.017568	0.97356
4.342	72.214	-32037	2488.7	0.17012	-0.017568	0.97434
4.344	72.225	-32043	2488.7	0.16846	-0.017568	0.97512
4.346	72.277	-32048	2488.6	0.1668	-0.017568	0.9759
4.348	72.291	-32049	2488.5	0.16514	-0.017568	0.97668
4.35	72.285	-32050	2488.5	0.16348	-0.017568	0.97746
4.352	72.264	-32062	2488.4	0.16387	-0.017568	0.97629
4.354	72.287	-32074	2488.3	0.16426	-0.017568	0.97512
4.356	72.264	-32069	2488.3	0.16465	-0.017568	0.97395
4.358	72.229	-32064	2488.2	0.16504	-0.017568	0.97278
4.36	72.223	-32057	2488.2	0.16543	-0.017568	0.97161
4.362	72.206	-32051	2488.2	0.16543	-0.017568	0.97151
4.364	72.191	-32055	2488.1	0.16543	-0.017568	0.97141
4.366	72.242	-32058	2488	0.16543	-0.017568	0.97132
4.368	72.295	-32059	2487.9	0.16543	-0.017568	0.97122
4.37	72.312	-32059	2487.8	0.16543	-0.017568	0.97112
4.372	72.355	-32063	2487.7	0.16494	-0.018251	0.97034
4.374	72.341	-32068	2487.7	0.16446	-0.018934	0.96956
4.376	72.298	-32066	2487.6	0.16397	-0.019618	0.96878
4.378	72.311	-32064	2487.5	0.16348	-0.020301	0.968
4.38	72.309	-32069	2487.4	0.16299	-0.020984	0.96722
4.382	72.287	-32074	2487.3	0.16387	-0.020106	0.96722
4.384	72.234	-32081	2487.2	0.16475	-0.019227	0.96722
4.386	72.129	-32088	2487.1	0.16563	-0.018349	0.96722
4.388	72.117	-32086	2487	0.16651	-0.01747	0.96722
4.39	72.221	-32084	2486.9	0.16738	-0.016592	0.96722
4.392	72.262	-32088	2486.8	0.16709	-0.016885	0.96712
4.394	72.291	-32091	2486.6	0.1668	-0.017178	0.96702
4.396	72.34	-32094	2486.5	0.16651	-0.01747	0.96692
4.398	72.338	-32096	2486.4	0.16621	-0.017763	0.96683
4.4	72.378	-32098	2486.2	0.16592	-0.018056	0.96673
4.402	72.384	-32099	2486.1	0.16641	-0.017861	0.96731
4.404	72.339	-32104	2486	0.1669	-0.017666	0.9679
4.406	72.293	-32109	2485.8	0.16738	-0.01747	0.96848
4.408	72.25	-32111	2485.6	0.16787	-0.017275	0.96907
4.41	72.192	-32113	2485.4	0.16836	-0.01708	0.96966
4.412	72.188	-32114	2485.2	0.16777	-0.01708	0.96946
4.414	72.157	-32116	2485	0.16719	-0.01708	0.96927
4.416	72.219	-32118	2484.9	0.1666	-0.01708	0.96907
4.418	72.234	-32119	2484.7	0.16602	-0.01708	0.96888
4.42	72.238	-32122	2484.4	0.16543	-0.01708	0.96868
4.422	72.267	-32124	2484.3	0.16504	-0.017373	0.96888
4.424	72.291	-32122	2484.2	0.16465	-0.017666	0.96907
4.426	72.304	-32120	2484.1	0.16426	-0.017958	0.96927
4.428	72.265	-32130	2484	0.16387	-0.018251	0.96946
4.43	72.2	-32141	2483.9	0.16348	-0.018544	0.96966
4.432	72.215	-32138	2483.7	0.16309	-0.018837	0.96848
4.434	72.194	-32136	2483.6	0.1627	-0.01913	0.96731
4.436	72.173	-32137	2483.5	0.16231	-0.019422	0.96614
4.438	72.09	-32138	2483.5	0.16192	-0.019715	0.96497
4.44	72.025	-32136	2483.5	0.16153	-0.020008	0.9638
4.442	72.141	-32134	2483.5	0.16065	-0.020594	0.964
4.444	72.283	-32139	2483.4	0.15977	-0.021179	0.96419
4.446	72.32	-32144	2483.5	0.15889	-0.021765	0.96439
4.448	72.288	-32146	2483.7	0.15801	-0.02235	0.96458
4.45	72.256	-32149	2483.9	0.15714	-0.022936	0.96478
4.452	72.244	-32152	2484.2	0.15792	-0.022936	0.96507
4.454	72.228	-32154	2484.5	0.1587	-0.022936	0.96536
4.456	72.192	-32158	2484.9	0.15948	-0.022936	0.96565
4.458	72.167	-32161	2485.3	0.16026	-0.022936	0.96595
4.46	72.2	-32162	2485.8	0.16104	-0.022936	0.96624
4.462	72.234	-32162	2486.4	0.1625	-0.022058	0.96653
4.464	72.186	-32165	2487	0.16397	-0.021179	0.96683
4.466	72.167	-32168	2487.6	0.16543	-0.020301	0.96712
4.468	72.247	-32169	2488.2	0.1669	-0.019422	0.96741
4.47	72.31	-32171	2488.8	0.16836	-0.018544	0.9677
4.472	72.326	-32174	2489.4	0.16865	-0.018544	0.96868
4.474	72.311	-32177	2490	0.16895	-0.018544	0.96966
4.476	72.26	-32180	2490.7	0.16924	-0.018544	0.97063
4.478	72.208	-32182	2491.4	0.16953	-0.018544	0.97161
4.48	72.232	-32181	2492.1	0.16982	-0.018544	0.97258
4.482	72.281	-32181	2492.7	0.17148	-0.018837	0.97268
4.484	72.246	-32179	2493.3	0.17314	-0.01913	0.97278
4.486	72.268	-32177	2493.9	0.1748	-0.019422	0.97288
4.488	72.27	-32175	2494.5	0.17646	-0.019715	0.97297
4.49	72.234	-32173	2495.2	0.17812	-0.020008	0.97307
4.492	72.203	-32175	2495.7	0.17783	-0.019813	0.97307
4.494	72.226	-32177	2496.3	0.17753	-0.019618	0.97307
4.496	72.219	-32174	2496.8	0.17724	-0.019422	0.97307
4.498	72.247	-32170	2497.3	0.17695	-0.019227	0.97307
4.5	72.352	-32169	2497.7	0.17666	-0.019032	0.97307
4.502	72.329	-32169	2498.1	0.1749	-0.018934	0.97434
4.504	72.294	-32162	2498.6	0.17314	-0.018837	0.97561
4.506	72.304	-32156	2498.9	0.17139	-0.018739	0.97688
4.508	72.352	-32156	2499.2	0.16963	-0.018642	0.97815
4.51	72.383	-32155	2499.5	0.16787	-0.018544	0.97942
4.512	72.325	-32158	2499.8	0.16699	-0.018544	0.97903
4.514	72.241	-32161	2500.1	0.16612	-0.018544	0.97864
4.516	72.253	-32150	2500.4	0.16524	-0.018544	0.97824
4.518	72.263	-32139	2500.7	0.16436	-0.018544	0.97785
4.52	72.267	-32137	2501	0.16348	-0.018544	0.97746
4.522	72.244	-32136	2501.2	0.16465	-0.01991	0.97737
4.524	72.246	-32137	2501.5	0.16582	-0.021277	0.97727
4.526	72.253	-32139	2501.7	0.16699	-0.022643	0.97717
4.528	72.223	-32129	2502	0.16816	-0.02401	0.97707
4.53	72.233	-32119	2502.2	0.16934	-0.025376	0.97698
4.532	72.235	-32114	2502.4	0.16856	-0.024302	0.97659
4.534	72.252	-32108	2502.6	0.16777	-0.023229	0.9762
4.536	72.361	-32105	2502.8	0.16699	-0.022155	0.9758
4.538	72.417	-32102	2503	0.16621	-0.021082	0.97541
4.54	72.365	-32098	2503.3	0.16543	-0.020008	0.97502
4.542	72.308	-32094	2503.5	0.16553	-0.019618	0.97463
4.544	72.29	-32095	2503.7	0.16563	-0.019227	0.97424
4.546	72.311	-32096	2503.9	0.16572	-0.018837	0.97385
4.548	72.344	-32095	2504.1	0.16582	-0.018446	0.97346
4.55	72.351	-32094	2504.3	0.16592	-0.018056	0.97307
4.552	72.361	-32083	2504.5	0.16533	-0.018739	0.97317
4.554	72.388	-32071	2504.6	0.16475	-0.019422	0.97327
4.556	72.364	-32069	2504.8	0.16416	-0.020106	0.97336
4.558	72.303	-32066	2504.9	0.16358	-0.020789	0.97346
4.56	72.299	-32061	2505.1	0.16299	-0.021472	0.97356
4.562	72.312	-32056	2505.1	0.16387	-0.020984	0.97385
4.564	72.293	-32057	2505.2	0.16475	-0.020496	0.97415
4.566	72.235	-32058	2505.3	0.16563	-0.020008	0.97444
4.568	72.232	-32053	2505.3	0.16651	-0.01952	0.97473
4.57	72.307	-32048	2505.4	0.16738	-0.019032	0.97502
4.572	72.355	-32041	2505.3	0.16514	-0.01991	0.9762
4.574	72.329	-32034	2505.3	0.16289	-0.020789	0.97737
4.576	72.361	-32029	2505.2	0.16065	-0.021667	0.97854
4.578	72.348	-32025	2505.1	0.1584	-0.022546	0.97971
4.58	72.313	-32020	2505	0.15616	-0.023424	0.98088
4.582	72.299	-32016	2504.8	0.15636	-0.022643	0.98049
4.584	72.347	-32016	2504.6	0.15655	-0.021862	0.9801
4.586	72.315	-32016	2504.4	0.15675	-0.021082	0.97971
4.588	72.358	-32014	2504.2	0.15694	-0.020301	0.97932
4.59	72.325	-32012	2504	0.15714	-0.01952	0.97893
4.592	72.278	-32011	2503.8	0.1588	-0.01913	0.97756
4.594	72.248	-32009	2503.6	0.16045	-0.018739	0.9762
4.596	72.299	-32010	2503.3	0.16211	-0.018349	0.97483
4.598	72.291	-32011	2503.1	0.16377	-0.017958	0.97346
4.6	72.274	-32004	2502.8	0.16543	-0.017568	0.9721
4.602	72.244	-31997	2502.6	0.16631	-0.017666	0.97219
4.604	72.242	-31999	2502.3	0.16719	-0.017763	0.97229
