t	ekg	optical	pressure	accel_x	accel_y	accel_z
0	76.01	-26786	2374.5	-0.22907	0.95931	0.16719
0.002	76.005	-26785	2374.2	-0.22897	0.95863	0.16924
0.004	76.004	-26783	2374	-0.22887	0.95794	0.17129
0.006	76.012	-26782	2373.8	-0.22877	0.95726	0.17334
0.008	76.016	-26781	2373.6	-0.22868	0.95658	0.17539
0.01	76.02	-26784	2373.3	-0.22858	0.95589	0.17744
0.012	76.025	-26786	2373.1	-0.22848	0.95521	0.17949
0.014	76.026	-26784	2372.9	-0.22838	0.95453	0.18154
0.016	76.018	-26783	2372.7	-0.2276	0.95541	0.18134
0.018	76.017	-26780	2372.5	-0.22682	0.95628	0.18115
0.02	76.02	-26777	2372.2	-0.22604	0.95716	0.18095
0.022	76.019	-26784	2372	-0.22526	0.95804	0.18076
0.024	76.022	-26791	2371.8	-0.22448	0.95892	0.18056
0.026	76.023	-26788	2371.6	-0.22555	0.95775	0.18066
0.028	76.025	-26785	2371.3	-0.22663	0.95658	0.18076
0.03	76.024	-26784	2371.1	-0.2277	0.95541	0.18085
0.032	76.021	-26783	2370.8	-0.22877	0.95424	0.18095
0.034	76.023	-26788	2370.6	-0.22985	0.95306	0.18105
0.036	76.026	-26793	2370.4	-0.22946	0.95326	0.18076
0.038	76.03	-26791	2370.2	-0.22907	0.95345	0.18046
0.04	76.038	-26788	2370	-0.22868	0.95365	0.18017
0.042	76.046	-26785	2369.7	-0.22829	0.95384	0.17988
0.044	76.05	-26782	2369.5	-0.2279	0.95404	0.17958
0.046	76.047	-26787	2369.3	-0.22819	0.95472	0.17978
0.048	76.051	-26792	2369.1	-0.22848	0.95541	0.17997
0.05	76.063	-26790	2368.9	-0.22877	0.95609	0.18017
0.052	76.072	-26788	2368.8	-0.22907	0.95677	0.18036
0.054	76.073	-26790	2368.6	-0.22936	0.95746	0.18056
0.056	76.066	-26793	2368.4	-0.23024	0.95765	0.18095
0.058	76.06	-26791	2368.2	-0.23112	0.95785	0.18134
0.06	76.056	-26790	2368.1	-0.232	0.95804	0.18173
0.062	76.051	-26791	2368	-0.23287	0.95824	0.18212
0.064	76.051	-26792	2367.8	-0.23375	0.95843	0.18251
0.066	76.047	-26796	2367.7	-0.23268	0.95804	0.18193
0.068	76.043	-26801	2367.5	-0.2316	0.95765	0.18134
0.07	76.048	-26795	2367.4	-0.23053	0.95726	0.18076
0.072	76.05	-26790	2367.3	-0.22946	0.95687	0.18017
0.074	76.045	-26797	2367.2	-0.22838	0.95648	0.17958
0.076	76.042	-26805	2367.1	-0.22897	0.9557	0.17939
0.078	76.046	-26804	2367	-0.22956	0.95492	0.17919
0.08	76.046	-26802	2367	-0.23014	0.95414	0.179
0.082	76.045	-26797	2367	-0.23073	0.95336	0.1788
0.084	76.046	-26791	2366.9	-0.23131	0.95258	0.17861
0.086	76.057	-26794	2367	-0.23082	0.95345	0.17851
0.088	76.056	-26797	2367	-0.23034	0.95433	0.17841
0.09	76.043	-26800	2367	-0.22985	0.95521	0.17832
0.092	76.031	-26802	2367.1	-0.22936	0.95609	0.17822
0.094	76.028	-26800	2367.1	-0.22887	0.95697	0.17812
0.096	76.035	-26798	2367.2	-0.23024	0.95765	0.17763
0.098	76.038	-26800	2367.2	-0.2316	0.95833	0.17714
0.1	76.042	-26803	2367.2	-0.23297	0.95902	0.17666
0.102	76.051	-26804	2367.3	-0.23434	0.9597	0.17617
0.104	76.057	-26806	2367.4	-0.2357	0.96038	0.17568
0.106	76.053	-26803	2367.5	-0.23648	0.95941	0.17666
0.108	76.05	-26801	2367.5	-0.23727	0.95843	0.17763
0.11	76.051	-26799	2367.6	-0.23805	0.95746	0.17861
0.112	76.051	-26797	2367.8	-0.23883	0.95648	0.17958
0.114	76.038	-26799	2367.9	-0.23961	0.9555	0.18056
0.116	76.035	-26801	2368	-0.2399	0.95541	0.18085
0.118	76.042	-26804	2368.1	-0.24019	0.95531	0.18115
0.12	76.05	-26807	2368.2	-0.24049	0.95521	0.18144
0.122	76.062	-26804	2368.3	-0.24078	0.95511	0.18173
0.124	76.071	-26800	2368.4	-0.24107	0.95502	0.18202
0.126	76.084	-26800	2368.6	-0.24049	0.95511	0.18124
0.128	76.09	-26799	2368.7	-0.2399	0.95521	0.18046
0.13	76.095	-26798	2368.9	-0.23932	0.95531	0.17968
0.132	76.101	-26797	2369	-0.23873	0.95541	0.1789
0.134	76.103	-26799	2369.1	-0.23814	0.9555	0.17812
0.136	76.107	-26801	2369.3	-0.23775	0.95589	0.17812
0.138	76.116	-26801	2369.4	-0.23736	0.95628	0.17812
0.14	76.124	-26801	2369.5	-0.23697	0.95668	0.17812
0.142	76.124	-26803	2369.6	-0.23658	0.95707	0.17812
0.144	76.126	-26805	2369.7	-0.23619	0.95746	0.17812
0.146	76.13	-26805	2369.9	-0.23531	0.95687	0.17832
0.148	76.131	-26804	2370	-0.23444	0.95628	0.17851
0.15	76.129	-26806	2370.2	-0.23356	0.9557	0.17871
0.152	76.126	-26808	2370.3	-0.23268	0.95511	0.1789
0.154	76.125	-26802	2370.3	-0.2318	0.95453	0.1791
0.156	76.128	-26796	2370.4	-0.23248	0.95375	0.17763
0.158	76.126	-26795	2370.4	-0.23317	0.95297	0.17617
0.16	76.119	-26794	2370.5	-0.23385	0.95219	0.1747
0.162	76.123	-26794	2370.5	-0.23453	0.9514	0.17324
0.164	76.135	-26794	2370.5	-0.23522	0.95062	0.17178
0.166	76.14	-26800	2370.6	-0.23444	0.95062	0.17236
0.168	76.134	-26806	2370.6	-0.23365	0.95062	0.17295
0.17	76.135	-26811	2370.6	-0.23287	0.95062	0.17353
0.172	76.13	-26816	2370.6	-0.23209	0.95062	0.17412
0.174	76.116	-26809	2370.6	-0.23131	0.95062	0.1747
0.176	76.11	-26801	2370.6	-0.23102	0.9515	0.17568
0.178	76.116	-26798	2370.6	-0.23073	0.95238	0.17666
0.18	76.121	-26795	2370.6	-0.23043	0.95326	0.17763
0.182	76.124	-26797	2370.5	-0.23014	0.95414	0.17861
0.184	76.12	-26798	2370.5	-0.22985	0.95502	0.17958
0.186	76.113	-26795	2370.5	-0.23004	0.95443	0.17871
0.188	76.113	-26791	2370.5	-0.23024	0.95384	0.17783
0.19	76.122	-26790	2370.5	-0.23043	0.95326	0.17695
0.192	76.122	-26789	2370.5	-0.23063	0.95267	0.17607
0.194	76.116	-26791	2370.5	-0.23082	0.95209	0.17519
0.196	76.116	-26792	2370.5	-0.23053	0.95267	0.17617
0.198	76.133	-26792	2370.5	-0.23024	0.95326	0.17714
0.2	76.143	-26792	2370.4	-0.22995	0.95384	0.17812
0.202	76.143	-26798	2370.4	-0.22965	0.95443	0.1791
0.204	76.142	-26804	2370.3	-0.22936	0.95502	0.18007
0.206	76.138	-26806	2370.3	-0.22956	0.95531	0.17997
0.208	76.127	-26808	2370.3	-0.22975	0.9556	0.17988
0.21	76.104	-26803	2370.2	-0.22995	0.95589	0.17978
0.212	76.071	-26798	2370.2	-0.23014	0.95619	0.17968
0.214	76.036	-26795	2370.1	-0.23034	0.95648	0.17958
0.216	76.005	-26792	2370.1	-0.23063	0.95609	0.17939
0.218	75.967	-26795	2370.1	-0.23092	0.9557	0.17919
0.22	75.922	-26799	2370	-0.23121	0.95531	0.179
0.222	75.88	-26805	2370	-0.23151	0.95492	0.1788
0.224	75.832	-26812	2369.9	-0.2318	0.95453	0.17861
0.226	75.791	-26806	2369.9	-0.23287	0.95472	0.17851
0.228	75.766	-26799	2369.9	-0.23395	0.95492	0.17841
0.23	75.745	-26798	2369.9	-0.23502	0.95511	0.17832
0.232	75.724	-26797	2369.9	-0.23609	0.95531	0.17822
0.234	75.718	-26801	2369.8	-0.23717	0.9555	0.17812
0.236	75.733	-26806	2369.8	-0.23688	0.95609	0.17832
0.238	75.762	-26806	2369.8	-0.23658	0.95668	0.17851
0.24	75.791	-26806	2369.8	-0.23629	0.95726	0.17871
0.242	75.809	-26805	2369.8	-0.236	0.95785	0.1789
0.244	75.832	-26804	2369.8	-0.2357	0.95843	0.1791
0.246	75.876	-26803	2369.8	-0.23619	0.95804	0.17968
0.248	75.948	-26802	2369.7	-0.23668	0.95765	0.18027
0.25	76.033	-26803	2369.7	-0.23717	0.95726	0.18085
0.252	76.104	-26805	2369.7	-0.23766	0.95687	0.18144
0.254	76.138	-26808	2369.7	-0.23814	0.95648	0.18202
0.256	76.136	-26810	2369.6	-0.23746	0.95599	0.18173
0.258	76.133	-26810	2369.6	-0.23678	0.9555	0.18144
0.26	76.125	-26810	2369.6	-0.23609	0.95502	0.18115
0.262	76.12	-26808	2369.6	-0.23541	0.95453	0.18085
0.264	76.119	-26805	2369.6	-0.23473	0.95404	0.18056
0.266	76.106	-26806	2369.5	-0.23463	0.95424	0.18085
0.268	76.092	-26807	2369.5	-0.23453	0.95443	0.18115
0.27	76.073	-26809	2369.5	-0.23444	0.95463	0.18144
0.272	76.055	-26810	2369.4	-0.23434	0.95482	0.18173
0.274	76.051	-26809	2369.4	-0.23424	0.95502	0.18202
0.276	76.039	-26808	2369.3	-0.23444	0.9556	0.18163
0.278	76.031	-26808	2369.3	-0.23463	0.95619	0.18124
0.28	76.027	-26808	2369.3	-0.23483	0.95677	0.18085
0.282	76.027	-26807	2369.2	-0.23502	0.95736	0.18046
0.284	76.022	-26806	2369.2	-0.23522	0.95794	0.18007
0.286	76.01	-26806	2369.1	-0.23609	0.95824	0.18046
0.288	76.01	-26806	2369.1	-0.23697	0.95853	0.18085
0.29	76.011	-26807	2369	-0.23785	0.95882	0.18124
0.292	76.002	-26808	2369	-0.23873	0.95912	0.18163
0.294	75.991	-26808	2368.9	-0.23961	0.95941	0.18202
0.296	75.987	-26809	2368.8	-0.23941	0.95941	0.18232
0.298	75.986	-26810	2368.8	-0.23922	0.95941	0.18261
0.3	75.986	-26811	2368.7	-0.23902	0.95941	0.1829
0.302	75.991	-26813	2368.6	-0.23883	0.95941	0.1832
0.304	75.991	-26816	2368.6	-0.23863	0.95941	0.18349
0.306	75.987	-26814	2368.6	-0.23756	0.95912	0.18261
0.308	75.99	-26812	2368.6	-0.23648	0.95882	0.18173
0.31	75.995	-26814	2368.5	-0.23541	0.95853	0.18085
0.312	76.002	-26816	2368.5	-0.23434	0.95824	0.17997
0.314	76.007	-26819	2368.5	-0.23326	0.95794	0.1791
0.316	76.006	-26822	2368.5	-0.23453	0.95833	0.17968
0.318	75.996	-26818	2368.4	-0.2358	0.95872	0.18027
0.32	75.981	-26814	2368.4	-0.23707	0.95912	0.18085
0.322	75.977	-26817	2368.4	-0.23834	0.95951	0.18144
0.324	75.98	-26820	2368.4	-0.23961	0.9599	0.18202
0.326	75.977	-26824	2368.4	-0.23814	0.95951	0.18105
0.328	75.974	-26828	2368.4	-0.23668	0.95912	0.18007
0.33	75.973	-26827	2368.4	-0.23522	0.95872	0.1791
0.332	75.972	-26826	2368.5	-0.23375	0.95833	0.17812
0.334	75.975	-26824	2368.5	-0.23229	0.95794	0.17714
0.336	75.981	-26822	2368.6	-0.23307	0.95863	0.17724
0.338	75.981	-26820	2368.6	-0.23385	0.95931	0.17734
0.34	75.974	-26817	2368.7	-0.23463	0.95999	0.17744
0.342	75.969	-26819	2368.7	-0.23541	0.96068	0.17753
0.344	75.961	-26820	2368.7	-0.23619	0.96136	0.17763
0.346	75.955	-26823	2368.7	-0.23463	0.96107	0.17714
0.348	75.957	-26825	2368.7	-0.23307	0.96077	0.17666
0.35	75.964	-26822	2368.7	-0.23151	0.96048	0.17617
0.352	75.958	-26819	2368.6	-0.22995	0.96019	0.17568
0.354	75.954	-26817	2368.6	-0.22838	0.9599	0.17519
0.356	75.949	-26815	2368.6	-0.23073	0.95951	0.17636
0.358	75.944	-26816	2368.5	-0.23307	0.95912	0.17753
0.36	75.942	-26817	2368.5	-0.23541	0.95872	0.17871
0.362	75.946	-26820	2368.3	-0.23775	0.95833	0.17988
0.364	75.949	-26822	2368.2	-0.2401	0.95794	0.18105
0.366	75.959	-26821	2368.2	-0.23951	0.95843	0.18056
0.368	75.965	-26820	2368.1	-0.23892	0.95892	0.18007
0.37	75.962	-26822	2368	-0.23834	0.95941	0.17958
0.372	75.954	-26823	2368	-0.23775	0.9599	0.1791
0.374	75.951	-26830	2367.9	-0.23717	0.96038	0.17861
0.376	75.95	-26836	2367.8	-0.23658	0.9597	0.1789
0.378	75.95	-26834	2367.7	-0.236	0.95902	0.17919
0.38	75.953	-26832	2367.6	-0.23541	0.95833	0.17949
0.382	75.95	-26833	2367.6	-0.23483	0.95765	0.17978
0.384	75.94	-26833	2367.5	-0.23424	0.95697	0.18007
0.386	75.94	-26829	2367.4	-0.236	0.95677	0.18036
0.388	75.942	-26825	2367.2	-0.23775	0.95658	0.18066
0.39	75.944	-26830	2367.1	-0.23951	0.95638	0.18095
0.392	75.946	-26835	2366.9	-0.24127	0.95619	0.18124
0.394	75.95	-26834	2366.8	-0.24302	0.95599	0.18154
0.396	75.954	-26834	2366.6	-0.24273	0.95619	0.18232
0.398	75.952	-26831	2366.4	-0.24244	0.95638	0.1831
0.4	75.947	-26829	2366.3	-0.24215	0.95658	0.18388
0.402	75.943	-26836	2366.1	-0.24185	0.95677	0.18466
0.404	75.94	-26844	2365.9	-0.24156	0.95697	0.18544
0.406	75.94	-26849	2365.7	-0.24166	0.95736	0.18446
0.408	75.943	-26855	2365.5	-0.24176	0.95775	0.18349
0.41	75.942	-26844	2365.3	-0.24185	0.95814	0.18251
0.412	75.939	-26834	2365.1	-0.24195	0.95853	0.18154
0.414	75.94	-26830	2364.9	-0.24205	0.95892	0.18056
0.416	75.941	-26827	2364.8	-0.24195	0.95833	0.18163
0.418	75.94	-26825	2364.6	-0.24185	0.95775	0.18271
0.42	75.934	-26824	2364.4	-0.24176	0.95716	0.18378
0.422	75.929	-26833	2364.3	-0.24166	0.95658	0.18485
0.424	75.925	-26841	2364.1	-0.24156	0.95599	0.18593
0.426	75.922	-26834	2364	-0.24049	0.95668	0.18515
0.428	75.919	-26828	2363.9	-0.23941	0.95736	0.18437
0.43	75.926	-26831	2363.8	-0.23834	0.95804	0.18359
0.432	75.938	-26835	2363.7	-0.23727	0.95872	0.1828
0.434	75.936	-26833	2363.6	-0.23619	0.95941	0.18202
0.436	75.932	-26831	2363.5	-0.23629	0.95872	0.18202
0.438	75.934	-26834	2363.5	-0.23639	0.95804	0.18202
0.44	75.938	-26836	2363.5	-0.23648	0.95736	0.18202
0.442	75.938	-26834	2363.5	-0.23658	0.95668	0.18202
0.444	75.933	-26831	2363.5	-0.23668	0.95599	0.18202
0.446	75.933	-26838	2363.6	-0.23727	0.95619	0.18241
0.448	75.936	-26845	2363.7	-0.23785	0.95638	0.1828
0.45	75.945	-26843	2363.8	-0.23844	0.95658	0.1832
0.452	75.949	-26842	2363.9	-0.23902	0.95677	0.18359
0.454	75.957	-26847	2364.1	-0.23961	0.95697	0.18398
0.456	75.949	-26852	2364.2	-0.23912	0.95785	0.18261
0.458	75.938	-26851	2364.4	-0.23863	0.95872	0.18124
0.46	75.937	-26849	2364.6	-0.23814	0.9596	0.17988
0.462	75.943	-26852	2364.8	-0.23766	0.96048	0.17851
0.464	75.951	-26854	2365	-0.23717	0.96136	0.17714
0.466	75.959	-26851	2365.2	-0.2358	0.9599	0.17724
0.468	75.969	-26847	2365.4	-0.23444	0.95843	0.17734
0.47	75.975	-26845	2365.7	-0.23307	0.95697	0.17744
0.472	75.978	-26843	2365.9	-0.2317	0.9555	0.17753
0.474	75.981	-26842	2366.2	-0.23034	0.95404	0.17763
0.476	75.99	-26840	2366.5	-0.22936	0.95433	0.17724
0.478	76.003	-26840	2366.8	-0.22838	0.95463	0.17685
0.48	76.004	-26840	2367.2	-0.22741	0.95492	0.17646
0.482	75.999	-26840	2367.6	-0.22643	0.95521	0.17607
0.484	76	-26840	2368	-0.22546	0.9555	0.17568
0.486	76.004	-26837	2368.4	-0.22633	0.95511	0.17666
0.488	76.005	-26835	2368.9	-0.22721	0.95472	0.17763
0.49	76.008	-26826	2369.3	-0.22809	0.95433	0.17861
0.492	76.013	-26817	2369.8	-0.22897	0.95394	0.17958
0.494	76.014	-26825	2370.3	-0.22985	0.95355	0.18056
0.496	76.015	-26832	2370.7	-0.23102	0.95248	0.17871
0.498	76.017	-26827	2371.2	-0.23219	0.9514	0.17685
0.5	76.018	-26822	2371.7	-0.23336	0.95033	0.175
0.502	76.019	-26825	2372.1	-0.23453	0.94926	0.17314
0.504	76.019	-26828	2372.6	-0.2357	0.94818	0.17129
0.506	76.017	-26822	2373	-0.23658	0.94994	0.17295
0.508	76.013	-26816	2373.5	-0.23746	0.9517	0.17461
0.51	76.014	-26820	2373.9	-0.23834	0.95345	0.17627
0.512	76.016	-26823	2374.3	-0.23922	0.95521	0.17792
0.514	76.02	-26825	2374.7	-0.2401	0.95697	0.17958
0.516	76.019	-26827	2375	-0.23892	0.95687	0.17919
0.518	76.011	-26819	2375.4	-0.23775	0.95677	0.1788
0.52	76.011	-26811	2375.7	-0.23658	0.95668	0.17841
0.522	76.016	-26810	2376	-0.23541	0.95658	0.17802
0.524	76.015	-26810	2376.3	-0.23424	0.95648	0.17763
0.526	76.013	-26814	2376.5	-0.23463	0.95687	0.17695
0.528	76.024	-26817	2376.7	-0.23502	0.95726	0.17627
0.53	76.028	-26813	2376.8	-0.23541	0.95765	0.17558
0.532	76.024	-26808	2377	-0.2358	0.95804	0.1749
0.534	76.021	-26811	2377.1	-0.23619	0.95843	0.17422
0.536	76.027	-26813	2377.2	-0.23512	0.95746	0.1748
0.538	76.027	-26815	2377.3	-0.23404	0.95648	0.17539
0.54	76.025	-26818	2377.4	-0.23297	0.9555	0.17597
0.542	76.021	-26812	2377.4	-0.2319	0.95453	0.17656
0.544	76.023	-26805	2377.4	-0.23082	0.95355	0.17714
0.546	76.022	-26805	2377.4	-0.23141	0.95394	0.17753
0.548	76.018	-26805	2377.4	-0.232	0.95433	0.17792
0.55	76.013	-26804	2377.4	-0.23258	0.95472	0.17832
0.552	76.01	-26803	2377.3	-0.23317	0.95511	0.17871
0.554	76.004	-26803	2377.2	-0.23375	0.9555	0.1791
0.556	75.998	-26803	2377	-0.23356	0.9556	0.1788
0.558	75.998	-26803	2376.9	-0.23336	0.9557	0.17851
0.56	76.002	-26804	2376.7	-0.23317	0.9558	0.17822
0.562	76.002	-26801	2376.6	-0.23297	0.95589	0.17792
0.564	75.992	-26798	2376.5	-0.23278	0.95599	0.17763
0.566	75.988	-26799	2376.3	-0.23268	0.9557	0.17841
0.568	75.986	-26800	2376.1	-0.23258	0.95541	0.17919
0.57	75.981	-26799	2375.8	-0.23248	0.95511	0.17997
0.572	75.971	-26799	2375.6	-0.23239	0.95482	0.18076
0.574	75.964	-26796	2375.4	-0.23229	0.95453	0.18154
0.576	75.962	-26793	2375.3	-0.23326	0.9555	0.18124
0.578	75.961	-26793	2375.1	-0.23424	0.95648	0.18095
0.58	75.962	-26792	2374.9	-0.23522	0.95746	0.18066
0.582	75.962	-26794	2374.8	-0.23619	0.95843	0.18036
0.584	75.962	-26796	2374.6	-0.23717	0.95941	0.18007
0.586	75.965	-26799	2374.5	-0.23785	0.9597	0.18056
0.588	75.97	-26803	2374.4	-0.23853	0.95999	0.18105
0.59	75.977	-26802	2374.3	-0.23922	0.96029	0.18154
0.592	75.975	-26800	2374.3	-0.2399	0.96058	0.18202
0.594	75.962	-26800	2374.2	-0.24058	0.96087	0.18251
0.596	75.956	-26800	2374.1	-0.23971	0.96019	0.1828
0.598	75.957	-26805	2374	-0.23883	0.95951	0.1831
0.6	75.959	-26810	2373.9	-0.23795	0.95882	0.18339
0.602	75.964	-26805	2373.8	-0.23707	0.95814	0.18368
0.604	75.97	-26800	2373.7	-0.23619	0.95746	0.18398
0.606	75.971	-26802	2373.6	-0.2357	0.95746	0.18329
0.608	75.97	-26803	2373.6	-0.23522	0.95746	0.18261
0.61	75.974	-26804	2373.5	-0.23473	0.95746	0.18193
0.612	75.976	-26805	2373.3	-0.23424	0.95746	0.18124
0.614	75.975	-26801	2373.2	-0.23375	0.95746	0.18056
0.616	75.98	-26797	2373	-0.23404	0.95755	0.18085
0.618	75.982	-26797	2372.8	-0.23434	0.95765	0.18115
0.62	75.975	-26796	2372.7	-0.23463	0.95775	0.18144
0.622	75.975	-26803	2372.5	-0.23492	0.95785	0.18173
0.624	75.984	-26810	2372.4	-0.23522	0.95794	0.18202
0.626	75.989	-26808	2372.2	-0.23531	0.95765	0.1828
0.628	75.986	-26806	2371.9	-0.23541	0.95736	0.18359
0.63	75.983	-26810	2371.7	-0.23551	0.95707	0.18437
0.632	75.985	-26814	2371.5	-0.23561	0.95677	0.18515
0.634	75.992	-26821	2371.3	-0.2357	0.95648	0.18593
0.636	75.998	-26827	2371.1	-0.2359	0.95648	0.18583
0.638	75.998	-26814	2370.9	-0.23609	0.95648	0.18573
0.64	75.996	-26801	2370.6	-0.23629	0.95648	0.18564
0.642	75.995	-26805	2370.4	-0.23648	0.95648	0.18554
0.644	75.997	-26809	2370.1	-0.23668	0.95648	0.18544
0.646	76.001	-26810	2369.9	-0.23717	0.95677	0.18524
0.648	76.004	-26810	2369.6	-0.23766	0.95707	0.18505
0.65	76.007	-26812	2369.3	-0.23814	0.95736	0.18485
0.652	76.008	-26815	2369.1	-0.23863	0.95765	0.18466
0.654	76.01	-26820	2368.8	-0.23912	0.95794	0.18446
0.656	76.008	-26825	2368.5	-0.23892	0.95746	0.18437
0.658	76.004	-26825	2368.3	-0.23873	0.95697	0.18427
0.66	76.002	-26825	2368	-0.23853	0.95648	0.18417
0.662	76.002	-26821	2367.7	-0.23834	0.95599	0.18407
0.664	76.007	-26818	2367.4	-0.23814	0.9555	0.18398
0.666	76.012	-26820	2367.1	-0.23727	0.95511	0.18378
0.668	76.01	-26823	2366.7	-0.23639	0.95472	0.18359
0.67	76.002	-26821	2366.4	-0.23551	0.95433	0.18339
0.672	75.993	-26820	2366.1	-0.23463	0.95394	0.1832
0.674	75.986	-26823	2365.9	-0.23375	0.95355	0.183
0.676	75.988	-26826	2365.6	-0.23297	0.95433	0.18202
0.678	75.991	-26827	2365.3	-0.23219	0.95511	0.18105
0.68	75.985	-26828	2365.1	-0.23141	0.95589	0.18007
0.682	75.984	-26833	2364.9	-0.23063	0.95668	0.1791
0.684	75.984	-26838	2364.6	-0.22985	0.95746	0.17812
0.686	75.983	-26835	2364.4	-0.23102	0.95755	0.1791
0.688	75.985	-26832	2364.2	-0.23219	0.95765	0.18007
0.69	75.992	-26833	2364.1	-0.23336	0.95775	0.18105
0.692	75.991	-26833	2363.9	-0.23453	0.95785	0.18202
0.694	75.99	-26833	2363.8	-0.2357	0.95794	0.183
0.696	75.989	-26834	2363.7	-0.23385	0.95775	0.18212
0.698	75.99	-26835	2363.6	-0.232	0.95755	0.18124
0.7	75.99	-26837	2363.6	-0.23014	0.95736	0.18036
0.702	75.985	-26837	2363.6	-0.22829	0.95716	0.17949
0.704	75.982	-26838	2363.6	-0.22643	0.95697	0.17861
0.706	75.981	-26833	2363.6	-0.2279	0.95687	0.1789
0.708	75.986	-26829	2363.6	-0.22936	0.95677	0.17919
0.71	75.999	-26832	2363.7	-0.23082	0.95668	0.17949
0.712	76.004	-26835	2363.7	-0.23229	0.95658	0.17978
0.714	76.012	-26840	2363.7	-0.23375	0.95648	0.18007
0.716	76.019	-26845	2363.8	-0.23385	0.95648	0.17997
0.718	76.017	-26839	2363.9	-0.23395	0.95648	0.17988
0.72	76.01	-26833	2363.9	-0.23404	0.95648	0.17978
0.722	76.006	-26834	2364	-0.23414	0.95648	0.17968
0.724	75.996	-26835	2364.1	-0.23424	0.95648	0.17958
0.726	75.984	-26839	2364.2	-0.23356	0.95589	0.17929
0.728	75.987	-26842	2364.3	-0.23287	0.95531	0.179
0.73	75.996	-26837	2364.4	-0.23219	0.95472	0.17871
0.732	76.006	-26831	2364.5	-0.23151	0.95414	0.17841
0.734	76.015	-26831	2364.6	-0.23082	0.95355	0.17812
0.736	76.022	-26832	2364.7	-0.23063	0.95326	0.17802
0.738	76.027	-26836	2364.8	-0.23043	0.95297	0.17792
0.74	76.032	-26840	2364.9	-0.23024	0.95267	0.17783
0.742	76.037	-26836	2365.1	-0.23004	0.95238	0.17773
0.744	76.05	-26833	2365.2	-0.22985	0.95209	0.17763
0.746	76.067	-26835	2365.4	-0.22965	0.95228	0.17705
0.748	76.078	-26837	2365.5	-0.22946	0.95248	0.17646
0.75	76.083	-26842	2365.6	-0.22926	0.95267	0.17588
0.752	76.082	-26846	2365.8	-0.22907	0.95287	0.17529
0.754	76.078	-26849	2365.9	-0.22887	0.95306	0.1747
0.756	76.077	-26852	2366	-0.22897	0.95306	0.17519
0.758	76.079	-26854	2366.1	-0.22907	0.95306	0.17568
0.76	76.083	-26856	2366.2	-0.22916	0.95306	0.17617
0.762	76.087	-26854	2366.3	-0.22926	0.95306	0.17666
0.764	76.087	-26852	2366.3	-0.22936	0.95306	0.17714
0.766	76.087	-26846	2366.4	-0.22916	0.95306	0.17734
0.768	76.086	-26841	2366.5	-0.22897	0.95306	0.17753
0.77	76.083	-26841	2366.6	-0.22877	0.95306	0.17773
0.772	76.081	-26840	2366.6	-0.22858	0.95306	0.17792
0.774	76.077	-26838	2366.7	-0.22838	0.95306	0.17812
0.776	76.076	-26835	2366.7	-0.22956	0.95277	0.17724
0.778	76.074	-26837	2366.8	-0.23073	0.95248	0.17636
0.78	76.069	-26839	2366.8	-0.2319	0.95219	0.17548
0.782	76.067	-26836	2366.9	-0.23307	0.95189	0.17461
0.784	76.069	-26833	2367	-0.23424	0.9516	0.17373
0.786	76.07	-26833	2367	-0.23444	0.95228	0.17363
0.788	76.057	-26833	2367	-0.23463	0.95297	0.17353
0.79	76.053	-26841	2367	-0.23483	0.95365	0.17344
0.792	76.056	-26849	2367	-0.23502	0.95433	0.17334
0.794	76.064	-26845	2367	-0.23522	0.95502	0.17324
0.796	76.069	-26842	2367	-0.23453	0.95424	0.17324
0.798	76.076	-26839	2367	-0.23385	0.95345	0.17324
0.8	76.074	-26836	2367	-0.23317	0.95267	0.17324
0.802	76.058	-26846	2367	-0.23248	0.95189	0.17324
0.804	76.043	-26855	2366.9	-0.2318	0.95111	0.17324
0.806	76.046	-26849	2366.9	-0.232	0.95121	0.17314
0.808	76.065	-26844	2366.9	-0.23219	0.95131	0.17304
0.81	76.083	-26845	2366.9	-0.23239	0.9514	0.17295
0.812	76.091	-26847	2366.8	-0.23258	0.9515	0.17285
0.814	76.083	-26848	2366.8	-0.23278	0.9516	0.17275
0.816	76.069	-26849	2366.7	-0.23248	0.95189	0.17344
0.818	76.05	-26848	2366.6	-0.23219	0.95219	0.17412
0.82	76.029	-26847	2366.6	-0.2319	0.95248	0.1748
0.822	76.006	-26844	2366.5	-0.2316	0.95277	0.17548
0.824	75.976	-26842	2366.5	-0.23131	0.95306	0.17617
0.826	75.94	-26840	2366.4	-0.2317	0.95336	0.17705
0.828	75.903	-26839	2366.3	-0.23209	0.95365	0.17792
0.83	75.864	-26838	2366.2	-0.23248	0.95394	0.1788
0.832	75.826	-26838	2366.1	-0.23287	0.95424	0.17968
0.834	75.788	-26843	2366.1	-0.23326	0.95453	0.18056
0.836	75.75	-26849	2366	-0.23356	0.95521	0.17939
0.838	75.72	-26847	2365.9	-0.23385	0.95589	0.17822
0.84	75.698	-26845	2365.8	-0.23414	0.95658	0.17705
0.842	75.681	-26842	2365.7	-0.23444	0.95726	0.17588
0.844	75.676	-26840	2365.6	-0.23473	0.95794	0.1747
0.846	75.69	-26842	2365.5	-0.23473	0.95726	0.17568
0.848	75.72	-26844	2365.4	-0.23473	0.95658	0.17666
0.85	75.756	-26844	2365.3	-0.23473	0.95589	0.17763
0.852	75.774	-26843	2365.3	-0.23473	0.95521	0.17861
0.854	75.8	-26842	2365.2	-0.23473	0.95453	0.17958
0.856	75.844	-26841	2365	-0.23434	0.95433	0.1791
0.858	75.911	-26841	2364.9	-0.23395	0.95414	0.17861
0.86	75.986	-26840	2364.8	-0.23356	0.95394	0.17812
0.862	76.055	-26841	2364.7	-0.23317	0.95375	0.17763
0.864	76.097	-26841	2364.6	-0.23278	0.95355	0.17714
0.866	76.111	-26842	2364.4	-0.23385	0.95414	0.17832
0.868	76.11	-26842	2364.3	-0.23492	0.95472	0.17949
0.87	76.108	-26849	2364.1	-0.236	0.95531	0.18066
0.872	76.103	-26856	2364	-0.23707	0.95589	0.18183
0.874	76.092	-26860	2363.9	-0.23814	0.95648	0.183
0.876	76.076	-26865	2363.8	-0.23951	0.95589	0.183
0.878	76.065	-26863	2363.7	-0.24088	0.95531	0.183
0.88	76.056	-26861	2363.6	-0.24224	0.95472	0.183
0.882	76.048	-26858	2363.5	-0.24361	0.95414	0.183
0.884	76.035	-26855	2363.4	-0.24498	0.95355	0.183
0.886	76.024	-26856	2363.3	-0.24371	0.95375	0.18261
0.888	76.016	-26857	2363.2	-0.24244	0.95394	0.18222
0.89	76.009	-26855	2363.1	-0.24117	0.95414	0.18183
0.892	76.001	-26853	2362.9	-0.2399	0.95433	0.18144
0.894	75.99	-26855	2362.8	-0.23863	0.95453	0.18105
0.896	75.98	-26856	2362.7	-0.23971	0.95511	0.18163
0.898	75.975	-26855	2362.6	-0.24078	0.9557	0.18222
0.9	75.977	-26854	2362.4	-0.24185	0.95628	0.1828
0.902	75.984	-26852	2362.3	-0.24293	0.95687	0.18339
0.904	75.991	-26851	2362.2	-0.244	0.95746	0.18398
0.906	75.994	-26856	2362.1	-0.24361	0.95726	0.18388
0.908	75.993	-26860	2362	-0.24322	0.95707	0.18378
0.91	75.988	-26859	2361.9	-0.24283	0.95687	0.18368
0.912	75.979	-26858	2361.8	-0.24244	0.95668	0.18359
0.914	75.971	-26859	2361.6	-0.24205	0.95648	0.18349
0.916	75.967	-26859	2361.5	-0.24166	0.95609	0.18466
0.918	75.965	-26858	2361.4	-0.24127	0.9557	0.18583
0.92	75.963	-26858	2361.3	-0.24088	0.95531	0.187
0.922	75.958	-26858	2361.2	-0.24049	0.95492	0.18817
0.924	75.951	-26857	2361.1	-0.2401	0.95453	0.18934
0.926	75.945	-26857	2361.1	-0.24029	0.9557	0.18817
0.928	75.947	-26857	2361.1	-0.24049	0.95687	0.187
0.93	75.956	-26864	2361	-0.24068	0.95804	0.18583
0.932	75.963	-26871	2361	-0.24088	0.95921	0.18466
0.934	75.967	-26869	2361	-0.24107	0.96038	0.18349
0.936	75.966	-26868	2360.9	-0.24117	0.96029	0.18349
0.938	75.957	-26864	2360.9	-0.24127	0.96019	0.18349
0.94	75.952	-26860	2360.9	-0.24136	0.96009	0.18349
0.942	75.959	-26863	2360.9	-0.24146	0.95999	0.18349
0.944	75.965	-26867	2360.8	-0.24156	0.9599	0.18349
0.946	75.966	-26867	2360.9	-0.24039	0.96019	0.18105
0.948	75.964	-26866	2360.9	-0.23922	0.96048	0.17861
0.95	75.959	-26865	2360.8	-0.23805	0.96077	0.17617
0.952	75.956	-26864	2360.8	-0.23688	0.96107	0.17373
0.954	75.955	-26863	2360.7	-0.2357	0.96136	0.17129
0.956	75.957	-26862	2360.7	-0.23678	0.96165	0.17119
0.958	75.949	-26860	2360.7	-0.23785	0.96195	0.17109
0.96	75.949	-26858	2360.7	-0.23892	0.96224	0.171
0.962	75.949	-26857	2360.6	-0.24	0.96253	0.1709
0.964	75.941	-26856	2360.5	-0.24107	0.96282	0.1708
0.966	75.934	-26858	2360.5	-0.24127	0.96165	0.17109
0.968	75.925	-26861	2360.4	-0.24146	0.96048	0.17139
0.97	75.924	-26861	2360.3	-0.24166	0.95931	0.17168
0.972	75.922	-26861	2360.3	-0.24185	0.95814	0.17197
0.974	75.923	-26862	2360.2	-0.24205	0.95697	0.17226
0.976	75.924	-26862	2360.2	-0.24088	0.95726	0.17265
0.978	75.923	-26865	2360.1	-0.23971	0.95755	0.17304
0.98	75.92	-26869	2360.1	-0.23853	0.95785	0.17344
0.982	75.912	-26865	2360	-0.23736	0.95814	0.17383
0.984	75.905	-26861	2359.9	-0.23619	0.95843	0.17422
0.986	75.901	-26862	2359.9	-0.23531	0.95707	0.1748
0.988	75.9	-26862	2359.8	-0.23444	0.9557	0.17539
0.99	75.898	-26867	2359.7	-0.23356	0.95433	0.17597
0.992	75.891	-26871	2359.7	-0.23268	0.95297	0.17656
0.994	75.887	-26871	2359.6	-0.2318	0.9516	0.17714
0.996	75.883	-26871	2359.5	-0.23209	0.9518	0.17675
0.998	75.877	-26868	2359.4	-0.23239	0.95199	0.17636
1	75.873	-26865	2359.4	-0.23268	0.95219	0.17597
1.002	75.871	-26874	2359.2	-0.23297	0.95238	0.17558
1.004	75.869	-26882	2359.1	-0.23326	0.95258	0.17519
1.006	75.866	-26879	2359	-0.23346	0.95297	0.17588
1.008	75.864	-26875	2358.9	-0.23365	0.95336	0.17656
1.01	75.863	-26875	2358.8	-0.23385	0.95375	0.17724
1.012	75.864	-26875	2358.6	-0.23404	0.95414	0.17792
1.014	75.865	-26877	2358.5	-0.23424	0.95453	0.17861
1.016	75.867	-26878	2358.4	-0.23434	0.95404	0.17851
1.018	75.865	-26875	2358.2	-0.23444	0.95355	0.17841
1.02	75.865	-26871	2358.1	-0.23453	0.95306	0.17832
1.022	75.868	-26876	2358	-0.23463	0.95258	0.17822
1.024	75.876	-26882	2357.9	-0.23473	0.95209	0.17812
1.026	75.883	-26885	2357.8	-0.23502	0.95306	0.17871
1.028	75.882	-26888	2357.7	-0.23531	0.95404	0.17929
1.03	75.877	-26889	2357.7	-0.23561	0.95502	0.17988
1.032	75.877	-26890	2357.6	-0.2359	0.95599	0.18046
1.034	75.876	-26884	2357.6	-0.23619	0.95697	0.18105
1.036	75.877	-26879	2357.5	-0.23717	0.95668	0.18154
1.038	75.87	-26879	2357.5	-0.23814	0.95638	0.18202
1.04	75.857	-26879	2357.5	-0.23912	0.95609	0.18251
1.042	75.854	-26877	2357.6	-0.2401	0.9558	0.183
1.044	75.864	-26874	2357.6	-0.24107	0.9555	0.18349
1.046	75.868	-26876	2357.7	-0.24136	0.95511	0.18339
1.048	75.863	-26879	2357.9	-0.24166	0.95472	0.18329
1.05	75.865	-26880	2358	-0.24195	0.95433	0.1832
1.052	75.862	-26882	2358.1	-0.24224	0.95394	0.1831
1.054	75.859	-26877	2358.2	-0.24254	0.95355	0.183
1.056	75.858	-26873	2358.4	-0.24234	0.95424	0.183
1.058	75.858	-26878	2358.6	-0.24215	0.95492	0.183
1.06	75.864	-26883	2358.8	-0.24195	0.9556	0.183
1.062	75.866	-26880	2359	-0.24176	0.95628	0.183
1.064	75.865	-26877	2359.1	-0.24156	0.95697	0.183
1.066	75.867	-26880	2359.4	-0.24058	0.95638	0.18251
1.068	75.867	-26884	2359.6	-0.23961	0.9558	0.18202
1.07	75.863	-26880	2359.9	-0.23863	0.95521	0.18154
1.072	75.864	-26875	2360.2	-0.23766	0.95463	0.18105
1.074	75.867	-26875	2360.5	-0.23668	0.95404	0.18056
1.076	75.87	-26875	2360.9	-0.23688	0.95463	0.18056
1.078	75.875	-26870	2361.3	-0.23707	0.95521	0.18056
1.08	75.883	-26865	2361.7	-0.23727	0.9558	0.18056
1.082	75.889	-26871	2362.1	-0.23746	0.95638	0.18056
1.084	75.889	-26877	2362.6	-0.23766	0.95697	0.18056
1.086	75.889	-26876	2363.1	-0.23746	0.95716	0.17988
1.088	75.891	-26875	2363.6	-0.23727	0.95736	0.17919
1.09	75.895	-26871	2364.2	-0.23707	0.95755	0.17851
1.092	75.901	-26868	2364.7	-0.23688	0.95775	0.17783
1.094	75.903	-26870	2365.2	-0.23668	0.95794	0.17714
1.096	75.904	-26871	2365.9	-0.23707	0.95736	0.17753
1.098	75.907	-26869	2366.5	-0.23746	0.95677	0.17792
1.1	75.915	-26866	2367.1	-0.23785	0.95619	0.17832
1.102	75.922	-26867	2367.7	-0.23824	0.9556	0.17871
1.104	75.928	-26867	2368.3	-0.23863	0.95502	0.1791
1.106	75.927	-26862	2368.8	-0.23824	0.95453	0.17792
1.108	75.925	-26857	2369.4	-0.23785	0.95404	0.17675
1.11	75.933	-26864	2369.9	-0.23746	0.95355	0.17558
1.112	75.939	-26871	2370.4	-0.23707	0.95306	0.17441
1.114	75.944	-26865	2370.9	-0.23668	0.95258	0.17324
1.116	75.957	-26858	2371.3	-0.23756	0.95365	0.17392
1.118	75.97	-26855	2371.7	-0.23844	0.95472	0.17461
1.12	75.98	-26853	2372.2	-0.23932	0.9558	0.17529
1.122	75.987	-26846	2372.6	-0.24019	0.95687	0.17597
1.124	75.984	-26839	2373	-0.24107	0.95794	0.17666
1.126	75.987	-26836	2373.3	-0.24	0.95794	0.17675
1.128	75.984	-26834	2373.6	-0.23892	0.95794	0.17685
1.13	75.976	-26842	2373.9	-0.23785	0.95794	0.17695
1.132	75.978	-26851	2374.1	-0.23678	0.95794	0.17705
1.134	75.985	-26850	2374.4	-0.2357	0.95794	0.17714
1.136	75.987	-26850	2374.6	-0.23717	0.95824	0.17627
1.138	75.997	-26848	2374.7	-0.23863	0.95853	0.17539
1.14	76.004	-26846	2374.8	-0.2401	0.95882	0.17451
1.142	76.006	-26841	2375	-0.24156	0.95912	0.17363
1.144	76.006	-26836	2375.1	-0.24302	0.95941	0.17275
1.146	75.997	-26832	2375.1	-0.24322	0.95853	0.17412
1.148	75.99	-26827	2375.1	-0.24341	0.95765	0.17548
1.15	75.987	-26827	2375.1	-0.24361	0.95677	0.17685
1.152	75.985	-26828	2375.2	-0.2438	0.95589	0.17822
1.154	75.992	-26833	2375.2	-0.244	0.95502	0.17958
1.156	75.997	-26837	2375.2	-0.24322	0.9557	0.17919
1.158	75.993	-26832	2375.1	-0.24244	0.95638	0.1788
1.16	75.984	-26826	2375	-0.24166	0.95707	0.17841
1.162	75.98	-26823	2374.9	-0.24088	0.95775	0.17802
1.164	75.979	-26821	2374.8	-0.2401	0.95843	0.17763
1.166	75.978	-26821	2374.7	-0.23961	0.95912	0.17675
1.168	75.974	-26821	2374.5	-0.23912	0.9598	0.17588
1.17	75.971	-26823	2374.3	-0.23863	0.96048	0.175
1.172	75.968	-26826	2374.1	-0.23814	0.96116	0.17412
1.174	75.965	-26825	2374	-0.23766	0.96185	0.17324
1.176	75.964	-26824	2373.8	-0.23746	0.96107	0.17353
1.178	75.964	-26823	2373.6	-0.23727	0.96029	0.17383
1.18	75.962	-26822	2373.3	-0.23707	0.95951	0.17412
1.182	75.961	-26822	2373.1	-0.23688	0.95872	0.17441
1.184	75.959	-26821	2372.9	-0.23668	0.95794	0.1747
1.186	75.96	-26819	2372.6	-0.23629	0.95785	0.17568
1.188	75.965	-26816	2372.4	-0.2359	0.95775	0.17666
1.19	75.966	-26813	2372.1	-0.23551	0.95765	0.17763
1.192	75.963	-26811	2371.9	-0.23512	0.95755	0.17861
1.194	75.96	-26814	2371.6	-0.23473	0.95746	0.17958
1.196	75.957	-26818	2371.4	-0.23551	0.95785	0.179
1.198	75.956	-26812	2371.2	-0.23629	0.95824	0.17841
1.2	75.958	-26806	2370.9	-0.23707	0.95863	0.17783
1.202	75.955	-26816	2370.7	-0.23785	0.95902	0.17724
1.204	75.946	-26825	2370.5	-0.23863	0.95941	0.17666
1.206	75.938	-26826	2370.2	-0.23863	0.95931	0.17714
1.208	75.933	-26826	2370	-0.23863	0.95921	0.17763
1.21	75.937	-26822	2369.8	-0.23863	0.95912	0.17812
1.212	75.944	-26819	2369.6	-0.23863	0.95902	0.17861
1.214	75.955	-26816	2369.4	-0.23863	0.95892	0.1791
1.216	75.956	-26814	2369.1	-0.24	0.95794	0.17939
1.218	75.959	-26822	2368.9	-0.24136	0.95697	0.17968
1.22	75.969	-26831	2368.6	-0.24273	0.95599	0.17997
1.222	75.977	-26824	2368.4	-0.2441	0.95502	0.18027
1.224	75.98	-26817	2368.1	-0.24546	0.95404	0.18056
1.226	75.968	-26821	2367.9	-0.24595	0.95355	0.18076
1.228	75.957	-26826	2367.7	-0.24644	0.95306	0.18095
1.23	75.952	-26827	2367.4	-0.24693	0.95258	0.18115
1.232	75.952	-26828	2367.2	-0.24742	0.95209	0.18134
1.234	75.954	-26831	2367	-0.2479	0.9516	0.18154
1.236	75.953	-26833	2366.9	-0.24732	0.95209	0.18193
1.238	75.951	-26833	2366.7	-0.24673	0.95258	0.18232
1.24	75.949	-26833	2366.6	-0.24615	0.95306	0.18271
1.242	75.952	-26832	2366.4	-0.24556	0.95355	0.1831
1.244	75.96	-26830	2366.2	-0.24498	0.95404	0.18349
1.246	75.966	-26832	2366	-0.2438	0.95472	0.18251
1.248	75.966	-26834	2365.8	-0.24263	0.95541	0.18154
1.25	75.963	-26835	2365.6	-0.24146	0.95609	0.18056
1.252	75.962	-26836	2365.5	-0.24029	0.95677	0.17958
1.254	75.964	-26831	2365.3	-0.23912	0.95746	0.17861
1.256	75.967	-26825	2365.2	-0.23824	0.95765	0.17832
1.258	75.97	-26830	2365	-0.23736	0.95785	0.17802
1.26	75.969	-26836	2364.9	-0.23648	0.95804	0.17773
1.262	75.967	-26836	2364.8	-0.23561	0.95824	0.17744
1.264	75.97	-26836	2364.6	-0.23473	0.95843	0.17714
1.266	75.976	-26842	2364.5	-0.2359	0.95775	0.17851
1.268	75.976	-26849	2364.3	-0.23707	0.95707	0.17988
1.27	75.97	-26843	2364.2	-0.23824	0.95638	0.18124
1.272	75.968	-26837	2364.2	-0.23941	0.9557	0.18261
1.274	75.968	-26836	2364.1	-0.24058	0.95502	0.18398
1.276	75.969	-26835	2364	-0.23961	0.95502	0.18339
1.278	75.971	-26836	2363.9	-0.23863	0.95502	0.1828
1.28	75.974	-26837	2363.9	-0.23766	0.95502	0.18222
1.282	75.97	-26838	2363.8	-0.23668	0.95502	0.18163
1.284	75.958	-26839	2363.7	-0.2357	0.95502	0.18105
1.286	75.95	-26839	2363.6	-0.23512	0.95492	0.18105
1.288	75.948	-26838	2363.6	-0.23453	0.95482	0.18105
1.29	75.941	-26842	2363.5	-0.23395	0.95472	0.18105
1.292	75.94	-26846	2363.5	-0.23336	0.95463	0.18105
1.294	75.941	-26844	2363.5	-0.23278	0.95453	0.18105
1.296	75.938	-26841	2363.4	-0.23278	0.95472	0.18036
1.298	75.934	-26843	2363.4	-0.23278	0.95492	0.17968
1.3	75.934	-26846	2363.4	-0.23278	0.95511	0.179
1.302	75.937	-26849	2363.4	-0.23278	0.95531	0.17832
1.304	75.928	-26852	2363.3	-0.23278	0.9555	0.17763
1.306	75.92	-26851	2363.4	-0.23239	0.95492	0.17744
1.308	75.928	-26850	2363.4	-0.232	0.95433	0.17724
1.31	75.934	-26851	2363.4	-0.2316	0.95375	0.17705
1.312	75.936	-26851	2363.5	-0.23121	0.95316	0.17685
1.314	75.94	-26847	2363.5	-0.23082	0.95258	0.17666
1.316	75.944	-26842	2363.6	-0.23082	0.95267	0.17695
1.318	75.945	-26845	2363.7	-0.23082	0.95277	0.17724
1.32	75.941	-26848	2363.7	-0.23082	0.95287	0.17753
1.322	75.938	-26847	2363.9	-0.23082	0.95297	0.17783
1.324	75.941	-26845	2364	-0.23082	0.95306	0.17812
1.326	75.946	-26851	2364.1	-0.23287	0.95424	0.17832
1.328	75.948	-26857	2364.3	-0.23492	0.95541	0.17851
1.33	75.949	-26852	2364.4	-0.23697	0.95658	0.17871
1.332	75.947	-26846	2364.6	-0.23902	0.95775	0.1789
1.334	75.941	-26846	2364.7	-0.24107	0.95892	0.1791
1.336	75.931	-26846	2364.9	-0.24117	0.95921	0.17802
1.338	75.92	-26846	2365	-0.24127	0.95951	0.17695
1.34	75.912	-26846	2365.2	-0.24136	0.9598	0.17588
1.342	75.909	-26847	2365.3	-0.24146	0.96009	0.1748
1.344	75.91	-26849	2365.5	-0.24156	0.96038	0.17373
1.346	75.916	-26848	2365.7	-0.24117	0.96146	0.17373
1.348	75.927	-26846	2365.9	-0.24078	0.96253	0.17373
1.35	75.939	-26844	2366.2	-0.24039	0.9636	0.17373
1.352	75.947	-26841	2366.4	-0.24	0.96468	0.17373
1.354	75.953	-26844	2366.6	-0.23961	0.96575	0.17373
1.356	75.961	-26847	2366.8	-0.23922	0.96507	0.17373
1.358	75.971	-26844	2367	-0.23883	0.96439	0.17373
1.36	75.985	-26842	2367.2	-0.23844	0.9637	0.17373
1.362	75.992	-26846	2367.3	-0.23805	0.96302	0.17373
1.364	75.991	-26851	2367.5	-0.23766	0.96234	0.17373
1.366	75.989	-26848	2367.7	-0.23844	0.96253	0.17295
1.368	75.988	-26844	2367.9	-0.23922	0.96273	0.17217
1.37	75.987	-26848	2368.1	-0.24	0.96292	0.17139
1.372	75.991	-26852	2368.2	-0.24078	0.96312	0.1706
1.374	75.991	-26851	2368.3	-0.24156	0.96331	0.16982
1.376	75.99	-26849	2368.5	-0.24088	0.96302	0.17051
1.378	75.997	-26842	2368.7	-0.24019	0.96273	0.17119
1.38	75.991	-26834	2368.8	-0.23951	0.96243	0.17187
1.382	75.987	-26839	2368.8	-0.23883	0.96214	0.17256
1.384	75.989	-26844	2368.9	-0.23814	0.96185	0.17324
1.386	75.988	-26847	2369	-0.23697	0.9598	0.17402
1.388	75.984	-26851	2369	-0.2358	0.95775	0.1748
1.39	75.984	-26844	2369.1	-0.23463	0.9557	0.17558
1.392	75.989	-26838	2369.1	-0.23346	0.95365	0.17636
1.394	75.986	-26842	2369.2	-0.23229	0.9516	0.17714
1.396	75.982	-26846	2369.2	-0.23297	0.9517	0.17627
1.398	75.995	-26847	2369.2	-0.23365	0.9518	0.17539
1.4	76.008	-26848	2369.2	-0.23434	0.95189	0.17451
1.402	76.012	-26842	2369.2	-0.23502	0.95199	0.17363
1.404	76.003	-26835	2369.1	-0.2357	0.95209	0.17275
1.406	75.998	-26837	2369.1	-0.23541	0.95219	0.17383
1.408	75.997	-26839	2369.1	-0.23512	0.95228	0.1749
1.41	76	-26841	2369	-0.23483	0.95238	0.17597
1.412	76.001	-26843	2368.9	-0.23453	0.95248	0.17705
1.414	76.004	-26845	2368.8	-0.23424	0.95258	0.17812
1.416	76.01	-26847	2368.8	-0.23414	0.9518	0.17724
1.418	76.01	-26842	2368.7	-0.23404	0.95101	0.17636
1.42	76.004	-26837	2368.6	-0.23395	0.95023	0.17548
1.422	76.006	-26839	2368.6	-0.23385	0.94945	0.17461
1.424	76.015	-26841	2368.5	-0.23375	0.94867	0.17373
1.426	76.023	-26841	2368.4	-0.23356	0.94906	0.17431
1.428	76.024	-26841	2368.3	-0.23336	0.94945	0.1749
1.43	76.02	-26844	2368.2	-0.23317	0.94984	0.17548
1.432	76.012	-26846	2368	-0.23297	0.95023	0.17607
1.434	75.99	-26844	2367.9	-0.23278	0.95062	0.17666
1.436	75.958	-26841	2367.8	-0.23268	0.95053	0.17675
1.438	75.927	-26835	2367.7	-0.23258	0.95043	0.17685
1.44	75.898	-26828	2367.7	-0.23248	0.95033	0.17695
1.442	75.862	-26832	2367.5	-0.23239	0.95023	0.17705
1.444	75.82	-26835	2367.4	-0.23229	0.95014	0.17714
1.446	75.783	-26837	2367.3	-0.23229	0.95014	0.17675
1.448	75.748	-26838	2367.2	-0.23229	0.95014	0.17636
1.45	75.719	-26841	2367.1	-0.23229	0.95014	0.17597
1.452	75.695	-26845	2367	-0.23229	0.95014	0.17558
1.454	75.68	-26847	2367	-0.23229	0.95014	0.17519
1.456	75.673	-26849	2366.9	-0.23473	0.95111	0.17705
1.458	75.669	-26846	2366.8	-0.23717	0.95209	0.1789
1.46	75.679	-26844	2366.7	-0.23961	0.95306	0.18076
1.462	75.703	-26846	2366.6	-0.24205	0.95404	0.18261
1.464	75.728	-26848	2366.5	-0.24449	0.95502	0.18446
1.466	75.755	-26848	2366.4	-0.24439	0.95502	0.18417
1.468	75.806	-26847	2366.3	-0.24429	0.95502	0.18388
1.47	75.876	-26848	2366.2	-0.2442	0.95502	0.18359
1.472	75.962	-26849	2366.2	-0.2441	0.95502	0.18329
1.474	76.028	-26849	2366.2	-0.244	0.95502	0.183
1.476	76.073	-26848	2366.1	-0.24293	0.9556	0.18193
1.478	76.096	-26846	2366	-0.24185	0.95619	0.18085
1.48	76.119	-26843	2365.9	-0.24078	0.95677	0.17978
1.482	76.129	-26846	2365.8	-0.23971	0.95736	0.17871
1.484	76.115	-26849	2365.8	-0.23863	0.95794	0.17763
1.486	76.1	-26850	2365.7	-0.23795	0.95755	0.17861
1.488	76.078	-26852	2365.6	-0.23727	0.95716	0.17958
1.49	76.065	-26849	2365.5	-0.23658	0.95677	0.18056
1.492	76.053	-26847	2365.5	-0.2359	0.95638	0.18154
1.494	76.044	-26843	2365.4	-0.23522	0.95599	0.18251
1.496	76.034	-26839	2365.3	-0.23434	0.9558	0.18193
1.498	76.018	-26842	2365.2	-0.23346	0.9556	0.18134
1.5	76.005	-26846	2365.1	-0.23258	0.95541	0.18076
1.502	76.002	-26849	2365.1	-0.2317	0.95521	0.18017
1.504	76.002	-26851	2365.1	-0.23082	0.95502	0.17958
1.506	76.003	-26851	2364.9	-0.23121	0.95531	0.17978
1.508	76.005	-26851	2364.8	-0.2316	0.9556	0.17997
1.51	76.007	-26854	2364.7	-0.232	0.95589	0.18017
1.512	76.005	-26858	2364.6	-0.23239	0.95619	0.18036
1.514	76.002	-26858	2364.6	-0.23278	0.95648	0.18056
1.516	75.998	-26858	2364.5	-0.23336	0.95648	0.18076
1.518	75.991	-26859	2364.4	-0.23395	0.95648	0.18095
1.52	75.983	-26859	2364.3	-0.23453	0.95648	0.18115
1.522	75.976	-26857	2364.2	-0.23512	0.95648	0.18134
1.524	75.972	-26855	2364	-0.2357	0.95648	0.18154
1.526	75.969	-26852	2363.9	-0.2357	0.95668	0.18144
1.528	75.971	-26850	2363.8	-0.2357	0.95687	0.18134
1.53	75.979	-26854	2363.7	-0.2357	0.95707	0.18124
1.532	75.983	-26858	2363.6	-0.2357	0.95726	0.18115
1.534	75.978	-26858	2363.5	-0.2357	0.95746	0.18105
1.536	75.972	-26859	2363.4	-0.2358	0.95775	0.18066
1.538	75.967	-26858	2363.3	-0.2359	0.95804	0.18027
1.54	75.962	-26857	2363.2	-0.236	0.95833	0.17988
1.542	75.965	-26859	2363.2	-0.23609	0.95863	0.17949
1.544	75.964	-26861	2363.1	-0.23619	0.95892	0.1791
1.546	75.965	-26858	2363	-0.23531	0.95755	0.1791
1.548	75.966	-26855	2362.9	-0.23444	0.95619	0.1791
1.55	75.962	-26852	2362.9	-0.23356	0.95482	0.1791
1.552	75.962	-26849	2362.8	-0.23268	0.95345	0.1791
1.554	75.958	-26853	2362.8	-0.2318	0.95209	0.1791
1.556	75.959	-26857	2362.7	-0.2318	0.95228	0.1788
1.558	75.953	-26859	2362.7	-0.2318	0.95248	0.17851
1.56	75.947	-26861	2362.7	-0.2318	0.95267	0.17822
1.562	75.931	-26860	2362.6	-0.2318	0.95287	0.17792
1.564	75.923	-26858	2362.6	-0.2318	0.95306	0.17763
1.566	75.92	-26857	2362.6	-0.2318	0.95316	0.17685
1.568	75.924	-26855	2362.6	-0.2318	0.95326	0.17607
1.57	75.932	-26859	2362.5	-0.2318	0.95336	0.17529
1.572	75.93	-26863	2362.5	-0.2318	0.95345	0.17451
1.574	75.921	-26862	2362.5	-0.2318	0.95355	0.17373
1.576	75.916	-26861	2362.4	-0.23131	0.95345	0.17431
1.578	75.913	-26857	2362.4	-0.23082	0.95336	0.1749
1.58	75.914	-26853	2362.4	-0.23034	0.95326	0.17548
1.582	75.919	-26858	2362.3	-0.22985	0.95316	0.17607
1.584	75.921	-26862	2362.3	-0.22936	0.95306	0.17666
1.586	75.917	-26864	2362.3	-0.22897	0.95404	0.17656
1.588	75.913	-26866	2362.3	-0.22858	0.95502	0.17646
1.59	75.909	-26864	2362.3	-0.22819	0.95599	0.17636
1.592	75.904	-26861	2362.2	-0.2278	0.95697	0.17627
1.594	75.901	-26862	2362.1	-0.22741	0.95794	0.17617
1.596	75.901	-26862	2362.2	-0.22848	0.95746	0.17675
1.598	75.9	-26866	2362.2	-0.22956	0.95697	0.17734
1.6	75.898	-26869	2362.1	-0.23063	0.95648	0.17792
1.602	75.901	-26871	2362.1	-0.2317	0.95599	0.17851
1.604	75.9	-26872	2362.1	-0.23278	0.9555	0.1791
1.606	75.89	-26868	2362	-0.23229	0.9556	0.17871
1.608	75.883	-26864	2361.9	-0.2318	0.9557	0.17832
1.61	75.877	-26865	2361.9	-0.23131	0.9558	0.17792
1.612	75.869	-26865	2361.8	-0.23082	0.95589	0.17753
1.614	75.865	-26866	2361.7	-0.23034	0.95599	0.17714
1.616	75.862	-26867	2361.6	-0.23209	0.95638	0.17753
1.618	75.863	-26870	2361.5	-0.23385	0.95677	0.17792
1.62	75.868	-26872	2361.4	-0.23561	0.95716	0.17832
1.622	75.86	-26876	2361.3	-0.23736	0.95755	0.17871
1.624	75.849	-26880	2361.2	-0.23912	0.95794	0.1791
1.626	75.843	-26875	2361.1	-0.23766	0.95628	0.17861
1.628	75.84	-26871	2361	-0.23619	0.95463	0.17812
1.63	75.838	-26869	2360.9	-0.23473	0.95297	0.17763
1.632	75.838	-26867	2360.8	-0.23326	0.95131	0.17714
1.634	75.842	-26864	2360.6	-0.2318	0.94965	0.17666
1.636	75.836	-26861	2360.6	-0.23151	0.94945	0.17607
1.638	75.834	-26865	2360.5	-0.23121	0.94926	0.17548
1.64	75.839	-26869	2360.4	-0.23092	0.94906	0.1749
1.642	75.844	-26865	2360.4	-0.23063	0.94887	0.17431
1.644	75.839	-26862	2360.4	-0.23034	0.94867	0.17373
1.646	75.833	-26870	2360.5	-0.23063	0.94857	0.17373
1.648	75.84	-26878	2360.5	-0.23092	0.94848	0.17373
1.65	75.849	-26876	2360.6	-0.23121	0.94838	0.17373
1.652	75.847	-26875	2360.7	-0.23151	0.94828	0.17373
1.654	75.846	-26869	2360.9	-0.2318	0.94818	0.17373
1.656	75.847	-26863	2361	-0.23229	0.94916	0.17441
1.658	75.853	-26871	2361.1	-0.23278	0.95014	0.17509
1.66	75.859	-26879	2361.3	-0.23326	0.95111	0.17578
1.662	75.863	-26876	2361.4	-0.23375	0.95209	0.17646
1.664	75.868	-26874	2361.6	-0.23424	0.95306	0.17714
1.666	75.869	-26871	2361.8	-0.23541	0.95365	0.17812
1.668	75.867	-26868	2362.1	-0.23658	0.95424	0.1791
1.67	75.863	-26872	2362.3	-0.23775	0.95482	0.18007
1.672	75.858	-26876	2362.6	-0.23892	0.95541	0.18105
1.674	75.855	-26880	2362.8	-0.2401	0.95599	0.18202
1.676	75.851	-26883	2363.1	-0.23932	0.95648	0.18124
1.678	75.849	-26884	2363.5	-0.23853	0.95697	0.18046
1.68	75.855	-26884	2363.9	-0.23775	0.95746	0.17968
1.682	75.873	-26881	2364.2	-0.23697	0.95794	0.1789
1.684	75.892	-26878	2364.6	-0.23619	0.95843	0.17812
1.686	75.895	-26871	2365.1	-0.23717	0.95824	0.17861
1.688	75.887	-26863	2365.6	-0.23814	0.95804	0.1791
1.69	75.882	-26871	2366	-0.23912	0.95785	0.17958
1.692	75.885	-26878	2366.6	-0.2401	0.95765	0.18007
1.694	75.897	-26872	2367.1	-0.24107	0.95746	0.18056
1.696	75.906	-26865	2367.7	-0.24019	0.95726	0.18017
1.698	75.903	-26865	2368.3	-0.23932	0.95707	0.17978
1.7	75.903	-26865	2368.9	-0.23844	0.95687	0.17939
1.702	75.91	-26856	2369.5	-0.23756	0.95668	0.179
1.704	75.911	-26846	2370.1	-0.23668	0.95648	0.17861
1.706	75.904	-26854	2370.7	-0.23609	0.95658	0.17871
1.708	75.908	-26862	2371.3	-0.23551	0.95668	0.1788
1.71	75.915	-26854	2371.9	-0.23492	0.95677	0.1789
1.712	75.926	-26846	2372.6	-0.23434	0.95687	0.179
1.714	75.932	-26848	2373.2	-0.23375	0.95697	0.1791
1.716	75.924	-26850	2373.8	-0.23473	0.95707	0.1788
1.718	75.924	-26848	2374.3	-0.2357	0.95716	0.17851
1.72	75.923	-26847	2374.8	-0.23668	0.95726	0.17822
1.722	75.923	-26848	2375.3	-0.23766	0.95736	0.17792
1.724	75.923	-26849	2375.7	-0.23863	0.95746	0.17763
1.726	75.926	-26849	2376.2	-0.23941	0.95707	0.17773
1.728	75.931	-26849	2376.6	-0.24019	0.95668	0.17783
1.73	75.931	-26841	2377	-0.24097	0.95628	0.17792
1.732	75.932	-26834	2377.3	-0.24176	0.95589	0.17802
1.734	75.933	-26830	2377.6	-0.24254	0.9555	0.17812
1.736	75.932	-26826	2377.9	-0.24263	0.9555	0.17822
1.738	75.927	-26827	2378.1	-0.24273	0.9555	0.17832
1.74	75.924	-26827	2378.3	-0.24283	0.9555	0.17841
1.742	75.925	-26828	2378.5	-0.24293	0.9555	0.17851
1.744	75.929	-26829	2378.6	-0.24302	0.9555	0.17861
1.746	75.934	-26827	2378.7	-0.24332	0.95502	0.17841
1.748	75.934	-26825	2378.8	-0.24361	0.95453	0.17822
1.75	75.928	-26817	2378.9	-0.2439	0.95404	0.17802
1.752	75.927	-26809	2378.9	-0.2442	0.95355	0.17783
1.754	75.926	-26814	2378.8	-0.24449	0.95306	0.17763
1.756	75.926	-26820	2378.8	-0.24341	0.95414	0.17714
1.758	75.93	-26816	2378.7	-0.24234	0.95521	0.17666
1.76	75.938	-26811	2378.6	-0.24127	0.95628	0.17617
1.762	75.943	-26804	2378.5	-0.24019	0.95736	0.17568
1.764	75.947	-26796	2378.4	-0.23912	0.95843	0.17519
1.766	75.95	-26801	2378.2	-0.23971	0.95863	0.175
1.768	75.95	-26805	2378	-0.24029	0.95882	0.1748
1.77	75.947	-26806	2377.8	-0.24088	0.95902	0.17461
1.772	75.945	-26806	2377.6	-0.24146	0.95921	0.17441
1.774	75.945	-26801	2377.4	-0.24205	0.95941	0.17422
1.776	75.947	-26796	2377.2	-0.24078	0.95951	0.17383
1.778	75.949	-26798	2376.9	-0.23951	0.9596	0.17344
1.78	75.951	-26800	2376.7	-0.23824	0.9597	0.17304
1.782	75.957	-26798	2376.4	-0.23697	0.9598	0.17265
1.784	75.965	-26795	2376.1	-0.2357	0.9599	0.17226
1.786	75.962	-26796	2375.8	-0.23463	0.95843	0.17363
1.788	75.956	-26797	2375.5	-0.23356	0.95697	0.175
1.79	75.958	-26803	2375.2	-0.23248	0.9555	0.17636
1.792	75.962	-26810	2374.9	-0.23141	0.95404	0.17773
1.794	75.964	-26808	2374.6	-0.23034	0.95258	0.1791
1.796	75.967	-26806	2374.2	-0.23053	0.95189	0.17812
1.798	75.967	-26800	2373.9	-0.23073	0.95121	0.17714
1.8	75.959	-26793	2373.6	-0.23092	0.95053	0.17617
1.802	75.954	-26797	2373.2	-0.23112	0.94984	0.17519
1.804	75.947	-26802	2372.9	-0.23131	0.94916	0.17422
1.806	75.948	-26802	2372.6	-0.23121	0.94936	0.17412
1.808	75.948	-26803	2372.3	-0.23112	0.94955	0.17402
1.81	75.947	-26798	2372	-0.23102	0.94975	0.17392
1.812	75.946	-26794	2371.7	-0.23092	0.94994	0.17383
1.814	75.945	-26804	2371.4	-0.23082	0.95014	0.17373
1.816	75.941	-26814	2371.2	-0.23073	0.95072	0.17451
1.818	75.939	-26809	2371	-0.23063	0.95131	0.17529
1.82	75.941	-26803	2370.7	-0.23053	0.95189	0.17607
1.822	75.941	-26805	2370.4	-0.23043	0.95248	0.17685
1.824	75.937	-26807	2370.1	-0.23034	0.95306	0.17763
1.826	75.933	-26806	2369.9	-0.23024	0.95297	0.17734
1.828	75.93	-26805	2369.7	-0.23014	0.95287	0.17705
1.83	75.931	-26811	2369.5	-0.23004	0.95277	0.17675
1.832	75.935	-26817	2369.3	-0.22995	0.95267	0.17646
1.834	75.933	-26811	2369	-0.22985	0.95258	0.17617
1.836	75.931	-26806	2368.8	-0.23004	0.95258	0.17627
1.838	75.93	-26806	2368.5	-0.23024	0.95258	0.17636
1.84	75.928	-26805	2368.3	-0.23043	0.95258	0.17646
1.842	75.926	-26802	2368.1	-0.23063	0.95258	0.17656
1.844	75.925	-26799	2367.9	-0.23082	0.95258	0.17666
1.846	75.928	-26802	2367.7	-0.23112	0.95209	0.17656
1.848	75.929	-26806	2367.4	-0.23141	0.9516	0.17646
1.85	75.924	-26807	2367.2	-0.2317	0.95111	0.17636
1.852	75.917	-26809	2367	-0.232	0.95062	0.17627
1.854	75.915	-26811	2366.9	-0.23229	0.95014	0.17617
1.856	75.919	-26814	2366.7	-0.23239	0.95082	0.17695
1.858	75.919	-26812	2366.5	-0.23248	0.9515	0.17773
1.86	75.916	-26810	2366.4	-0.23258	0.95219	0.17851
1.862	75.916	-26809	2366.2	-0.23268	0.95287	0.17929
1.864	75.92	-26809	2366.1	-0.23278	0.95355	0.18007
1.866	75.928	-26808	2366	-0.23326	0.95482	0.179
1.868	75.933	-26808	2365.9	-0.23375	0.95609	0.17792
1.87	75.934	-26814	2365.8	-0.23424	0.95736	0.17685
1.872	75.935	-26820	2365.7	-0.23473	0.95863	0.17578
1.874	75.932	-26818	2365.5	-0.23522	0.9599	0.1747
1.876	75.926	-26815	2365.5	-0.2358	0.9599	0.17627
1.878	75.92	-26815	2365.4	-0.23639	0.9599	0.17783
1.88	75.916	-26814	2365.3	-0.23697	0.9599	0.17939
1.882	75.921	-26817	2365.3	-0.23756	0.9599	0.18095
1.884	75.921	-26819	2365.2	-0.23814	0.9599	0.18251
1.886	75.924	-26816	2365.2	-0.23697	0.95882	0.18173
1.888	75.934	-26814	2365.1	-0.2358	0.95775	0.18095
1.89	75.936	-26812	2365	-0.23463	0.95668	0.18017
1.892	75.929	-26810	2365	-0.23346	0.9556	0.17939
1.894	75.925	-26819	2364.9	-0.23229	0.95453	0.17861
1.896	75.925	-26827	2364.9	-0.23346	0.9556	0.1791
1.898	75.926	-26827	2364.9	-0.23463	0.95668	0.17958
1.9	75.93	-26827	2364.9	-0.2358	0.95775	0.18007
1.902	75.93	-26826	2364.8	-0.23697	0.95882	0.18056
1.904	75.93	-26824	2364.8	-0.23814	0.9599	0.18105
1.906	75.924	-26828	2364.8	-0.23697	0.95921	0.18076
1.908	75.912	-26832	2364.8	-0.2358	0.95853	0.18046
1.91	75.91	-26826	2364.8	-0.23463	0.95785	0.18017
1.912	75.906	-26820	2364.8	-0.23346	0.95716	0.17988
1.914	75.905	-26819	2364.8	-0.23229	0.95648	0.17958
1.916	75.907	-26819	2364.9	-0.23365	0.95648	0.17997
1.918	75.904	-26819	2364.9	-0.23502	0.95648	0.18036
1.92	75.901	-26818	2365	-0.23639	0.95648	0.18076
1.922	75.901	-26821	2365	-0.23775	0.95648	0.18115
1.924	75.898	-26824	2365.1	-0.23912	0.95648	0.18154
1.926	75.897	-26821	2365.1	-0.24039	0.9557	0.18154
1.928	75.895	-26818	2365.2	-0.24166	0.95492	0.18154
1.93	75.892	-26825	2365.2	-0.24293	0.95414	0.18154
1.932	75.891	-26833	2365.3	-0.2442	0.95336	0.18154
1.934	75.886	-26833	2365.4	-0.24546	0.95258	0.18154
1.936	75.874	-26833	2365.4	-0.2442	0.95365	0.18134
1.938	75.867	-26830	2365.5	-0.24293	0.95472	0.18115
1.94	75.868	-26826	2365.6	-0.24166	0.9558	0.18095
1.942	75.867	-26828	2365.7	-0.24039	0.95687	0.18076
1.944	75.871	-26829	2365.8	-0.23912	0.95794	0.18056
1.946	75.881	-26823	2365.9	-0.23971	0.95648	0.18017
1.948	75.885	-26818	2366	-0.24029	0.95502	0.17978
1.95	75.882	-26818	2366.1	-0.24088	0.95355	0.17939
1.952	75.882	-26818	2366.2	-0.24146	0.95209	0.179
1.954	75.887	-26826	2366.3	-0.24205	0.95062	0.17861
1.956	75.886	-26834	2366.5	-0.24215	0.9514	0.1791
1.958	75.875	-26828	2366.6	-0.24224	0.95219	0.17958
1.96	75.861	-26823	2366.8	-0.24234	0.95297	0.18007
1.962	75.855	-26823	2366.9	-0.24244	0.95375	0.18056
1.964	75.853	-26823	2367	-0.24254	0.95453	0.18105
1.966	75.861	-26826	2367.1	-0.2439	0.95443	0.18124
1.968	75.878	-26830	2367.2	-0.24527	0.95433	0.18144
1.97	75.886	-26830	2367.3	-0.24664	0.95424	0.18163
1.972	75.89	-26830	2367.4	-0.248	0.95414	0.18183
1.974	75.896	-26826	2367.5	-0.24937	0.95404	0.18202
1.976	75.904	-26821	2367.6	-0.24771	0.95375	0.18124
1.978	75.912	-26826	2367.7	-0.24605	0.95345	0.18046
1.98	75.919	-26831	2367.8	-0.24439	0.95316	0.17968
1.982	75.927	-26824	2367.9	-0.24273	0.95287	0.1789
1.984	75.928	-26817	2368	-0.24107	0.95258	0.17812
1.986	75.934	-26820	2368.1	-0.24205	0.95248	0.17832
1.988	75.936	-26824	2368.2	-0.24302	0.95238	0.17851
1.99	75.935	-26821	2368.3	-0.244	0.95228	0.17871
1.992	75.931	-26819	2368.3	-0.24498	0.95219	0.1789
1.994	75.937	-26816	2368.4	-0.24595	0.95209	0.1791
1.996	75.94	-26814	2368.4	-0.24585	0.95258	0.17939
1.998	75.939	-26819	2368.5	-0.24576	0.95306	0.17968
2	75.939	-26825	2368.5	-0.24566	0.95355	0.17997
2.002	75.94	-26821	2368.5	-0.24556	0.95404	0.18027
2.004	75.941	-26818	2368.5	-0.24546	0.95453	0.18056
2.006	75.944	-26819	2368.6	-0.24527	0.95424	0.18066
2.008	75.941	-26821	2368.6	-0.24507	0.95394	0.18076
2.01	75.937	-26818	2368.6	-0.24488	0.95365	0.18085
2.012	75.94	-26815	2368.7	-0.24468	0.95336	0.18095
2.014	75.943	-26815	2368.7	-0.24449	0.95306	0.18105
2.016	75.94	-26814	2368.7	-0.244	0.95316	0.18066
2.018	75.936	-26815	2368.7	-0.24351	0.95326	0.18027
2.02	75.934	-26816	2368.7	-0.24302	0.95336	0.17988
2.022	75.936	-26818	2368.6	-0.24254	0.95345	0.17949
2.024	75.941	-26819	2368.5	-0.24205	0.95355	0.1791
2.026	75.946	-26811	2368.5	-0.24078	0.95404	0.179
2.028	75.952	-26803	2368.6	-0.23951	0.95453	0.1789
2.03	75.952	-26810	2368.5	-0.23824	0.95502	0.1788
2.032	75.945	-26816	2368.5	-0.23697	0.9555	0.17871
2.034	75.943	-26816	2368.4	-0.2357	0.95599	0.17861
2.036	75.945	-26817	2368.3	-0.23561	0.95609	0.17851
2.038	75.944	-26818	2368.3	-0.23551	0.95619	0.17841
2.04	75.941	-26820	2368.3	-0.23541	0.95628	0.17832
2.042	75.943	-26821	2368.2	-0.23531	0.95638	0.17822
2.044	75.951	-26823	2368.1	-0.23522	0.95648	0.17812
2.046	75.96	-26821	2368.1	-0.23512	0.95668	0.17753
2.048	75.964	-26819	2368.1	-0.23502	0.95687	0.17695
2.05	75.969	-26818	2368	-0.23492	0.95707	0.17636
2.052	75.957	-26818	2367.9	-0.23483	0.95726	0.17578
2.054	75.936	-26821	2367.8	-0.23473	0.95746	0.17519
2.056	75.914	-26824	2367.7	-0.23551	0.95746	0.17578
2.058	75.892	-26818	2367.6	-0.23629	0.95746	0.17636
2.06	75.87	-26812	2367.5	-0.23707	0.95746	0.17695
2.062	75.838	-26815	2367.4	-0.23785	0.95746	0.17753
2.064	75.808	-26819	2367.3	-0.23863	0.95746	0.17812
2.066	75.77	-26823	2367.2	-0.23795	0.95814	0.17734
2.068	75.728	-26827	2367.1	-0.23727	0.95882	0.17656
2.07	75.682	-26819	2367	-0.23658	0.95951	0.17578
2.072	75.646	-26811	2366.9	-0.2359	0.96019	0.175
2.074	75.615	-26810	2366.8	-0.23522	0.96087	0.17422
2.076	75.6	-26809	2366.8	-0.23502	0.96048	0.1749
2.078	75.586	-26812	2366.7	-0.23483	0.96009	0.17558
2.08	75.578	-26815	2366.6	-0.23463	0.9597	0.17627
2.082	75.585	-26820	2366.5	-0.23444	0.95931	0.17695
2.084	75.615	-26825	2366.4	-0.23424	0.95892	0.17763
2.086	75.648	-26826	2366.3	-0.23551	0.95853	0.17822
2.088	75.674	-26827	2366.2	-0.23678	0.95814	0.1788
2.09	75.715	-26826	2366.1	-0.23805	0.95775	0.17939
2.092	75.775	-26825	2366	-0.23932	0.95736	0.17997
2.094	75.856	-26824	2365.9	-0.24058	0.95697	0.18056
2.096	75.938	-26823	2365.8	-0.2399	0.95765	0.17968
2.098	76.004	-26823	2365.6	-0.23922	0.95833	0.1788
2.1	76.037	-26823	2365.5	-0.23853	0.95902	0.17792
2.102	76.047	-26827	2365.4	-0.23785	0.9597	0.17705
2.104	76.048	-26830	2365.2	-0.23717	0.96038	0.17617
2.106	76.041	-26833	2365.1	-0.23853	0.9596	0.17763
2.108	76.027	-26835	2365	-0.2399	0.95882	0.1791
2.11	76.005	-26833	2364.9	-0.24127	0.95804	0.18056
2.112	75.982	-26830	2364.8	-0.24263	0.95726	0.18202
2.114	75.967	-26827	2364.6	-0.244	0.95648	0.18349
2.116	75.959	-26825	2364.6	-0.24312	0.95648	0.1829
2.118	75.958	-26822	2364.5	-0.24224	0.95648	0.18232
2.12	75.958	-26820	2364.4	-0.24136	0.95648	0.18173
2.122	75.947	-26821	2364.2	-0.24049	0.95648	0.18115
2.124	75.931	-26822	2364.1	-0.23961	0.95648	0.18056
2.126	75.925	-26821	2364	-0.23834	0.95638	0.18046
2.128	75.922	-26821	2363.9	-0.23707	0.95628	0.18036
2.13	75.918	-26823	2363.8	-0.2358	0.95619	0.18027
2.132	75.909	-26825	2363.7	-0.23453	0.95609	0.18017
2.134	75.906	-26823	2363.6	-0.23326	0.95599	0.18007
2.136	75.904	-26822	2363.5	-0.23492	0.9557	0.18007
2.138	75.905	-26819	2363.4	-0.23658	0.95541	0.18007
2.14	75.908	-26816	2363.4	-0.23824	0.95511	0.18007
2.142	75.909	-26818	2363.3	-0.2399	0.95482	0.18007
2.144	75.91	-26820	2363.2	-0.24156	0.95453	0.18007
2.146	75.912	-26819	2363.1	-0.24224	0.95502	0.18085
2.148	75.908	-26819	2363	-0.24293	0.9555	0.18163
2.15	75.901	-26818	2363	-0.24361	0.95599	0.18241
2.152	75.897	-26818	2362.8	-0.24429	0.95648	0.1832
2.154	75.898	-26820	2362.7	-0.24498	0.95697	0.18398
2.156	75.895	-26823	2362.7	-0.2441	0.95638	0.18339
2.158	75.889	-26824	2362.7	-0.24322	0.9558	0.1828
2.16	75.884	-26826	2362.6	-0.24234	0.95521	0.18222
2.162	75.879	-26826	2362.6	-0.24146	0.95463	0.18163
2.164	75.878	-26826	2362.5	-0.24058	0.95404	0.18105
2.166	75.881	-26824	2362.5	-0.23971	0.95521	0.17988
2.168	75.883	-26822	2362.5	-0.23883	0.95638	0.17871
2.17	75.882	-26824	2362.5	-0.23795	0.95755	0.17753
2.172	75.877	-26825	2362.5	-0.23707	0.95872	0.17636
2.174	75.871	-26826	2362.4	-0.23619	0.9599	0.17519
2.176	75.867	-26827	2362.4	-0.23678	0.96029	0.17422
2.178	75.864	-26828	2362.3	-0.23736	0.96068	0.17324
2.18	75.862	-26828	2362.3	-0.23795	0.96107	0.17226
2.182	75.858	-26833	2362.3	-0.23853	0.96146	0.17129
2.184	75.858	-26837	2362.3	-0.23912	0.96185	0.17031
2.186	75.856	-26837	2362.4	-0.23932	0.96195	0.16992
2.188	75.849	-26837	2362.4	-0.23951	0.96204	0.16953
2.19	75.846	-26830	2362.4	-0.23971	0.96214	0.16914
2.192	75.849	-26823	2362.3	-0.2399	0.96224	0.16875
2.194	75.85	-26824	2362.3	-0.2401	0.96234	0.16836
2.196	75.85	-26826	2362.3	-0.2401	0.96165	0.1707
2.198	75.852	-26828	2362.3	-0.2401	0.96097	0.17304
2.2	75.851	-26830	2362.3	-0.2401	0.96029	0.17539
2.202	75.848	-26830	2362.3	-0.2401	0.9596	0.17773
2.204	75.85	-26830	2362.3	-0.2401	0.95892	0.18007
2.206	75.853	-26835	2362.2	-0.2398	0.95882	0.18036
2.208	75.852	-26839	2362.2	-0.23951	0.95872	0.18066
2.21	75.847	-26841	2362.2	-0.23922	0.95863	0.18095
2.212	75.842	-26844	2362.2	-0.23892	0.95853	0.18124
2.214	75.841	-26839	2362.3	-0.23863	0.95843	0.18154
2.216	75.84	-26835	2362.2	-0.23912	0.95921	0.18056
2.218	75.831	-26835	2362.1	-0.23961	0.95999	0.17958
2.22	75.824	-26835	2362.1	-0.2401	0.96077	0.17861
2.222	75.822	-26833	2362	-0.24058	0.96156	0.17763
2.224	75.817	-26832	2362	-0.24107	0.96234	0.17666
2.226	75.815	-26829	2362	-0.2399	0.96185	0.17675
2.228	75.812	-26826	2361.9	-0.23873	0.96136	0.17685
2.23	75.812	-26827	2361.9	-0.23756	0.96087	0.17695
2.232	75.808	-26829	2361.7	-0.23639	0.96038	0.17705
2.234	75.803	-26830	2361.6	-0.23522	0.9599	0.17714
2.236	75.797	-26832	2361.5	-0.23658	0.95794	0.17763
2.238	75.79	-26831	2361.4	-0.23795	0.95599	0.17812
2.24	75.789	-26830	2361.3	-0.23932	0.95404	0.17861
2.242	75.787	-26826	2361.1	-0.24068	0.95209	0.1791
2.244	75.783	-26823	2360.9	-0.24205	0.95014	0.17958
2.246	75.783	-26832	2360.8	-0.24205	0.95014	0.18007
2.248	75.777	-26840	2360.7	-0.24205	0.95014	0.18056
2.25	75.776	-26841	2360.6	-0.24205	0.95014	0.18105
2.252	75.776	-26842	2360.4	-0.24205	0.95014	0.18154
2.254	75.776	-26842	2360.3	-0.24205	0.95014	0.18202
2.256	75.772	-26841	2360.2	-0.24156	0.95014	0.18154
2.258	75.768	-26841	2360.1	-0.24107	0.95014	0.18105
2.26	75.767	-26842	2360	-0.24058	0.95014	0.18056
2.262	75.771	-26841	2359.9	-0.2401	0.95014	0.18007
2.264	75.771	-26841	2359.8	-0.23961	0.95014	0.17958
2.266	75.766	-26845	2359.9	-0.23961	0.95072	0.18007
2.268	75.762	-26849	2359.9	-0.23961	0.95131	0.18056
2.27	75.762	-26844	2360	-0.23961	0.95189	0.18105
2.272	75.761	-26839	2360	-0.23961	0.95248	0.18154
2.274	75.76	-26837	2360.1	-0.23961	0.95306	0.18202
2.276	75.765	-26835	2360.2	-0.24058	0.95287	0.18212
2.278	75.776	-26831	2360.3	-0.24156	0.95267	0.18222
2.28	75.778	-26828	2360.5	-0.24254	0.95248	0.18232
2.282	75.776	-26834	2360.6	-0.24351	0.95228	0.18241
2.284	75.778	-26841	2360.8	-0.24449	0.95209	0.18251
2.286	75.778	-26842	2361	-0.2439	0.95336	0.18251
2.288	75.77	-26844	2361.1	-0.24332	0.95463	0.18251
2.29	75.763	-26839	2361.4	-0.24273	0.95589	0.18251
2.292	75.765	-26834	2361.6	-0.24215	0.95716	0.18251
2.294	75.781	-26836	2361.9	-0.24156	0.95843	0.18251
2.296	75.803	-26838	2362.2	-0.24185	0.95814	0.18261
2.298	75.814	-26830	2362.5	-0.24215	0.95785	0.18271
2.3	75.811	-26822	2362.8	-0.24244	0.95755	0.1828
2.302	75.806	-26827	2363.2	-0.24273	0.95726	0.1829
2.304	75.807	-26831	2363.6	-0.24302	0.95697	0.183
2.306	75.816	-26831	2364	-0.24371	0.95609	0.1828
2.308	75.817	-26831	2364.4	-0.24439	0.95521	0.18261
2.31	75.813	-26835	2364.9	-0.24507	0.95433	0.18241
2.312	75.819	-26839	2365.4	-0.24576	0.95345	0.18222
2.314	75.823	-26835	2365.9	-0.24644	0.95258	0.18202
2.316	75.823	-26831	2366.4	-0.24644	0.95248	0.18193
2.318	75.836	-26829	2366.9	-0.24644	0.95238	0.18183
2.32	75.84	-26828	2367.5	-0.24644	0.95228	0.18173
2.322	75.844	-26827	2368.1	-0.24644	0.95219	0.18163
2.324	75.849	-26826	2368.7	-0.24644	0.95209	0.18154
2.326	75.844	-26825	2369.3	-0.24605	0.9516	0.18085
2.328	75.85	-26823	2369.9	-0.24566	0.95111	0.18017
2.33	75.855	-26819	2370.5	-0.24527	0.95062	0.17949
2.332	75.856	-26814	2371.1	-0.24488	0.95014	0.1788
2.334	75.859	-26812	2371.7	-0.24449	0.94965	0.17812
2.336	75.859	-26810	2372.2	-0.24498	0.95023	0.17851
2.338	75.858	-26808	2372.8	-0.24546	0.95082	0.1789
2.34	75.863	-26807	2373.3	-0.24595	0.9514	0.17929
2.342	75.863	-26811	2373.7	-0.24644	0.95199	0.17968
2.344	75.866	-26815	2374.2	-0.24693	0.95258	0.18007
2.346	75.864	-26814	2374.6	-0.24634	0.95238	0.17939
2.348	75.87	-26812	2375.1	-0.24576	0.95219	0.17871
2.35	75.876	-26809	2375.5	-0.24517	0.95199	0.17802
2.352	75.879	-26805	2375.8	-0.24459	0.9518	0.17734
2.354	75.879	-26801	2376.1	-0.244	0.9516	0.17666
2.356	75.878	-26796	2376.4	-0.24429	0.9518	0.17675
2.358	75.878	-26797	2376.8	-0.24459	0.95199	0.17685
2.36	75.876	-26798	2377	-0.24488	0.95219	0.17695
2.362	75.875	-26796	2377.1	-0.24517	0.95238	0.17705
2.364	75.88	-26793	2377.2	-0.24546	0.95258	0.17714
2.366	75.888	-26789	2377.3	-0.24478	0.95375	0.17685
2.368	75.889	-26785	2377.4	-0.2441	0.95492	0.17656
2.37	75.888	-26786	2377.5	-0.24341	0.95609	0.17627
2.372	75.887	-26787	2377.6	-0.24273	0.95726	0.17597
2.374	75.883	-26790	2377.7	-0.24205	0.95843	0.17568
2.376	75.88	-26793	2377.7	-0.24205	0.95882	0.17519
2.378	75.886	-26794	2377.7	-0.24205	0.95921	0.1747
2.38	75.897	-26795	2377.6	-0.24205	0.9596	0.17422
2.382	75.907	-26797	2377.5	-0.24205	0.95999	0.17373
2.384	75.909	-26800	2377.4	-0.24205	0.96038	0.17324
2.386	75.902	-26797	2377.3	-0.24215	0.9598	0.17353
2.388	75.899	-26795	2377.2	-0.24224	0.95921	0.17383
2.39	75.902	-26792	2377	-0.24234	0.95863	0.17412
2.392	75.908	-26790	2376.9	-0.24244	0.95804	0.17441
2.394	75.919	-26784	2376.7	-0.24254	0.95746	0.1747
2.396	75.927	-26778	2376.5	-0.24244	0.95785	0.17373
2.398	75.928	-26783	2376.3	-0.24234	0.95824	0.17275
2.4	75.935	-26788	2376	-0.24224	0.95863	0.17178
2.402	75.942	-26792	2375.8	-0.24215	0.95902	0.1708
2.404	75.939	-26796	2375.6	-0.24205	0.95941	0.16982
2.406	75.928	-26789	2375.3	-0.24107	0.9596	0.17012
2.408	75.924	-26782	2375.1	-0.2401	0.9598	0.17041
2.41	75.921	-26780	2374.8	-0.23912	0.95999	0.1707
2.412	75.917	-26777	2374.5	-0.23814	0.96019	0.171
2.414	75.918	-26777	2374.2	-0.23717	0.96038	0.17129
2.416	75.921	-26778	2373.9	-0.23668	0.95931	0.17187
2.418	75.921	-26784	2373.6	-0.23619	0.95824	0.17246
2.42	75.921	-26790	2373.3	-0.2357	0.95716	0.17304
2.422	75.916	-26795	2373	-0.23522	0.95609	0.17363
2.424	75.917	-26801	2372.7	-0.23473	0.95502	0.17422
2.426	75.916	-26790	2372.4	-0.23414	0.95424	0.17412
2.428	75.909	-26778	2372.1	-0.23356	0.95345	0.17402
2.43	75.902	-26782	2371.8	-0.23297	0.95267	0.17392
2.432	75.898	-26785	2371.5	-0.23239	0.95189	0.17383
2.434	75.899	-26789	2371.2	-0.2318	0.95111	0.17373
2.436	75.905	-26793	2371	-0.23112	0.95101	0.17402
2.438	75.908	-26789	2370.7	-0.23043	0.95092	0.17431
2.44	75.902	-26786	2370.4	-0.22975	0.95082	0.17461
2.442	75.895	-26785	2370.2	-0.22907	0.95072	0.1749
2.444	75.891	-26785	2369.9	-0.22838	0.95062	0.17519
2.446	75.889	-26785	2369.7	-0.22995	0.95121	0.17656
2.448	75.889	-26784	2369.4	-0.23151	0.9518	0.17792
2.45	75.892	-26787	2369.2	-0.23307	0.95238	0.17929
2.452	75.893	-26789	2368.9	-0.23463	0.95297	0.18066
2.454	75.89	-26791	2368.6	-0.23619	0.95355	0.18202
2.456	75.887	-26794	2368.4	-0.23766	0.95384	0.18251
2.458	75.885	-26790	2368.1	-0.23912	0.95414	0.183
2.46	75.887	-26787	2367.9	-0.24058	0.95443	0.18349
2.462	75.889	-26783	2367.6	-0.24205	0.95472	0.18398
2.464	75.885	-26779	2367.4	-0.24351	0.95502	0.18446
2.466	75.884	-26782	2367.2	-0.24332	0.95511	0.18427
2.468	75.889	-26785	2367	-0.24312	0.95521	0.18407
2.47	75.894	-26774	2366.8	-0.24293	0.95531	0.18388
2.472	75.894	-26762	2366.6	-0.24273	0.95541	0.18368
2.474	75.897	-26775	2366.4	-0.24254	0.9555	0.18349
2.476	75.905	-26789	2366.2	-0.24215	0.9558	0.18378
2.478	75.914	-26783	2366	-0.24176	0.95609	0.18407
2.48	75.915	-26776	2365.8	-0.24136	0.95638	0.18437
2.482	75.927	-26777	2365.7	-0.24097	0.95668	0.18466
2.484	75.93	-26777	2365.5	-0.24058	0.95697	0.18495
2.486	75.924	-26781	2365.4	-0.24078	0.95736	0.18515
2.488	75.923	-26784	2365.3	-0.24097	0.95775	0.18534
2.49	75.918	-26781	2365.2	-0.24117	0.95814	0.18554
2.492	75.911	-26777	2365.1	-0.24136	0.95853	0.18573
2.494	75.916	-26786	2365	-0.24156	0.95892	0.18593
2.496	75.922	-26796	2364.9	-0.24195	0.95912	0.18505
2.498	75.923	-26795	2364.8	-0.24234	0.95931	0.18417
2.5	75.928	-26794	2364.7	-0.24273	0.95951	0.18329
2.502	75.929	-26788	2364.6	-0.24312	0.9597	0.18241
2.504	75.926	-26783	2364.5	-0.24351	0.9599	0.18154
2.506	75.928	-26791	2364.5	-0.24371	0.95951	0.18193
2.508	75.927	-26800	2364.4	-0.2439	0.95912	0.18232
2.51	75.927	-26792	2364.3	-0.2441	0.95872	0.18271
2.512	75.931	-26783	2364.3	-0.24429	0.95833	0.1831
2.514	75.934	-26783	2364.2	-0.24449	0.95794	0.18349
2.516	75.937	-26783	2364.2	-0.24351	0.95833	0.1831
2.518	75.937	-26785	2364.2	-0.24254	0.95872	0.18271
2.52	75.939	-26788	2364.2	-0.24156	0.95912	0.18232
2.522	75.938	-26786	2364.1	-0.24058	0.95951	0.18193
2.524	75.932	-26783	2364	-0.23961	0.9599	0.18154
2.526	75.929	-26786	2364	-0.23912	0.9599	0.18095
2.528	75.931	-26789	2364	-0.23863	0.9599	0.18036
2.53	75.93	-26800	2364	-0.23814	0.9599	0.17978
2.532	75.927	-26811	2364.1	-0.23766	0.9599	0.17919
2.534	75.925	-26802	2364.1	-0.23717	0.9599	0.17861
2.536	75.925	-26793	2364.1	-0.23922	0.95951	0.17968
2.538	75.927	-26787	2364.1	-0.24127	0.95912	0.18076
2.54	75.929	-26781	2364.1	-0.24332	0.95872	0.18183
2.542	75.923	-26786	2364.1	-0.24537	0.95833	0.1829
2.544	75.91	-26791	2364.1	-0.24742	0.95794	0.18398
2.546	75.903	-26792	2364.2	-0.24732	0.95668	0.18368
2.548	75.901	-26793	2364.3	-0.24722	0.95541	0.18339
2.55	75.891	-26795	2364.4	-0.24712	0.95414	0.1831
2.552	75.879	-26797	2364.5	-0.24703	0.95287	0.1828
2.554	75.874	-26798	2364.5	-0.24693	0.9516	0.18251
2.556	75.874	-26799	2364.6	-0.24644	0.9514	0.18163
2.558	75.874	-26798	2364.7	-0.24595	0.95121	0.18076
2.56	75.876	-26797	2364.8	-0.24546	0.95101	0.17988
2.562	75.881	-26794	2364.9	-0.24498	0.95082	0.179
2.564	75.882	-26792	2364.9	-0.24449	0.95062	0.17812
2.566	75.882	-26793	2365.1	-0.2442	0.95199	0.17822
2.568	75.88	-26795	2365.2	-0.2439	0.95336	0.17832
2.57	75.884	-26793	2365.3	-0.24361	0.95472	0.17841
2.572	75.884	-26791	2365.4	-0.24332	0.95609	0.17851
2.574	75.875	-26795	2365.5	-0.24302	0.95746	0.17861
2.576	75.867	-26799	2365.6	-0.24312	0.95668	0.17871
2.578	75.864	-26795	2365.7	-0.24322	0.95589	0.1788
2.58	75.863	-26792	2365.8	-0.24332	0.95511	0.1789
2.582	75.863	-26793	2365.9	-0.24341	0.95433	0.179
2.584	75.866	-26794	2365.9	-0.24351	0.95355	0.1791
2.586	75.873	-26794	2366	-0.24312	0.95336	0.17861
2.588	75.873	-26793	2366.1	-0.24273	0.95316	0.17812
2.59	75.876	-26797	2366.2	-0.24234	0.95297	0.17763
2.592	75.878	-26802	2366.2	-0.24195	0.95277	0.17714
2.594	75.876	-26800	2366.3	-0.24156	0.95258	0.17666
2.596	75.87	-26798	2366.3	-0.24156	0.95258	0.17695
2.598	75.862	-26798	2366.4	-0.24156	0.95258	0.17724
2.6	75.851	-26797	2366.4	-0.24156	0.95258	0.17753
2.602	75.846	-26791	2366.5	-0.24156	0.95258	0.17783
2.604	75.846	-26785	2366.5	-0.24156	0.95258	0.17812
2.606	75.851	-26792	2366.5	-0.24058	0.95258	0.17734
2.608	75.86	-26800	2366.6	-0.23961	0.95258	0.17656
2.61	75.871	-26800	2366.6	-0.23863	0.95258	0.17578
2.612	75.879	-26801	2366.6	-0.23766	0.95258	0.175
2.614	75.88	-26804	2366.6	-0.23668	0.95258	0.17422
2.616	75.88	-26807	2366.6	-0.23648	0.95287	0.17451
2.618	75.883	-26804	2366.6	-0.23629	0.95316	0.1748
2.62	75.89	-26801	2366.6	-0.23609	0.95345	0.17509
2.622	75.899	-26801	2366.6	-0.2359	0.95375	0.17539
2.624	75.909	-26801	2366.6	-0.2357	0.95404	0.17568
2.626	75.913	-26796	2366.6	-0.23814	0.95345	0.17461
2.628	75.906	-26790	2366.6	-0.24058	0.95287	0.17353
2.63	75.899	-26792	2366.6	-0.24302	0.95228	0.17246
2.632	75.901	-26795	2366.5	-0.24546	0.9517	0.17139
2.634	75.908	-26796	2366.5	-0.2479	0.95111	0.17031
2.636	75.915	-26798	2366.5	-0.24839	0.95101	0.16953
2.638	75.919	-26797	2366.4	-0.24888	0.95092	0.16875
2.64	75.916	-26797	2366.4	-0.24937	0.95082	0.16797
2.642	75.914	-26792	2366.3	-0.24986	0.95072	0.16719
2.644	75.908	-26786	2366.2	-0.25034	0.95062	0.16641
2.646	75.901	-26786	2366.2	-0.24976	0.95023	0.1666
2.648	75.899	-26786	2366.1	-0.24917	0.94984	0.1668
2.65	75.896	-26794	2366	-0.24859	0.94945	0.16699
2.652	75.899	-26802	2365.9	-0.248	0.94906	0.16719
2.654	75.904	-26796	2365.9	-0.24742	0.94867	0.16738
2.656	75.912	-26790	2365.8	-0.2482	0.94916	0.16777
2.658	75.911	-26790	2365.7	-0.24898	0.94965	0.16816
2.66	75.908	-26791	2365.6	-0.24976	0.95014	0.16856
2.662	75.902	-26798	2365.5	-0.25054	0.95062	0.16895
2.664	75.905	-26805	2365.4	-0.25132	0.95111	0.16934
2.666	75.906	-26798	2365.3	-0.25093	0.9515	0.16992
2.668	75.904	-26792	2365.2	-0.25054	0.95189	0.17051
2.67	75.898	-26793	2365.1	-0.25015	0.95228	0.17109
2.672	75.894	-26794	2365	-0.24976	0.95267	0.17168
2.674	75.899	-26794	2364.9	-0.24937	0.95306	0.17226
2.676	75.9	-26794	2364.9	-0.24947	0.95287	0.17178
2.678	75.894	-26792	2364.8	-0.24956	0.95267	0.17129
2.68	75.889	-26790	2364.7	-0.24966	0.95248	0.1708
2.682	75.895	-26791	2364.6	-0.24976	0.95228	0.17031
2.684	75.902	-26791	2364.5	-0.24986	0.95209	0.16982
2.686	75.911	-26794	2364.4	-0.25015	0.95238	0.17031
2.688	75.916	-26796	2364.3	-0.25044	0.95267	0.1708
2.69	75.913	-26791	2364.2	-0.25073	0.95297	0.17129
2.692	75.896	-26786	2364.1	-0.25103	0.95326	0.17178
2.694	75.873	-26787	2363.9	-0.25132	0.95355	0.17226
2.696	75.841	-26787	2363.9	-0.24986	0.95306	0.17256
2.698	75.802	-26792	2363.8	-0.24839	0.95258	0.17285
2.7	75.77	-26796	2363.7	-0.24693	0.95209	0.17314
2.702	75.743	-26797	2363.6	-0.24546	0.9516	0.17344
2.704	75.709	-26797	2363.6	-0.244	0.95111	0.17373
2.706	75.673	-26798	2363.5	-0.24351	0.95111	0.17373
2.708	75.635	-26798	2363.4	-0.24302	0.95111	0.17373
2.71	75.59	-26798	2363.3	-0.24254	0.95111	0.17373
2.712	75.543	-26797	2363.2	-0.24205	0.95111	0.17373
2.714	75.511	-26797	2363.1	-0.24156	0.95111	0.17373
2.716	75.504	-26798	2363	-0.24039	0.95248	0.17392
2.718	75.511	-26802	2363	-0.23922	0.95384	0.17412
2.72	75.522	-26805	2362.9	-0.23805	0.95521	0.17431
2.722	75.539	-26804	2362.8	-0.23688	0.95658	0.17451
2.724	75.566	-26803	2362.7	-0.2357	0.95794	0.1747
2.726	75.595	-26804	2362.7	-0.23629	0.95824	0.17519
2.728	75.64	-26805	2362.6	-0.23688	0.95853	0.17568
2.73	75.71	-26804	2362.5	-0.23746	0.95882	0.17617
2.732	75.791	-26804	2362.4	-0.23805	0.95912	0.17666
2.734	75.872	-26805	2362.4	-0.23863	0.95941	0.17714
2.736	75.938	-26806	2362.3	-0.23853	0.95931	0.17753
2.738	75.977	-26805	2362.2	-0.23844	0.95921	0.17792
2.74	75.995	-26805	2362.1	-0.23834	0.95912	0.17832
2.742	75.999	-26807	2362	-0.23824	0.95902	0.17871
2.744	75.993	-26809	2362	-0.23814	0.95892	0.1791
2.746	75.982	-26808	2361.9	-0.23971	0.95726	0.17939
2.748	75.976	-26807	2361.8	-0.24127	0.9556	0.17968
2.75	75.955	-26804	2361.8	-0.24283	0.95394	0.17997
2.752	75.926	-26801	2361.7	-0.24439	0.95228	0.18027
2.754	75.899	-26800	2361.6	-0.24595	0.95062	0.18056
2.756	75.89	-26799	2361.5	-0.24576	0.95082	0.18085
2.758	75.882	-26803	2361.5	-0.24556	0.95101	0.18115
2.76	75.875	-26806	2361.4	-0.24537	0.95121	0.18144
2.762	75.873	-26811	2361.4	-0.24517	0.9514	0.18173
2.764	75.865	-26815	2361.3	-0.24498	0.9516	0.18202
2.766	75.855	-26808	2361.3	-0.24507	0.95238	0.18183
2.768	75.857	-26801	2361.2	-0.24517	0.95316	0.18163
2.77	75.855	-26801	2361.1	-0.24527	0.95394	0.18144
2.772	75.854	-26801	2361.1	-0.24537	0.95472	0.18124
2.774	75.85	-26801	2361	-0.24546	0.9555	0.18105
2.776	75.844	-26801	2361	-0.24615	0.95424	0.18085
2.778	75.844	-26803	2360.9	-0.24683	0.95297	0.18066
2.78	75.844	-26806	2360.8	-0.24751	0.9517	0.18046
2.782	75.842	-26805	2360.8	-0.2482	0.95043	0.18027
2.784	75.837	-26804	2360.8	-0.24888	0.94916	0.18007
2.786	75.834	-26802	2360.7	-0.2479	0.94955	0.18046
2.788	75.835	-26800	2360.6	-0.24693	0.94994	0.18085
2.79	75.833	-26802	2360.5	-0.24595	0.95033	0.18124
2.792	75.828	-26804	2360.5	-0.24498	0.95072	0.18163
2.794	75.824	-26803	2360.5	-0.244	0.95111	0.18202
2.796	75.819	-26801	2360.5	-0.2442	0.9515	0.18222
2.798	75.815	-26801	2360.4	-0.24439	0.95189	0.18241
2.8	75.815	-26800	2360.4	-0.24459	0.95228	0.18261
2.802	75.818	-26799	2360.3	-0.24478	0.95267	0.1828
2.804	75.821	-26799	2360.3	-0.24498	0.95306	0.183
2.806	75.822	-26801	2360.3	-0.24498	0.95248	0.18241
2.808	75.822	-26804	2360.2	-0.24498	0.95189	0.18183
2.81	75.823	-26810	2360.2	-0.24498	0.95131	0.18124
2.812	75.826	-26816	2360.2	-0.24498	0.95072	0.18066
2.814	75.825	-26816	2360.2	-0.24498	0.95014	0.18007
2.816	75.817	-26815	2360.2	-0.24439	0.95092	0.17978
2.818	75.814	-26812	2360.2	-0.2438	0.9517	0.17949
2.82	75.817	-26809	2360.2	-0.24322	0.95248	0.17919
2.822	75.819	-26808	2360.2	-0.24263	0.95326	0.1789
2.824	75.817	-26807	2360.2	-0.24205	0.95404	0.17861
2.826	75.807	-26807	2360.2	-0.24283	0.95355	0.179
2.828	75.803	-26807	2360.2	-0.24361	0.95306	0.17939
2.83	75.799	-26807	2360.2	-0.24439	0.95258	0.17978
2.832	75.798	-26807	2360.2	-0.24517	0.95209	0.18017
2.834	75.796	-26809	2360.2	-0.24595	0.9516	0.18056
2.836	75.789	-26812	2360.2	-0.24556	0.95199	0.18046
2.838	75.789	-26815	2360.2	-0.24517	0.95238	0.18036
2.84	75.791	-26817	2360.1	-0.24478	0.95277	0.18027
2.842	75.788	-26818	2360.1	-0.24439	0.95316	0.18017
2.844	75.782	-26818	2360.1	-0.244	0.95355	0.18007
2.846	75.779	-26818	2360.1	-0.24341	0.95424	0.17968
2.848	75.774	-26817	2360.1	-0.24283	0.95492	0.17929
2.85	75.77	-26817	2360.1	-0.24224	0.9556	0.1789
2.852	75.766	-26817	2360.1	-0.24166	0.95628	0.17851
2.854	75.761	-26817	2360.1	-0.24107	0.95697	0.17812
2.856	75.767	-26818	2360.1	-0.24205	0.95638	0.179
2.858	75.768	-26818	2360	-0.24302	0.9558	0.17988
2.86	75.763	-26819	2360	-0.244	0.95521	0.18076
2.862	75.763	-26819	2360	-0.24498	0.95463	0.18163
2.864	75.759	-26819	2360	-0.24595	0.95404	0.18251
2.866	75.753	-26819	2359.9	-0.24585	0.95414	0.18183
2.868	75.748	-26819	2359.9	-0.24576	0.95424	0.18115
2.87	75.744	-26819	2359.9	-0.24566	0.95433	0.18046
2.872	75.742	-26819	2359.8	-0.24556	0.95443	0.17978
2.874	75.738	-26820	2359.7	-0.24546	0.95453	0.1791
2.876	75.734	-26821	2359.7	-0.24517	0.95433	0.17939
2.878	75.734	-26826	2359.6	-0.24488	0.95414	0.17968
2.88	75.734	-26832	2359.5	-0.24459	0.95394	0.17997
2.882	75.729	-26821	2359.4	-0.24429	0.95375	0.18027
2.884	75.725	-26810	2359.3	-0.244	0.95355	0.18056
2.886	75.724	-26814	2359.2	-0.24371	0.95375	0.18036
2.888	75.726	-26817	2359.1	-0.24341	0.95394	0.18017
2.89	75.729	-26820	2359	-0.24312	0.95414	0.17997
2.892	75.727	-26822	2358.9	-0.24283	0.95433	0.17978
2.894	75.726	-26821	2358.8	-0.24254	0.95453	0.17958
2.896	75.724	-26820	2358.7	-0.24185	0.95424	0.17958
2.898	75.72	-26818	2358.6	-0.24117	0.95394	0.17958
2.9	75.719	-26817	2358.5	-0.24049	0.95365	0.17958
2.902	75.724	-26822	2358.5	-0.2398	0.95336	0.17958
2.904	75.73	-26828	2358.5	-0.23912	0.95306	0.17958
2.906	75.734	-26821	2358.5	-0.23922	0.95287	0.17949
2.908	75.732	-26814	2358.6	-0.23932	0.95267	0.17939
2.91	75.726	-26815	2358.6	-0.23941	0.95248	0.17929
2.912	75.723	-26817	2358.7	-0.23951	0.95228	0.17919
2.914	75.726	-26822	2358.7	-0.23961	0.95209	0.1791
2.916	75.725	-26827	2358.8	-0.23971	0.95336	0.17929
2.918	75.726	-26826	2359	-0.2398	0.95463	0.17949
2.92	75.728	-26825	2359.1	-0.2399	0.95589	0.17968
2.922	75.73	-26827	2359.3	-0.24	0.95716	0.17988
2.924	75.729	-26828	2359.6	-0.2401	0.95843	0.18007
2.926	75.728	-26829	2359.8	-0.23853	0.95833	0.1791
2.928	75.735	-26830	2359.9	-0.23697	0.95824	0.17812
2.93	75.739	-26824	2360.1	-0.23541	0.95814	0.17714
2.932	75.739	-26818	2360.3	-0.23385	0.95804	0.17617
2.934	75.736	-26817	2360.5	-0.23229	0.95794	0.17519
2.936	75.728	-26816	2360.8	-0.23229	0.95765	0.17558
2.938	75.734	-26823	2361.2	-0.23229	0.95736	0.17597
2.94	75.742	-26830	2361.5	-0.23229	0.95707	0.17636
2.942	75.74	-26825	2361.8	-0.23229	0.95677	0.17675
2.944	75.745	-26821	2362.1	-0.23229	0.95648	0.17714
2.946	75.747	-26820	2362.6	-0.23219	0.95609	0.17705
2.948	75.748	-26819	2363	-0.23209	0.9557	0.17695
2.95	75.752	-26820	2363.4	-0.232	0.95531	0.17685
2.952	75.762	-26820	2363.8	-0.2319	0.95492	0.17675
2.954	75.775	-26815	2364.2	-0.2318	0.95453	0.17666
2.956	75.779	-26810	2364.7	-0.23239	0.95463	0.17656
2.958	75.773	-26812	2365.2	-0.23297	0.95472	0.17646
2.96	75.771	-26814	2365.7	-0.23356	0.95482	0.17636
2.962	75.777	-26813	2366.2	-0.23414	0.95492	0.17627
2.964	75.78	-26812	2366.7	-0.23473	0.95502	0.17617
2.966	75.778	-26804	2367.3	-0.23522	0.95472	0.17636
2.968	75.782	-26795	2367.8	-0.2357	0.95443	0.17656
2.97	75.792	-26796	2368.3	-0.23619	0.95414	0.17675
2.972	75.802	-26796	2368.8	-0.23668	0.95384	0.17695
2.974	75.805	-26797	2369.3	-0.23717	0.95355	0.17714
2.976	75.804	-26798	2369.8	-0.23775	0.95463	0.17675
2.978	75.803	-26794	2370.3	-0.23834	0.9557	0.17636
2.98	75.806	-26789	2370.7	-0.23892	0.95677	0.17597
2.982	75.807	-26794	2371.1	-0.23951	0.95785	0.17558
2.984	75.806	-26798	2371.5	-0.2401	0.95892	0.17519
2.986	75.807	-26795	2371.9	-0.24254	0.95755	0.17412
2.988	75.808	-26793	2372.3	-0.24498	0.95619	0.17304
2.99	75.804	-26790	2372.6	-0.24742	0.95482	0.17197
2.992	75.805	-26786	2372.9	-0.24986	0.95345	0.1709
2.994	75.805	-26784	2373.2	-0.2523	0.95209	0.16982
2.996	75.806	-26781	2373.4	-0.25161	0.95131	0.17031
2.998	75.814	-26781	2373.6	-0.25093	0.95053	0.1708
3	75.814	-26781	2373.8	-0.25025	0.94975	0.17129
3.002	75.82	-26775	2373.9	-0.24956	0.94896	0.17178
3.004	75.824	-26769	2374	-0.24888	0.94818	0.17226
3.006	75.819	-26768	2374.1	-0.24868	0.94965	0.17295
3.008	75.813	-26767	2374.2	-0.24849	0.95111	0.17363
3.01	75.818	-26767	2374.2	-0.24829	0.95258	0.17431
3.012	75.818	-26766	2374.2	-0.2481	0.95404	0.175
3.014	75.82	-26764	2374.2	-0.2479	0.9555	0.17568
3.016	75.819	-26761	2374.2	-0.24664	0.9556	0.17597
3.018	75.819	-26761	2374.2	-0.24537	0.9557	0.17627
3.02	75.817	-26760	2374.1	-0.2441	0.9558	0.17656
3.022	75.817	-26755	2374	-0.24283	0.95589	0.17685
3.024	75.816	-26749	2373.9	-0.24156	0.95599	0.17714
3.026	75.819	-26756	2373.8	-0.24107	0.95668	0.17705
3.028	75.825	-26763	2373.6	-0.24058	0.95736	0.17695
3.03	75.832	-26762	2373.5	-0.2401	0.95804	0.17685
3.032	75.828	-26761	2373.3	-0.23961	0.95872	0.17675
3.034	75.819	-26763	2373.1	-0.23912	0.95941	0.17666
3.036	75.816	-26764	2372.9	-0.23961	0.95931	0.17646
3.038	75.812	-26758	2372.7	-0.2401	0.95921	0.17627
3.04	75.807	-26753	2372.5	-0.24058	0.95912	0.17607
3.042	75.81	-26757	2372.3	-0.24107	0.95902	0.17588
3.044	75.814	-26761	2372	-0.24156	0.95892	0.17568
3.046	75.815	-26758	2371.8	-0.24078	0.95921	0.17617
3.048	75.819	-26754	2371.6	-0.24	0.95951	0.17666
3.05	75.822	-26757	2371.4	-0.23922	0.9598	0.17714
3.052	75.823	-26761	2371.1	-0.23844	0.96009	0.17763
3.054	75.826	-26757	2370.9	-0.23766	0.96038	0.17812
3.056	75.829	-26753	2370.7	-0.23717	0.96019	0.17802
3.058	75.825	-26749	2370.5	-0.23668	0.95999	0.17792
3.06	75.819	-26745	2370.3	-0.23619	0.9598	0.17783
3.062	75.816	-26750	2370	-0.2357	0.9596	0.17773
3.064	75.814	-26755	2369.7	-0.23522	0.95941	0.17763
3.066	75.813	-26751	2369.5	-0.236	0.95882	0.17841
3.068	75.815	-26747	2369.2	-0.23678	0.95824	0.17919
3.07	75.815	-26750	2369	-0.23756	0.95765	0.17997
3.072	75.809	-26754	2368.8	-0.23834	0.95707	0.18076
3.074	75.804	-26750	2368.6	-0.23912	0.95648	0.18154
3.076	75.802	-26746	2368.3	-0.23892	0.95755	0.18085
3.078	75.8	-26749	2368.1	-0.23873	0.95863	0.18017
3.08	75.801	-26752	2367.9	-0.23853	0.9597	0.17949
3.082	75.793	-26750	2367.7	-0.23834	0.96077	0.1788
3.084	75.797	-26747	2367.5	-0.23814	0.96185	0.17812
3.086	75.803	-26747	2367.3	-0.24029	0.96019	0.17939
3.088	75.81	-26748	2367.1	-0.24244	0.95853	0.18066
3.09	75.806	-26755	2366.9	-0.24459	0.95687	0.18193
3.092	75.797	-26762	2366.6	-0.24673	0.95521	0.1832
3.094	75.8	-26769	2366.4	-0.24888	0.95355	0.18446
3.096	75.804	-26775	2366.2	-0.24849	0.95267	0.18349
3.098	75.803	-26762	2366	-0.2481	0.9518	0.18251
3.1	75.807	-26750	2365.8	-0.24771	0.95092	0.18154
3.102	75.814	-26754	2365.6	-0.24732	0.95004	0.18056
3.104	75.81	-26758	2365.3	-0.24693	0.94916	0.17958
3.106	75.805	-26761	2365.1	-0.24585	0.95062	0.18076
3.108	75.805	-26763	2364.9	-0.24478	0.95209	0.18193
3.11	75.796	-26757	2364.7	-0.24371	0.95355	0.1831
3.112	75.796	-26751	2364.6	-0.24263	0.95502	0.18427
3.114	75.8	-26749	2364.5	-0.24156	0.95648	0.18544
3.116	75.802	-26746	2364.3	-0.24215	0.95482	0.18427
3.118	75.803	-26749	2364.1	-0.24273	0.95316	0.1831
3.12	75.8	-26752	2364	-0.24332	0.9515	0.18193
3.122	75.801	-26756	2363.8	-0.2439	0.94984	0.18076
3.124	75.804	-26759	2363.7	-0.24449	0.94818	0.17958
3.126	75.81	-26756	2363.6	-0.24429	0.95014	0.18036
3.128	75.818	-26753	2363.5	-0.2441	0.95209	0.18115
3.13	75.823	-26756	2363.4	-0.2439	0.95404	0.18193
3.132	75.819	-26760	2363.3	-0.24371	0.95599	0.18271
3.134	75.813	-26759	2363.2	-0.24351	0.95794	0.18349
3.136	75.807	-26758	2363.1	-0.24312	0.95785	0.18378
3.138	75.804	-26767	2363.1	-0.24273	0.95775	0.18407
3.14	75.806	-26776	2363	-0.24234	0.95765	0.18437
3.142	75.812	-26767	2363	-0.24195	0.95755	0.18466
3.144	75.817	-26759	2362.9	-0.24156	0.95746	0.18495
3.146	75.813	-26767	2362.8	-0.24185	0.95746	0.18456
3.148	75.813	-26776	2362.8	-0.24215	0.95746	0.18417
3.15	75.824	-26773	2362.7	-0.24244	0.95746	0.18378
3.152	75.834	-26770	2362.7	-0.24273	0.95746	0.18339
3.154	75.835	-26770	2362.6	-0.24302	0.95746	0.183
3.156	75.832	-26770	2362.6	-0.24127	0.95716	0.1828
3.158	75.834	-26766	2362.6	-0.23951	0.95687	0.18261
3.16	75.831	-26762	2362.6	-0.23775	0.95658	0.18241
3.162	75.825	-26765	2362.6	-0.236	0.95628	0.18222
3.164	75.822	-26769	2362.6	-0.23424	0.95599	0.18202
3.166	75.83	-26771	2362.6	-0.2358	0.95658	0.18134
3.168	75.834	-26773	2362.6	-0.23736	0.95716	0.18066
3.17	75.831	-26776	2362.6	-0.23892	0.95775	0.17997
3.172	75.829	-26780	2362.6	-0.24049	0.95833	0.17929
3.174	75.821	-26777	2362.6	-0.24205	0.95892	0.17861
3.176	75.815	-26775	2362.6	-0.24068	0.95872	0.1788
3.178	75.826	-26774	2362.7	-0.23932	0.95853	0.179
3.18	75.828	-26773	2362.8	-0.23795	0.95833	0.17919
3.182	75.832	-26770	2362.8	-0.23658	0.95814	0.17939
3.184	75.834	-26767	2362.8	-0.23522	0.95794	0.17958
3.186	75.829	-26775	2362.9	-0.23512	0.95794	0.17929
3.188	75.819	-26783	2363	-0.23502	0.95794	0.179
3.19	75.816	-26780	2363.1	-0.23492	0.95794	0.17871
3.192	75.816	-26777	2363.2	-0.23483	0.95794	0.17841
3.194	75.814	-26774	2363.3	-0.23473	0.95794	0.17812
3.196	75.811	-26771	2363.3	-0.23707	0.95726	0.17871
3.198	75.807	-26779	2363.4	-0.23941	0.95658	0.17929
3.2	75.803	-26788	2363.5	-0.24176	0.95589	0.17988
3.202	75.793	-26779	2363.6	-0.2441	0.95521	0.18046
3.204	75.785	-26770	2363.8	-0.24644	0.95453	0.18105
3.206	75.784	-26775	2363.9	-0.24605	0.95463	0.18085
3.208	75.781	-26780	2364	-0.24566	0.95472	0.18066
3.21	75.778	-26780	2364.1	-0.24527	0.95482	0.18046
3.212	75.782	-26781	2364.2	-0.24488	0.95492	0.18027
3.214	75.787	-26783	2364.3	-0.24449	0.95502	0.18007
3.216	75.785	-26786	2364.4	-0.24371	0.95463	0.17939
3.218	75.782	-26780	2364.4	-0.24293	0.95424	0.17871
3.22	75.78	-26775	2364.5	-0.24215	0.95384	0.17802
3.222	75.782	-26777	2364.6	-0.24136	0.95345	0.17734
3.224	75.781	-26779	2364.8	-0.24058	0.95306	0.17666
3.226	75.772	-26775	2364.8	-0.24058	0.95404	0.17695
3.228	75.768	-26770	2364.9	-0.24058	0.95502	0.17724
3.23	75.772	-26774	2365	-0.24058	0.95599	0.17753
3.232	75.779	-26779	2365	-0.24058	0.95697	0.17783
3.234	75.787	-26773	2365.1	-0.24058	0.95794	0.17812
3.236	75.794	-26766	2365.1	-0.24263	0.95707	0.17871
3.238	75.801	-26769	2365.2	-0.24468	0.95619	0.17929
3.24	75.809	-26771	2365.3	-0.24673	0.95531	0.17988
3.242	75.811	-26772	2365.3	-0.24878	0.95443	0.18046
3.244	75.813	-26773	2365.4	-0.25083	0.95355	0.18105
3.246	75.806	-26774	2365.3	-0.24878	0.95277	0.18007
3.248	75.797	-26776	2365.3	-0.24673	0.95199	0.1791
3.25	75.789	-26771	2365.3	-0.24468	0.95121	0.17812
3.252	75.788	-26767	2365.3	-0.24263	0.95043	0.17714
3.254	75.791	-26771	2365.3	-0.24058	0.94965	0.17617
3.256	75.798	-26774	2365.3	-0.24097	0.95043	0.17695
3.258	75.807	-26771	2365.3	-0.24136	0.95121	0.17773
3.26	75.83	-26768	2365.3	-0.24176	0.95199	0.17851
3.262	75.84	-26766	2365.3	-0.24215	0.95277	0.17929
3.264	75.843	-26764	2365.2	-0.24254	0.95355	0.18007
3.266	75.844	-26772	2365.2	-0.24185	0.95345	0.179
3.268	75.847	-26780	2365.1	-0.24117	0.95336	0.17792
3.27	75.861	-26776	2365.1	-0.24049	0.95326	0.17685
3.272	75.866	-26773	2365	-0.2398	0.95316	0.17578
3.274	75.872	-26771	2365	-0.23912	0.95306	0.1747
3.276	75.875	-26768	2365	-0.23951	0.95219	0.1749
3.278	75.871	-26768	2364.9	-0.2399	0.95131	0.17509
3.28	75.873	-26768	2364.9	-0.24029	0.95043	0.17529
3.282	75.875	-26771	2364.8	-0.24068	0.94955	0.17548
3.284	75.876	-26775	2364.8	-0.24107	0.94867	0.17568
3.286	75.873	-26774	2364.7	-0.24088	0.94994	0.17656
3.288	75.871	-26773	2364.6	-0.24068	0.95121	0.17744
3.29	75.877	-26772	2364.5	-0.24049	0.95248	0.17832
3.292	75.877	-26770	2364.4	-0.24029	0.95375	0.17919
3.294	75.871	-26771	2364.3	-0.2401	0.95502	0.18007
3.296	75.863	-26772	2364.2	-0.24	0.95599	0.17968
3.298	75.859	-26767	2364.1	-0.2399	0.95697	0.17929
3.3	75.862	-26762	2364	-0.2398	0.95794	0.1789
3.302	75.865	-26764	2363.9	-0.23971	0.95892	0.17851
3.304	75.864	-26765	2363.8	-0.23961	0.9599	0.17812
3.306	75.868	-26773	2363.8	-0.23902	0.95902	0.17822
3.308	75.878	-26781	2363.7	-0.23844	0.95814	0.17832
3.31	75.885	-26776	2363.6	-0.23785	0.95726	0.17841
3.312	75.881	-26771	2363.5	-0.23727	0.95638	0.17851
3.314	75.873	-26771	2363.4	-0.23668	0.9555	0.17861
3.316	75.869	-26771	2363.3	-0.23697	0.95589	0.17851
3.318	75.864	-26770	2363.2	-0.23727	0.95628	0.17841
3.32	75.864	-26769	2363.1	-0.23756	0.95668	0.17832
3.322	75.869	-26773	2363.1	-0.23785	0.95707	0.17822
3.324	75.873	-26778	2363	-0.23814	0.95746	0.17812
3.326	75.875	-26778	2362.9	-0.23834	0.95794	0.17832
3.328	75.873	-26779	2362.8	-0.23853	0.95843	0.17851
3.33	75.873	-26776	2362.7	-0.23873	0.95892	0.17871
3.332	75.874	-26774	2362.6	-0.23892	0.95941	0.1789
3.334	75.885	-26773	2362.5	-0.23912	0.9599	0.1791
3.336	75.894	-26771	2362.4	-0.23961	0.96009	0.17792
3.338	75.893	-26772	2362.3	-0.2401	0.96029	0.17675
3.34	75.886	-26774	2362.2	-0.24058	0.96048	0.17558
3.342	75.866	-26777	2362.1	-0.24107	0.96068	0.17441
3.344	75.841	-26780	2361.9	-0.24156	0.96087	0.17324
3.346	75.806	-26776	2361.8	-0.24068	0.96048	0.17431
3.348	75.774	-26773	2361.7	-0.2398	0.96009	0.17539
3.35	75.738	-26771	2361.6	-0.23892	0.9597	0.17646
3.352	75.694	-26770	2361.5	-0.23805	0.95931	0.17753
3.354	75.658	-26772	2361.4	-0.23717	0.95892	0.17861
3.356	75.624	-26774	2361.2	-0.23775	0.95843	0.1788
3.358	75.587	-26775	2361.1	-0.23834	0.95794	0.179
3.36	75.548	-26776	2361	-0.23892	0.95746	0.17919
3.362	75.513	-26776	2360.9	-0.23951	0.95697	0.17939
3.364	75.498	-26775	2360.8	-0.2401	0.95648	0.17958
3.366	75.492	-26775	2360.6	-0.23912	0.9556	0.18007
3.368	75.484	-26775	2360.5	-0.23814	0.95472	0.18056
3.37	75.489	-26778	2360.3	-0.23717	0.95384	0.18105
3.372	75.51	-26781	2360.2	-0.23619	0.95297	0.18154
3.374	75.539	-26783	2360.1	-0.23522	0.95209	0.18202
3.376	75.573	-26785	2359.9	-0.23697	0.95219	0.18232
3.378	75.623	-26783	2359.8	-0.23873	0.95228	0.18261
3.38	75.696	-26782	2359.7	-0.24049	0.95238	0.1829
3.382	75.786	-26785	2359.6	-0.24224	0.95248	0.1832
3.384	75.868	-26788	2359.4	-0.244	0.95258	0.18349
3.386	75.923	-26788	2359.3	-0.24254	0.95248	0.1828
3.388	75.949	-26789	2359.2	-0.24107	0.95238	0.18212
3.39	75.962	-26788	2359	-0.23961	0.95228	0.18144
3.392	75.965	-26787	2358.9	-0.23814	0.95219	0.18076
3.394	75.953	-26785	2358.7	-0.23668	0.95209	0.18007
3.396	75.936	-26783	2358.6	-0.23814	0.9518	0.18036
3.398	75.914	-26782	2358.5	-0.23961	0.9515	0.18066
3.4	75.893	-26782	2358.4	-0.24107	0.95121	0.18095
3.402	75.878	-26784	2358.4	-0.24254	0.95092	0.18124
3.404	75.862	-26786	2358.3	-0.244	0.95062	0.18154
3.406	75.843	-26787	2358.2	-0.24293	0.9514	0.18115
3.408	75.831	-26787	2358.1	-0.24185	0.95219	0.18076
3.41	75.827	-26788	2358.1	-0.24078	0.95297	0.18036
3.412	75.825	-26789	2358	-0.23971	0.95375	0.17997
3.414	75.823	-26792	2358	-0.23863	0.95453	0.17958
3.416	75.816	-26795	2357.9	-0.23971	0.95394	0.17988
3.418	75.806	-26794	2357.9	-0.24078	0.95336	0.18017
3.42	75.802	-26792	2357.8	-0.24185	0.95277	0.18046
3.422	75.806	-26789	2357.7	-0.24293	0.95219	0.18076
3.424	75.801	-26787	2357.7	-0.244	0.9516	0.18105
3.426	75.799	-26787	2357.6	-0.2439	0.95228	0.18105
3.428	75.801	-26787	2357.6	-0.2438	0.95297	0.18105
3.43	75.801	-26791	2357.6	-0.24371	0.95365	0.18105
3.432	75.797	-26794	2357.5	-0.24361	0.95433	0.18105
3.434	75.791	-26798	2357.5	-0.24351	0.95502	0.18105
3.436	75.801	-26802	2357.4	-0.24439	0.95424	0.18095
3.438	75.803	-26796	2357.3	-0.24527	0.95345	0.18085
3.44	75.802	-26790	2357.2	-0.24615	0.95267	0.18076
3.442	75.796	-26794	2357.2	-0.24703	0.95189	0.18066
3.444	75.79	-26797	2357.2	-0.2479	0.95111	0.18056
3.446	75.784	-26800	2357.2	-0.248	0.95111	0.18036
3.448	75.78	-26802	2357.1	-0.2481	0.95111	0.18017
3.45	75.779	-26797	2357.1	-0.2482	0.95111	0.17997
3.452	75.781	-26791	2357.1	-0.24829	0.95111	0.17978
3.454	75.782	-26793	2357.1	-0.24839	0.95111	0.17958
3.456	75.778	-26794	2357.1	-0.2481	0.95131	0.17958
3.458	75.775	-26798	2357.1	-0.24781	0.9515	0.17958
3.46	75.779	-26802	2357.1	-0.24751	0.9517	0.17958
3.462	75.779	-26804	2357.1	-0.24722	0.95189	0.17958
3.464	75.777	-26805	2357.1	-0.24693	0.95209	0.17958
3.466	75.771	-26800	2357.1	-0.24742	0.95209	0.17988
3.468	75.766	-26795	2357.1	-0.2479	0.95209	0.18017
3.47	75.761	-26793	2357.1	-0.24839	0.95209	0.18046
3.472	75.758	-26790	2357.1	-0.24888	0.95209	0.18076
3.474	75.757	-26794	2357.1	-0.24937	0.95209	0.18105
3.476	75.753	-26798	2357.2	-0.24917	0.95306	0.18056
3.478	75.748	-26800	2357.2	-0.24898	0.95404	0.18007
3.48	75.748	-26803	2357.2	-0.24878	0.95502	0.17958
3.482	75.751	-26804	2357.2	-0.24859	0.95599	0.1791
3.484	75.749	-26806	2357.1	-0.24839	0.95697	0.17861
3.486	75.744	-26804	2357.1	-0.24703	0.95638	0.17802
3.488	75.739	-26801	2357.1	-0.24566	0.9558	0.17744
3.49	75.733	-26801	2357.1	-0.24429	0.95521	0.17685
3.492	75.728	-26800	2357	-0.24293	0.95463	0.17627
3.494	75.724	-26801	2357	-0.24156	0.95404	0.17568
3.496	75.724	-26803	2357	-0.24166	0.95384	0.17627
3.498	75.721	-26801	2357	-0.24176	0.95365	0.17685
3.5	75.716	-26800	2357	-0.24185	0.95345	0.17744
3.502	75.711	-26799	2356.9	-0.24195	0.95326	0.17802
3.504	75.702	-26798	2356.9	-0.24205	0.95306	0.17861
3.506	75.696	-26798	2356.8	-0.24234	0.95316	0.1789
3.508	75.694	-26799	2356.8	-0.24263	0.95326	0.17919
3.51	75.694	-26801	2356.8	-0.24293	0.95336	0.17949
3.512	75.69	-26803	2356.8	-0.24322	0.95345	0.17978
3.514	75.694	-26802	2356.7	-0.24351	0.95355	0.18007
3.516	75.701	-26801	2356.7	-0.24439	0.95287	0.18007
3.518	75.699	-26800	2356.6	-0.24527	0.95219	0.18007
3.52	75.692	-26800	2356.6	-0.24615	0.9515	0.18007
3.522	75.685	-26805	2356.5	-0.24703	0.95082	0.18007
3.524	75.688	-26810	2356.4	-0.2479	0.95014	0.18007
3.526	75.688	-26811	2356.3	-0.24761	0.95023	0.18017
3.528	75.678	-26812	2356.2	-0.24732	0.95033	0.18027
3.53	75.67	-26809	2356.1	-0.24703	0.95043	0.18036
3.532	75.679	-26806	2355.9	-0.24673	0.95053	0.18046
3.534	75.687	-26807	2355.8	-0.24644	0.95062	0.18056
3.536	75.687	-26809	2355.7	-0.24624	0.95082	0.18105
3.538	75.677	-26808	2355.6	-0.24605	0.95101	0.18154
3.54	75.674	-26807	2355.5	-0.24585	0.95121	0.18202
3.542	75.68	-26810	2355.4	-0.24566	0.9514	0.18251
3.544	75.681	-26814	2355.3	-0.24546	0.9516	0.183
3.546	75.679	-26813	2355.2	-0.24459	0.9518	0.18232
3.548	75.677	-26811	2355.1	-0.24371	0.95199	0.18163
3.55	75.676	-26808	2355	-0.24283	0.95219	0.18095
3.552	75.675	-26804	2355	-0.24195	0.95238	0.18027
3.554	75.674	-26811	2354.9	-0.24107	0.95258	0.17958
3.556	75.672	-26819	2354.9	-0.24185	0.95238	0.18046
3.558	75.668	-26811	2354.8	-0.24263	0.95219	0.18134
3.56	75.667	-26804	2354.9	-0.24341	0.95199	0.18222
3.562	75.669	-26811	2354.9	-0.2442	0.9518	0.1831
3.564	75.67	-26818	2355	-0.24498	0.9516	0.18398
3.566	75.67	-26814	2355.1	-0.24439	0.95219	0.18368
3.568	75.67	-26810	2355.2	-0.2438	0.95277	0.18339
3.57	75.67	-26811	2355.3	-0.24322	0.95336	0.1831
3.572	75.67	-26812	2355.4	-0.24263	0.95394	0.1828
3.574	75.671	-26817	2355.6	-0.24205	0.95453	0.18251
3.576	75.67	-26822	2355.8	-0.24185	0.95443	0.18193
3.578	75.672	-26819	2355.9	-0.24166	0.95433	0.18134
3.58	75.675	-26815	2356.1	-0.24146	0.95424	0.18076
3.582	75.677	-26813	2356.3	-0.24127	0.95414	0.18017
3.584	75.682	-26810	2356.5	-0.24107	0.95404	0.17958
3.586	75.683	-26812	2356.8	-0.24176	0.95355	0.18036
3.588	75.682	-26814	2357	-0.24244	0.95306	0.18115
3.59	75.687	-26810	2357.3	-0.24312	0.95258	0.18193
3.592	75.687	-26806	2357.6	-0.2438	0.95209	0.18271
3.594	75.691	-26806	2357.9	-0.24449	0.9516	0.18349
3.596	75.699	-26806	2358.2	-0.24439	0.95258	0.18359
3.598	75.701	-26808	2358.5	-0.24429	0.95355	0.18368
3.6	75.707	-26811	2358.9	-0.2442	0.95453	0.18378
3.602	75.712	-26811	2359.3	-0.2441	0.9555	0.18388
3.604	75.711	-26810	2359.7	-0.244	0.95648	0.18398
3.606	75.712	-26812	2360.1	-0.24293	0.9556	0.1829
3.608	75.715	-26814	2360.4	-0.24185	0.95472	0.18183
3.61	75.715	-26810	2360.9	-0.24078	0.95384	0.18076
3.612	75.73	-26806	2361.3	-0.23971	0.95297	0.17968
3.614	75.735	-26802	2361.8	-0.23863	0.95209	0.17861
3.616	75.73	-26797	2362.2	-0.23971	0.95209	0.1788
3.618	75.729	-26797	2362.7	-0.24078	0.95209	0.179
3.62	75.735	-26797	2363.1	-0.24185	0.95209	0.17919
3.622	75.747	-26797	2363.6	-0.24293	0.95209	0.17939
3.624	75.756	-26798	2364.1	-0.244	0.95209	0.17958
3.626	75.764	-26793	2364.5	-0.24468	0.95121	0.17949
3.628	75.767	-26788	2364.9	-0.24537	0.95033	0.17939
3.63	75.766	-26788	2365.3	-0.24605	0.94945	0.17929
3.632	75.765	-26787	2365.7	-0.24673	0.94857	0.17919
3.634	75.767	-26789	2366.2	-0.24742	0.9477	0.1791
3.636	75.763	-26791	2366.5	-0.24703	0.94789	0.17812
3.638	75.755	-26782	2366.8	-0.24664	0.94809	0.17714
3.64	75.755	-26774	2367.1	-0.24624	0.94828	0.17617
3.642	75.763	-26782	2367.4	-0.24585	0.94848	0.17519
3.644	75.768	-26790	2367.7	-0.24546	0.94867	0.17422
3.646	75.772	-26790	2367.9	-0.24644	0.94916	0.17548
3.648	75.776	-26791	2368.1	-0.24742	0.94965	0.17675
3.65	75.773	-26783	2368.3	-0.24839	0.95014	0.17802
3.652	75.769	-26775	2368.5	-0.24937	0.95062	0.17929
3.654	75.769	-26775	2368.6	-0.25034	0.95111	0.18056
3.656	75.777	-26776	2368.8	-0.24878	0.95228	0.18007
3.658	75.785	-26774	2368.9	-0.24722	0.95345	0.17958
3.66	75.788	-26772	2369	-0.24566	0.95463	0.1791
3.662	75.786	-26774	2369.1	-0.2441	0.9558	0.17861
3.664	75.785	-26775	2369.1	-0.24254	0.95697	0.17812
3.666	75.787	-26774	2369.1	-0.24215	0.95707	0.17744
3.668	75.789	-26772	2369.1	-0.24176	0.95716	0.17675
3.67	75.793	-26774	2369	-0.24136	0.95726	0.17607
3.672	75.793	-26775	2368.9	-0.24097	0.95736	0.17539
3.674	75.793	-26771	2368.9	-0.24058	0.95746	0.1747
3.676	75.793	-26768	2368.8	-0.24117	0.95755	0.17431
3.678	75.8	-26768	2368.7	-0.24176	0.95765	0.17392
3.68	75.803	-26769	2368.6	-0.24234	0.95775	0.17353
3.682	75.8	-26766	2368.4	-0.24293	0.95785	0.17314
3.684	75.8	-26762	2368.3	-0.24351	0.95794	0.17275
3.686	75.798	-26763	2368.1	-0.24312	0.95804	0.17246
3.688	75.799	-26765	2368	-0.24273	0.95814	0.17217
3.69	75.797	-26764	2367.8	-0.24234	0.95824	0.17187
3.692	75.791	-26763	2367.6	-0.24195	0.95833	0.17158
3.694	75.789	-26764	2367.3	-0.24156	0.95843	0.17129
3.696	75.784	-26764	2367.1	-0.24166	0.95824	0.17168
3.698	75.778	-26763	2366.9	-0.24176	0.95804	0.17207
3.7	75.775	-26761	2366.6	-0.24185	0.95785	0.17246
3.702	75.773	-26761	2366.4	-0.24195	0.95765	0.17285
3.704	75.769	-26761	2366.2	-0.24205	0.95746	0.17324
3.706	75.771	-26756	2365.9	-0.24097	0.95668	0.17383
3.708	75.777	-26751	2365.7	-0.2399	0.95589	0.17441
3.71	75.775	-26757	2365.5	-0.23883	0.95511	0.175
3.712	75.772	-26763	2365.2	-0.23775	0.95433	0.17558
3.714	75.772	-26770	2364.9	-0.23668	0.95355	0.17617
3.716	75.768	-26777	2364.7	-0.23658	0.95394	0.17656
3.718	75.764	-26767	2364.4	-0.23648	0.95433	0.17695
3.72	75.759	-26757	2364.2	-0.23639	0.95472	0.17734
3.722	75.758	-26764	2363.9	-0.23629	0.95511	0.17773
3.724	75.758	-26771	2363.7	-0.23619	0.9555	0.17812
3.726	75.767	-26767	2363.4	-0.23522	0.95443	0.17753
3.728	75.772	-26764	2363.2	-0.23424	0.95336	0.17695
3.73	75.766	-26762	2362.9	-0.23326	0.95228	0.17636
3.732	75.765	-26760	2362.7	-0.23229	0.95121	0.17578
3.734	75.766	-26764	2362.5	-0.23131	0.95014	0.17519
3.736	75.766	-26768	2362.2	-0.2316	0.95023	0.17519
3.738	75.767	-26769	2362	-0.2319	0.95033	0.17519
3.74	75.766	-26770	2361.7	-0.23219	0.95043	0.17519
3.742	75.76	-26775	2361.5	-0.23248	0.95053	0.17519
3.744	75.754	-26780	2361.3	-0.23278	0.95062	0.17519
3.746	75.748	-26777	2361	-0.23297	0.95101	0.17539
3.748	75.746	-26773	2360.8	-0.23317	0.9514	0.17558
3.75	75.756	-26773	2360.6	-0.23336	0.9518	0.17578
3.752	75.765	-26773	2360.4	-0.23356	0.95219	0.17597
3.754	75.761	-26773	2360.2	-0.23375	0.95258	0.17617
3.756	75.76	-26774	2360	-0.23522	0.95267	0.17705
3.758	75.763	-26766	2359.9	-0.23668	0.95277	0.17792
3.76	75.765	-26758	2359.7	-0.23814	0.95287	0.1788
3.762	75.772	-26757	2359.5	-0.23961	0.95297	0.17968
3.764	75.78	-26757	2359.3	-0.24107	0.95306	0.18056
3.766	75.785	-26767	2359.2	-0.24156	0.95384	0.18095
3.768	75.783	-26777	2359.1	-0.24205	0.95463	0.18134
3.77	75.775	-26770	2359	-0.24254	0.95541	0.18173
3.772	75.764	-26763	2358.9	-0.24302	0.95619	0.18212
3.774	75.761	-26766	2358.8	-0.24351	0.95697	0.18251
3.776	75.761	-26769	2358.7	-0.24283	0.95736	0.18212
3.778	75.768	-26776	2358.6	-0.24215	0.95775	0.18173
3.78	75.768	-26783	2358.5	-0.24146	0.95814	0.18134
3.782	75.768	-26778	2358.4	-0.24078	0.95853	0.18095
3.784	75.771	-26773	2358.3	-0.2401	0.95892	0.18056
3.786	75.77	-26775	2358.3	-0.23873	0.95843	0.18036
3.788	75.765	-26778	2358.2	-0.23736	0.95794	0.18017
3.79	75.762	-26776	2358.2	-0.236	0.95746	0.17997
3.792	75.759	-26774	2358.2	-0.23463	0.95697	0.17978
3.794	75.757	-26772	2358.1	-0.23326	0.95648	0.17958
3.796	75.757	-26770	2358.1	-0.23385	0.95668	0.17949
3.798	75.761	-26770	2358	-0.23444	0.95687	0.17939
3.8	75.767	-26769	2358	-0.23502	0.95707	0.17929
3.802	75.766	-26773	2358	-0.23561	0.95726	0.17919
3.804	75.763	-26777	2358	-0.23619	0.95746	0.1791
3.806	75.758	-26779	2358	-0.23658	0.95843	0.1789
3.808	75.754	-26781	2358	-0.23697	0.95941	0.17871
3.81	75.754	-26778	2357.9	-0.23736	0.96038	0.17851
3.812	75.759	-26775	2357.9	-0.23775	0.96136	0.17832
3.814	75.764	-26781	2357.9	-0.23814	0.96234	0.17812
3.816	75.765	-26787	2357.9	-0.23922	0.96097	0.17929
3.818	75.761	-26787	2358	-0.24029	0.9596	0.18046
3.82	75.76	-26787	2357.9	-0.24136	0.95824	0.18163
3.822	75.76	-26789	2357.9	-0.24244	0.95687	0.1828
3.824	75.756	-26792	2357.9	-0.24351	0.9555	0.18398
3.826	75.756	-26789	2357.9	-0.24498	0.95492	0.18359
3.828	75.756	-26786	2357.9	-0.24644	0.95433	0.1832
3.83	75.758	-26789	2358	-0.2479	0.95375	0.1828
3.832	75.758	-26792	2358	-0.24937	0.95316	0.18241
3.834	75.762	-26788	2358	-0.25083	0.95258	0.18202
3.836	75.76	-26784	2358.1	-0.24976	0.95131	0.18115
3.838	75.755	-26784	2358.2	-0.24868	0.95004	0.18027
3.84	75.753	-26784	2358.3	-0.24761	0.94877	0.17939
3.842	75.75	-26785	2358.4	-0.24654	0.9475	0.17851
3.844	75.75	-26786	2358.4	-0.24546	0.94623	0.17763
3.846	75.757	-26791	2358.5	-0.24498	0.94731	0.17812
3.848	75.764	-26796	2358.6	-0.24449	0.94838	0.17861
3.85	75.755	-26790	2358.7	-0.244	0.94945	0.1791
3.852	75.745	-26784	2358.8	-0.24351	0.95053	0.17958
3.854	75.739	-26789	2358.9	-0.24302	0.9516	0.18007
3.856	75.723	-26794	2359	-0.24283	0.9515	0.17929
3.858	75.72	-26795	2359.1	-0.24263	0.9514	0.17851
3.86	75.724	-26796	2359.2	-0.24244	0.95131	0.17773
3.862	75.731	-26792	2359.3	-0.24224	0.95121	0.17695
3.864	75.728	-26787	2359.3	-0.24205	0.95111	0.17617
3.866	75.732	-26788	2359.4	-0.2441	0.9516	0.17705
3.868	75.738	-26789	2359.5	-0.24615	0.95209	0.17792
3.87	75.74	-26792	2359.6	-0.2482	0.95258	0.1788
3.872	75.739	-26794	2359.7	-0.25025	0.95306	0.17968
3.874	75.728	-26788	2359.8	-0.2523	0.95355	0.18056
3.876	75.718	-26781	2359.9	-0.2522	0.95433	0.18056
3.878	75.713	-26783	2360	-0.2521	0.95511	0.18056
3.88	75.709	-26785	2360	-0.252	0.95589	0.18056
3.882	75.715	-26788	2360.2	-0.25191	0.95668	0.18056
3.884	75.732	-26792	2360.3	-0.25181	0.95746	0.18056
3.886	75.748	-26788	2360.4	-0.25191	0.95716	0.18105
3.888	75.754	-26784	2360.4	-0.252	0.95687	0.18154
3.89	75.752	-26784	2360.5	-0.2521	0.95658	0.18202
3.892	75.747	-26784	2360.5	-0.2522	0.95628	0.18251
3.894	75.74	-26782	2360.6	-0.2523	0.95599	0.183
3.896	75.731	-26780	2360.7	-0.25025	0.95482	0.18124
3.898	75.724	-26787	2360.7	-0.2482	0.95365	0.17949
3.9	75.716	-26794	2360.8	-0.24615	0.95248	0.17773
3.902	75.712	-26791	2360.8	-0.2441	0.95131	0.17597
3.904	75.714	-26789	2360.8	-0.24205	0.95014	0.17422
3.906	75.725	-26793	2360.9	-0.24156	0.9518	0.17509
3.908	75.737	-26797	2360.9	-0.24107	0.95345	0.17597
3.91	75.747	-26796	2360.9	-0.24058	0.95511	0.17685
3.912	75.753	-26796	2360.9	-0.2401	0.95677	0.17773
3.914	75.756	-26792	2360.8	-0.23961	0.95843	0.17861
3.916	75.763	-26788	2360.9	-0.23932	0.95951	0.17753
3.918	75.774	-26787	2360.9	-0.23902	0.96058	0.17646
3.92	75.783	-26786	2360.9	-0.23873	0.96165	0.17539
3.922	75.786	-26791	2360.9	-0.23844	0.96273	0.17431
3.924	75.79	-26797	2360.9	-0.23814	0.9638	0.17324
3.926	75.794	-26791	2360.9	-0.23824	0.96302	0.17353
3.928	75.791	-26784	2360.8	-0.23834	0.96224	0.17383
3.93	75.787	-26782	2360.8	-0.23844	0.96146	0.17412
3.932	75.79	-26781	2360.7	-0.23853	0.96068	0.17441
3.934	75.794	-26782	2360.7	-0.23863	0.9599	0.1747
3.936	75.794	-26783	2360.6	-0.23912	0.9597	0.17392
3.938	75.79	-26783	2360.5	-0.23961	0.95951	0.17314
3.94	75.793	-26784	2360.5	-0.2401	0.95931	0.17236
3.942	75.797	-26788	2360.4	-0.24058	0.95912	0.17158
3.944	75.8	-26792	2360.4	-0.24107	0.95892	0.1708
3.946	75.8	-26789	2360.3	-0.24039	0.95882	0.17168
3.948	75.795	-26786	2360.1	-0.23971	0.95872	0.17256
3.95	75.795	-26787	2360	-0.23902	0.95863	0.17344
3.952	75.8	-26788	2359.9	-0.23834	0.95853	0.17431
3.954	75.802	-26789	2359.8	-0.23766	0.95843	0.17519
3.956	75.799	-26789	2359.8	-0.23766	0.95804	0.17578
3.958	75.797	-26785	2359.7	-0.23766	0.95765	0.17636
3.96	75.797	-26780	2359.6	-0.23766	0.95726	0.17695
3.962	75.795	-26783	2359.4	-0.23766	0.95687	0.17753
3.964	75.793	-26787	2359.3	-0.23766	0.95648	0.17812
3.966	75.794	-26792	2359.2	-0.23805	0.95716	0.17705
3.968	75.798	-26798	2359.1	-0.23844	0.95785	0.17597
3.97	75.803	-26795	2359	-0.23883	0.95853	0.1749
3.972	75.8	-26793	2358.9	-0.23922	0.95921	0.17383
3.974	75.792	-26792	2358.8	-0.23961	0.9599	0.17275
3.976	75.792	-26791	2358.7	-0.23892	0.9597	0.17344
3.978	75.8	-26791	2358.6	-0.23824	0.95951	0.17412
3.98	75.811	-26792	2358.5	-0.23756	0.95931	0.1748
3.982	75.817	-26793	2358.4	-0.23688	0.95912	0.17548
3.984	75.813	-26794	2358.3	-0.23619	0.95892	0.17617
3.986	75.806	-26790	2358.2	-0.23619	0.95882	0.17548
3.988	75.805	-26787	2358.1	-0.23619	0.95872	0.1748
3.99	75.8	-26785	2358.1	-0.23619	0.95863	0.17412
3.992	75.786	-26784	2358	-0.23619	0.95853	0.17344
3.994	75.763	-26787	2357.9	-0.23619	0.95843	0.17275
3.996	75.725	-26791	2357.8	-0.23678	0.95853	0.17402
3.998	75.686	-26791	2357.7	-0.23736	0.95863	0.17529
4	75.654	-26792	2357.6	-0.23795	0.95872	0.17656
4.002	75.622	-26795	2357.5	-0.23853	0.95882	0.17783
4.004	75.584	-26799	2357.5	-0.23912	0.95892	0.1791
4.006	75.545	-26798	2357.4	-0.23892	0.95843	0.17929
4.008	75.503	-26798	2357.3	-0.23873	0.95794	0.17949
4.01	75.463	-26797	2357.2	-0.23853	0.95746	0.17968
4.012	75.435	-26795	2357.1	-0.23834	0.95697	0.17988
4.014	75.421	-26793	2357	-0.23814	0.95648	0.18007
4.016	75.411	-26792	2356.9	-0.23863	0.95638	0.18007
4.018	75.407	-26794	2356.9	-0.23912	0.95628	0.18007
4.02	75.418	-26797	2356.8	-0.23961	0.95619	0.18007
4.022	75.446	-26799	2356.7	-0.2401	0.95609	0.18007
4.024	75.478	-26801	2356.6	-0.24058	0.95599	0.18007
4.026	75.509	-26802	2356.6	-0.24146	0.95521	0.18056
4.028	75.565	-26803	2356.5	-0.24234	0.95443	0.18105
4.03	75.635	-26803	2356.4	-0.24322	0.95365	0.18154
4.032	75.725	-26804	2356.4	-0.2441	0.95287	0.18202
4.034	75.812	-26800	2356.3	-0.24498	0.95209	0.18251
4.036	75.866	-26796	2356.2	-0.24537	0.95209	0.183
4.038	75.885	-26799	2356.1	-0.24576	0.95209	0.18349
4.04	75.888	-26802	2356	-0.24615	0.95209	0.18398
4.042	75.878	-26805	2356	-0.24654	0.95209	0.18446
4.044	75.869	-26808	2355.9	-0.24693	0.95209	0.18495
4.046	75.862	-26808	2355.9	-0.24566	0.95258	0.18398
4.048	75.845	-26807	2355.8	-0.24439	0.95306	0.183
4.05	75.825	-26808	2355.8	-0.24312	0.95355	0.18202
4.052	75.804	-26809	2355.7	-0.24185	0.95404	0.18105
4.054	75.781	-26810	2355.7	-0.24058	0.95453	0.18007
4.056	75.767	-26811	2355.7	-0.24205	0.95355	0.18056
4.058	75.754	-26810	2355.7	-0.24351	0.95258	0.18105
4.06	75.746	-26810	2355.6	-0.24498	0.9516	0.18154
4.062	75.74	-26809	2355.5	-0.24644	0.95062	0.18202
4.064	75.73	-26808	2355.5	-0.2479	0.94965	0.18251
4.066	75.732	-26808	2355.5	-0.24683	0.95121	0.18271
4.068	75.742	-26808	2355.5	-0.24576	0.95277	0.1829
4.07	75.743	-26810	2355.4	-0.24468	0.95433	0.1831
4.072	75.737	-26812	2355.4	-0.24361	0.95589	0.18329
4.074	75.736	-26807	2355.4	-0.24254	0.95746	0.18349
4.076	75.739	-26803	2355.3	-0.24283	0.95707	0.18329
4.078	75.738	-26802	2355.3	-0.24312	0.95668	0.1831
4.08	75.74	-26801	2355.2	-0.24341	0.95628	0.1829
4.082	75.743	-26802	2355.2	-0.24371	0.95589	0.18271
4.084	75.741	-26803	2355.2	-0.244	0.9555	0.18251
4.086	75.739	-26803	2355.1	-0.24468	0.95463	0.18261
4.088	75.732	-26804	2355	-0.24537	0.95375	0.18271
4.09	75.724	-26810	2355	-0.24605	0.95287	0.1828
4.092	75.717	-26816	2355	-0.24673	0.95199	0.1829
4.094	75.711	-26818	2355	-0.24742	0.95111	0.183
4.096	75.714	-26820	2355	-0.24673	0.95072	0.18212
4.098	75.714	-26818	2354.9	-0.24605	0.95033	0.18124
4.1	75.716	-26816	2354.9	-0.24537	0.94994	0.18036
4.102	75.719	-26817	2354.8	-0.24468	0.94955	0.17949
4.104	75.716	-26818	2354.8	-0.244	0.94916	0.17861
4.106	75.718	-26818	2354.8	-0.24332	0.95004	0.1791
4.108	75.717	-26817	2354.8	-0.24263	0.95092	0.17958
4.11	75.715	-26818	2354.8	-0.24195	0.9518	0.18007
4.112	75.711	-26819	2354.8	-0.24127	0.95267	0.18056
4.114	75.704	-26820	2354.8	-0.24058	0.95355	0.18105
4.116	75.697	-26821	2354.8	-0.24097	0.95326	0.18056
4.118	75.697	-26819	2354.7	-0.24136	0.95297	0.18007
4.12	75.704	-26817	2354.8	-0.24176	0.95267	0.17958
4.122	75.704	-26819	2354.8	-0.24215	0.95238	0.1791
4.124	75.694	-26821	2354.8	-0.24254	0.95209	0.17861
4.126	75.684	-26821	2354.8	-0.24312	0.95248	0.1791
4.128	75.683	-26821	2354.8	-0.24371	0.95287	0.17958
4.13	75.681	-26818	2354.9	-0.24429	0.95326	0.18007
4.132	75.677	-26815	2354.9	-0.24488	0.95365	0.18056
4.134	75.673	-26817	2354.9	-0.24546	0.95404	0.18105
4.136	75.672	-26818	2354.9	-0.24576	0.95394	0.18124
4.138	75.67	-26817	2354.9	-0.24605	0.95384	0.18144
4.14	75.665	-26816	2354.9	-0.24634	0.95375	0.18163
4.142	75.662	-26817	2354.8	-0.24664	0.95365	0.18183
4.144	75.666	-26818	2354.8	-0.24693	0.95355	0.18202
4.146	75.665	-26820	2354.8	-0.24654	0.95345	0.18124
4.148	75.654	-26822	2354.8	-0.24615	0.95336	0.18046
4.15	75.651	-26821	2354.8	-0.24576	0.95326	0.17968
4.152	75.656	-26820	2354.8	-0.24537	0.95316	0.1789
4.154	75.655	-26823	2354.8	-0.24498	0.95306	0.17812
4.156	75.65	-26826	2354.8	-0.24527	0.95306	0.1789
4.158	75.648	-26826	2354.8	-0.24556	0.95306	0.17968
4.16	75.65	-26827	2354.8	-0.24585	0.95306	0.18046
4.162	75.648	-26828	2354.7	-0.24615	0.95306	0.18124
4.164	75.638	-26829	2354.7	-0.24644	0.95306	0.18202
4.166	75.627	-26829	2354.7	-0.24585	0.95424	0.18173
4.168	75.624	-26830	2354.7	-0.24527	0.95541	0.18144
4.17	75.625	-26827	2354.6	-0.24468	0.95658	0.18115
4.172	75.625	-26824	2354.6	-0.2441	0.95775	0.18085
4.174	75.625	-26825	2354.5	-0.24351	0.95892	0.18056
4.176	75.621	-26826	2354.4	-0.24254	0.95941	0.17949
4.178	75.611	-26826	2354.3	-0.24156	0.9599	0.17841
4.18	75.608	-26826	2354.2	-0.24058	0.96038	0.17734
4.182	75.613	-26824	2354.1	-0.23961	0.96087	0.17627
4.184	75.614	-26823	2353.9	-0.23863	0.96136	0.17519
4.186	75.609	-26827	2353.8	-0.24029	0.9596	0.17627
4.188	75.605	-26831	2353.6	-0.24195	0.95785	0.17734
4.19	75.606	-26822	2353.5	-0.24361	0.95609	0.17841
4.192	75.61	-26814	2353.4	-0.24527	0.95433	0.17949
4.194	75.609	-26817	2353.2	-0.24693	0.95258	0.18056
4.196	75.607	-26820	2353.1	-0.24517	0.95277	0.18017
4.198	75.607	-26816	2353	-0.24341	0.95297	0.17978
4.2	75.61	-26813	2352.9	-0.24166	0.95316	0.17939
4.202	75.61	-26819	2352.8	-0.2399	0.95336	0.179
4.204	75.61	-26826	2352.7	-0.23814	0.95355	0.17861
4.206	75.615	-26825	2352.6	-0.23795	0.95306	0.17851
4.208	75.614	-26824	2352.5	-0.23775	0.95258	0.17841
4.21	75.608	-26825	2352.5	-0.23756	0.95209	0.17832
4.212	75.606	-26827	2352.5	-0.23736	0.9516	0.17822
4.214	75.612	-26827	2352.5	-0.23717	0.95111	0.17812
4.216	75.612	-26828	2352.5	-0.23824	0.95219	0.17978
4.218	75.612	-26828	2352.5	-0.23932	0.95326	0.18144
4.22	75.611	-26828	2352.5	-0.24039	0.95433	0.1831
4.222	75.618	-26829	2352.6	-0.24146	0.95541	0.18476
4.224	75.628	-26831	2352.7	-0.24254	0.95648	0.18642
4.226	75.637	-26835	2352.8	-0.24302	0.95619	0.18651
4.228	75.638	-26839	2352.9	-0.24351	0.95589	0.18661
4.23	75.636	-26839	2353.1	-0.244	0.9556	0.18671
4.232	75.64	-26839	2353.2	-0.24449	0.95531	0.18681
4.234	75.642	-26837	2353.4	-0.24498	0.95502	0.1869
4.236	75.641	-26834	2353.5	-0.24341	0.95648	0.18534
4.238	75.645	-26829	2353.7	-0.24185	0.95794	0.18378
4.24	75.65	-26824	2353.9	-0.24029	0.95941	0.18222
4.242	75.654	-26824	2354.1	-0.23873	0.96087	0.18066
4.244	75.657	-26825	2354.2	-0.23717	0.96234	0.1791
4.246	75.657	-26827	2354.5	-0.23746	0.96146	0.17949
4.248	75.658	-26830	2354.7	-0.23775	0.96058	0.17988
4.25	75.662	-26829	2355	-0.23805	0.9597	0.18027
4.252	75.665	-26829	2355.3	-0.23834	0.95882	0.18066
4.254	75.665	-26829	2355.6	-0.23863	0.95794	0.18105
4.256	75.663	-26830	2355.9	-0.23834	0.95804	0.18056
4.258	75.661	-26830	2356.2	-0.23805	0.95814	0.18007
4.26	75.665	-26830	2356.6	-0.23775	0.95824	0.17958
4.262	75.674	-26826	2356.9	-0.23746	0.95833	0.1791
4.264	75.681	-26821	2357.3	-0.23717	0.95843	0.17861
4.266	75.683	-26821	2357.6	-0.23824	0.95794	0.17939
4.268	75.683	-26821	2358	-0.23932	0.95746	0.18017
4.27	75.688	-26820	2358.4	-0.24039	0.95697	0.18095
4.272	75.69	-26819	2358.8	-0.24146	0.95648	0.18173
4.274	75.694	-26823	2359.2	-0.24254	0.95599	0.18251
4.276	75.692	-26826	2359.6	-0.24371	0.95472	0.18222
4.278	75.685	-26822	2360	-0.24488	0.95345	0.18193
4.28	75.69	-26818	2360.4	-0.24605	0.95219	0.18163
4.282	75.696	-26819	2360.8	-0.24722	0.95092	0.18134
4.284	75.69	-26819	2361.2	-0.24839	0.94965	0.18105
4.286	75.691	-26812	2361.6	-0.24664	0.95111	0.18027
4.288	75.699	-26805	2361.9	-0.24488	0.95258	0.17949
4.29	75.707	-26804	2362.2	-0.24312	0.95404	0.17871
4.292	75.711	-26803	2362.5	-0.24136	0.9555	0.17792
4.294	75.712	-26800	2362.8	-0.23961	0.95697	0.17714
4.296	75.711	-26798	2363	-0.24088	0.95609	0.17763
4.298	75.709	-26797	2363.3	-0.24215	0.95521	0.17812
4.3	75.712	-26796	2363.5	-0.24341	0.95433	0.17861
4.302	75.715	-26799	2363.7	-0.24468	0.95345	0.1791
4.304	75.719	-26801	2363.9	-0.24595	0.95258	0.17958
4.306	75.722	-26801	2364.1	-0.24576	0.95287	0.17958
4.308	75.723	-26800	2364.2	-0.24556	0.95316	0.17958
4.31	75.722	-26805	2364.3	-0.24537	0.95345	0.17958
4.312	75.719	-26809	2364.4	-0.24517	0.95375	0.17958
4.314	75.718	-26801	2364.6	-0.24498	0.95404	0.17958
4.316	75.716	-26793	2364.6	-0.2441	0.95541	0.17802
4.318	75.715	-26791	2364.7	-0.24322	0.95677	0.17646
4.32	75.716	-26789	2364.7	-0.24234	0.95814	0.1749
4.322	75.719	-26790	2364.8	-0.24146	0.95951	0.17334
4.324	75.72	-26790	2364.8	-0.24058	0.96087	0.17178
4.326	75.717	-26788	2364.7	-0.24068	0.96038	0.17285
4.328	75.72	-26785	2364.7	-0.24078	0.9599	0.17392
4.33	75.726	-26788	2364.6	-0.24088	0.95941	0.175
4.332	75.727	-26791	2364.5	-0.24097	0.95892	0.17607
4.334	75.728	-26791	2364.4	-0.24107	0.95843	0.17714
4.336	75.724	-26791	2364.3	-0.24078	0.95951	0.17627
4.338	75.715	-26789	2364.1	-0.24049	0.96058	0.17539
4.34	75.715	-26788	2364	-0.24019	0.96165	0.17451
4.342	75.723	-26785	2363.8	-0.2399	0.96273	0.17363
4.344	75.722	-26783	2363.6	-0.23961	0.9638	0.17275
4.346	75.72	-26784	2363.5	-0.2399	0.96292	0.17324
4.348	75.719	-26785	2363.3	-0.24019	0.96204	0.17373
4.35	75.718	-26783	2363.1	-0.24049	0.96116	0.17422
4.352	75.715	-26780	2362.9	-0.24078	0.96029	0.1747
4.354	75.717	-26779	2362.7	-0.24107	0.95941	0.17519
4.356	75.718	-26779	2362.5	-0.24	0.95872	0.17617
4.358	75.715	-26788	2362.2	-0.23892	0.95804	0.17714
4.36	75.714	-26797	2362	-0.23785	0.95736	0.17812
4.362	75.713	-26795	2361.7	-0.23678	0.95668	0.1791
4.364	75.714	-26794	2361.4	-0.2357	0.95599	0.18007
4.366	75.715	-26792	2361.2	-0.2358	0.95589	0.17997
4.368	75.717	-26791	2361	-0.2359	0.9558	0.17988
4.37	75.717	-26789	2360.8	-0.236	0.9557	0.17978
4.372	75.711	-26786	2360.5	-0.23609	0.9556	0.17968
4.374	75.709	-26782	2360.3	-0.23619	0.9555	0.17958
4.376	75.706	-26779	2360.1	-0.23707	0.9556	0.17988
4.378	75.703	-26785	2359.8	-0.23795	0.9557	0.18017
4.38	75.7	-26791	2359.6	-0.23883	0.9558	0.18046
4.382	75.701	-26793	2359.4	-0.23971	0.95589	0.18076
4.384	75.713	-26795	2359.2	-0.24058	0.95599	0.18105
4.386	75.719	-26798	2359	-0.24049	0.95609	0.18046
4.388	75.71	-26802	2358.8	-0.24039	0.95619	0.17988
4.39	75.703	-26799	2358.6	-0.24029	0.95628	0.17929
4.392	75.701	-26796	2358.4	-0.24019	0.95638	0.17871
4.394	75.705	-26797	2358.2	-0.2401	0.95648	0.17812
4.396	75.71	-26798	2357.9	-0.24	0.95668	0.17919
4.398	75.71	-26794	2357.7	-0.2399	0.95687	0.18027
4.4	75.709	-26790	2357.4	-0.2398	0.95707	0.18134
4.402	75.703	-26792	2357.2	-0.23971	0.95726	0.18241
4.404	75.697	-26795	2357	-0.23961	0.95746	0.18349
4.406	75.703	-26795	2356.8	-0.2401	0.95658	0.18339
4.408	75.711	-26795	2356.7	-0.24058	0.9557	0.18329
4.41	75.711	-26798	2356.5	-0.24107	0.95482	0.1832
4.412	75.708	-26802	2356.3	-0.24156	0.95394	0.1831
4.414	75.702	-26803	2356.1	-0.24205	0.95306	0.183
4.416	75.697	-26804	2356	-0.24195	0.95297	0.18232
4.418	75.696	-26801	2355.8	-0.24185	0.95287	0.18163
4.42	75.692	-26798	2355.7	-0.24176	0.95277	0.18095
4.422	75.694	-26797	2355.6	-0.24166	0.95267	0.18027
4.424	75.7	-26795	2355.4	-0.24156	0.95258	0.17958
4.426	75.7	-26798	2355.3	-0.24127	0.95306	0.17949
4.428	75.697	-26801	2355.2	-0.24097	0.95355	0.17939
4.43	75.7	-26802	2355.1	-0.24068	0.95404	0.17929
4.432	75.705	-26802	2355	-0.24039	0.95453	0.17919
4.434	75.704	-26803	2355	-0.2401	0.95502	0.1791
4.436	75.7	-26804	2354.9	-0.23883	0.95531	0.1788
4.438	75.705	-26801	2354.8	-0.23756	0.9556	0.17851
4.44	75.711	-26799	2354.8	-0.23629	0.95589	0.17822
4.442	75.709	-26806	2354.7	-0.23502	0.95619	0.17792
4.444	75.705	-26813	2354.6	-0.23375	0.95648	0.17763
4.446	75.703	-26811	2354.6	-0.23492	0.95785	0.17753
4.448	75.7	-26808	2354.5	-0.23609	0.95921	0.17744
4.45	75.704	-26809	2354.5	-0.23727	0.96058	0.17734
4.452	75.711	-26811	2354.5	-0.23844	0.96195	0.17724
4.454	75.708	-26812	2354.5	-0.23961	0.96331	0.17714
4.456	75.708	-26812	2354.4	-0.24049	0.96234	0.17841
4.458	75.712	-26809	2354.3	-0.24136	0.96136	0.17968
4.46	75.717	-26805	2354.3	-0.24224	0.96038	0.18095
4.462	75.721	-26813	2354.3	-0.24312	0.95941	0.18222
4.464	75.719	-26821	2354.2	-0.244	0.95843	0.18349
4.466	75.716	-26825	2354.2	-0.24371	0.95765	0.18437
4.468	75.717	-26830	2354.2	-0.24341	0.95687	0.18524
4.47	75.718	-26824	2354.2	-0.24312	0.95609	0.18612
4.472	75.712	-26817	2354.2	-0.24283	0.95531	0.187
4.474	75.709	-26820	2354.2	-0.24254	0.95453	0.18788
4.476	75.704	-26822	2354.2	-0.24224	0.9555	0.18749
4.478	75.701	-26824	2354.2	-0.24195	0.95648	0.1871
4.48	75.698	-26826	2354.2	-0.24166	0.95746	0.18671
4.482	75.691	-26819	2354.2	-0.24136	0.95843	0.18632
4.484	75.681	-26811	2354.2	-0.24107	0.95941	0.18593
4.486	75.672	-26817	2354.2	-0.24263	0.95736	0.18505
4.488	75.669	-26823	2354.2	-0.2442	0.95531	0.18417
4.49	75.669	-26824	2354.3	-0.24576	0.95326	0.18329
4.492	75.669	-26825	2354.4	-0.24732	0.95121	0.18241
4.494	75.673	-26824	2354.5	-0.24888	0.94916	0.18154
4.496	75.674	-26824	2354.5	-0.2479	0.94955	0.18115
4.498	75.67	-26820	2354.5	-0.24693	0.94994	0.18076
4.5	75.67	-26816	2354.6	-0.24595	0.95033	0.18036
4.502	75.672	-26816	2354.7	-0.24498	0.95072	0.17997
4.504	75.673	-26816	2354.8	-0.244	0.95111	0.17958
4.506	75.67	-26820	2354.9	-0.244	0.95082	0.17988
4.508	75.657	-26824	2355	-0.244	0.95053	0.18017
4.51	75.644	-26820	2355	-0.244	0.95023	0.18046
4.512	75.637	-26815	2355.1	-0.244	0.94994	0.18076
4.514	75.635	-26815	2355.1	-0.244	0.94965	0.18105
4.516	75.637	-26814	2355.2	-0.2442	0.94926	0.18027
4.518	75.639	-26818	2355.3	-0.24439	0.94887	0.17949
4.52	75.642	-26822	2355.3	-0.24459	0.94848	0.17871
4.522	75.647	-26828	2355.4	-0.24478	0.94809	0.17792
4.524	75.652	-26834	2355.5	-0.24498	0.9477	0.17714
4.526	75.649	-26831	2355.6	-0.24546	0.94789	0.17763
4.528	75.639	-26828	2355.6	-0.24595	0.94809	0.17812
4.53	75.631	-26820	2355.6	-0.24644	0.94828	0.17861
4.532	75.614	-26812	2355.7	-0.24693	0.94848	0.1791
4.534	75.611	-26820	2355.7	-0.24742	0.94867	0.17958
4.536	75.608	-26828	2355.7	-0.24644	0.94926	0.17939
4.538	75.612	-26826	2355.8	-0.24546	0.94984	0.17919
4.54	75.624	-26824	2355.8	-0.24449	0.95043	0.179
4.542	75.631	-26826	2355.8	-0.24351	0.95101	0.1788
4.544	75.633	-26829	2355.9	-0.24254	0.9516	0.17861
4.546	75.642	-26827	2355.9	-0.24195	0.95189	0.17851
4.548	75.652	-26825	2355.9	-0.24136	0.95219	0.17841
4.55	75.673	-26827	2355.9	-0.24078	0.95248	0.17832
4.552	75.686	-26829	2355.9	-0.24019	0.95277	0.17822
4.554	75.688	-26824	2355.9	-0.23961	0.95306	0.17812
4.556	75.684	-26818	2355.9	-0.24117	0.95228	0.17851
4.558	75.69	-26819	2355.9	-0.24273	0.9515	0.1789
4.56	75.702	-26821	2355.9	-0.24429	0.95072	0.17929
4.562	75.699	-26822	2355.8	-0.24585	0.94994	0.17968
4.564	75.689	-26824	2355.8	-0.24742	0.94916	0.18007
4.566	75.689	-26822	2355.8	-0.24654	0.94916	0.17939
4.568	75.692	-26821	2355.7	-0.24566	0.94916	0.17871
4.57	75.689	-26820	2355.7	-0.24478	0.94916	0.17802
4.572	75.686	-26819	2355.7	-0.2439	0.94916	0.17734
4.574	75.683	-26815	2355.7	-0.24302	0.94916	0.17666
4.576	75.682	-26811	2355.6	-0.24302	0.95023	0.17783
4.578	75.681	-26813	2355.6	-0.24302	0.95131	0.179
4.58	75.686	-26815	2355.5	-0.24302	0.95238	0.18017
4.582	75.689	-26821	2355.5	-0.24302	0.95345	0.18134
4.584	75.683	-26827	2355.4	-0.24302	0.95453	0.18251
4.586	75.682	-26827	2355.4	-0.24234	0.95521	0.18183
4.588	75.683	-26827	2355.3	-0.24166	0.95589	0.18115
4.59	75.682	-26830	2355.3	-0.24097	0.95658	0.18046
4.592	75.68	-26833	2355.3	-0.24029	0.95726	0.17978
4.594	75.68	-26829	2355.3	-0.23961	0.95794	0.1791
4.596	75.683	-26826	2355.2	-0.23892	0.95824	0.17841
4.598	75.693	-26825	2355.1	-0.23824	0.95853	0.17773
4.6	75.705	-26824	2355	-0.23756	0.95882	0.17705
4.602	75.702	-26827	2354.9	-0.23688	0.95912	0.17636
4.604	75.696	-26830	2354.8	-0.23619	0.95941	0.17568
4.606	75.695	-26826	2354.7	-0.23668	0.95941	0.17568
4.608	75.7	-26822	2354.7	-0.23717	0.95941	0.17568
4.61	75.698	-26823	2354.6	-0.23766	0.95941	0.17568
4.612	75.693	-26825	2354.5	-0.23814	0.95941	0.17568
4.614	75.701	-26827	2354.4	-0.23863	0.95941	0.17568
4.616	75.716	-26830	2354.3	-0.23834	0.95794	0.17558
4.618	75.725	-26826	2354.2	-0.23805	0.95648	0.17548
4.62	75.729	-26821	2354.1	-0.23775	0.95502	0.17539
4.622	75.731	-26824	2354	-0.23746	0.95355	0.17529
4.624	75.72	-26826	2353.9	-0.23717	0.95209	0.17519
4.626	75.708	-26830	2353.9	-0.23688	0.95209	0.17431
4.628	75.675	-26834	2353.8	-0.23658	0.95209	0.17344
4.63	75.634	-26828	2353.7	-0.23629	0.95209	0.17256
4.632	75.602	-26822	2353.6	-0.236	0.95209	0.17168
4.634	75.582	-26823	2353.5	-0.2357	0.95209	0.1708
4.636	75.544	-26823	2353.4	-0.23561	0.95267	0.17256
4.638	75.498	-26829	2353.3	-0.23551	0.95326	0.17431
4.64	75.454	-26835	2353.1	-0.23541	0.95384	0.17607
4.642	75.409	-26834	2353	-0.23531	0.95443	0.17783
4.644	75.375	-26834	2352.9	-0.23522	0.95502	0.17958
4.646	75.347	-26836	2352.8	-0.2357	0.95492	0.17978
4.648	75.328	-26838	2352.7	-0.23619	0.95482	0.17997
4.65	75.318	-26840	2352.6	-0.23668	0.95472	0.18017
4.652	75.319	-26842	2352.5	-0.23717	0.95463	0.18036
4.654	75.333	-26840	2352.4	-0.23766	0.95453	0.18056
4.656	75.359	-26838	2352.3	-0.23658	0.95316	0.17968
4.658	75.384	-26836	2352.1	-0.23551	0.9518	0.1788
4.66	75.417	-26833	2352	-0.23444	0.95043	0.17792
4.662	75.472	-26837	2351.9	-0.23336	0.94906	0.17705
4.664	75.548	-26842	2351.7	-0.23229	0.9477	0.17617
4.666	75.631	-26841	2351.6	-0.23219	0.9474	0.17568
4.668	75.707	-26840	2351.5	-0.23209	0.94711	0.17519
4.67	75.762	-26839	2351.4	-0.232	0.94682	0.1747
4.672	75.79	-26839	2351.3	-0.2319	0.94652	0.17422
4.674	75.801	-26838	2351.2	-0.2318	0.94623	0.17373
4.676	75.793	-26838	2351.1	-0.2317	0.94692	0.17373
4.678	75.774	-26836	2350.9	-0.2316	0.9476	0.17373
4.68	75.758	-26835	2350.8	-0.23151	0.94828	0.17373
4.682	75.744	-26835	2350.7	-0.23141	0.94896	0.17373
4.684	75.733	-26836	2350.6	-0.23131	0.94965	0.17373
4.686	75.724	-26838	2350.5	-0.23131	0.94955	0.17412
4.688	75.708	-26841	2350.4	-0.23131	0.94945	0.17451
4.69	75.69	-26845	2350.3	-0.23131	0.94936	0.1749
4.692	75.671	-26850	2350.3	-0.23131	0.94926	0.17529
