t	ekg	optical	pressure	accel_x	accel_y	accel_z
0	69.809	-26113	2019.6	-0.29134	0.92935	0.25083
0.002	69.762	-26112	2019.6	-0.29182	0.92827	0.25034
0.004	69.716	-26111	2019.5	-0.29231	0.9272	0.24986
0.006	69.701	-26109	2019.5	-0.2928	0.92613	0.24937
0.008	69.733	-26109	2019.5	-0.29329	0.92505	0.24888
0.01	69.786	-26109	2019.5	-0.29378	0.92398	0.24839
0.012	69.827	-26110	2019.4	-0.29426	0.92291	0.2479
0.014	69.832	-26112	2019.3	-0.29475	0.92183	0.24742
0.016	69.8	-26113	2019.3	-0.29387	0.92203	0.248
0.018	69.739	-26114	2019.3	-0.293	0.92222	0.24859
0.02	69.692	-26112	2019.2	-0.29212	0.92242	0.24917
0.022	69.682	-26110	2019.1	-0.29124	0.92261	0.24976
0.024	69.711	-26118	2019	-0.29036	0.92281	0.25034
0.026	69.763	-26127	2018.9	-0.29173	0.92281	0.24956
0.028	69.807	-26125	2018.9	-0.29309	0.92281	0.24878
0.03	69.821	-26124	2018.8	-0.29446	0.92281	0.248
0.032	69.795	-26123	2018.7	-0.29583	0.92281	0.24722
0.034	69.748	-26122	2018.6	-0.29719	0.92281	0.24644
0.036	69.703	-26124	2018.6	-0.29534	0.92271	0.24517
0.038	69.673	-26126	2018.5	-0.29348	0.92261	0.2439
0.04	69.673	-26123	2018.4	-0.29163	0.92252	0.24263
0.042	69.706	-26120	2018.4	-0.28977	0.92242	0.24136
0.044	69.752	-26122	2018.4	-0.28792	0.92232	0.2401
0.046	69.782	-26123	2018.4	-0.28938	0.92183	0.24136
0.048	69.777	-26123	2018.4	-0.29085	0.92134	0.24263
0.05	69.737	-26123	2018.4	-0.29231	0.92086	0.2439
0.052	69.682	-26126	2018.4	-0.29378	0.92037	0.24517
0.054	69.637	-26128	2018.4	-0.29524	0.91988	0.24644
0.056	69.614	-26127	2018.5	-0.29475	0.92008	0.24634
0.058	69.621	-26126	2018.6	-0.29426	0.92027	0.24624
0.06	69.667	-26128	2018.6	-0.29378	0.92047	0.24615
0.062	69.721	-26130	2018.7	-0.29329	0.92066	0.24605
0.064	69.738	-26128	2018.7	-0.2928	0.92086	0.24595
0.066	69.713	-26125	2018.8	-0.293	0.92144	0.24703
0.068	69.672	-26123	2018.9	-0.29319	0.92203	0.2481
0.07	69.639	-26121	2019	-0.29339	0.92261	0.24917
0.072	69.632	-26120	2019.2	-0.29358	0.9232	0.25025
0.074	69.651	-26119	2019.3	-0.29378	0.92378	0.25132
0.076	69.693	-26115	2019.5	-0.29339	0.92427	0.25112
0.078	69.73	-26110	2019.6	-0.293	0.92476	0.25093
0.08	69.754	-26111	2019.8	-0.2926	0.92525	0.25073
0.082	69.739	-26111	2020	-0.29221	0.92574	0.25054
0.084	69.691	-26111	2020.1	-0.29182	0.92622	0.25034
0.086	69.642	-26111	2020.3	-0.28987	0.92613	0.25073
0.088	69.627	-26107	2020.6	-0.28792	0.92603	0.25112
0.09	69.659	-26104	2020.8	-0.28597	0.92593	0.25152
0.092	69.702	-26102	2021	-0.28402	0.92583	0.25191
0.094	69.729	-26100	2021.3	-0.28206	0.92574	0.2523
0.096	69.744	-26099	2021.5	-0.28333	0.92603	0.25171
0.098	69.752	-26098	2021.7	-0.2846	0.92632	0.25112
0.1	69.739	-26098	2022	-0.28587	0.92661	0.25054
0.102	69.693	-26097	2022.3	-0.28714	0.92691	0.24995
0.104	69.653	-26095	2022.5	-0.28841	0.9272	0.24937
0.106	69.651	-26093	2022.8	-0.28987	0.92544	0.24868
0.108	69.685	-26093	2023.1	-0.29134	0.92369	0.248
0.11	69.738	-26092	2023.4	-0.2928	0.92193	0.24732
0.112	69.792	-26092	2023.6	-0.29426	0.92017	0.24664
0.114	69.815	-26093	2023.9	-0.29573	0.91842	0.24595
0.116	69.798	-26089	2024.2	-0.29524	0.91764	0.24556
0.118	69.76	-26086	2024.4	-0.29475	0.91685	0.24517
0.12	69.717	-26085	2024.7	-0.29426	0.91607	0.24478
0.122	69.701	-26085	2024.9	-0.29378	0.91529	0.24439
0.124	69.722	-26084	2025.1	-0.29329	0.91451	0.244
0.126	69.769	-26083	2025.3	-0.29309	0.91539	0.2442
0.128	69.818	-26078	2025.5	-0.2929	0.91627	0.24439
0.13	69.847	-26073	2025.7	-0.2927	0.91715	0.24459
0.132	69.837	-26070	2025.8	-0.29251	0.91803	0.24478
0.134	69.793	-26066	2026	-0.29231	0.9189	0.24498
0.136	69.746	-26067	2026.1	-0.29212	0.91929	0.24468
0.138	69.719	-26068	2026.2	-0.29192	0.91968	0.24439
0.14	69.725	-26074	2026.3	-0.29173	0.92008	0.2441
0.142	69.764	-26079	2026.4	-0.29153	0.92047	0.2438
0.144	69.816	-26066	2026.5	-0.29134	0.92086	0.24351
0.146	69.857	-26053	2026.5	-0.29163	0.92017	0.24302
0.148	69.862	-26051	2026.6	-0.29192	0.91949	0.24254
0.15	69.826	-26049	2026.7	-0.29221	0.91881	0.24205
0.152	69.782	-26056	2026.7	-0.29251	0.91812	0.24156
0.154	69.746	-26062	2026.7	-0.2928	0.91744	0.24107
0.156	69.738	-26054	2026.7	-0.29319	0.91783	0.24156
0.158	69.77	-26045	2026.7	-0.29358	0.91822	0.24205
0.16	69.822	-26047	2026.7	-0.29397	0.91861	0.24254
0.162	69.864	-26050	2026.7	-0.29436	0.919	0.24302
0.164	69.873	-26048	2026.7	-0.29475	0.91939	0.24351
0.166	69.85	-26047	2026.6	-0.29387	0.91959	0.24302
0.168	69.8	-26049	2026.6	-0.293	0.91978	0.24254
0.17	69.755	-26051	2026.5	-0.29212	0.91998	0.24205
0.172	69.739	-26049	2026.5	-0.29124	0.92017	0.24156
0.174	69.764	-26047	2026.5	-0.29036	0.92037	0.24107
0.176	69.803	-26045	2026.4	-0.28997	0.92105	0.24166
0.178	69.849	-26044	2026.4	-0.28958	0.92173	0.24224
0.18	69.882	-26050	2026.3	-0.28919	0.92242	0.24283
0.182	69.87	-26056	2026.2	-0.2888	0.9231	0.24341
0.184	69.827	-26055	2026.1	-0.28841	0.92378	0.244
0.186	69.788	-26055	2025.9	-0.28987	0.92378	0.24488
0.188	69.768	-26047	2025.8	-0.29134	0.92378	0.24576
0.19	69.78	-26039	2025.7	-0.2928	0.92378	0.24664
0.192	69.819	-26041	2025.7	-0.29426	0.92378	0.24751
0.194	69.862	-26042	2025.6	-0.29573	0.92378	0.24839
0.196	69.895	-26043	2025.4	-0.29573	0.92349	0.248
0.198	69.894	-26043	2025.3	-0.29573	0.9232	0.24761
0.2	69.853	-26036	2025.2	-0.29573	0.92291	0.24722
0.202	69.793	-26030	2025.1	-0.29573	0.92261	0.24683
0.204	69.753	-26044	2025	-0.29573	0.92232	0.24644
0.206	69.758	-26057	2024.9	-0.29602	0.92271	0.24683
0.208	69.8	-26052	2024.8	-0.29631	0.9231	0.24722
0.21	69.848	-26046	2024.6	-0.29661	0.92349	0.24761
0.212	69.878	-26051	2024.4	-0.2969	0.92388	0.248
0.214	69.886	-26057	2024.3	-0.29719	0.92427	0.24839
0.216	69.868	-26049	2024.1	-0.29739	0.92486	0.248
0.218	69.823	-26040	2024	-0.29758	0.92544	0.24761
0.22	69.772	-26041	2023.8	-0.29778	0.92603	0.24722
0.222	69.748	-26042	2023.6	-0.29797	0.92661	0.24683
0.224	69.76	-26050	2023.5	-0.29817	0.9272	0.24644
0.226	69.8	-26057	2023.3	-0.29768	0.92603	0.24654
0.228	69.841	-26050	2023.2	-0.29719	0.92486	0.24664
0.23	69.859	-26043	2023.1	-0.2967	0.92369	0.24673
0.232	69.841	-26045	2023	-0.29622	0.92252	0.24683
0.234	69.797	-26047	2022.9	-0.29573	0.92134	0.24693
0.236	69.756	-26045	2022.8	-0.29661	0.92271	0.24693
0.238	69.738	-26043	2022.6	-0.29748	0.92408	0.24693
0.24	69.752	-26049	2022.5	-0.29836	0.92544	0.24693
0.242	69.792	-26056	2022.5	-0.29924	0.92681	0.24693
0.244	69.834	-26053	2022.4	-0.30012	0.92818	0.24693
0.246	69.867	-26050	2022.3	-0.30002	0.92788	0.24683
0.248	69.867	-26057	2022.2	-0.29992	0.92759	0.24673
0.25	69.826	-26063	2022.1	-0.29983	0.9273	0.24664
0.252	69.769	-26062	2022	-0.29973	0.927	0.24654
0.254	69.74	-26061	2021.9	-0.29963	0.92671	0.24644
0.256	69.745	-26059	2021.8	-0.30002	0.927	0.24644
0.258	69.774	-26057	2021.7	-0.30041	0.9273	0.24644
0.26	69.825	-26060	2021.6	-0.3008	0.92759	0.24644
0.262	69.864	-26064	2021.5	-0.30119	0.92788	0.24644
0.264	69.877	-26061	2021.4	-0.30158	0.92818	0.24644
0.266	69.842	-26059	2021.2	-0.30139	0.92749	0.24654
0.268	69.8	-26058	2021.1	-0.30119	0.92681	0.24664
0.27	69.771	-26058	2021	-0.301	0.92613	0.24673
0.272	69.763	-26059	2020.9	-0.3008	0.92544	0.24683
0.274	69.783	-26061	2020.8	-0.30061	0.92476	0.24693
0.276	69.826	-26065	2020.7	-0.29963	0.92427	0.24751
0.278	69.864	-26069	2020.5	-0.29866	0.92378	0.2481
0.28	69.88	-26067	2020.4	-0.29768	0.9233	0.24868
0.282	69.869	-26066	2020.3	-0.2967	0.92281	0.24927
0.284	69.832	-26066	2020.2	-0.29573	0.92232	0.24986
0.286	69.777	-26066	2020.2	-0.29661	0.9232	0.24966
0.288	69.738	-26064	2020.1	-0.29748	0.92408	0.24947
0.29	69.748	-26062	2020	-0.29836	0.92496	0.24927
0.292	69.794	-26063	2019.9	-0.29924	0.92583	0.24908
0.294	69.841	-26065	2019.8	-0.30012	0.92671	0.24888
0.296	69.874	-26063	2019.7	-0.30041	0.92681	0.24839
0.298	69.871	-26061	2019.6	-0.30071	0.92691	0.2479
0.3	69.831	-26064	2019.5	-0.301	0.927	0.24742
0.302	69.785	-26067	2019.4	-0.30129	0.9271	0.24693
0.304	69.76	-26067	2019.3	-0.30158	0.9272	0.24644
0.306	69.765	-26068	2019.3	-0.30022	0.92642	0.24732
0.308	69.794	-26070	2019.3	-0.29885	0.92564	0.2482
0.31	69.837	-26073	2019.2	-0.29748	0.92486	0.24908
0.312	69.868	-26073	2019.2	-0.29612	0.92408	0.24995
0.314	69.873	-26073	2019.1	-0.29475	0.9233	0.25083
0.316	69.854	-26073	2019.1	-0.29495	0.923	0.25034
0.318	69.82	-26073	2019	-0.29514	0.92271	0.24986
0.32	69.773	-26073	2019	-0.29534	0.92242	0.24937
0.322	69.757	-26074	2018.9	-0.29553	0.92212	0.24888
0.324	69.775	-26074	2018.9	-0.29573	0.92183	0.24839
0.326	69.815	-26075	2018.8	-0.29456	0.92252	0.24888
0.328	69.864	-26077	2018.8	-0.29339	0.9232	0.24937
0.33	69.897	-26079	2018.7	-0.29221	0.92388	0.24986
0.332	69.891	-26077	2018.7	-0.29104	0.92456	0.25034
0.334	69.847	-26075	2018.7	-0.28987	0.92525	0.25083
0.336	69.794	-26078	2018.6	-0.29026	0.92496	0.25142
0.338	69.753	-26082	2018.5	-0.29065	0.92466	0.252
0.34	69.754	-26080	2018.5	-0.29104	0.92437	0.25259
0.342	69.792	-26078	2018.5	-0.29143	0.92408	0.25317
0.344	69.849	-26073	2018.5	-0.29182	0.92378	0.25376
0.346	69.887	-26069	2018.4	-0.29192	0.92369	0.25317
0.348	69.893	-26072	2018.3	-0.29202	0.92359	0.25259
0.35	69.868	-26076	2018.3	-0.29212	0.92349	0.252
0.352	69.825	-26076	2018.3	-0.29221	0.92339	0.25142
0.354	69.787	-26077	2018.2	-0.29231	0.9233	0.25083
0.356	69.775	-26081	2018.2	-0.29173	0.92437	0.25015
0.358	69.802	-26085	2018.2	-0.29114	0.92544	0.24947
0.36	69.84	-26080	2018.2	-0.29056	0.92652	0.24878
0.362	69.884	-26075	2018.2	-0.28997	0.92759	0.2481
0.364	69.901	-26078	2018.2	-0.28938	0.92866	0.24742
0.366	69.884	-26081	2018.2	-0.29095	0.9274	0.24751
0.368	69.838	-26073	2018.2	-0.29251	0.92613	0.24761
0.37	69.793	-26066	2018.2	-0.29407	0.92486	0.24771
0.372	69.776	-26071	2018.2	-0.29563	0.92359	0.24781
0.374	69.783	-26076	2018.1	-0.29719	0.92232	0.2479
0.376	69.812	-26081	2018.1	-0.29778	0.92222	0.24722
0.378	69.854	-26085	2018.1	-0.29836	0.92212	0.24654
0.38	69.89	-26086	2018.1	-0.29895	0.92203	0.24585
0.382	69.894	-26088	2018.1	-0.29953	0.92193	0.24517
0.384	69.862	-26089	2018.1	-0.30012	0.92183	0.24449
0.386	69.812	-26090	2018.1	-0.30012	0.92212	0.24507
0.388	69.777	-26088	2018.1	-0.30012	0.92242	0.24566
0.39	69.779	-26087	2018.1	-0.30012	0.92271	0.24624
0.392	69.808	-26081	2018.1	-0.30012	0.923	0.24683
0.394	69.857	-26075	2018.1	-0.30012	0.9233	0.24742
0.396	69.9	-26076	2018.1	-0.29895	0.92281	0.24771
0.398	69.896	-26076	2018.1	-0.29778	0.92232	0.248
0.4	69.851	-26074	2018.1	-0.29661	0.92183	0.24829
0.402	69.799	-26072	2018.1	-0.29544	0.92134	0.24859
0.404	69.767	-26070	2018.1	-0.29426	0.92086	0.24888
0.406	69.773	-26067	2018.1	-0.29553	0.92173	0.24908
0.408	69.81	-26070	2018.2	-0.2968	0.92261	0.24927
0.41	69.853	-26072	2018.2	-0.29807	0.92349	0.24947
0.412	69.889	-26070	2018.1	-0.29934	0.92437	0.24966
0.414	69.91	-26068	2018.1	-0.30061	0.92525	0.24986
0.416	69.889	-26070	2018.1	-0.29992	0.92437	0.24947
0.418	69.843	-26071	2018.1	-0.29924	0.92349	0.24908
0.42	69.803	-26073	2018.1	-0.29856	0.92261	0.24868
0.422	69.784	-26075	2018.1	-0.29788	0.92173	0.24829
0.424	69.8	-26076	2018.1	-0.29719	0.92086	0.2479
0.426	69.838	-26077	2018.1	-0.29612	0.92115	0.248
0.428	69.88	-26075	2018.1	-0.29504	0.92144	0.2481
0.43	69.886	-26074	2018.1	-0.29397	0.92173	0.2482
0.432	69.87	-26073	2018.1	-0.2929	0.92203	0.24829
0.434	69.826	-26072	2018.1	-0.29182	0.92232	0.24839
0.436	69.772	-26073	2018.1	-0.29241	0.92134	0.24703
0.438	69.741	-26074	2018	-0.293	0.92037	0.24566
0.44	69.753	-26075	2018	-0.29358	0.91939	0.24429
0.442	69.803	-26076	2018	-0.29417	0.91842	0.24293
0.444	69.854	-26077	2018	-0.29475	0.91744	0.24156
0.446	69.892	-26078	2018	-0.29485	0.91871	0.24234
0.448	69.894	-26078	2018	-0.29495	0.91998	0.24312
0.45	69.85	-26077	2018	-0.29504	0.92125	0.2439
0.452	69.795	-26079	2017.9	-0.29514	0.92252	0.24468
0.454	69.76	-26081	2017.9	-0.29524	0.92378	0.24546
0.456	69.754	-26081	2017.9	-0.29465	0.92349	0.24566
0.458	69.773	-26082	2017.8	-0.29407	0.9232	0.24585
0.46	69.806	-26079	2017.7	-0.29348	0.92291	0.24605
0.462	69.837	-26076	2017.7	-0.2929	0.92261	0.24624
0.464	69.849	-26076	2017.7	-0.29231	0.92232	0.24644
0.466	69.824	-26076	2017.6	-0.29182	0.92173	0.24527
0.468	69.78	-26076	2017.6	-0.29134	0.92115	0.2441
0.47	69.74	-26076	2017.6	-0.29085	0.92056	0.24293
0.472	69.737	-26078	2017.5	-0.29036	0.91998	0.24176
0.474	69.772	-26079	2017.5	-0.28987	0.91939	0.24058
0.476	69.819	-26081	2017.4	-0.29065	0.92027	0.24215
0.478	69.862	-26083	2017.3	-0.29143	0.92115	0.24371
0.48	69.883	-26082	2017.3	-0.29221	0.92203	0.24527
0.482	69.873	-26082	2017.2	-0.293	0.92291	0.24683
0.484	69.839	-26085	2017.1	-0.29378	0.92378	0.24839
0.486	69.79	-26088	2017.1	-0.2929	0.9231	0.24683
0.488	69.749	-26086	2017	-0.29202	0.92242	0.24527
0.49	69.742	-26085	2016.9	-0.29114	0.92173	0.24371
0.492	69.771	-26082	2016.9	-0.29026	0.92105	0.24215
0.494	69.814	-26078	2016.8	-0.28938	0.92037	0.24058
0.496	69.847	-26080	2016.8	-0.29007	0.92056	0.24146
0.498	69.855	-26081	2016.7	-0.29075	0.92076	0.24234
0.5	69.823	-26083	2016.6	-0.29143	0.92095	0.24322
0.502	69.773	-26084	2016.6	-0.29212	0.92115	0.2441
0.504	69.756	-26084	2016.6	-0.2928	0.92134	0.24498
0.506	69.756	-26084	2016.5	-0.29339	0.92154	0.24507
0.508	69.769	-26087	2016.4	-0.29397	0.92173	0.24517
0.51	69.815	-26090	2016.4	-0.29456	0.92193	0.24527
0.512	69.876	-26088	2016.3	-0.29514	0.92212	0.24537
0.514	69.904	-26086	2016.2	-0.29573	0.92232	0.24546
0.516	69.892	-26084	2016.2	-0.29475	0.92203	0.24517
0.518	69.871	-26082	2016.1	-0.29378	0.92173	0.24488
0.52	69.824	-26086	2016.1	-0.2928	0.92144	0.24459
0.522	69.804	-26091	2016	-0.29182	0.92115	0.24429
0.524	69.829	-26092	2015.9	-0.29085	0.92086	0.244
0.526	69.877	-26092	2015.9	-0.29075	0.92095	0.2439
0.528	69.917	-26095	2015.8	-0.29065	0.92105	0.2438
0.53	69.938	-26098	2015.7	-0.29056	0.92115	0.24371
0.532	69.931	-26093	2015.7	-0.29046	0.92125	0.24361
0.534	69.893	-26088	2015.6	-0.29036	0.92134	0.24351
0.536	69.836	-26085	2015.5	-0.29114	0.92086	0.24371
0.538	69.808	-26083	2015.4	-0.29192	0.92037	0.2439
0.54	69.815	-26085	2015.4	-0.2927	0.91988	0.2441
0.542	69.845	-26087	2015.3	-0.29348	0.91939	0.24429
0.544	69.891	-26093	2015.3	-0.29426	0.9189	0.24449
0.546	69.927	-26098	2015.2	-0.29407	0.9189	0.24439
0.548	69.923	-26099	2015.2	-0.29387	0.9189	0.24429
0.55	69.881	-26099	2015.1	-0.29368	0.9189	0.2442
0.552	69.833	-26098	2015.1	-0.29348	0.9189	0.2441
0.554	69.808	-26096	2015	-0.29329	0.9189	0.244
0.556	69.816	-26090	2014.9	-0.29397	0.91929	0.2442
0.558	69.851	-26085	2014.8	-0.29465	0.91968	0.24439
0.56	69.894	-26087	2014.8	-0.29534	0.92008	0.24459
0.562	69.931	-26089	2014.7	-0.29602	0.92047	0.24478
0.564	69.944	-26095	2014.7	-0.2967	0.92086	0.24498
0.566	69.922	-26101	2014.6	-0.29592	0.92037	0.24556
0.568	69.882	-26102	2014.6	-0.29514	0.91988	0.24615
0.57	69.836	-26104	2014.5	-0.29436	0.91939	0.24673
0.572	69.813	-26101	2014.5	-0.29358	0.9189	0.24732
0.574	69.834	-26098	2014.4	-0.2928	0.91842	0.2479
0.576	69.883	-26096	2014.4	-0.29319	0.91832	0.24742
0.578	69.933	-26094	2014.3	-0.29358	0.91822	0.24693
0.58	69.964	-26097	2014.3	-0.29397	0.91812	0.24644
0.582	69.965	-26099	2014.2	-0.29436	0.91803	0.24595
0.584	69.93	-26097	2014.2	-0.29475	0.91793	0.24546
0.586	69.859	-26094	2014.1	-0.29485	0.91861	0.24644
0.588	69.819	-26096	2014	-0.29495	0.91929	0.24742
0.59	69.819	-26098	2014	-0.29504	0.91998	0.24839
0.592	69.823	-26097	2014	-0.29514	0.92066	0.24937
0.594	69.833	-26095	2014	-0.29524	0.92134	0.25034
0.596	69.836	-26100	2013.9	-0.29622	0.92222	0.25005
0.598	69.797	-26106	2013.8	-0.29719	0.9231	0.24976
0.6	69.716	-26102	2013.8	-0.29817	0.92398	0.24947
0.602	69.611	-26099	2013.8	-0.29914	0.92486	0.24917
0.604	69.511	-26098	2013.7	-0.30012	0.92574	0.24888
0.606	69.433	-26097	2013.7	-0.29963	0.92574	0.24908
0.608	69.392	-26101	2013.7	-0.29914	0.92574	0.24927
0.61	69.377	-26104	2013.6	-0.29866	0.92574	0.24947
0.612	69.366	-26102	2013.6	-0.29817	0.92574	0.24966
0.614	69.349	-26100	2013.5	-0.29768	0.92574	0.24986
0.616	69.316	-26104	2013.5	-0.29778	0.92476	0.24937
0.618	69.257	-26108	2013.4	-0.29788	0.92378	0.24888
0.62	69.211	-26107	2013.4	-0.29797	0.92281	0.24839
0.622	69.214	-26106	2013.3	-0.29807	0.92183	0.2479
0.624	69.256	-26106	2013.3	-0.29817	0.92086	0.24742
0.626	69.357	-26105	2013.3	-0.29817	0.92115	0.2479
0.628	69.489	-26108	2013.2	-0.29817	0.92144	0.24839
0.63	69.615	-26111	2013.1	-0.29817	0.92173	0.24888
0.632	69.707	-26116	2013.1	-0.29817	0.92203	0.24937
0.634	69.763	-26120	2013	-0.29817	0.92232	0.24986
0.636	69.789	-26116	2013	-0.29797	0.92212	0.24956
0.638	69.804	-26112	2013	-0.29778	0.92193	0.24927
0.64	69.822	-26115	2013	-0.29758	0.92173	0.24898
0.642	69.861	-26118	2013	-0.29739	0.92154	0.24868
0.644	69.919	-26118	2012.9	-0.29719	0.92134	0.24839
0.646	69.964	-26118	2012.9	-0.29778	0.92232	0.24859
0.648	69.981	-26122	2012.9	-0.29836	0.9233	0.24878
0.65	69.966	-26126	2012.8	-0.29895	0.92427	0.24898
0.652	69.924	-26121	2012.9	-0.29953	0.92525	0.24917
0.654	69.886	-26117	2012.9	-0.30012	0.92622	0.24937
0.656	69.87	-26116	2012.9	-0.30002	0.92681	0.2482
0.658	69.873	-26116	2012.9	-0.29992	0.9274	0.24703
0.66	69.906	-26117	2012.9	-0.29983	0.92798	0.24585
0.662	69.944	-26119	2012.9	-0.29973	0.92857	0.24468
0.664	69.957	-26117	2012.9	-0.29963	0.92915	0.24351
0.666	69.922	-26115	2012.8	-0.29983	0.92866	0.2441
0.668	69.877	-26118	2012.8	-0.30002	0.92818	0.24468
0.67	69.832	-26121	2012.7	-0.30022	0.92769	0.24527
0.672	69.8	-26121	2012.6	-0.30041	0.9272	0.24585
0.674	69.811	-26122	2012.5	-0.30061	0.92671	0.24644
0.676	69.856	-26124	2012.5	-0.30041	0.927	0.24654
0.678	69.908	-26127	2012.4	-0.30022	0.9273	0.24664
0.68	69.943	-26125	2012.4	-0.30002	0.92759	0.24673
0.682	69.921	-26122	2012.3	-0.29983	0.92788	0.24683
0.684	69.872	-26124	2012.3	-0.29963	0.92818	0.24693
0.686	69.821	-26125	2012.2	-0.29827	0.92691	0.24781
0.688	69.78	-26122	2012.2	-0.2969	0.92564	0.24868
0.69	69.788	-26118	2012.2	-0.29553	0.92437	0.24956
0.692	69.826	-26126	2012.1	-0.29417	0.9231	0.25044
0.694	69.877	-26134	2012.1	-0.2928	0.92183	0.25132
0.696	69.917	-26129	2012	-0.29309	0.92125	0.25054
0.698	69.919	-26124	2012	-0.29339	0.92066	0.24976
0.7	69.882	-26122	2011.9	-0.29368	0.92008	0.24898
0.702	69.841	-26119	2011.9	-0.29397	0.91949	0.2482
0.704	69.8	-26127	2011.9	-0.29426	0.9189	0.24742
0.706	69.777	-26134	2011.9	-0.29553	0.91998	0.24751
0.708	69.792	-26128	2011.8	-0.2968	0.92105	0.24761
0.71	69.837	-26121	2011.8	-0.29807	0.92212	0.24771
0.712	69.876	-26124	2011.8	-0.29934	0.9232	0.24781
0.714	69.885	-26126	2011.7	-0.30061	0.92427	0.2479
0.716	69.866	-26121	2011.8	-0.29992	0.92417	0.24732
0.718	69.836	-26116	2011.8	-0.29924	0.92408	0.24673
0.72	69.799	-26125	2011.8	-0.29856	0.92398	0.24615
0.722	69.77	-26134	2011.8	-0.29788	0.92388	0.24556
0.724	69.778	-26134	2011.8	-0.29719	0.92378	0.24498
0.726	69.818	-26133	2011.8	-0.2969	0.92378	0.24459
0.728	69.864	-26137	2011.8	-0.29661	0.92378	0.2442
0.73	69.885	-26141	2011.8	-0.29631	0.92378	0.2438
0.732	69.866	-26134	2011.8	-0.29602	0.92378	0.24341
0.734	69.823	-26127	2011.8	-0.29573	0.92378	0.24302
0.736	69.778	-26130	2011.8	-0.29553	0.92378	0.24371
0.738	69.753	-26133	2011.8	-0.29534	0.92378	0.24439
0.74	69.761	-26133	2011.9	-0.29514	0.92378	0.24507
0.742	69.795	-26133	2011.9	-0.29495	0.92378	0.24576
0.744	69.838	-26136	2011.9	-0.29475	0.92378	0.24644
0.746	69.866	-26138	2011.9	-0.29465	0.92378	0.24654
0.748	69.862	-26140	2011.8	-0.29456	0.92378	0.24664
0.75	69.825	-26142	2011.8	-0.29446	0.92378	0.24673
0.752	69.774	-26144	2011.7	-0.29436	0.92378	0.24683
0.754	69.74	-26145	2011.6	-0.29426	0.92378	0.24693
0.756	69.74	-26140	2011.5	-0.29426	0.92359	0.24703
0.758	69.758	-26135	2011.5	-0.29426	0.92339	0.24712
0.76	69.807	-26137	2011.4	-0.29426	0.9232	0.24722
0.762	69.848	-26140	2011.3	-0.29426	0.923	0.24732
0.764	69.867	-26136	2011.3	-0.29426	0.92281	0.24742
0.766	69.831	-26131	2011.1	-0.29339	0.92212	0.24664
0.768	69.773	-26137	2011	-0.29251	0.92144	0.24585
0.77	69.726	-26142	2010.9	-0.29163	0.92076	0.24507
0.772	69.708	-26140	2010.8	-0.29075	0.92008	0.24429
0.774	69.721	-26137	2010.8	-0.28987	0.91939	0.24351
0.776	69.753	-26139	2010.7	-0.28997	0.91988	0.24332
0.778	69.792	-26141	2010.6	-0.29007	0.92037	0.24312
0.78	69.806	-26138	2010.6	-0.29016	0.92086	0.24293
0.782	69.785	-26135	2010.5	-0.29026	0.92134	0.24273
0.784	69.748	-26136	2010.4	-0.29036	0.92183	0.24254
0.786	69.699	-26138	2010.5	-0.28958	0.92212	0.24254
0.788	69.664	-26137	2010.5	-0.2888	0.92242	0.24254
0.79	69.655	-26136	2010.5	-0.28802	0.92271	0.24254
0.792	69.681	-26140	2010.4	-0.28724	0.923	0.24254
0.794	69.731	-26144	2010.4	-0.28646	0.9233	0.24254
0.796	69.775	-26141	2010.4	-0.28772	0.92252	0.24234
0.798	69.779	-26137	2010.5	-0.28899	0.92173	0.24215
0.8	69.742	-26145	2010.5	-0.29026	0.92095	0.24195
0.802	69.7	-26153	2010.6	-0.29153	0.92017	0.24176
0.804	69.658	-26151	2010.7	-0.2928	0.91939	0.24156
0.806	69.637	-26149	2010.7	-0.2929	0.91959	0.24293
0.808	69.65	-26147	2010.8	-0.293	0.91978	0.24429
0.81	69.685	-26145	2010.8	-0.29309	0.91998	0.24566
0.812	69.725	-26149	2010.9	-0.29319	0.92017	0.24703
0.814	69.749	-26153	2011	-0.29329	0.92037	0.24839
0.816	69.741	-26146	2011.1	-0.29241	0.92115	0.24829
0.818	69.702	-26139	2011.2	-0.29153	0.92193	0.2482
0.82	69.655	-26135	2011.4	-0.29065	0.92271	0.2481
0.822	69.63	-26132	2011.6	-0.28977	0.92349	0.248
0.824	69.647	-26127	2011.8	-0.2889	0.92427	0.2479
0.826	69.691	-26123	2012	-0.28997	0.92339	0.2481
0.828	69.743	-26122	2012.2	-0.29104	0.92252	0.24829
0.83	69.775	-26121	2012.5	-0.29212	0.92164	0.24849
0.832	69.758	-26122	2012.7	-0.29319	0.92076	0.24868
0.834	69.723	-26123	2013	-0.29426	0.91988	0.24888
0.836	69.682	-26120	2013.3	-0.29387	0.91939	0.24839
0.838	69.652	-26118	2013.5	-0.29348	0.9189	0.2479
0.84	69.656	-26122	2013.8	-0.29309	0.91842	0.24742
0.842	69.698	-26127	2014.1	-0.2927	0.91793	0.24693
0.844	69.746	-26119	2014.3	-0.29231	0.91744	0.24644
0.846	69.784	-26110	2014.6	-0.2929	0.91764	0.24644
0.848	69.797	-26114	2014.9	-0.29348	0.91783	0.24644
0.85	69.783	-26117	2015.2	-0.29407	0.91803	0.24644
0.852	69.74	-26115	2015.5	-0.29465	0.91822	0.24644
0.854	69.706	-26113	2015.8	-0.29524	0.91842	0.24644
0.856	69.706	-26112	2016	-0.29348	0.91871	0.24585
0.858	69.733	-26112	2016.2	-0.29173	0.919	0.24527
0.86	69.783	-26107	2016.4	-0.28997	0.91929	0.24468
0.862	69.819	-26102	2016.6	-0.28821	0.91959	0.2441
0.864	69.844	-26101	2016.8	-0.28646	0.91988	0.24351
0.866	69.831	-26100	2017	-0.28714	0.91978	0.24361
0.868	69.782	-26097	2017.1	-0.28782	0.91968	0.24371
0.87	69.731	-26095	2017.3	-0.28851	0.91959	0.2438
0.872	69.721	-26091	2017.4	-0.28919	0.91949	0.2439
0.874	69.742	-26088	2017.6	-0.28987	0.91939	0.244
0.876	69.776	-26089	2017.7	-0.29114	0.91939	0.2439
0.878	69.822	-26090	2017.8	-0.29241	0.91939	0.2438
0.88	69.859	-26088	2017.8	-0.29368	0.91939	0.24371
0.882	69.861	-26087	2017.9	-0.29495	0.91939	0.24361
0.884	69.825	-26084	2018	-0.29622	0.91939	0.24351
0.886	69.78	-26081	2018	-0.297	0.92056	0.2442
0.888	69.757	-26083	2018	-0.29778	0.92173	0.24488
0.89	69.765	-26085	2018	-0.29856	0.92291	0.24556
0.892	69.804	-26086	2018	-0.29934	0.92408	0.24624
0.894	69.857	-26086	2018.1	-0.30012	0.92525	0.24693
0.896	69.894	-26081	2018.1	-0.30002	0.92613	0.24634
0.898	69.896	-26076	2018.1	-0.29992	0.927	0.24576
0.9	69.867	-26072	2018.1	-0.29983	0.92788	0.24517
0.902	69.819	-26068	2018	-0.29973	0.92876	0.24459
0.904	69.773	-26071	2018	-0.29963	0.92964	0.244
0.906	69.766	-26073	2018	-0.29924	0.92954	0.24371
0.908	69.797	-26074	2017.9	-0.29885	0.92944	0.24341
0.91	69.842	-26076	2017.9	-0.29846	0.92935	0.24312
0.912	69.884	-26075	2017.8	-0.29807	0.92925	0.24283
0.914	69.905	-26073	2017.7	-0.29768	0.92915	0.24254
0.916	69.891	-26074	2017.7	-0.29768	0.92857	0.24341
0.918	69.853	-26074	2017.6	-0.29768	0.92798	0.24429
0.92	69.806	-26079	2017.5	-0.29768	0.9274	0.24517
0.922	69.784	-26083	2017.5	-0.29768	0.92681	0.24605
0.924	69.801	-26078	2017.4	-0.29768	0.92622	0.24693
0.926	69.835	-26073	2017.3	-0.29602	0.92603	0.24742
0.928	69.887	-26077	2017.2	-0.29436	0.92583	0.2479
0.93	69.917	-26081	2017.1	-0.2927	0.92564	0.24839
0.932	69.897	-26083	2017	-0.29104	0.92544	0.24888
0.934	69.857	-26085	2016.9	-0.28938	0.92525	0.24937
0.936	69.817	-26085	2016.7	-0.29143	0.92622	0.2481
0.938	69.79	-26086	2016.6	-0.29348	0.9272	0.24683
0.94	69.797	-26084	2016.5	-0.29553	0.92818	0.24556
0.942	69.819	-26082	2016.4	-0.29758	0.92915	0.24429
0.944	69.857	-26078	2016.3	-0.29963	0.93013	0.24302
0.946	69.895	-26075	2016.1	-0.29934	0.92984	0.24361
0.948	69.9	-26071	2015.9	-0.29905	0.92954	0.2442
0.95	69.875	-26067	2015.8	-0.29875	0.92925	0.24478
0.952	69.834	-26069	2015.6	-0.29846	0.92896	0.24537
0.954	69.802	-26071	2015.5	-0.29817	0.92866	0.24595
0.956	69.794	-26067	2015.3	-0.29817	0.92808	0.24615
0.958	69.813	-26064	2015.1	-0.29817	0.92749	0.24634
0.96	69.856	-26072	2015	-0.29817	0.92691	0.24654
0.962	69.894	-26080	2014.9	-0.29817	0.92632	0.24673
0.964	69.9	-26075	2014.8	-0.29817	0.92574	0.24693
0.966	69.872	-26070	2014.7	-0.29836	0.92564	0.24664
0.968	69.816	-26074	2014.6	-0.29856	0.92554	0.24634
0.97	69.767	-26077	2014.4	-0.29875	0.92544	0.24605
0.972	69.748	-26077	2014.3	-0.29895	0.92535	0.24576
0.974	69.764	-26077	2014.2	-0.29914	0.92525	0.24546
0.976	69.809	-26077	2014.1	-0.29905	0.92574	0.24507
0.978	69.857	-26078	2014	-0.29895	0.92622	0.24468
0.98	69.88	-26077	2013.9	-0.29885	0.92671	0.24429
0.982	69.873	-26077	2013.7	-0.29875	0.9272	0.2439
0.984	69.849	-26078	2013.6	-0.29866	0.92769	0.24351
0.986	69.81	-26079	2013.5	-0.29797	0.92671	0.2442
0.988	69.775	-26081	2013.5	-0.29729	0.92574	0.24488
0.99	69.772	-26084	2013.4	-0.29661	0.92476	0.24556
0.992	69.796	-26085	2013.3	-0.29592	0.92378	0.24624
0.994	69.835	-26087	2013.2	-0.29524	0.92281	0.24693
0.996	69.871	-26091	2013.1	-0.29573	0.92369	0.24595
0.998	69.884	-26095	2013.1	-0.29622	0.92456	0.24498
1	69.86	-26098	2013	-0.2967	0.92544	0.244
1.002	69.82	-26101	2012.9	-0.29719	0.92632	0.24302
1.004	69.779	-26097	2012.8	-0.29768	0.9272	0.24205
1.006	69.765	-26093	2012.7	-0.29788	0.92661	0.24293
1.008	69.794	-26094	2012.6	-0.29807	0.92603	0.2438
1.01	69.841	-26094	2012.5	-0.29827	0.92544	0.24468
1.012	69.882	-26097	2012.4	-0.29846	0.92486	0.24556
1.014	69.899	-26100	2012.3	-0.29866	0.92427	0.24644
1.016	69.879	-26105	2012.1	-0.29817	0.92349	0.24654
1.018	69.829	-26110	2012	-0.29768	0.92271	0.24664
1.02	69.785	-26109	2011.9	-0.29719	0.92193	0.24673
1.022	69.765	-26108	2011.8	-0.2967	0.92115	0.24683
1.024	69.771	-26105	2011.7	-0.29622	0.92037	0.24693
1.026	69.799	-26102	2011.6	-0.29612	0.91998	0.24644
1.028	69.852	-26103	2011.5	-0.29602	0.91959	0.24595
1.03	69.882	-26103	2011.5	-0.29592	0.9192	0.24546
1.032	69.884	-26101	2011.4	-0.29583	0.91881	0.24498
1.034	69.857	-26099	2011.3	-0.29573	0.91842	0.24449
1.036	69.816	-26101	2011.2	-0.29475	0.9191	0.24468
1.038	69.778	-26104	2011.2	-0.29378	0.91978	0.24488
1.04	69.775	-26102	2011.1	-0.2928	0.92047	0.24507
1.042	69.805	-26100	2011	-0.29182	0.92115	0.24527
1.044	69.85	-26104	2010.9	-0.29085	0.92183	0.24546
1.046	69.889	-26107	2010.9	-0.29153	0.92164	0.24488
1.048	69.897	-26108	2010.8	-0.29221	0.92144	0.24429
1.05	69.882	-26109	2010.8	-0.2929	0.92125	0.24371
1.052	69.851	-26109	2010.7	-0.29358	0.92105	0.24312
1.054	69.806	-26109	2010.6	-0.29426	0.92086	0.24254
1.056	69.782	-26109	2010.6	-0.29446	0.92066	0.24312
1.058	69.796	-26109	2010.5	-0.29465	0.92047	0.24371
1.06	69.837	-26110	2010.5	-0.29485	0.92027	0.24429
1.062	69.875	-26112	2010.4	-0.29504	0.92008	0.24488
1.064	69.895	-26113	2010.4	-0.29524	0.91988	0.24546
1.066	69.894	-26115	2010.3	-0.29475	0.91959	0.24488
1.068	69.858	-26115	2010.3	-0.29426	0.91929	0.24429
1.07	69.805	-26115	2010.2	-0.29378	0.919	0.24371
1.072	69.772	-26116	2010.2	-0.29329	0.91871	0.24312
1.074	69.779	-26116	2010.1	-0.2928	0.91842	0.24254
1.076	69.821	-26113	2010.1	-0.29426	0.91988	0.24361
1.078	69.876	-26111	2010	-0.29573	0.92134	0.24468
1.08	69.916	-26109	2010	-0.29719	0.92281	0.24576
1.082	69.917	-26106	2010	-0.29866	0.92427	0.24683
1.084	69.884	-26108	2009.9	-0.30012	0.92574	0.2479
1.086	69.827	-26110	2009.9	-0.29992	0.92622	0.24829
1.088	69.775	-26112	2009.8	-0.29973	0.92671	0.24868
1.09	69.762	-26114	2009.7	-0.29953	0.9272	0.24908
1.092	69.797	-26115	2009.7	-0.29934	0.92769	0.24947
1.094	69.862	-26116	2009.7	-0.29914	0.92818	0.24986
1.096	69.915	-26117	2009.7	-0.29875	0.9271	0.24947
1.098	69.929	-26117	2009.7	-0.29836	0.92603	0.24908
1.1	69.898	-26119	2009.8	-0.29797	0.92496	0.24868
1.102	69.855	-26121	2009.8	-0.29758	0.92388	0.24829
1.104	69.815	-26123	2009.7	-0.29719	0.92281	0.2479
1.106	69.806	-26125	2009.7	-0.29661	0.92183	0.2479
1.108	69.838	-26123	2009.7	-0.29602	0.92086	0.2479
1.11	69.877	-26120	2009.8	-0.29544	0.91988	0.2479
1.112	69.914	-26120	2009.8	-0.29485	0.9189	0.2479
1.114	69.933	-26120	2009.8	-0.29426	0.91793	0.2479
1.116	69.911	-26122	2009.7	-0.29348	0.91822	0.24644
1.118	69.872	-26124	2009.6	-0.2927	0.91851	0.24498
1.12	69.826	-26125	2009.6	-0.29192	0.91881	0.24351
1.122	69.785	-26125	2009.6	-0.29114	0.9191	0.24205
1.124	69.776	-26125	2009.6	-0.29036	0.91939	0.24058
1.126	69.811	-26125	2009.6	-0.29056	0.91988	0.24097
1.128	69.872	-26126	2009.6	-0.29075	0.92037	0.24136
1.13	69.911	-26126	2009.5	-0.29095	0.92086	0.24176
1.132	69.907	-26124	2009.6	-0.29114	0.92134	0.24215
1.134	69.877	-26122	2009.6	-0.29134	0.92183	0.24254
1.136	69.837	-26120	2009.6	-0.29134	0.92076	0.24244
1.138	69.809	-26117	2009.6	-0.29134	0.91968	0.24234
1.14	69.812	-26119	2009.6	-0.29134	0.91861	0.24224
1.142	69.837	-26121	2009.6	-0.29134	0.91754	0.24215
1.144	69.879	-26125	2009.6	-0.29134	0.91646	0.24205
1.146	69.92	-26129	2009.6	-0.29134	0.91724	0.24195
1.148	69.93	-26127	2009.6	-0.29134	0.91803	0.24185
1.15	69.904	-26125	2009.6	-0.29134	0.91881	0.24176
1.152	69.856	-26125	2009.6	-0.29134	0.91959	0.24166
1.154	69.814	-26124	2009.6	-0.29134	0.92037	0.24156
1.156	69.803	-26123	2009.5	-0.2927	0.92115	0.24273
1.158	69.821	-26121	2009.5	-0.29407	0.92193	0.2439
1.16	69.863	-26121	2009.4	-0.29544	0.92271	0.24507
1.162	69.907	-26121	2009.4	-0.2968	0.92349	0.24624
1.164	69.928	-26120	2009.4	-0.29817	0.92427	0.24742
1.166	69.921	-26120	2009.4	-0.29778	0.92417	0.24771
1.168	69.883	-26122	2009.4	-0.29739	0.92408	0.248
1.17	69.827	-26124	2009.4	-0.297	0.92398	0.24829
1.172	69.794	-26125	2009.4	-0.29661	0.92388	0.24859
1.174	69.795	-26125	2009.3	-0.29622	0.92378	0.24888
1.176	69.835	-26121	2009.3	-0.29456	0.92398	0.24976
1.178	69.889	-26116	2009.3	-0.2929	0.92417	0.25064
1.18	69.933	-26115	2009.3	-0.29124	0.92437	0.25152
1.182	69.921	-26113	2009.3	-0.28958	0.92456	0.25239
1.184	69.875	-26119	2009.2	-0.28792	0.92476	0.25327
1.186	69.827	-26124	2009.2	-0.28938	0.92408	0.252
1.188	69.793	-26127	2009.2	-0.29085	0.92339	0.25073
1.19	69.784	-26131	2009.2	-0.29231	0.92271	0.24947
1.192	69.809	-26129	2009.1	-0.29378	0.92203	0.2482
1.194	69.856	-26128	2009	-0.29524	0.92134	0.24693
1.196	69.887	-26129	2009	-0.29544	0.92056	0.24624
1.198	69.892	-26130	2009	-0.29563	0.91978	0.24556
1.2	69.866	-26131	2009	-0.29583	0.919	0.24488
1.202	69.821	-26132	2009	-0.29602	0.91822	0.2442
1.204	69.785	-26128	2008.9	-0.29622	0.91744	0.24351
1.206	69.776	-26124	2008.9	-0.29534	0.91764	0.24293
1.208	69.799	-26125	2008.9	-0.29446	0.91783	0.24234
1.21	69.845	-26126	2008.8	-0.29358	0.91803	0.24176
1.212	69.896	-26127	2008.7	-0.2927	0.91822	0.24117
1.214	69.91	-26127	2008.7	-0.29182	0.91842	0.24058
1.216	69.883	-26123	2008.7	-0.29192	0.91881	0.24058
1.218	69.831	-26119	2008.6	-0.29202	0.9192	0.24058
1.22	69.762	-26117	2008.6	-0.29212	0.91959	0.24058
1.222	69.722	-26114	2008.5	-0.29221	0.91998	0.24058
1.224	69.728	-26123	2008.4	-0.29231	0.92037	0.24058
1.226	69.775	-26132	2008.4	-0.2928	0.92056	0.24156
1.228	69.83	-26135	2008.3	-0.29329	0.92076	0.24254
1.23	69.87	-26138	2008.2	-0.29378	0.92095	0.24351
1.232	69.876	-26139	2008.2	-0.29426	0.92115	0.24449
1.234	69.847	-26139	2008.1	-0.29475	0.92134	0.24546
1.236	69.793	-26135	2008.1	-0.29417	0.92095	0.24478
1.238	69.739	-26131	2008	-0.29358	0.92056	0.2441
1.24	69.73	-26131	2008	-0.293	0.92017	0.24341
1.242	69.768	-26131	2007.9	-0.29241	0.91978	0.24273
1.244	69.814	-26132	2007.9	-0.29182	0.91939	0.24205
1.246	69.838	-26133	2007.8	-0.29339	0.92037	0.24263
1.248	69.845	-26136	2007.8	-0.29495	0.92134	0.24322
1.25	69.837	-26139	2007.7	-0.29651	0.92232	0.2438
1.252	69.797	-26136	2007.7	-0.29807	0.9233	0.24439
1.254	69.753	-26133	2007.6	-0.29963	0.92427	0.24498
1.256	69.741	-26133	2007.6	-0.29885	0.92417	0.24537
1.258	69.769	-26133	2007.5	-0.29807	0.92408	0.24576
1.26	69.822	-26137	2007.5	-0.29729	0.92398	0.24615
1.262	69.87	-26141	2007.5	-0.29651	0.92388	0.24654
1.264	69.892	-26139	2007.5	-0.29573	0.92378	0.24693
1.266	69.892	-26137	2007.4	-0.29592	0.92359	0.24693
1.268	69.868	-26135	2007.3	-0.29612	0.92339	0.24693
1.27	69.843	-26133	2007.2	-0.29631	0.9232	0.24693
1.272	69.824	-26139	2007.2	-0.29651	0.923	0.24693
1.274	69.827	-26145	2007.1	-0.2967	0.92281	0.24693
1.276	69.859	-26138	2007.1	-0.29631	0.9232	0.24722
1.278	69.896	-26132	2007	-0.29592	0.92359	0.24751
1.28	69.934	-26136	2006.9	-0.29553	0.92398	0.24781
1.282	69.949	-26140	2006.9	-0.29514	0.92437	0.2481
1.284	69.917	-26142	2006.8	-0.29475	0.92476	0.24839
1.286	69.872	-26143	2006.8	-0.29534	0.92476	0.24868
1.288	69.838	-26151	2006.7	-0.29592	0.92476	0.24898
1.29	69.826	-26158	2006.7	-0.29651	0.92476	0.24927
1.292	69.856	-26157	2006.6	-0.29709	0.92476	0.24956
1.294	69.906	-26157	2006.6	-0.29768	0.92476	0.24986
1.296	69.946	-26152	2006.5	-0.29758	0.92447	0.24927
1.298	69.951	-26146	2006.5	-0.29748	0.92417	0.24868
1.3	69.923	-26143	2006.4	-0.29739	0.92388	0.2481
1.302	69.87	-26140	2006.3	-0.29729	0.92359	0.24751
1.304	69.823	-26137	2006.2	-0.29719	0.9233	0.24693
1.306	69.804	-26135	2006.2	-0.29768	0.92369	0.24722
1.308	69.825	-26145	2006.1	-0.29817	0.92408	0.24751
1.31	69.872	-26155	2006.1	-0.29866	0.92447	0.24781
1.312	69.918	-26156	2006.1	-0.29914	0.92486	0.2481
1.314	69.94	-26157	2006	-0.29963	0.92525	0.24839
1.316	69.914	-26158	2005.9	-0.29924	0.92466	0.24859
1.318	69.867	-26159	2005.8	-0.29885	0.92408	0.24878
1.32	69.827	-26153	2005.8	-0.29846	0.92349	0.24898
1.322	69.809	-26147	2005.8	-0.29807	0.92291	0.24917
1.324	69.819	-26149	2005.7	-0.29768	0.92232	0.24937
1.326	69.86	-26151	2005.7	-0.29758	0.92222	0.24927
1.328	69.914	-26156	2005.6	-0.29748	0.92212	0.24917
1.33	69.953	-26162	2005.6	-0.29739	0.92203	0.24908
1.332	69.958	-26162	2005.5	-0.29729	0.92193	0.24898
1.334	69.917	-26161	2005.5	-0.29719	0.92183	0.24888
1.336	69.863	-26162	2005.4	-0.29612	0.92222	0.24917
1.338	69.832	-26162	2005.4	-0.29504	0.92261	0.24947
1.34	69.827	-26162	2005.4	-0.29397	0.923	0.24976
1.342	69.845	-26162	2005.4	-0.2929	0.92339	0.25005
1.344	69.862	-26162	2005.4	-0.29182	0.92378	0.25034
1.346	69.859	-26161	2005.3	-0.29095	0.92456	0.25073
1.348	69.835	-26163	2005.3	-0.29007	0.92535	0.25112
1.35	69.775	-26165	2005.2	-0.28919	0.92613	0.25152
1.352	69.675	-26164	2005.2	-0.28831	0.92691	0.25191
1.354	69.573	-26163	2005.1	-0.28743	0.92769	0.2523
1.356	69.506	-26157	2005.1	-0.2889	0.92642	0.25181
1.358	69.465	-26152	2005.1	-0.29036	0.92515	0.25132
1.36	69.413	-26156	2005	-0.29182	0.92388	0.25083
1.362	69.376	-26161	2005.1	-0.29329	0.92261	0.25034
1.364	69.355	-26166	2005.1	-0.29475	0.92134	0.24986
1.366	69.312	-26172	2005	-0.29514	0.92164	0.24976
1.368	69.249	-26166	2005	-0.29553	0.92193	0.24966
1.37	69.2	-26160	2004.9	-0.29592	0.92222	0.24956
1.372	69.167	-26163	2004.9	-0.29631	0.92252	0.24947
1.374	69.203	-26166	2004.8	-0.2967	0.92281	0.24937
1.376	69.281	-26166	2004.8	-0.2968	0.9231	0.24917
1.378	69.393	-26166	2004.7	-0.2969	0.92339	0.24898
1.38	69.511	-26162	2004.7	-0.297	0.92369	0.24878
1.382	69.609	-26159	2004.7	-0.29709	0.92398	0.24859
1.384	69.678	-26164	2004.6	-0.29719	0.92427	0.24839
1.386	69.728	-26169	2004.6	-0.29563	0.92476	0.24859
1.388	69.759	-26169	2004.6	-0.29407	0.92525	0.24878
1.39	69.797	-26169	2004.5	-0.29251	0.92574	0.24898
1.392	69.845	-26169	2004.5	-0.29095	0.92622	0.24917
1.394	69.907	-26169	2004.4	-0.28938	0.92671	0.24937
1.396	69.966	-26169	2004.4	-0.29104	0.92554	0.24839
1.398	69.992	-26169	2004.4	-0.2927	0.92437	0.24742
1.4	69.977	-26168	2004.3	-0.29436	0.9232	0.24644
1.402	69.926	-26167	2004.4	-0.29602	0.92203	0.24546
1.404	69.875	-26164	2004.4	-0.29768	0.92086	0.24449
1.406	69.856	-26161	2004.4	-0.29788	0.92193	0.24478
1.408	69.868	-26164	2004.4	-0.29807	0.923	0.24507
1.41	69.904	-26166	2004.4	-0.29827	0.92408	0.24537
1.412	69.948	-26173	2004.4	-0.29846	0.92515	0.24566
1.414	69.971	-26179	2004.4	-0.29866	0.92622	0.24595
1.416	69.955	-26180	2004.3	-0.29827	0.92622	0.24605
1.418	69.904	-26182	2004.3	-0.29788	0.92622	0.24615
1.42	69.848	-26184	2004.2	-0.29748	0.92622	0.24624
1.422	69.821	-26187	2004.2	-0.29709	0.92622	0.24634
1.424	69.832	-26186	2004.1	-0.2967	0.92622	0.24644
1.426	69.864	-26186	2004.1	-0.29602	0.92486	0.24693
1.428	69.903	-26184	2004	-0.29534	0.92349	0.24742
1.43	69.939	-26183	2004	-0.29465	0.92212	0.2479
1.432	69.945	-26180	2003.9	-0.29397	0.92076	0.24839
1.434	69.906	-26177	2003.9	-0.29329	0.91939	0.24888
1.436	69.851	-26173	2003.9	-0.29417	0.92017	0.24927
1.438	69.816	-26169	2003.9	-0.29504	0.92095	0.24966
1.44	69.809	-26178	2003.9	-0.29592	0.92173	0.25005
1.442	69.832	-26187	2003.8	-0.2968	0.92252	0.25044
1.444	69.869	-26186	2003.8	-0.29768	0.9233	0.25083
1.446	69.923	-26185	2003.7	-0.29778	0.923	0.24937
1.448	69.949	-26183	2003.7	-0.29788	0.92271	0.2479
1.45	69.924	-26181	2003.7	-0.29797	0.92242	0.24644
1.452	69.877	-26181	2003.6	-0.29807	0.92212	0.24498
1.454	69.827	-26182	2003.6	-0.29817	0.92183	0.24351
1.456	69.792	-26187	2003.6	-0.29788	0.92261	0.244
1.458	69.8	-26192	2003.6	-0.29758	0.92339	0.24449
1.46	69.838	-26192	2003.5	-0.29729	0.92417	0.24498
1.462	69.884	-26191	2003.5	-0.297	0.92496	0.24546
1.464	69.913	-26189	2003.4	-0.2967	0.92574	0.24595
1.466	69.911	-26187	2003.5	-0.29651	0.92505	0.24585
1.468	69.876	-26190	2003.5	-0.29631	0.92437	0.24576
1.47	69.831	-26193	2003.5	-0.29612	0.92369	0.24566
1.472	69.8	-26190	2003.5	-0.29592	0.923	0.24556
1.474	69.795	-26187	2003.5	-0.29573	0.92232	0.24546
1.476	69.82	-26189	2003.5	-0.29563	0.92222	0.24537
1.478	69.861	-26192	2003.6	-0.29553	0.92212	0.24527
1.48	69.893	-26186	2003.6	-0.29544	0.92203	0.24517
1.482	69.888	-26179	2003.6	-0.29534	0.92193	0.24507
1.484	69.852	-26193	2003.7	-0.29524	0.92183	0.24498
1.486	69.803	-26206	2003.7	-0.29592	0.92271	0.24527
1.488	69.76	-26197	2003.7	-0.29661	0.92359	0.24556
1.49	69.75	-26187	2003.7	-0.29729	0.92447	0.24585
1.492	69.779	-26189	2003.7	-0.29797	0.92535	0.24615
1.494	69.822	-26191	2003.7	-0.29866	0.92622	0.24644
1.496	69.852	-26199	2003.6	-0.29768	0.92583	0.24576
1.498	69.86	-26207	2003.6	-0.2967	0.92544	0.24507
1.5	69.839	-26199	2003.6	-0.29573	0.92505	0.24439
1.502	69.791	-26191	2003.5	-0.29475	0.92466	0.24371
1.504	69.747	-26195	2003.5	-0.29378	0.92427	0.24302
1.506	69.729	-26199	2003.5	-0.29446	0.92408	0.2438
1.508	69.749	-26199	2003.5	-0.29514	0.92388	0.24459
1.51	69.792	-26198	2003.4	-0.29583	0.92369	0.24537
1.512	69.832	-26202	2003.4	-0.29651	0.92349	0.24615
1.514	69.853	-26207	2003.3	-0.29719	0.9233	0.24693
1.516	69.839	-26204	2003.2	-0.2969	0.9231	0.24732
1.518	69.791	-26201	2003	-0.29661	0.92291	0.24771
1.52	69.729	-26200	2003	-0.29631	0.92271	0.2481
1.522	69.691	-26198	2002.9	-0.29602	0.92252	0.24849
1.524	69.697	-26199	2002.8	-0.29573	0.92232	0.24888
1.526	69.738	-26199	2002.8	-0.29495	0.92134	0.24742
1.528	69.779	-26194	2002.7	-0.29417	0.92037	0.24595
1.53	69.814	-26188	2002.7	-0.29339	0.91939	0.24449
1.532	69.817	-26194	2002.6	-0.2926	0.91842	0.24302
1.534	69.777	-26200	2002.6	-0.29182	0.91744	0.24156
1.536	69.721	-26203	2002.5	-0.29241	0.91744	0.24166
1.538	69.674	-26206	2002.5	-0.293	0.91744	0.24176
1.54	69.66	-26211	2002.4	-0.29358	0.91744	0.24185
1.542	69.696	-26215	2002.5	-0.29417	0.91744	0.24195
1.544	69.746	-26211	2002.5	-0.29475	0.91744	0.24205
1.546	69.791	-26206	2002.6	-0.29456	0.91773	0.24244
1.548	69.795	-26208	2002.6	-0.29436	0.91803	0.24283
1.55	69.771	-26210	2002.6	-0.29417	0.91832	0.24322
1.552	69.731	-26207	2002.7	-0.29397	0.91861	0.24361
1.554	69.679	-26204	2002.7	-0.29378	0.9189	0.244
1.556	69.654	-26208	2002.8	-0.29544	0.92134	0.24429
1.558	69.667	-26212	2002.8	-0.29709	0.92378	0.24459
1.56	69.71	-26211	2002.9	-0.29875	0.92622	0.24488
1.562	69.758	-26210	2003	-0.30041	0.92866	0.24517
1.564	69.779	-26208	2003.1	-0.30207	0.9311	0.24546
1.566	69.76	-26206	2003.2	-0.30168	0.93052	0.24585
1.568	69.711	-26201	2003.4	-0.30129	0.92993	0.24624
1.57	69.663	-26197	2003.5	-0.3009	0.92935	0.24664
1.572	69.642	-26198	2003.7	-0.30051	0.92876	0.24703
1.574	69.653	-26200	2003.8	-0.30012	0.92818	0.24742
1.576	69.694	-26200	2004	-0.29788	0.9272	0.2482
1.578	69.743	-26201	2004.2	-0.29563	0.92622	0.24898
1.58	69.776	-26199	2004.4	-0.29339	0.92525	0.24976
1.582	69.779	-26196	2004.6	-0.29114	0.92427	0.25054
1.584	69.749	-26192	2004.8	-0.2889	0.9233	0.25132
1.586	69.706	-26188	2005.1	-0.2888	0.92349	0.25181
1.588	69.675	-26190	2005.4	-0.2887	0.92369	0.2523
1.59	69.674	-26191	2005.6	-0.2886	0.92388	0.25278
1.592	69.707	-26190	2005.9	-0.28851	0.92408	0.25327
1.594	69.755	-26189	2006.2	-0.28841	0.92427	0.25376
1.596	69.798	-26191	2006.4	-0.28694	0.92349	0.25288
1.598	69.812	-26193	2006.7	-0.28548	0.92271	0.252
1.6	69.79	-26190	2007	-0.28402	0.92193	0.25112
1.602	69.743	-26186	2007.2	-0.28255	0.92115	0.25025
1.604	69.698	-26182	2007.5	-0.28109	0.92037	0.24937
1.606	69.677	-26177	2007.8	-0.28382	0.91988	0.24849
1.608	69.699	-26172	2008	-0.28655	0.91939	0.24761
1.61	69.745	-26167	2008.2	-0.28929	0.9189	0.24673
1.612	69.795	-26169	2008.5	-0.29202	0.91842	0.24585
1.614	69.84	-26171	2008.7	-0.29475	0.91793	0.24498
1.616	69.834	-26170	2008.9	-0.29495	0.91773	0.24478
1.618	69.782	-26170	2009.1	-0.29514	0.91754	0.24459
1.62	69.731	-26171	2009.2	-0.29534	0.91734	0.24439
1.622	69.701	-26171	2009.4	-0.29553	0.91715	0.2442
1.624	69.722	-26170	2009.6	-0.29573	0.91695	0.244
1.626	69.771	-26168	2009.7	-0.29602	0.91744	0.2438
1.628	69.833	-26162	2009.8	-0.29631	0.91793	0.24361
1.63	69.88	-26157	2009.9	-0.29661	0.91842	0.24341
1.632	69.868	-26155	2010.1	-0.2969	0.9189	0.24322
1.634	69.828	-26152	2010.2	-0.29719	0.91939	0.24302
1.636	69.79	-26149	2010.3	-0.29729	0.92056	0.2439
1.638	69.751	-26147	2010.4	-0.29739	0.92173	0.24478
1.64	69.745	-26148	2010.5	-0.29748	0.92291	0.24566
1.642	69.772	-26150	2010.6	-0.29758	0.92408	0.24654
1.644	69.818	-26154	2010.6	-0.29768	0.92525	0.24742
1.646	69.864	-26157	2010.7	-0.29788	0.92505	0.2479
1.648	69.888	-26158	2010.7	-0.29807	0.92486	0.24839
1.65	69.87	-26159	2010.8	-0.29827	0.92466	0.24888
1.652	69.822	-26155	2010.8	-0.29846	0.92447	0.24937
1.654	69.773	-26151	2010.8	-0.29866	0.92427	0.24986
1.656	69.758	-26150	2010.8	-0.29846	0.92388	0.24966
1.658	69.782	-26149	2010.7	-0.29827	0.92349	0.24947
1.66	69.827	-26146	2010.7	-0.29807	0.9231	0.24927
1.662	69.868	-26142	2010.7	-0.29788	0.92271	0.24908
1.664	69.887	-26144	2010.7	-0.29768	0.92232	0.24888
1.666	69.879	-26146	2010.7	-0.29748	0.92232	0.24927
1.668	69.85	-26144	2010.7	-0.29729	0.92232	0.24966
1.67	69.804	-26142	2010.7	-0.29709	0.92232	0.25005
1.672	69.766	-26144	2010.6	-0.2969	0.92232	0.25044
1.674	69.775	-26146	2010.6	-0.2967	0.92232	0.25083
1.676	69.819	-26152	2010.6	-0.297	0.923	0.25025
1.678	69.869	-26158	2010.5	-0.29729	0.92369	0.24966
1.68	69.9	-26158	2010.5	-0.29758	0.92437	0.24908
1.682	69.903	-26158	2010.4	-0.29788	0.92505	0.24849
1.684	69.877	-26156	2010.3	-0.29817	0.92574	0.2479
1.686	69.829	-26155	2010.3	-0.29739	0.92515	0.24761
1.688	69.785	-26151	2010.2	-0.29661	0.92456	0.24732
1.69	69.773	-26147	2010.2	-0.29583	0.92398	0.24703
1.692	69.802	-26144	2010.1	-0.29504	0.92339	0.24673
1.694	69.854	-26140	2010	-0.29426	0.92281	0.24644
1.696	69.897	-26143	2009.9	-0.29495	0.92281	0.24634
1.698	69.912	-26146	2009.8	-0.29563	0.92281	0.24624
1.7	69.89	-26146	2009.8	-0.29631	0.92281	0.24615
1.702	69.837	-26145	2009.7	-0.297	0.92281	0.24605
1.704	69.78	-26146	2009.6	-0.29768	0.92281	0.24595
1.706	69.761	-26148	2009.5	-0.29748	0.92252	0.24576
1.708	69.773	-26146	2009.5	-0.29729	0.92222	0.24556
1.71	69.808	-26143	2009.4	-0.29709	0.92193	0.24537
1.712	69.858	-26144	2009.3	-0.2969	0.92164	0.24517
1.714	69.89	-26146	2009.2	-0.2967	0.92134	0.24498
1.716	69.873	-26150	2009.1	-0.29602	0.92086	0.24449
1.718	69.843	-26155	2009.1	-0.29534	0.92037	0.244
1.72	69.793	-26156	2009	-0.29465	0.91988	0.24351
1.722	69.755	-26157	2009	-0.29397	0.91939	0.24302
1.724	69.77	-26158	2009	-0.29329	0.9189	0.24254
1.726	69.811	-26159	2008.9	-0.29387	0.91988	0.24254
1.728	69.86	-26160	2008.8	-0.29446	0.92086	0.24254
1.73	69.895	-26160	2008.8	-0.29504	0.92183	0.24254
1.732	69.891	-26160	2008.7	-0.29563	0.92281	0.24254
1.734	69.847	-26159	2008.7	-0.29622	0.92378	0.24254
1.736	69.79	-26156	2008.6	-0.297	0.92456	0.24332
1.738	69.756	-26154	2008.5	-0.29778	0.92535	0.2441
1.74	69.751	-26153	2008.5	-0.29856	0.92613	0.24488
1.742	69.773	-26153	2008.5	-0.29934	0.92691	0.24566
1.744	69.827	-26160	2008.4	-0.30012	0.92769	0.24644
1.746	69.877	-26167	2008.5	-0.29924	0.9273	0.24693
1.748	69.883	-26165	2008.5	-0.29836	0.92691	0.24742
1.75	69.856	-26163	2008.5	-0.29748	0.92652	0.2479
1.752	69.813	-26161	2008.4	-0.29661	0.92613	0.24839
1.754	69.765	-26159	2008.3	-0.29573	0.92574	0.24888
1.756	69.737	-26159	2008.3	-0.29612	0.92544	0.24888
1.758	69.748	-26160	2008.3	-0.29651	0.92515	0.24888
1.76	69.792	-26160	2008.2	-0.2969	0.92486	0.24888
1.762	69.846	-26160	2008.2	-0.29729	0.92456	0.24888
1.764	69.871	-26162	2008.2	-0.29768	0.92427	0.24888
1.766	69.861	-26165	2008.1	-0.2967	0.923	0.24742
1.768	69.829	-26169	2008	-0.29573	0.92173	0.24595
1.77	69.782	-26172	2008	-0.29475	0.92047	0.24449
1.772	69.752	-26171	2007.9	-0.29378	0.9192	0.24302
1.774	69.754	-26170	2007.9	-0.2928	0.91793	0.24156
1.776	69.785	-26169	2007.9	-0.29221	0.91793	0.24166
1.778	69.836	-26168	2007.9	-0.29163	0.91793	0.24176
1.78	69.879	-26167	2007.9	-0.29104	0.91793	0.24185
1.782	69.885	-26166	2007.9	-0.29046	0.91793	0.24195
1.784	69.853	-26167	2007.9	-0.28987	0.91793	0.24205
1.786	69.805	-26168	2007.9	-0.29153	0.91939	0.24312
1.788	69.772	-26169	2007.9	-0.29319	0.92086	0.2442
1.79	69.753	-26170	2007.9	-0.29485	0.92232	0.24527
1.792	69.771	-26169	2007.9	-0.29651	0.92378	0.24634
1.794	69.827	-26169	2008	-0.29817	0.92525	0.24742
1.796	69.882	-26171	2007.9	-0.29797	0.92505	0.24761
1.798	69.904	-26173	2007.9	-0.29778	0.92486	0.24781
1.8	69.885	-26173	2007.9	-0.29758	0.92466	0.248
1.802	69.843	-26173	2008	-0.29739	0.92447	0.2482
1.804	69.793	-26172	2008	-0.29719	0.92427	0.24839
1.806	69.768	-26170	2008	-0.29719	0.92437	0.24859
1.808	69.775	-26167	2008	-0.29719	0.92447	0.24878
1.81	69.811	-26164	2008	-0.29719	0.92456	0.24898
1.812	69.854	-26166	2008	-0.29719	0.92466	0.24917
1.814	69.884	-26167	2008	-0.29719	0.92476	0.24937
1.816	69.881	-26176	2008.1	-0.29514	0.92486	0.24995
1.818	69.848	-26185	2008.1	-0.29309	0.92496	0.25054
1.82	69.799	-26185	2008.1	-0.29104	0.92505	0.25112
1.822	69.765	-26185	2008.1	-0.28899	0.92515	0.25171
1.824	69.764	-26184	2008.1	-0.28694	0.92525	0.2523
1.826	69.797	-26183	2008.1	-0.28782	0.92525	0.25181
1.828	69.851	-26178	2008.1	-0.2887	0.92525	0.25132
1.83	69.887	-26174	2008.2	-0.28958	0.92525	0.25083
1.832	69.885	-26171	2008.2	-0.29046	0.92525	0.25034
1.834	69.847	-26168	2008.2	-0.29134	0.92525	0.24986
1.836	69.8	-26168	2008.2	-0.29192	0.92525	0.25034
1.838	69.769	-26169	2008.3	-0.29251	0.92525	0.25083
1.84	69.768	-26172	2008.3	-0.29309	0.92525	0.25132
1.842	69.798	-26175	2008.3	-0.29368	0.92525	0.25181
1.844	69.845	-26178	2008.4	-0.29426	0.92525	0.2523
1.846	69.885	-26180	2008.5	-0.29358	0.92456	0.25181
1.848	69.894	-26181	2008.5	-0.2929	0.92388	0.25132
1.85	69.866	-26183	2008.6	-0.29221	0.9232	0.25083
1.852	69.818	-26177	2008.6	-0.29153	0.92252	0.25034
1.854	69.78	-26172	2008.6	-0.29085	0.92183	0.24986
1.856	69.773	-26173	2008.6	-0.29221	0.92164	0.24917
1.858	69.789	-26173	2008.7	-0.29358	0.92144	0.24849
1.86	69.824	-26174	2008.8	-0.29495	0.92125	0.24781
1.862	69.867	-26175	2008.9	-0.29631	0.92105	0.24712
1.864	69.895	-26176	2009	-0.29768	0.92086	0.24644
1.866	69.881	-26177	2009	-0.29748	0.92076	0.24624
1.868	69.847	-26174	2009.1	-0.29729	0.92066	0.24605
1.87	69.802	-26172	2009.1	-0.29709	0.92056	0.24585
1.872	69.765	-26171	2009.2	-0.2969	0.92047	0.24566
1.874	69.779	-26171	2009.3	-0.2967	0.92037	0.24546
1.876	69.799	-26173	2009.4	-0.2969	0.92047	0.24605
1.878	69.844	-26175	2009.5	-0.29709	0.92056	0.24664
1.88	69.9	-26177	2009.6	-0.29729	0.92066	0.24722
1.882	69.891	-26179	2009.6	-0.29748	0.92076	0.24781
1.884	69.86	-26181	2009.7	-0.29768	0.92086	0.24839
1.886	69.817	-26183	2009.8	-0.29817	0.92203	0.24849
1.888	69.768	-26180	2009.9	-0.29866	0.9232	0.24859
1.89	69.763	-26177	2009.9	-0.29914	0.92437	0.24868
1.892	69.793	-26179	2010	-0.29963	0.92554	0.24878
1.894	69.843	-26181	2010.1	-0.30012	0.92671	0.24888
1.896	69.897	-26175	2010.2	-0.29788	0.9272	0.24888
1.898	69.92	-26168	2010.2	-0.29563	0.92769	0.24888
1.9	69.904	-26172	2010.3	-0.29339	0.92818	0.24888
1.902	69.85	-26175	2010.4	-0.29114	0.92866	0.24888
1.904	69.789	-26175	2010.5	-0.2889	0.92915	0.24888
1.906	69.76	-26175	2010.6	-0.28899	0.92798	0.24937
1.908	69.783	-26172	2010.7	-0.28909	0.92681	0.24986
1.91	69.833	-26169	2010.7	-0.28919	0.92564	0.25034
1.912	69.886	-26171	2010.8	-0.28929	0.92447	0.25083
1.914	69.911	-26173	2010.9	-0.28938	0.9233	0.25132
1.916	69.898	-26171	2011	-0.28968	0.92388	0.25073
1.918	69.858	-26169	2011	-0.28997	0.92447	0.25015
1.92	69.811	-26171	2011.1	-0.29026	0.92505	0.24956
1.922	69.777	-26174	2011.1	-0.29056	0.92564	0.24898
1.924	69.776	-26173	2011.2	-0.29085	0.92622	0.24839
1.926	69.815	-26173	2011.3	-0.29065	0.92593	0.24927
1.928	69.863	-26170	2011.4	-0.29046	0.92564	0.25015
1.93	69.892	-26166	2011.4	-0.29026	0.92535	0.25103
1.932	69.893	-26171	2011.5	-0.29007	0.92505	0.25191
1.934	69.86	-26176	2011.6	-0.28987	0.92476	0.25278
1.936	69.81	-26171	2011.7	-0.28997	0.92525	0.252
1.938	69.759	-26167	2011.7	-0.29007	0.92574	0.25122
1.94	69.739	-26169	2011.7	-0.29016	0.92622	0.25044
1.942	69.76	-26171	2011.8	-0.29026	0.92671	0.24966
1.944	69.817	-26170	2011.9	-0.29036	0.9272	0.24888
1.946	69.873	-26170	2012	-0.29114	0.92593	0.2481
1.948	69.872	-26171	2012	-0.29192	0.92466	0.24732
1.95	69.844	-26173	2012.1	-0.2927	0.92339	0.24654
1.952	69.815	-26168	2012.1	-0.29348	0.92212	0.24576
1.954	69.76	-26163	2012	-0.29426	0.92086	0.24498
1.956	69.723	-26163	2012.1	-0.29348	0.92164	0.24546
1.958	69.724	-26163	2012.2	-0.2927	0.92242	0.24595
1.96	69.763	-26168	2012.2	-0.29192	0.9232	0.24644
1.962	69.819	-26174	2012.2	-0.29114	0.92398	0.24693
1.964	69.854	-26171	2012.2	-0.29036	0.92476	0.24742
1.966	69.842	-26168	2012.2	-0.29056	0.92408	0.24673
1.968	69.808	-26167	2012.3	-0.29075	0.92339	0.24605
1.97	69.765	-26167	2012.3	-0.29095	0.92271	0.24537
1.972	69.735	-26168	2012.3	-0.29114	0.92203	0.24468
1.974	69.73	-26169	2012.3	-0.29134	0.92134	0.244
1.976	69.766	-26167	2012.3	-0.29056	0.92144	0.24312
1.978	69.817	-26166	2012.3	-0.28977	0.92154	0.24224
1.98	69.84	-26163	2012.3	-0.28899	0.92164	0.24136
1.982	69.83	-26161	2012.3	-0.28821	0.92173	0.24049
1.984	69.792	-26165	2012.4	-0.28743	0.92183	0.23961
1.986	69.733	-26170	2012.4	-0.28841	0.92164	0.24127
1.988	69.699	-26164	2012.4	-0.28938	0.92144	0.24293
1.99	69.718	-26158	2012.4	-0.29036	0.92125	0.24459
1.992	69.765	-26162	2012.4	-0.29134	0.92105	0.24624
1.994	69.819	-26166	2012.4	-0.29231	0.92086	0.2479
1.996	69.869	-26168	2012.4	-0.2927	0.92076	0.24703
1.998	69.89	-26170	2012.5	-0.29309	0.92066	0.24615
2	69.872	-26170	2012.5	-0.29348	0.92056	0.24527
2.002	69.836	-26170	2012.5	-0.29387	0.92047	0.24439
2.004	69.805	-26171	2012.5	-0.29426	0.92037	0.24351
2.006	69.791	-26173	2012.5	-0.29368	0.92027	0.2441
2.008	69.803	-26175	2012.5	-0.29309	0.92017	0.24468
2.01	69.846	-26177	2012.5	-0.29251	0.92008	0.24527
2.012	69.891	-26179	2012.6	-0.29192	0.91998	0.24585
2.014	69.907	-26181	2012.6	-0.29134	0.91988	0.24644
2.016	69.888	-26178	2012.6	-0.29134	0.91939	0.24537
2.018	69.853	-26175	2012.6	-0.29134	0.9189	0.24429
2.02	69.811	-26173	2012.6	-0.29134	0.91842	0.24322
2.022	69.785	-26172	2012.6	-0.29134	0.91793	0.24215
2.024	69.792	-26170	2012.6	-0.29134	0.91744	0.24107
2.026	69.831	-26168	2012.6	-0.29182	0.91832	0.24176
2.028	69.886	-26170	2012.6	-0.29231	0.9192	0.24244
2.03	69.931	-26173	2012.6	-0.2928	0.92008	0.24312
2.032	69.94	-26173	2012.6	-0.29329	0.92095	0.2438
2.034	69.91	-26172	2012.6	-0.29378	0.92183	0.24449
2.036	69.851	-26176	2012.6	-0.29436	0.92203	0.24517
2.038	69.806	-26179	2012.6	-0.29495	0.92222	0.24585
2.04	69.789	-26174	2012.6	-0.29553	0.92242	0.24654
2.042	69.808	-26168	2012.6	-0.29612	0.92261	0.24722
2.044	69.854	-26167	2012.6	-0.2967	0.92281	0.2479
2.046	69.912	-26166	2012.6	-0.29612	0.92232	0.24712
2.048	69.927	-26175	2012.7	-0.29553	0.92183	0.24634
2.05	69.902	-26184	2012.7	-0.29495	0.92134	0.24556
2.052	69.86	-26177	2012.7	-0.29436	0.92086	0.24478
2.054	69.818	-26169	2012.7	-0.29378	0.92037	0.244
2.056	69.8	-26176	2012.7	-0.29436	0.92086	0.24429
2.058	69.813	-26184	2012.7	-0.29495	0.92134	0.24459
2.06	69.859	-26186	2012.7	-0.29553	0.92183	0.24488
2.062	69.907	-26189	2012.7	-0.29612	0.92232	0.24517
2.064	69.934	-26182	2012.7	-0.2967	0.92281	0.24546
2.066	69.928	-26176	2012.7	-0.29719	0.92408	0.24576
2.068	69.899	-26174	2012.7	-0.29768	0.92535	0.24605
2.07	69.864	-26172	2012.8	-0.29817	0.92661	0.24634
2.072	69.834	-26179	2012.8	-0.29866	0.92788	0.24664
2.074	69.836	-26185	2012.8	-0.29914	0.92915	0.24693
2.076	69.868	-26183	2012.8	-0.29817	0.92769	0.24751
2.078	69.903	-26181	2012.8	-0.29719	0.92622	0.2481
2.08	69.917	-26185	2012.9	-0.29622	0.92476	0.24868
2.082	69.889	-26189	2012.9	-0.29524	0.9233	0.24927
2.084	69.812	-26179	2012.9	-0.29426	0.92183	0.24986
2.086	69.713	-26168	2012.9	-0.29495	0.92154	0.24986
2.088	69.634	-26176	2012.9	-0.29563	0.92125	0.24986
2.09	69.582	-26184	2012.9	-0.29631	0.92095	0.24986
2.092	69.549	-26184	2012.9	-0.297	0.92066	0.24986
2.094	69.528	-26185	2013	-0.29768	0.92037	0.24986
2.096	69.502	-26186	2013	-0.29592	0.92095	0.24995
2.098	69.457	-26188	2013	-0.29417	0.92154	0.25005
2.1	69.392	-26184	2013	-0.29241	0.92212	0.25015
2.102	69.305	-26179	2013.1	-0.29065	0.92271	0.25025
2.104	69.223	-26181	2013.1	-0.2889	0.9233	0.25034
2.106	69.188	-26183	2013.1	-0.29056	0.92339	0.25005
2.108	69.207	-26182	2013.1	-0.29221	0.92349	0.24976
2.11	69.265	-26182	2013.1	-0.29387	0.92359	0.24947
2.112	69.347	-26189	2013.2	-0.29553	0.92369	0.24917
2.114	69.403	-26195	2013.2	-0.29719	0.92378	0.24888
2.116	69.42	-26190	2013.2	-0.2967	0.9232	0.24898
2.118	69.43	-26185	2013.3	-0.29622	0.92261	0.24908
2.12	69.469	-26185	2013.3	-0.29573	0.92203	0.24917
2.122	69.545	-26185	2013.3	-0.29524	0.92144	0.24927
2.124	69.669	-26188	2013.3	-0.29475	0.92086	0.24937
2.126	69.778	-26191	2013.4	-0.29436	0.92134	0.25005
2.128	69.872	-26185	2013.4	-0.29397	0.92183	0.25073
2.13	69.941	-26178	2013.5	-0.29358	0.92232	0.25142
2.132	69.956	-26190	2013.5	-0.29319	0.92281	0.2521
2.134	69.942	-26201	2013.6	-0.2928	0.9233	0.25278
2.136	69.909	-26196	2013.6	-0.29251	0.92369	0.2521
2.138	69.88	-26191	2013.6	-0.29221	0.92408	0.25142
2.14	69.878	-26191	2013.7	-0.29192	0.92447	0.25073
2.142	69.888	-26190	2013.7	-0.29163	0.92486	0.25005
2.144	69.917	-26195	2013.8	-0.29134	0.92525	0.24937
2.146	69.965	-26199	2013.8	-0.29329	0.92525	0.24888
2.148	69.978	-26198	2013.8	-0.29524	0.92525	0.24839
2.15	69.948	-26196	2013.8	-0.29719	0.92525	0.2479
2.152	69.915	-26197	2013.9	-0.29914	0.92525	0.24742
2.154	69.87	-26198	2013.9	-0.3011	0.92525	0.24693
2.156	69.826	-26194	2013.9	-0.30071	0.92544	0.24712
2.158	69.824	-26190	2013.9	-0.30032	0.92564	0.24732
2.16	69.876	-26189	2013.9	-0.29992	0.92583	0.24751
2.162	69.934	-26187	2013.9	-0.29953	0.92603	0.24771
2.164	69.959	-26187	2013.9	-0.29914	0.92622	0.2479
2.166	69.942	-26188	2013.9	-0.29895	0.92496	0.24761
2.168	69.888	-26188	2013.9	-0.29875	0.92369	0.24732
2.17	69.832	-26189	2013.9	-0.29856	0.92242	0.24703
2.172	69.799	-26193	2013.9	-0.29836	0.92115	0.24673
2.174	69.796	-26198	2013.9	-0.29817	0.91988	0.24644
2.176	69.824	-26201	2013.9	-0.29739	0.91978	0.24654
2.178	69.875	-26204	2014	-0.29661	0.91968	0.24664
2.18	69.912	-26195	2013.9	-0.29583	0.91959	0.24673
2.182	69.907	-26186	2013.9	-0.29504	0.91949	0.24683
2.184	69.872	-26192	2013.9	-0.29426	0.91939	0.24693
2.186	69.818	-26199	2013.9	-0.29495	0.9189	0.24644
2.188	69.769	-26199	2013.8	-0.29563	0.91842	0.24595
2.19	69.761	-26198	2013.8	-0.29631	0.91793	0.24546
2.192	69.789	-26203	2013.9	-0.297	0.91744	0.24498
2.194	69.833	-26207	2013.9	-0.29768	0.91695	0.24449
2.196	69.878	-26209	2013.9	-0.29661	0.91666	0.24351
2.198	69.896	-26211	2013.8	-0.29553	0.91637	0.24254
2.2	69.881	-26205	2013.9	-0.29446	0.91607	0.24156
2.202	69.831	-26199	2013.9	-0.29339	0.91578	0.24058
2.204	69.784	-26199	2013.9	-0.29231	0.91549	0.23961
2.206	69.772	-26198	2014	-0.29221	0.91607	0.2399
2.208	69.777	-26202	2014.1	-0.29212	0.91666	0.24019
2.21	69.798	-26205	2014.1	-0.29202	0.91724	0.24049
2.212	69.846	-26203	2014.2	-0.29192	0.91783	0.24078
2.214	69.892	-26200	2014.3	-0.29182	0.91842	0.24107
2.216	69.895	-26197	2014.3	-0.29075	0.92066	0.24058
2.218	69.853	-26194	2014.4	-0.28968	0.92291	0.2401
2.22	69.791	-26199	2014.4	-0.2886	0.92515	0.23961
2.222	69.744	-26204	2014.5	-0.28753	0.9274	0.23912
2.224	69.746	-26202	2014.5	-0.28646	0.92964	0.23863
2.226	69.784	-26200	2014.6	-0.28577	0.92954	0.23795
2.228	69.814	-26204	2014.6	-0.28509	0.92944	0.23727
2.23	69.836	-26208	2014.7	-0.28441	0.92935	0.23658
2.232	69.843	-26206	2014.8	-0.28372	0.92925	0.2359
2.234	69.82	-26204	2014.9	-0.28304	0.92915	0.23522
2.236	69.779	-26203	2014.9	-0.28236	0.92905	0.23561
2.238	69.737	-26203	2015	-0.28167	0.92896	0.236
2.24	69.72	-26205	2015	-0.28099	0.92886	0.23639
2.242	69.737	-26206	2015	-0.28031	0.92876	0.23678
2.244	69.783	-26208	2015	-0.27962	0.92866	0.23717
2.246	69.831	-26209	2015	-0.28031	0.92818	0.23863
2.248	69.855	-26206	2015	-0.28099	0.92769	0.2401
2.25	69.831	-26202	2015	-0.28167	0.9272	0.24156
2.252	69.775	-26205	2014.9	-0.28236	0.92671	0.24302
2.254	69.723	-26209	2014.8	-0.28304	0.92622	0.24449
2.256	69.695	-26208	2014.7	-0.28441	0.92603	0.24478
2.258	69.699	-26207	2014.7	-0.28577	0.92583	0.24507
2.26	69.727	-26205	2014.7	-0.28714	0.92564	0.24537
2.262	69.765	-26203	2014.6	-0.28851	0.92544	0.24566
2.264	69.796	-26201	2014.6	-0.28987	0.92525	0.24595
2.266	69.802	-26200	2014.5	-0.29016	0.92456	0.24566
2.268	69.774	-26206	2014.5	-0.29046	0.92388	0.24537
2.27	69.723	-26213	2014.4	-0.29075	0.9232	0.24507
2.272	69.679	-26207	2014.4	-0.29104	0.92252	0.24478
2.274	69.671	-26201	2014.4	-0.29134	0.92183	0.24449
2.276	69.704	-26201	2014.4	-0.29192	0.92193	0.24468
2.278	69.748	-26202	2014.4	-0.29251	0.92203	0.24488
2.28	69.78	-26199	2014.4	-0.29309	0.92212	0.24507
2.282	69.79	-26197	2014.4	-0.29368	0.92222	0.24527
2.284	69.761	-26200	2014.5	-0.29426	0.92232	0.24546
2.286	69.702	-26202	2014.5	-0.29456	0.92173	0.24556
2.288	69.657	-26202	2014.6	-0.29485	0.92115	0.24566
2.29	69.638	-26202	2014.6	-0.29514	0.92056	0.24576
2.292	69.648	-26206	2014.7	-0.29544	0.91998	0.24585
2.294	69.691	-26210	2014.8	-0.29573	0.91939	0.24595
2.296	69.737	-26213	2014.8	-0.29573	0.9192	0.24556
2.298	69.755	-26215	2014.9	-0.29573	0.919	0.24517
2.3	69.747	-26217	2015	-0.29573	0.91881	0.24478
2.302	69.711	-26219	2015	-0.29573	0.91861	0.24439
2.304	69.662	-26213	2015.1	-0.29573	0.91842	0.244
2.306	69.631	-26207	2015.2	-0.29602	0.91861	0.24459
2.308	69.639	-26207	2015.4	-0.29631	0.91881	0.24517
2.31	69.686	-26208	2015.5	-0.29661	0.919	0.24576
2.312	69.736	-26213	2015.6	-0.2969	0.9192	0.24634
2.314	69.763	-26218	2015.8	-0.29719	0.91939	0.24693
2.316	69.762	-26215	2016	-0.2967	0.9192	0.24624
2.318	69.731	-26212	2016.2	-0.29622	0.919	0.24556
2.32	69.684	-26210	2016.4	-0.29573	0.91881	0.24488
2.322	69.65	-26207	2016.6	-0.29524	0.91861	0.2442
2.324	69.664	-26199	2016.8	-0.29475	0.91842	0.24351
2.326	69.708	-26191	2016.9	-0.29465	0.91744	0.24439
2.328	69.752	-26194	2017.1	-0.29456	0.91646	0.24527
2.33	69.778	-26198	2017.4	-0.29446	0.91549	0.24615
2.332	69.784	-26198	2017.6	-0.29436	0.91451	0.24703
2.334	69.767	-26198	2017.9	-0.29426	0.91354	0.2479
2.336	69.725	-26200	2018.1	-0.29417	0.91344	0.24771
2.338	69.681	-26202	2018.4	-0.29407	0.91334	0.24751
2.34	69.666	-26204	2018.7	-0.29397	0.91324	0.24732
2.342	69.69	-26205	2019	-0.29387	0.91315	0.24712
2.344	69.747	-26199	2019.3	-0.29378	0.91305	0.24693
2.346	69.803	-26194	2019.5	-0.29485	0.91393	0.24673
2.348	69.821	-26192	2019.8	-0.29592	0.9148	0.24654
2.35	69.805	-26191	2020	-0.297	0.91568	0.24634
2.352	69.772	-26189	2020.2	-0.29807	0.91656	0.24615
2.354	69.733	-26186	2020.5	-0.29914	0.91744	0.24595
2.356	69.715	-26186	2020.7	-0.29866	0.91705	0.24615
2.358	69.729	-26185	2020.9	-0.29817	0.91666	0.24634
2.36	69.76	-26186	2021.1	-0.29768	0.91627	0.24654
2.362	69.804	-26187	2021.3	-0.29719	0.91588	0.24673
2.364	69.829	-26186	2021.5	-0.2967	0.91549	0.24693
2.366	69.819	-26185	2021.7	-0.29641	0.91568	0.24654
2.368	69.795	-26177	2021.9	-0.29612	0.91588	0.24615
2.37	69.762	-26170	2022	-0.29583	0.91607	0.24576
2.372	69.74	-26171	2022.2	-0.29553	0.91627	0.24537
2.374	69.745	-26172	2022.3	-0.29524	0.91646	0.24498
2.376	69.779	-26173	2022.5	-0.29524	0.91646	0.24556
2.378	69.82	-26173	2022.6	-0.29524	0.91646	0.24615
2.38	69.86	-26165	2022.7	-0.29524	0.91646	0.24673
2.382	69.87	-26158	2022.8	-0.29524	0.91646	0.24732
2.384	69.843	-26158	2022.9	-0.29524	0.91646	0.2479
2.386	69.811	-26159	2023	-0.29426	0.91812	0.24849
2.388	69.781	-26161	2023.1	-0.29329	0.91978	0.24908
2.39	69.755	-26164	2023.1	-0.29231	0.92144	0.24966
2.392	69.774	-26162	2023.2	-0.29134	0.9231	0.25025
2.394	69.83	-26160	2023.2	-0.29036	0.92476	0.25083
2.396	69.865	-26157	2023.3	-0.29095	0.92525	0.25025
2.398	69.888	-26153	2023.4	-0.29153	0.92574	0.24966
2.4	69.872	-26151	2023.4	-0.29212	0.92622	0.24908
2.402	69.821	-26148	2023.4	-0.2927	0.92671	0.24849
2.404	69.769	-26150	2023.4	-0.29329	0.9272	0.2479
2.406	69.758	-26151	2023.4	-0.29182	0.92798	0.24829
2.408	69.781	-26151	2023.5	-0.29036	0.92876	0.24868
2.41	69.829	-26151	2023.5	-0.2889	0.92954	0.24908
2.412	69.876	-26150	2023.5	-0.28743	0.93032	0.24947
2.414	69.909	-26149	2023.5	-0.28597	0.9311	0.24986
2.416	69.9	-26147	2023.5	-0.28821	0.93081	0.24927
2.418	69.859	-26144	2023.5	-0.29046	0.93052	0.24868
2.42	69.816	-26146	2023.5	-0.2927	0.93023	0.2481
2.422	69.782	-26148	2023.5	-0.29495	0.92993	0.24751
2.424	69.783	-26152	2023.5	-0.29719	0.92964	0.24693
2.426	69.812	-26155	2023.4	-0.29709	0.92876	0.24712
2.428	69.849	-26152	2023.3	-0.297	0.92788	0.24732
2.43	69.879	-26150	2023.3	-0.2969	0.927	0.24751
2.432	69.894	-26147	2023.2	-0.2968	0.92613	0.24771
2.434	69.879	-26144	2023.2	-0.2967	0.92525	0.2479
2.436	69.836	-26143	2023.1	-0.29563	0.92515	0.24839
2.438	69.789	-26142	2023	-0.29456	0.92505	0.24888
2.44	69.767	-26145	2023	-0.29348	0.92496	0.24937
2.442	69.787	-26148	2022.9	-0.29241	0.92486	0.24986
2.444	69.837	-26148	2022.9	-0.29134	0.92476	0.25034
2.446	69.886	-26148	2022.8	-0.2926	0.92505	0.24976
2.448	69.895	-26148	2022.8	-0.29387	0.92535	0.24917
2.45	69.865	-26148	2022.7	-0.29514	0.92564	0.24859
2.452	69.831	-26148	2022.7	-0.29641	0.92593	0.248
2.454	69.803	-26147	2022.6	-0.29768	0.92622	0.24742
2.456	69.767	-26147	2022.5	-0.29758	0.92603	0.24751
2.458	69.768	-26147	2022.5	-0.29748	0.92583	0.24761
2.46	69.801	-26149	2022.4	-0.29739	0.92564	0.24771
2.462	69.846	-26151	2022.4	-0.29729	0.92544	0.24781
2.464	69.881	-26154	2022.3	-0.29719	0.92525	0.2479
2.466	69.883	-26157	2022.3	-0.29758	0.92515	0.2482
2.468	69.857	-26156	2022.2	-0.29797	0.92505	0.24849
2.47	69.819	-26156	2022.2	-0.29836	0.92496	0.24878
2.472	69.777	-26154	2022.1	-0.29875	0.92486	0.24908
2.474	69.764	-26153	2022.1	-0.29914	0.92476	0.24937
2.476	69.796	-26152	2022.1	-0.29973	0.92544	0.24888
2.478	69.845	-26151	2022	-0.30032	0.92613	0.24839
2.48	69.88	-26150	2022	-0.3009	0.92681	0.2479
2.482	69.887	-26149	2022	-0.30149	0.92749	0.24742
2.484	69.86	-26149	2022	-0.30207	0.92818	0.24693
2.486	69.819	-26150	2021.9	-0.30139	0.92759	0.24732
2.488	69.78	-26151	2021.8	-0.30071	0.927	0.24771
2.49	69.759	-26153	2021.7	-0.30002	0.92642	0.2481
2.492	69.782	-26153	2021.6	-0.29934	0.92583	0.24849
2.494	69.826	-26153	2021.5	-0.29866	0.92525	0.24888
2.496	69.869	-26154	2021.5	-0.29905	0.92574	0.2482
2.498	69.885	-26155	2021.4	-0.29944	0.92622	0.24751
2.5	69.869	-26156	2021.4	-0.29983	0.92671	0.24683
2.502	69.834	-26157	2021.3	-0.30022	0.9272	0.24615
2.504	69.777	-26154	2021.2	-0.30061	0.92769	0.24546
2.506	69.745	-26151	2021.2	-0.29944	0.92564	0.24537
2.508	69.766	-26156	2021.2	-0.29827	0.92359	0.24527
2.51	69.805	-26161	2021.2	-0.29709	0.92154	0.24517
2.512	69.85	-26159	2021.2	-0.29592	0.91949	0.24507
2.514	69.881	-26157	2021.1	-0.29475	0.91744	0.24498
2.516	69.88	-26154	2021.1	-0.29641	0.91871	0.24576
2.518	69.855	-26151	2021.1	-0.29807	0.91998	0.24654
2.52	69.808	-26155	2021.1	-0.29973	0.92125	0.24732
2.522	69.767	-26159	2021	-0.30139	0.92252	0.2481
2.524	69.769	-26161	2021	-0.30305	0.92378	0.24888
2.526	69.802	-26163	2021	-0.30246	0.92398	0.24849
2.528	69.843	-26164	2021	-0.30188	0.92417	0.2481
2.53	69.884	-26164	2021	-0.30129	0.92437	0.24771
2.532	69.892	-26167	2021	-0.30071	0.92456	0.24732
2.534	69.859	-26171	2021.1	-0.30012	0.92476	0.24693
2.536	69.809	-26170	2021.1	-0.29973	0.92466	0.24751
2.538	69.771	-26169	2021.1	-0.29934	0.92456	0.2481
2.54	69.759	-26166	2021.1	-0.29895	0.92447	0.24868
2.542	69.777	-26162	2021.1	-0.29856	0.92437	0.24927
2.544	69.824	-26163	2021.1	-0.29817	0.92427	0.24986
2.546	69.87	-26164	2021.1	-0.29817	0.92456	0.24898
2.548	69.892	-26169	2021.2	-0.29817	0.92486	0.2481
2.55	69.882	-26175	2021.2	-0.29817	0.92515	0.24722
2.552	69.837	-26175	2021.2	-0.29817	0.92544	0.24634
2.554	69.79	-26175	2021.1	-0.29817	0.92574	0.24546
2.556	69.764	-26174	2021.1	-0.29748	0.92554	0.24537
2.558	69.775	-26173	2021.1	-0.2968	0.92535	0.24527
2.56	69.819	-26171	2021.2	-0.29612	0.92515	0.24517
2.562	69.865	-26169	2021.2	-0.29544	0.92496	0.24507
2.564	69.895	-26167	2021.2	-0.29475	0.92476	0.24498
2.566	69.892	-26165	2021.2	-0.29446	0.92417	0.24576
2.568	69.85	-26162	2021.1	-0.29417	0.92359	0.24654
2.57	69.811	-26160	2021.1	-0.29387	0.923	0.24732
2.572	69.779	-26166	2021.2	-0.29358	0.92242	0.2481
2.574	69.774	-26172	2021.2	-0.29329	0.92183	0.24888
2.576	69.794	-26173	2021.2	-0.29397	0.92212	0.24908
2.578	69.841	-26174	2021.2	-0.29465	0.92242	0.24927
2.58	69.883	-26168	2021.2	-0.29534	0.92271	0.24947
2.582	69.897	-26162	2021.2	-0.29602	0.923	0.24966
2.584	69.874	-26162	2021.2	-0.2967	0.9233	0.24986
2.586	69.839	-26161	2021.3	-0.29602	0.9232	0.24976
2.588	69.796	-26166	2021.3	-0.29534	0.9231	0.24966
2.59	69.781	-26170	2021.3	-0.29465	0.923	0.24956
2.592	69.802	-26173	2021.3	-0.29397	0.92291	0.24947
2.594	69.829	-26176	2021.4	-0.29329	0.92281	0.24937
2.596	69.865	-26176	2021.4	-0.29358	0.92193	0.2482
2.598	69.888	-26176	2021.3	-0.29387	0.92105	0.24703
2.6	69.874	-26176	2021.4	-0.29417	0.92017	0.24585
2.602	69.841	-26175	2021.5	-0.29446	0.91929	0.24468
2.604	69.809	-26176	2021.5	-0.29475	0.91842	0.24351
2.606	69.786	-26176	2021.6	-0.29456	0.91822	0.24351
2.608	69.792	-26174	2021.6	-0.29436	0.91803	0.24351
2.61	69.829	-26172	2021.6	-0.29417	0.91783	0.24351
2.612	69.874	-26170	2021.6	-0.29397	0.91764	0.24351
2.614	69.907	-26168	2021.6	-0.29378	0.91744	0.24351
2.616	69.903	-26167	2021.7	-0.29319	0.91783	0.24322
2.618	69.86	-26167	2021.8	-0.2926	0.91822	0.24293
2.62	69.803	-26166	2021.8	-0.29202	0.91861	0.24263
2.622	69.765	-26166	2021.8	-0.29143	0.919	0.24234
2.624	69.756	-26163	2021.8	-0.29085	0.91939	0.24205
2.626	69.776	-26160	2021.9	-0.29026	0.91968	0.24273
2.628	69.832	-26162	2021.9	-0.28968	0.91998	0.24341
2.63	69.868	-26164	2022	-0.28909	0.92027	0.2441
2.632	69.862	-26163	2022	-0.28851	0.92056	0.24478
2.634	69.843	-26161	2022.1	-0.28792	0.92086	0.24546
2.636	69.811	-26162	2022.1	-0.28919	0.91988	0.24498
2.638	69.773	-26163	2022.1	-0.29046	0.9189	0.24449
2.64	69.751	-26160	2022.2	-0.29173	0.91793	0.244
2.642	69.771	-26157	2022.2	-0.293	0.91695	0.24351
2.644	69.808	-26159	2022.3	-0.29426	0.91598	0.24302
2.646	69.855	-26162	2022.4	-0.29475	0.91695	0.2438
2.648	69.877	-26164	2022.4	-0.29524	0.91793	0.24459
2.65	69.845	-26166	2022.5	-0.29573	0.9189	0.24537
2.652	69.789	-26166	2022.5	-0.29622	0.91988	0.24615
2.654	69.732	-26166	2022.5	-0.2967	0.92086	0.24693
2.656	69.712	-26161	2022.5	-0.29592	0.92066	0.24654
2.658	69.744	-26155	2022.6	-0.29514	0.92047	0.24615
2.66	69.787	-26156	2022.6	-0.29436	0.92027	0.24576
2.662	69.835	-26158	2022.7	-0.29358	0.92008	0.24537
2.664	69.869	-26165	2022.8	-0.2928	0.91988	0.24498
2.666	69.872	-26171	2022.8	-0.2929	0.92008	0.24566
2.668	69.839	-26168	2022.8	-0.293	0.92027	0.24634
2.67	69.794	-26164	2022.8	-0.29309	0.92047	0.24703
2.672	69.753	-26163	2022.9	-0.29319	0.92066	0.24771
2.674	69.732	-26162	2022.9	-0.29329	0.92086	0.24839
2.676	69.749	-26165	2022.9	-0.2928	0.92047	0.24712
2.678	69.795	-26169	2023	-0.29231	0.92008	0.24585
2.68	69.842	-26166	2023	-0.29182	0.91968	0.24459
2.682	69.853	-26163	2023	-0.29134	0.91929	0.24332
2.684	69.832	-26161	2023	-0.29085	0.9189	0.24205
2.686	69.8	-26159	2023.1	-0.29124	0.91881	0.24302
2.688	69.778	-26159	2023.1	-0.29163	0.91871	0.244
2.69	69.784	-26159	2023.1	-0.29202	0.91861	0.24498
2.692	69.815	-26162	2023.1	-0.29241	0.91851	0.24595
2.694	69.855	-26165	2023.1	-0.2928	0.91842	0.24693
2.696	69.895	-26165	2023.1	-0.293	0.91861	0.24654
2.698	69.92	-26165	2023.1	-0.29319	0.91881	0.24615
2.7	69.899	-26160	2023.1	-0.29339	0.919	0.24576
2.702	69.84	-26156	2023.1	-0.29358	0.9192	0.24537
2.704	69.826	-26170	2023.1	-0.29378	0.91939	0.24498
2.706	69.852	-26184	2023.1	-0.29407	0.9192	0.24478
2.708	69.835	-26185	2023.1	-0.29436	0.919	0.24459
2.71	69.857	-26185	2023.1	-0.29465	0.91881	0.24439
2.712	69.892	-26184	2023.1	-0.29495	0.91861	0.2442
2.714	69.919	-26183	2023	-0.29524	0.91842	0.244
2.716	69.913	-26185	2023.1	-0.29553	0.919	0.2442
2.718	69.881	-26188	2023.1	-0.29583	0.91959	0.24439
2.72	69.844	-26183	2023.1	-0.29612	0.92017	0.24459
2.722	69.813	-26179	2023.1	-0.29641	0.92076	0.24478
2.724	69.803	-26183	2023	-0.2967	0.92134	0.24498
2.726	69.836	-26186	2023.1	-0.29622	0.92125	0.24585
2.728	69.885	-26182	2023.1	-0.29573	0.92115	0.24673
2.73	69.934	-26178	2023.1	-0.29524	0.92105	0.24761
2.732	69.948	-26181	2023.1	-0.29475	0.92095	0.24849
2.734	69.92	-26185	2023	-0.29426	0.92086	0.24937
2.736	69.875	-26187	2023.1	-0.29417	0.92008	0.24859
2.738	69.824	-26189	2023.1	-0.29407	0.91929	0.24781
2.74	69.81	-26189	2023.1	-0.29397	0.91851	0.24703
2.742	69.826	-26190	2023.1	-0.29387	0.91773	0.24624
2.744	69.868	-26187	2023.1	-0.29378	0.91695	0.24546
2.746	69.918	-26184	2023.1	-0.29446	0.91764	0.24556
2.748	69.94	-26189	2023.1	-0.29514	0.91832	0.24566
2.75	69.934	-26194	2023.2	-0.29583	0.919	0.24576
2.752	69.9	-26195	2023.2	-0.29651	0.91968	0.24585
2.754	69.85	-26195	2023.3	-0.29719	0.92037	0.24595
2.756	69.818	-26190	2023.2	-0.29573	0.92105	0.24703
2.758	69.824	-26186	2023.2	-0.29426	0.92173	0.2481
2.76	69.864	-26190	2023.3	-0.2928	0.92242	0.24917
2.762	69.919	-26193	2023.3	-0.29134	0.9231	0.25025
2.764	69.961	-26199	2023.3	-0.28987	0.92378	0.25132
2.766	69.967	-26204	2023.3	-0.29036	0.92447	0.25005
2.768	69.935	-26194	2023.3	-0.29085	0.92515	0.24878
2.77	69.876	-26184	2023.3	-0.29134	0.92583	0.24751
2.772	69.822	-26183	2023.3	-0.29182	0.92652	0.24624
2.774	69.791	-26181	2023.3	-0.29231	0.9272	0.24498
2.776	69.782	-26182	2023.3	-0.29309	0.92564	0.24507
2.778	69.789	-26183	2023.3	-0.29387	0.92408	0.24517
2.78	69.795	-26187	2023.3	-0.29465	0.92252	0.24527
2.782	69.769	-26190	2023.3	-0.29544	0.92095	0.24537
2.784	69.694	-26186	2023.4	-0.29622	0.91939	0.24546
2.786	69.594	-26182	2023.4	-0.29602	0.91959	0.24595
2.788	69.5	-26184	2023.3	-0.29583	0.91978	0.24644
2.79	69.414	-26185	2023.3	-0.29563	0.91998	0.24693
2.792	69.368	-26189	2023.3	-0.29544	0.92017	0.24742
2.794	69.363	-26193	2023.3	-0.29524	0.92037	0.2479
2.796	69.378	-26193	2023.3	-0.29534	0.91988	0.24722
2.798	69.392	-26192	2023.3	-0.29544	0.91939	0.24654
2.8	69.384	-26199	2023.3	-0.29553	0.9189	0.24585
2.802	69.365	-26206	2023.2	-0.29563	0.91842	0.24517
2.804	69.356	-26201	2023.2	-0.29573	0.91793	0.24449
2.806	69.367	-26197	2023.2	-0.29612	0.91842	0.24468
2.808	69.413	-26197	2023.2	-0.29651	0.9189	0.24488
2.81	69.495	-26196	2023.2	-0.2969	0.91939	0.24507
2.812	69.606	-26194	2023.2	-0.29729	0.91988	0.24527
2.814	69.735	-26191	2023.2	-0.29768	0.92037	0.24546
2.816	69.834	-26191	2023.2	-0.297	0.91998	0.24507
2.818	69.855	-26191	2023.2	-0.29631	0.91959	0.24468
2.82	69.83	-26195	2023.1	-0.29563	0.9192	0.24429
2.822	69.809	-26199	2023.1	-0.29495	0.91881	0.2439
2.824	69.815	-26197	2023.1	-0.29426	0.91842	0.24351
2.826	69.864	-26195	2023.1	-0.29368	0.91851	0.2438
2.828	69.934	-26194	2023	-0.29309	0.91861	0.2441
2.83	69.974	-26193	2023.1	-0.29251	0.91871	0.24439
2.832	69.988	-26188	2023.1	-0.29192	0.91881	0.24468
2.834	69.961	-26183	2023.2	-0.29134	0.9189	0.24498
2.836	69.915	-26184	2023.2	-0.29202	0.91939	0.24507
2.838	69.88	-26186	2023.3	-0.2927	0.91988	0.24517
2.84	69.86	-26183	2023.2	-0.29339	0.92037	0.24527
2.842	69.863	-26180	2023.2	-0.29407	0.92086	0.24537
2.844	69.894	-26182	2023.2	-0.29475	0.92134	0.24546
2.846	69.936	-26184	2023.1	-0.29397	0.92203	0.24507
2.848	69.96	-26187	2023.1	-0.29319	0.92271	0.24468
2.85	69.941	-26190	2023.1	-0.29241	0.92339	0.24429
2.852	69.896	-26193	2023	-0.29163	0.92408	0.2439
2.854	69.849	-26196	2022.9	-0.29085	0.92476	0.24351
2.856	69.822	-26195	2022.9	-0.29173	0.92408	0.2439
2.858	69.826	-26194	2022.9	-0.2926	0.92339	0.24429
2.86	69.85	-26193	2022.8	-0.29348	0.92271	0.24468
2.862	69.885	-26192	2022.8	-0.29436	0.92203	0.24507
2.864	69.915	-26191	2022.7	-0.29524	0.92134	0.24546
2.866	69.923	-26189	2022.7	-0.29407	0.92066	0.24488
2.868	69.905	-26189	2022.7	-0.2929	0.91998	0.24429
2.87	69.867	-26189	2022.7	-0.29173	0.91929	0.24371
2.872	69.826	-26185	2022.7	-0.29056	0.91861	0.24312
2.874	69.807	-26180	2022.7	-0.28938	0.91793	0.24254
2.876	69.821	-26187	2022.7	-0.28909	0.9191	0.24283
2.878	69.86	-26193	2022.7	-0.2888	0.92027	0.24312
2.88	69.9	-26188	2022.6	-0.28851	0.92144	0.24341
2.882	69.907	-26183	2022.6	-0.28821	0.92261	0.24371
2.884	69.89	-26185	2022.5	-0.28792	0.92378	0.244
2.886	69.857	-26186	2022.5	-0.2887	0.92232	0.24312
2.888	69.818	-26195	2022.5	-0.28948	0.92086	0.24224
2.89	69.79	-26204	2022.5	-0.29026	0.91939	0.24136
2.892	69.792	-26199	2022.5	-0.29104	0.91793	0.24049
2.894	69.831	-26194	2022.5	-0.29182	0.91646	0.23961
2.896	69.881	-26194	2022.5	-0.29095	0.91734	0.2401
2.898	69.914	-26194	2022.5	-0.29007	0.91822	0.24058
2.9	69.901	-26188	2022.5	-0.28919	0.9191	0.24107
2.902	69.867	-26183	2022.5	-0.28831	0.91998	0.24156
2.904	69.821	-26192	2022.5	-0.28743	0.92086	0.24205
2.906	69.788	-26201	2022.5	-0.2886	0.92047	0.24234
2.908	69.786	-26200	2022.5	-0.28977	0.92008	0.24263
2.91	69.809	-26198	2022.5	-0.29095	0.91968	0.24293
2.912	69.845	-26194	2022.5	-0.29212	0.91929	0.24322
2.914	69.879	-26190	2022.5	-0.29329	0.9189	0.24351
2.916	69.879	-26193	2022.5	-0.29339	0.92037	0.2442
2.918	69.848	-26197	2022.5	-0.29348	0.92183	0.24488
2.92	69.803	-26197	2022.5	-0.29358	0.9233	0.24556
2.922	69.764	-26197	2022.5	-0.29368	0.92476	0.24624
2.924	69.761	-26195	2022.6	-0.29378	0.92622	0.24693
2.926	69.793	-26193	2022.6	-0.29339	0.92593	0.24722
2.928	69.826	-26195	2022.6	-0.293	0.92564	0.24751
2.93	69.865	-26197	2022.7	-0.2926	0.92535	0.24781
2.932	69.882	-26198	2022.7	-0.29221	0.92505	0.2481
2.934	69.859	-26198	2022.7	-0.29182	0.92476	0.24839
2.936	69.812	-26196	2022.7	-0.29192	0.92466	0.24859
2.938	69.767	-26194	2022.6	-0.29202	0.92456	0.24878
2.94	69.736	-26193	2022.6	-0.29212	0.92447	0.24898
2.942	69.737	-26191	2022.5	-0.29221	0.92437	0.24917
2.944	69.776	-26198	2022.5	-0.29231	0.92427	0.24937
2.946	69.823	-26204	2022.4	-0.2927	0.92398	0.24927
2.948	69.842	-26201	2022.4	-0.29309	0.92369	0.24917
2.95	69.827	-26198	2022.3	-0.29348	0.92339	0.24908
2.952	69.791	-26199	2022.2	-0.29387	0.9231	0.24898
2.954	69.746	-26200	2022.2	-0.29426	0.92281	0.24888
2.956	69.712	-26202	2022.1	-0.29407	0.92183	0.2482
2.958	69.707	-26204	2022.1	-0.29387	0.92086	0.24751
2.96	69.73	-26211	2022.1	-0.29368	0.91988	0.24683
2.962	69.78	-26218	2022	-0.29348	0.9189	0.24615
2.964	69.813	-26210	2022	-0.29329	0.91793	0.24546
2.966	69.804	-26202	2022	-0.29348	0.91803	0.24507
2.968	69.767	-26201	2022	-0.29368	0.91812	0.24468
2.97	69.727	-26200	2022	-0.29387	0.91822	0.24429
2.972	69.693	-26202	2022	-0.29407	0.91832	0.2439
2.974	69.677	-26204	2022	-0.29426	0.91842	0.24351
2.976	69.692	-26205	2022	-0.29417	0.91978	0.24537
2.978	69.735	-26206	2022.1	-0.29407	0.92115	0.24722
2.98	69.778	-26204	2022.2	-0.29397	0.92252	0.24908
2.982	69.784	-26201	2022.2	-0.29387	0.92388	0.25093
2.984	69.759	-26205	2022.3	-0.29378	0.92525	0.25278
2.986	69.707	-26208	2022.4	-0.29319	0.92456	0.25259
2.988	69.656	-26211	2022.4	-0.2926	0.92388	0.25239
2.99	69.644	-26214	2022.5	-0.29202	0.9232	0.2522
2.992	69.669	-26207	2022.6	-0.29143	0.92252	0.252
2.994	69.713	-26201	2022.7	-0.29085	0.92183	0.25181
2.996	69.753	-26202	2022.8	-0.29016	0.92222	0.2523
2.998	69.77	-26202	2022.9	-0.28948	0.92261	0.25278
3	69.768	-26205	2023.1	-0.2888	0.923	0.25327
3.002	69.73	-26207	2023.2	-0.28812	0.92339	0.25376
3.004	69.677	-26208	2023.4	-0.28743	0.92378	0.25425
3.006	69.647	-26208	2023.5	-0.28694	0.92378	0.25464
3.008	69.655	-26204	2023.7	-0.28646	0.92378	0.25503
3.01	69.683	-26200	2023.9	-0.28597	0.92378	0.25542
3.012	69.724	-26199	2024.1	-0.28548	0.92378	0.25581
3.014	69.76	-26198	2024.3	-0.28499	0.92378	0.2562
3.016	69.764	-26204	2024.5	-0.28548	0.92456	0.2561
3.018	69.737	-26209	2024.7	-0.28597	0.92535	0.256
3.02	69.7	-26207	2024.9	-0.28646	0.92613	0.25591
3.022	69.674	-26205	2025.1	-0.28694	0.92691	0.25581
3.024	69.675	-26198	2025.4	-0.28743	0.92769	0.25571
3.026	69.7	-26191	2025.6	-0.28743	0.92652	0.25581
3.028	69.752	-26192	2025.9	-0.28743	0.92535	0.25591
3.03	69.804	-26193	2026.1	-0.28743	0.92417	0.256
3.032	69.825	-26191	2026.4	-0.28743	0.923	0.2561
3.034	69.813	-26189	2026.7	-0.28743	0.92183	0.2562
3.036	69.775	-26186	2026.9	-0.28694	0.92222	0.25591
3.038	69.735	-26184	2027.2	-0.28646	0.92261	0.25561
3.04	69.73	-26185	2027.4	-0.28597	0.923	0.25532
3.042	69.753	-26187	2027.7	-0.28548	0.92339	0.25503
3.044	69.784	-26183	2027.9	-0.28499	0.92378	0.25474
3.046	69.816	-26179	2028.2	-0.28509	0.92369	0.25405
3.048	69.84	-26178	2028.4	-0.28519	0.92359	0.25337
3.05	69.843	-26178	2028.6	-0.28528	0.92349	0.25269
3.052	69.81	-26174	2028.9	-0.28538	0.92339	0.252
3.054	69.771	-26170	2029.1	-0.28548	0.9233	0.25132
3.056	69.745	-26168	2029.3	-0.28519	0.92359	0.25132
3.058	69.749	-26166	2029.5	-0.28489	0.92388	0.25132
3.06	69.789	-26165	2029.7	-0.2846	0.92417	0.25132
3.062	69.843	-26164	2029.9	-0.28431	0.92447	0.25132
3.064	69.867	-26161	2030	-0.28402	0.92476	0.25132
3.066	69.865	-26159	2030.2	-0.28568	0.92369	0.25005
3.068	69.844	-26159	2030.3	-0.28733	0.92261	0.24878
3.07	69.798	-26159	2030.4	-0.28899	0.92154	0.24751
3.072	69.763	-26160	2030.5	-0.29065	0.92047	0.24624
3.074	69.766	-26162	2030.6	-0.29231	0.91939	0.24498
3.076	69.804	-26161	2030.7	-0.2929	0.91929	0.24478
3.078	69.846	-26160	2030.9	-0.29348	0.9192	0.24459
3.08	69.884	-26160	2031	-0.29407	0.9191	0.24439
3.082	69.893	-26160	2031	-0.29465	0.919	0.2442
3.084	69.88	-26161	2031.1	-0.29524	0.9189	0.244
3.086	69.843	-26162	2031.1	-0.29465	0.91968	0.24341
3.088	69.797	-26156	2031.1	-0.29407	0.92047	0.24283
3.09	69.773	-26150	2031.1	-0.29348	0.92125	0.24224
3.092	69.792	-26151	2031.1	-0.2929	0.92203	0.24166
3.094	69.841	-26151	2031.2	-0.29231	0.92281	0.24107
3.096	69.886	-26153	2031.2	-0.29319	0.9231	0.24224
3.098	69.913	-26155	2031.2	-0.29407	0.92339	0.24341
3.1	69.896	-26153	2031.2	-0.29495	0.92369	0.24459
3.102	69.854	-26152	2031.2	-0.29583	0.92398	0.24576
3.104	69.814	-26149	2031.2	-0.2967	0.92427	0.24693
3.106	69.787	-26147	2031.1	-0.29602	0.92427	0.24644
3.108	69.792	-26145	2031	-0.29534	0.92427	0.24595
3.11	69.829	-26142	2030.9	-0.29465	0.92427	0.24546
3.112	69.877	-26147	2030.9	-0.29397	0.92427	0.24498
3.114	69.912	-26152	2030.8	-0.29329	0.92427	0.24449
3.116	69.917	-26152	2030.7	-0.29407	0.92456	0.24468
3.118	69.886	-26151	2030.6	-0.29485	0.92486	0.24488
3.12	69.835	-26152	2030.5	-0.29563	0.92515	0.24507
3.122	69.79	-26153	2030.4	-0.29641	0.92544	0.24527
3.124	69.777	-26152	2030.4	-0.29719	0.92574	0.24546
3.126	69.807	-26151	2030.3	-0.29739	0.92583	0.24566
3.128	69.85	-26149	2030.1	-0.29758	0.92593	0.24585
3.13	69.881	-26147	2030	-0.29778	0.92603	0.24605
3.132	69.899	-26151	2029.9	-0.29797	0.92613	0.24624
3.134	69.891	-26154	2029.8	-0.29817	0.92622	0.24644
3.136	69.859	-26157	2029.7	-0.29622	0.92593	0.24546
3.138	69.809	-26160	2029.6	-0.29426	0.92564	0.24449
3.14	69.774	-26152	2029.5	-0.29231	0.92535	0.24351
3.142	69.791	-26144	2029.4	-0.29036	0.92505	0.24254
3.144	69.84	-26150	2029.3	-0.28841	0.92476	0.24156
3.146	69.887	-26157	2029.2	-0.28958	0.92349	0.24176
3.148	69.908	-26161	2029.1	-0.29075	0.92222	0.24195
3.15	69.89	-26165	2029	-0.29192	0.92095	0.24215
3.152	69.852	-26159	2028.9	-0.29309	0.91968	0.24234
3.154	69.808	-26153	2028.8	-0.29426	0.91842	0.24254
3.156	69.773	-26150	2028.7	-0.29348	0.919	0.24205
3.158	69.768	-26146	2028.6	-0.2927	0.91959	0.24156
3.16	69.8	-26144	2028.5	-0.29192	0.92017	0.24107
3.162	69.847	-26142	2028.5	-0.29114	0.92076	0.24058
3.164	69.885	-26145	2028.4	-0.29036	0.92134	0.2401
3.166	69.891	-26148	2028.3	-0.29212	0.92242	0.24127
3.168	69.877	-26151	2028.2	-0.29387	0.92349	0.24244
3.17	69.833	-26155	2028.2	-0.29563	0.92456	0.24361
3.172	69.786	-26158	2028.1	-0.29739	0.92564	0.24478
3.174	69.781	-26162	2028.1	-0.29914	0.92671	0.24595
3.176	69.806	-26162	2028	-0.29827	0.92583	0.24546
3.178	69.841	-26163	2027.8	-0.29739	0.92496	0.24498
3.18	69.884	-26161	2027.7	-0.29651	0.92408	0.24449
3.182	69.899	-26159	2027.7	-0.29563	0.9232	0.244
3.184	69.884	-26159	2027.6	-0.29475	0.92232	0.24351
3.186	69.843	-26160	2027.5	-0.29612	0.923	0.2439
3.188	69.795	-26160	2027.3	-0.29748	0.92369	0.24429
3.19	69.769	-26161	2027.2	-0.29885	0.92437	0.24468
3.192	69.778	-26158	2027.1	-0.30022	0.92505	0.24507
3.194	69.81	-26156	2027	-0.30158	0.92574	0.24546
3.196	69.851	-26160	2026.8	-0.30188	0.92554	0.24537
3.198	69.887	-26164	2026.7	-0.30217	0.92535	0.24527
3.2	69.893	-26168	2026.6	-0.30246	0.92515	0.24517
3.202	69.86	-26171	2026.5	-0.30276	0.92496	0.24507
3.204	69.815	-26169	2026.3	-0.30305	0.92476	0.24498
3.206	69.789	-26167	2026.3	-0.30188	0.9233	0.24556
3.208	69.79	-26169	2026.2	-0.30071	0.92183	0.24615
3.21	69.812	-26170	2026.1	-0.29953	0.92037	0.24673
3.212	69.855	-26170	2026.1	-0.29836	0.9189	0.24732
3.214	69.9	-26171	2026	-0.29719	0.91744	0.2479
3.216	69.91	-26171	2025.9	-0.297	0.91832	0.24722
3.218	69.871	-26171	2025.9	-0.2968	0.9192	0.24654
3.22	69.819	-26171	2025.8	-0.29661	0.92008	0.24585
3.222	69.776	-26172	2025.7	-0.29641	0.92095	0.24517
3.224	69.761	-26172	2025.7	-0.29622	0.92183	0.24449
3.226	69.785	-26173	2025.6	-0.29631	0.92232	0.24566
3.228	69.841	-26170	2025.6	-0.29641	0.92281	0.24683
3.23	69.89	-26167	2025.5	-0.29651	0.9233	0.248
3.232	69.91	-26169	2025.5	-0.29661	0.92378	0.24917
3.234	69.897	-26171	2025.5	-0.2967	0.92427	0.25034
3.236	69.86	-26172	2025.5	-0.29602	0.92369	0.25015
3.238	69.806	-26173	2025.5	-0.29534	0.9231	0.24995
3.24	69.765	-26179	2025.5	-0.29465	0.92252	0.24976
3.242	69.778	-26184	2025.5	-0.29397	0.92193	0.24956
3.244	69.828	-26181	2025.5	-0.29329	0.92134	0.24937
3.246	69.88	-26177	2025.4	-0.29348	0.92261	0.24908
3.248	69.911	-26174	2025.4	-0.29368	0.92388	0.24878
3.25	69.891	-26171	2025.3	-0.29387	0.92515	0.24849
3.252	69.853	-26176	2025.3	-0.29407	0.92642	0.2482
3.254	69.809	-26181	2025.3	-0.29426	0.92769	0.2479
3.256	69.774	-26182	2025.3	-0.2928	0.92779	0.24927
3.258	69.773	-26182	2025.2	-0.29134	0.92788	0.25064
3.26	69.807	-26181	2025.2	-0.28987	0.92798	0.252
3.262	69.854	-26179	2025.2	-0.28841	0.92808	0.25337
3.264	69.891	-26177	2025.1	-0.28694	0.92818	0.25474
3.266	69.894	-26175	2025.1	-0.28685	0.92827	0.25435
3.268	69.863	-26172	2025.1	-0.28675	0.92837	0.25396
3.27	69.821	-26169	2025	-0.28665	0.92847	0.25356
3.272	69.794	-26174	2025.1	-0.28655	0.92857	0.25317
3.274	69.786	-26179	2025.1	-0.28646	0.92866	0.25278
3.276	69.804	-26185	2025.1	-0.28587	0.92827	0.25317
3.278	69.854	-26192	2025	-0.28528	0.92788	0.25356
3.28	69.893	-26189	2025	-0.2847	0.92749	0.25396
3.282	69.898	-26187	2025	-0.28411	0.9271	0.25435
3.284	69.875	-26183	2025.1	-0.28353	0.92671	0.25474
3.286	69.83	-26179	2025.1	-0.28402	0.92632	0.25444
3.288	69.779	-26179	2025.1	-0.2845	0.92593	0.25415
3.29	69.746	-26178	2025.1	-0.28499	0.92554	0.25386
3.292	69.753	-26183	2025.1	-0.28548	0.92515	0.25356
3.294	69.792	-26187	2025.1	-0.28597	0.92476	0.25327
3.296	69.835	-26189	2025.1	-0.28568	0.92437	0.25386
3.298	69.854	-26191	2025.1	-0.28538	0.92398	0.25444
3.3	69.844	-26186	2025.1	-0.28509	0.92359	0.25503
3.302	69.822	-26180	2025.1	-0.2848	0.9232	0.25561
3.304	69.791	-26178	2025.1	-0.2845	0.92281	0.2562
3.306	69.763	-26177	2025.2	-0.2847	0.923	0.25493
3.308	69.771	-26176	2025.2	-0.28489	0.9232	0.25366
3.31	69.803	-26175	2025.3	-0.28509	0.92339	0.25239
3.312	69.837	-26182	2025.4	-0.28528	0.92359	0.25112
3.314	69.861	-26188	2025.4	-0.28548	0.92378	0.24986
3.316	69.859	-26180	2025.5	-0.28763	0.923	0.24995
3.318	69.832	-26171	2025.5	-0.28977	0.92222	0.25005
3.32	69.783	-26177	2025.5	-0.29192	0.92144	0.25015
3.322	69.731	-26183	2025.6	-0.29407	0.92066	0.25025
3.324	69.721	-26180	2025.6	-0.29622	0.91988	0.25034
3.326	69.766	-26177	2025.7	-0.29602	0.91851	0.24898
3.328	69.829	-26183	2025.8	-0.29583	0.91715	0.24761
3.33	69.871	-26189	2025.8	-0.29563	0.91578	0.24624
3.332	69.884	-26184	2025.9	-0.29544	0.91441	0.24488
3.334	69.864	-26179	2025.9	-0.29524	0.91305	0.24351
3.336	69.823	-26182	2026	-0.29495	0.91393	0.24341
3.338	69.77	-26185	2026.1	-0.29465	0.9148	0.24332
3.34	69.739	-26185	2026.2	-0.29436	0.91568	0.24322
3.342	69.746	-26185	2026.2	-0.29407	0.91656	0.24312
3.344	69.779	-26187	2026.3	-0.29378	0.91744	0.24302
3.346	69.823	-26189	2026.4	-0.29387	0.91812	0.24371
3.348	69.859	-26188	2026.4	-0.29397	0.91881	0.24439
3.35	69.86	-26186	2026.5	-0.29407	0.91949	0.24507
3.352	69.833	-26187	2026.6	-0.29417	0.92017	0.24576
3.354	69.797	-26188	2026.6	-0.29426	0.92086	0.24644
3.356	69.773	-26184	2026.7	-0.29436	0.92047	0.24683
3.358	69.775	-26180	2026.7	-0.29446	0.92008	0.24722
3.36	69.817	-26184	2026.8	-0.29456	0.91968	0.24761
3.362	69.88	-26188	2026.9	-0.29465	0.91929	0.248
3.364	69.932	-26191	2026.9	-0.29475	0.9189	0.24839
3.366	69.947	-26193	2026.9	-0.29436	0.91949	0.2481
3.368	69.925	-26187	2027	-0.29397	0.92008	0.24781
3.37	69.878	-26182	2027	-0.29358	0.92066	0.24751
3.372	69.833	-26183	2027	-0.29319	0.92125	0.24722
3.374	69.819	-26184	2027	-0.2928	0.92183	0.24693
3.376	69.841	-26180	2027	-0.2927	0.92183	0.24693
3.378	69.882	-26175	2027	-0.2926	0.92183	0.24693
3.38	69.919	-26177	2027	-0.29251	0.92183	0.24693
3.382	69.934	-26180	2027.1	-0.29241	0.92183	0.24693
3.384	69.923	-26182	2027.1	-0.29231	0.92183	0.24693
3.386	69.89	-26185	2027.1	-0.2926	0.92193	0.24644
3.388	69.851	-26186	2027.1	-0.2929	0.92203	0.24595
3.39	69.823	-26187	2027.1	-0.29319	0.92212	0.24546
3.392	69.831	-26184	2027.1	-0.29348	0.92222	0.24498
3.394	69.875	-26181	2027.1	-0.29378	0.92232	0.24449
3.396	69.917	-26181	2027	-0.29407	0.92232	0.2442
3.398	69.928	-26181	2027	-0.29436	0.92232	0.2439
3.4	69.929	-26182	2027	-0.29465	0.92232	0.24361
3.402	69.904	-26182	2027	-0.29495	0.92232	0.24332
3.404	69.857	-26185	2027	-0.29524	0.92232	0.24302
3.406	69.817	-26187	2027	-0.29524	0.92183	0.24312
3.408	69.822	-26182	2026.9	-0.29524	0.92134	0.24322
3.41	69.844	-26177	2026.9	-0.29524	0.92086	0.24332
3.412	69.891	-26175	2026.9	-0.29524	0.92037	0.24341
3.414	69.932	-26173	2026.8	-0.29524	0.91988	0.24351
3.416	69.939	-26175	2026.8	-0.29504	0.91968	0.24341
3.418	69.898	-26176	2026.8	-0.29485	0.91949	0.24332
3.42	69.864	-26176	2026.8	-0.29465	0.91929	0.24322
3.422	69.833	-26177	2026.7	-0.29446	0.9191	0.24312
3.424	69.827	-26180	2026.7	-0.29426	0.9189	0.24302
3.426	69.86	-26183	2026.7	-0.29417	0.91998	0.24371
3.428	69.911	-26184	2026.6	-0.29407	0.92105	0.24439
3.43	69.958	-26185	2026.6	-0.29397	0.92212	0.24507
3.432	69.975	-26183	2026.6	-0.29387	0.9232	0.24576
3.434	69.948	-26180	2026.6	-0.29378	0.92427	0.24644
3.436	69.888	-26175	2026.5	-0.29329	0.92398	0.24605
3.438	69.811	-26171	2026.5	-0.2928	0.92369	0.24566
3.44	69.748	-26180	2026.5	-0.29231	0.92339	0.24527
3.442	69.717	-26189	2026.5	-0.29182	0.9231	0.24488
3.444	69.728	-26183	2026.5	-0.29134	0.92281	0.24449
3.446	69.746	-26176	2026.4	-0.29231	0.92252	0.24459
3.448	69.741	-26177	2026.4	-0.29329	0.92222	0.24468
3.45	69.691	-26178	2026.3	-0.29426	0.92193	0.24478
3.452	69.597	-26177	2026.3	-0.29524	0.92164	0.24488
3.454	69.483	-26176	2026.3	-0.29622	0.92134	0.24498
3.456	69.387	-26180	2026.3	-0.29514	0.92134	0.24498
3.458	69.33	-26184	2026.3	-0.29407	0.92134	0.24498
3.46	69.32	-26188	2026.3	-0.293	0.92134	0.24498
3.462	69.34	-26192	2026.2	-0.29192	0.92134	0.24498
3.464	69.361	-26191	2026.2	-0.29085	0.92134	0.24498
3.466	69.369	-26190	2026.2	-0.29065	0.92193	0.24517
3.468	69.368	-26189	2026.1	-0.29046	0.92252	0.24537
3.47	69.361	-26188	2026.1	-0.29026	0.9231	0.24556
3.472	69.365	-26187	2026.1	-0.29007	0.92369	0.24576
3.474	69.417	-26186	2026	-0.28987	0.92427	0.24595
3.476	69.513	-26185	2026	-0.29104	0.92291	0.24585
3.478	69.634	-26184	2026	-0.29221	0.92154	0.24576
3.48	69.774	-26183	2025.9	-0.29339	0.92017	0.24566
3.482	69.88	-26182	2025.8	-0.29456	0.91881	0.24556
3.484	69.908	-26181	2025.8	-0.29573	0.91744	0.24546
3.486	69.889	-26180	2025.7	-0.29583	0.91812	0.24595
3.488	69.848	-26187	2025.7	-0.29592	0.91881	0.24644
3.49	69.818	-26194	2025.7	-0.29602	0.91949	0.24693
3.492	69.848	-26190	2025.6	-0.29612	0.92017	0.24742
3.494	69.912	-26187	2025.6	-0.29622	0.92086	0.2479
3.496	69.96	-26188	2025.6	-0.29622	0.92125	0.24829
3.498	69.992	-26190	2025.6	-0.29622	0.92164	0.24868
3.5	69.993	-26191	2025.6	-0.29622	0.92203	0.24908
3.502	69.948	-26193	2025.5	-0.29622	0.92242	0.24947
3.504	69.888	-26193	2025.5	-0.29622	0.92281	0.24986
3.506	69.848	-26192	2025.5	-0.29651	0.92212	0.24927
3.508	69.839	-26190	2025.5	-0.2968	0.92144	0.24868
3.51	69.86	-26188	2025.5	-0.29709	0.92076	0.2481
3.512	69.905	-26187	2025.5	-0.29739	0.92008	0.24751
3.514	69.941	-26186	2025.5	-0.29768	0.91939	0.24693
3.516	69.955	-26187	2025.4	-0.29709	0.91939	0.24732
3.518	69.929	-26188	2025.3	-0.29651	0.91939	0.24771
3.52	69.876	-26194	2025.2	-0.29592	0.91939	0.2481
3.522	69.822	-26201	2025.2	-0.29534	0.91939	0.24849
3.524	69.797	-26197	2025.2	-0.29475	0.91939	0.24888
3.526	69.82	-26194	2025.2	-0.29368	0.91998	0.24995
3.528	69.861	-26195	2025.1	-0.2926	0.92056	0.25103
3.53	69.898	-26196	2025.1	-0.29153	0.92115	0.2521
3.532	69.915	-26200	2025.1	-0.29046	0.92173	0.25317
3.534	69.9	-26205	2025.1	-0.28938	0.92232	0.25425
3.536	69.86	-26205	2025.1	-0.28821	0.92291	0.25415
3.538	69.811	-26205	2025.1	-0.28704	0.92349	0.25405
3.54	69.784	-26199	2025.1	-0.28587	0.92408	0.25396
3.542	69.789	-26193	2025.1	-0.2847	0.92466	0.25386
3.544	69.822	-26198	2025	-0.28353	0.92525	0.25376
3.546	69.87	-26203	2025	-0.28441	0.92525	0.25347
3.548	69.899	-26204	2025	-0.28528	0.92525	0.25317
3.55	69.893	-26206	2025	-0.28616	0.92525	0.25288
3.552	69.861	-26202	2025	-0.28704	0.92525	0.25259
3.554	69.82	-26198	2024.9	-0.28792	0.92525	0.2523
3.556	69.788	-26200	2025	-0.28938	0.92466	0.25142
3.558	69.78	-26202	2025	-0.29085	0.92408	0.25054
3.56	69.806	-26207	2025	-0.29231	0.92349	0.24966
3.562	69.86	-26211	2025	-0.29378	0.92291	0.24878
3.564	69.897	-26202	2025.1	-0.29524	0.92232	0.2479
3.566	69.898	-26194	2025.1	-0.29524	0.92252	0.24878
3.568	69.861	-26194	2025.1	-0.29524	0.92271	0.24966
3.57	69.809	-26193	2025.1	-0.29524	0.92291	0.25054
3.572	69.767	-26196	2025.2	-0.29524	0.9231	0.25142
3.574	69.762	-26198	2025.2	-0.29524	0.9233	0.2523
3.576	69.782	-26198	2025.2	-0.29436	0.92417	0.25122
3.578	69.815	-26199	2025.2	-0.29348	0.92505	0.25015
3.58	69.865	-26201	2025.2	-0.2926	0.92593	0.24908
3.582	69.893	-26203	2025.3	-0.29173	0.92681	0.248
3.584	69.88	-26212	2025.3	-0.29085	0.92769	0.24693
3.586	69.835	-26221	2025.4	-0.29182	0.92681	0.24771
3.588	69.776	-26214	2025.4	-0.2928	0.92593	0.24849
3.59	69.744	-26206	2025.4	-0.29378	0.92505	0.24927
3.592	69.756	-26207	2025.5	-0.29475	0.92417	0.25005
3.594	69.787	-26208	2025.5	-0.29573	0.9233	0.25083
3.596	69.831	-26209	2025.5	-0.29573	0.92369	0.25093
3.598	69.862	-26209	2025.6	-0.29573	0.92408	0.25103
3.6	69.864	-26211	2025.6	-0.29573	0.92447	0.25112
3.602	69.825	-26213	2025.6	-0.29573	0.92486	0.25122
3.604	69.766	-26210	2025.5	-0.29573	0.92525	0.25132
3.606	69.72	-26207	2025.4	-0.29573	0.92476	0.25083
3.608	69.716	-26209	2025.4	-0.29573	0.92427	0.25034
3.61	69.743	-26212	2025.3	-0.29573	0.92378	0.24986
3.612	69.787	-26212	2025.2	-0.29573	0.9233	0.24937
3.614	69.822	-26212	2025.2	-0.29573	0.92281	0.24888
3.616	69.825	-26211	2025.1	-0.29622	0.92242	0.24829
3.618	69.79	-26209	2025	-0.2967	0.92203	0.24771
3.62	69.747	-26219	2025	-0.29719	0.92164	0.24712
3.622	69.696	-26228	2024.9	-0.29768	0.92125	0.24654
3.624	69.674	-26224	2024.9	-0.29817	0.92086	0.24595
3.626	69.698	-26220	2024.8	-0.29729	0.91998	0.24507
3.628	69.743	-26212	2024.8	-0.29641	0.9191	0.2442
3.63	69.783	-26203	2024.8	-0.29553	0.91822	0.24332
3.632	69.793	-26208	2024.8	-0.29465	0.91734	0.24244
3.634	69.766	-26212	2024.8	-0.29378	0.91646	0.24156
3.636	69.726	-26217	2024.8	-0.29475	0.91783	0.24224
3.638	69.684	-26221	2024.9	-0.29573	0.9192	0.24293
3.64	69.657	-26220	2024.9	-0.2967	0.92056	0.24361
3.642	69.67	-26219	2025	-0.29768	0.92193	0.24429
3.644	69.705	-26220	2025.1	-0.29866	0.9233	0.24498
3.646	69.741	-26220	2025.1	-0.29836	0.92339	0.24595
3.648	69.763	-26220	2025.2	-0.29807	0.92349	0.24693
3.65	69.758	-26219	2025.3	-0.29778	0.92359	0.2479
3.652	69.735	-26218	2025.4	-0.29748	0.92369	0.24888
3.654	69.692	-26217	2025.5	-0.29719	0.92378	0.24986
3.656	69.652	-26218	2025.6	-0.2968	0.92417	0.24956
3.658	69.644	-26218	2025.7	-0.29641	0.92456	0.24927
3.66	69.671	-26216	2025.8	-0.29602	0.92496	0.24898
3.662	69.719	-26214	2025.9	-0.29563	0.92535	0.24868
3.664	69.757	-26209	2026.1	-0.29524	0.92574	0.24839
3.666	69.772	-26203	2026.2	-0.29485	0.92525	0.24878
3.668	69.749	-26201	2026.4	-0.29446	0.92476	0.24917
3.67	69.696	-26199	2026.5	-0.29407	0.92427	0.24956
3.672	69.656	-26199	2026.7	-0.29368	0.92378	0.24995
3.674	69.645	-26199	2026.9	-0.29329	0.9233	0.25034
3.676	69.667	-26203	2027.2	-0.29153	0.92398	0.25044
3.678	69.714	-26207	2027.4	-0.28977	0.92466	0.25054
3.68	69.762	-26206	2027.6	-0.28802	0.92535	0.25064
3.682	69.785	-26205	2027.8	-0.28626	0.92603	0.25073
3.684	69.768	-26202	2028.1	-0.2845	0.92671	0.25083
3.686	69.717	-26200	2028.3	-0.28568	0.92652	0.25054
3.688	69.664	-26196	2028.5	-0.28685	0.92632	0.25025
3.69	69.654	-26192	2028.7	-0.28802	0.92613	0.24995
3.692	69.676	-26192	2029	-0.28919	0.92593	0.24966
3.694	69.719	-26192	2029.3	-0.29036	0.92574	0.24937
3.696	69.768	-26192	2029.5	-0.29114	0.92369	0.24859
3.698	69.79	-26192	2029.7	-0.29192	0.92164	0.24781
3.7	69.778	-26192	2029.9	-0.2927	0.91959	0.24703
3.702	69.752	-26191	2030.2	-0.29348	0.91754	0.24624
3.704	69.72	-26190	2030.4	-0.29426	0.91549	0.24546
3.706	69.693	-26188	2030.6	-0.29231	0.91627	0.24459
3.708	69.691	-26187	2030.8	-0.29036	0.91705	0.24371
3.71	69.723	-26187	2031	-0.28841	0.91783	0.24283
3.712	69.771	-26191	2031.2	-0.28646	0.91861	0.24195
3.714	69.809	-26195	2031.4	-0.2845	0.91939	0.24107
3.716	69.828	-26188	2031.6	-0.28607	0.919	0.24146
3.718	69.828	-26181	2031.8	-0.28763	0.91861	0.24185
3.72	69.796	-26173	2031.9	-0.28919	0.91822	0.24224
3.722	69.745	-26165	2032	-0.29075	0.91783	0.24263
3.724	69.73	-26169	2032.2	-0.29231	0.91744	0.24302
3.726	69.762	-26173	2032.2	-0.29241	0.91764	0.24302
3.728	69.802	-26171	2032.3	-0.29251	0.91783	0.24302
3.73	69.843	-26170	2032.4	-0.2926	0.91803	0.24302
3.732	69.864	-26166	2032.5	-0.2927	0.91822	0.24302
3.734	69.848	-26161	2032.6	-0.2928	0.91842	0.24302
3.736	69.809	-26165	2032.6	-0.293	0.91861	0.24312
3.738	69.772	-26168	2032.7	-0.29319	0.91881	0.24322
3.74	69.744	-26167	2032.7	-0.29339	0.919	0.24332
3.742	69.769	-26167	2032.7	-0.29358	0.9192	0.24341
3.744	69.806	-26164	2032.7	-0.29378	0.91939	0.24351
3.746	69.852	-26160	2032.7	-0.29456	0.91949	0.2438
3.748	69.892	-26160	2032.7	-0.29534	0.91959	0.2441
3.75	69.896	-26159	2032.7	-0.29612	0.91968	0.24439
3.752	69.859	-26157	2032.7	-0.2969	0.91978	0.24468
3.754	69.802	-26155	2032.7	-0.29768	0.91988	0.24498
3.756	69.753	-26153	2032.7	-0.29748	0.91968	0.24517
3.758	69.75	-26151	2032.7	-0.29729	0.91949	0.24537
3.76	69.779	-26156	2032.6	-0.29709	0.91929	0.24556
3.762	69.827	-26161	2032.6	-0.2969	0.9191	0.24576
3.764	69.876	-26160	2032.5	-0.2967	0.9189	0.24595
3.766	69.894	-26160	2032.5	-0.29622	0.91949	0.24634
3.768	69.875	-26157	2032.4	-0.29573	0.92008	0.24673
3.77	69.832	-26155	2032.3	-0.29524	0.92066	0.24712
3.772	69.788	-26152	2032.3	-0.29475	0.92125	0.24751
3.774	69.769	-26150	2032.2	-0.29426	0.92183	0.2479
3.776	69.786	-26150	2032.2	-0.29446	0.92173	0.24751
3.778	69.821	-26149	2032.1	-0.29465	0.92164	0.24712
3.78	69.855	-26149	2032	-0.29485	0.92154	0.24673
3.782	69.87	-26149	2031.9	-0.29504	0.92144	0.24634
3.784	69.867	-26156	2031.8	-0.29524	0.92134	0.24595
3.786	69.834	-26162	2031.7	-0.29573	0.92252	0.24585
3.788	69.779	-26161	2031.5	-0.29622	0.92369	0.24576
3.79	69.753	-26160	2031.4	-0.2967	0.92486	0.24566
3.792	69.776	-26158	2031.3	-0.29719	0.92603	0.24556
3.794	69.828	-26157	2031.2	-0.29768	0.9272	0.24546
3.796	69.877	-26154	2031	-0.29719	0.92593	0.24576
3.798	69.902	-26152	2030.9	-0.2967	0.92466	0.24605
3.8	69.902	-26153	2030.7	-0.29622	0.92339	0.24634
3.802	69.87	-26153	2030.6	-0.29573	0.92212	0.24664
3.804	69.819	-26156	2030.5	-0.29524	0.92086	0.24693
3.806	69.781	-26158	2030.4	-0.29612	0.92134	0.24722
3.808	69.767	-26156	2030.3	-0.297	0.92183	0.24751
3.81	69.787	-26155	2030.2	-0.29788	0.92232	0.24781
3.812	69.835	-26154	2030	-0.29875	0.92281	0.2481
3.814	69.877	-26153	2029.9	-0.29963	0.9233	0.24839
3.816	69.873	-26156	2029.8	-0.29953	0.92398	0.24771
3.818	69.835	-26160	2029.7	-0.29944	0.92466	0.24703
3.82	69.788	-26156	2029.6	-0.29934	0.92535	0.24634
3.822	69.743	-26152	2029.5	-0.29924	0.92603	0.24566
3.824	69.728	-26154	2029.4	-0.29914	0.92671	0.24498
3.826	69.748	-26156	2029.3	-0.29934	0.92749	0.24507
3.828	69.79	-26158	2029.2	-0.29953	0.92827	0.24517
3.83	69.838	-26161	2029.1	-0.29973	0.92905	0.24527
3.832	69.85	-26162	2029	-0.29992	0.92984	0.24537
3.834	69.831	-26163	2028.9	-0.30012	0.93062	0.24546
3.836	69.792	-26169	2028.8	-0.30012	0.92964	0.24654
3.838	69.746	-26176	2028.8	-0.30012	0.92866	0.24761
3.84	69.72	-26170	2028.7	-0.30012	0.92769	0.24868
3.842	69.742	-26165	2028.6	-0.30012	0.92671	0.24976
3.844	69.8	-26165	2028.6	-0.30012	0.92574	0.25083
3.846	69.85	-26165	2028.5	-0.30012	0.92574	0.25005
3.848	69.888	-26163	2028.3	-0.30012	0.92574	0.24927
3.85	69.883	-26161	2028.2	-0.30012	0.92574	0.24849
3.852	69.843	-26167	2028.1	-0.30012	0.92574	0.24771
3.854	69.802	-26172	2027.9	-0.30012	0.92574	0.24693
3.856	69.767	-26172	2027.8	-0.30022	0.92525	0.24742
3.858	69.772	-26171	2027.7	-0.30032	0.92476	0.2479
3.86	69.81	-26172	2027.6	-0.30041	0.92427	0.24839
3.862	69.859	-26172	2027.5	-0.30051	0.92378	0.24888
3.864	69.895	-26176	2027.5	-0.30061	0.9233	0.24937
3.866	69.903	-26179	2027.4	-0.29905	0.92203	0.24781
3.868	69.882	-26180	2027.3	-0.29748	0.92076	0.24624
3.87	69.838	-26182	2027.3	-0.29592	0.91949	0.24468
3.872	69.786	-26182	2027.2	-0.29436	0.91822	0.24312
3.874	69.761	-26182	2027	-0.2928	0.91695	0.24156
3.876	69.78	-26182	2027	-0.2929	0.91734	0.24215
3.878	69.828	-26182	2026.9	-0.293	0.91773	0.24273
3.88	69.877	-26183	2026.9	-0.29309	0.91812	0.24332
3.882	69.904	-26184	2026.8	-0.29319	0.91851	0.2439
3.884	69.896	-26178	2026.7	-0.29329	0.9189	0.24449
3.886	69.855	-26171	2026.6	-0.29329	0.91949	0.24488
3.888	69.802	-26176	2026.6	-0.29329	0.92008	0.24527
3.89	69.764	-26182	2026.5	-0.29329	0.92066	0.24566
3.892	69.774	-26182	2026.5	-0.29329	0.92125	0.24605
3.894	69.82	-26183	2026.4	-0.29329	0.92183	0.24644
3.896	69.87	-26184	2026.3	-0.29378	0.92144	0.24673
3.898	69.903	-26185	2026.3	-0.29426	0.92105	0.24703
3.9	69.893	-26179	2026.2	-0.29475	0.92066	0.24732
3.902	69.857	-26173	2026.2	-0.29524	0.92027	0.24761
3.904	69.814	-26177	2026.2	-0.29573	0.91988	0.2479
3.906	69.776	-26181	2026.1	-0.29563	0.92056	0.24839
3.908	69.77	-26179	2026.1	-0.29553	0.92125	0.24888
3.91	69.804	-26177	2026.1	-0.29544	0.92193	0.24937
3.912	69.857	-26185	2026.1	-0.29534	0.92261	0.24986
3.914	69.896	-26192	2026	-0.29524	0.9233	0.25034
3.916	69.901	-26186	2026	-0.29446	0.92369	0.25025
3.918	69.888	-26180	2026	-0.29368	0.92408	0.25015
3.92	69.855	-26183	2026	-0.2929	0.92447	0.25005
3.922	69.786	-26185	2026	-0.29212	0.92486	0.24995
3.924	69.76	-26186	2026.1	-0.29134	0.92525	0.24986
3.926	69.784	-26187	2026.1	-0.29085	0.92583	0.25005
3.928	69.83	-26184	2026.1	-0.29036	0.92642	0.25025
3.93	69.878	-26180	2026.1	-0.28987	0.927	0.25044
3.932	69.898	-26179	2026	-0.28938	0.92759	0.25064
3.934	69.884	-26178	2025.9	-0.2889	0.92818	0.25083
3.936	69.841	-26186	2025.9	-0.28899	0.92759	0.25103
3.938	69.79	-26195	2025.9	-0.28909	0.927	0.25122
3.94	69.774	-26189	2026	-0.28919	0.92642	0.25142
3.942	69.791	-26182	2026	-0.28929	0.92583	0.25161
3.944	69.833	-26181	2026	-0.28938	0.92525	0.25181
3.946	69.863	-26180	2026	-0.29046	0.92466	0.25181
3.948	69.886	-26187	2026	-0.29153	0.92408	0.25181
3.95	69.892	-26194	2026	-0.2926	0.92349	0.25181
3.952	69.867	-26191	2026	-0.29368	0.92291	0.25181
3.954	69.817	-26188	2026	-0.29475	0.92232	0.25181
3.956	69.777	-26186	2026	-0.29475	0.92212	0.25054
3.958	69.777	-26185	2026	-0.29475	0.92193	0.24927
3.96	69.808	-26192	2026	-0.29475	0.92173	0.248
3.962	69.858	-26198	2026	-0.29475	0.92154	0.24673
3.964	69.905	-26199	2026	-0.29475	0.92134	0.24546
3.966	69.915	-26200	2026	-0.29514	0.92203	0.24615
3.968	69.886	-26196	2026	-0.29553	0.92271	0.24683
3.97	69.837	-26193	2026	-0.29592	0.92339	0.24751
3.972	69.789	-26186	2026	-0.29631	0.92408	0.2482
3.974	69.767	-26180	2026	-0.2967	0.92476	0.24888
3.976	69.787	-26184	2026	-0.29748	0.92417	0.24849
3.978	69.831	-26188	2026	-0.29827	0.92359	0.2481
3.98	69.874	-26187	2026	-0.29905	0.923	0.24771
3.982	69.905	-26186	2026.1	-0.29983	0.92242	0.24732
3.984	69.904	-26188	2026.1	-0.30061	0.92183	0.24693
3.986	69.871	-26189	2026	-0.30012	0.92193	0.24683
3.988	69.83	-26194	2026	-0.29963	0.92203	0.24673
3.99	69.796	-26198	2026	-0.29914	0.92212	0.24664
3.992	69.794	-26193	2026.1	-0.29866	0.92222	0.24654
3.994	69.816	-26187	2026.1	-0.29817	0.92232	0.24644
3.996	69.856	-26190	2026.2	-0.29797	0.92193	0.24673
3.998	69.896	-26193	2026.2	-0.29778	0.92154	0.24703
4	69.905	-26193	2026.2	-0.29758	0.92115	0.24732
4.002	69.886	-26193	2026.2	-0.29739	0.92076	0.24761
4.004	69.83	-26189	2026.2	-0.29719	0.92037	0.2479
4.006	69.773	-26185	2026.2	-0.29553	0.92086	0.24839
4.008	69.767	-26188	2026.2	-0.29387	0.92134	0.24888
4.01	69.803	-26191	2026.3	-0.29221	0.92183	0.24937
4.012	69.847	-26194	2026.3	-0.29056	0.92232	0.24986
4.014	69.891	-26198	2026.3	-0.2889	0.92281	0.25034
4.016	69.91	-26193	2026.4	-0.28831	0.92378	0.25025
4.018	69.872	-26189	2026.4	-0.28772	0.92476	0.25015
4.02	69.807	-26196	2026.4	-0.28714	0.92574	0.25005
4.022	69.764	-26203	2026.4	-0.28655	0.92671	0.24995
4.024	69.746	-26198	2026.4	-0.28597	0.92769	0.24986
4.026	69.776	-26193	2026.4	-0.28743	0.92642	0.24976
4.028	69.829	-26196	2026.3	-0.2889	0.92515	0.24966
4.03	69.873	-26199	2026.3	-0.29036	0.92388	0.24956
4.032	69.895	-26201	2026.3	-0.29182	0.92261	0.24947
4.034	69.874	-26204	2026.3	-0.29329	0.92134	0.24937
4.036	69.812	-26198	2026.3	-0.293	0.92173	0.24976
4.038	69.752	-26191	2026.3	-0.2927	0.92212	0.25015
4.04	69.721	-26191	2026.3	-0.29241	0.92252	0.25054
4.042	69.733	-26190	2026.2	-0.29212	0.92291	0.25093
4.044	69.779	-26193	2026.2	-0.29182	0.9233	0.25132
4.046	69.833	-26197	2026.2	-0.29192	0.92271	0.25044
4.048	69.868	-26191	2026.2	-0.29202	0.92212	0.24956
4.05	69.868	-26185	2026.2	-0.29212	0.92154	0.24868
4.052	69.841	-26191	2026.1	-0.29221	0.92095	0.24781
4.054	69.796	-26196	2026.1	-0.29231	0.92037	0.24693
4.056	69.757	-26202	2026	-0.2929	0.92037	0.24683
4.058	69.748	-26208	2026	-0.29348	0.92037	0.24673
4.06	69.77	-26207	2026	-0.29407	0.92037	0.24664
4.062	69.808	-26206	2025.9	-0.29465	0.92037	0.24654
4.064	69.841	-26206	2025.8	-0.29524	0.92037	0.24644
4.066	69.852	-26206	2025.8	-0.29514	0.92076	0.24703
4.068	69.826	-26203	2025.8	-0.29504	0.92115	0.24761
4.07	69.777	-26200	2025.7	-0.29495	0.92154	0.2482
4.072	69.741	-26197	2025.7	-0.29485	0.92193	0.24878
4.074	69.741	-26194	2025.6	-0.29475	0.92232	0.24937
4.076	69.773	-26198	2025.5	-0.29514	0.92252	0.24859
4.078	69.819	-26201	2025.5	-0.29553	0.92271	0.24781
4.08	69.872	-26204	2025.4	-0.29592	0.92291	0.24703
4.082	69.903	-26208	2025.4	-0.29631	0.9231	0.24624
4.084	69.904	-26199	2025.3	-0.2967	0.9233	0.24546
4.086	69.876	-26190	2025.3	-0.29651	0.9232	0.24605
4.088	69.843	-26196	2025.2	-0.29631	0.9231	0.24664
4.09	69.821	-26202	2025.2	-0.29612	0.923	0.24722
4.092	69.819	-26198	2025.2	-0.29592	0.92291	0.24781
4.094	69.858	-26194	2025.2	-0.29573	0.92281	0.24839
4.096	69.91	-26201	2025.1	-0.29573	0.92203	0.2479
4.098	69.951	-26209	2025	-0.29573	0.92125	0.24742
4.1	69.954	-26203	2025	-0.29573	0.92047	0.24693
4.102	69.92	-26198	2024.9	-0.29573	0.91968	0.24644
4.104	69.865	-26206	2024.9	-0.29573	0.9189	0.24595
4.106	69.815	-26215	2024.8	-0.29553	0.91978	0.24683
4.108	69.8	-26212	2024.8	-0.29534	0.92066	0.24771
4.11	69.825	-26209	2024.8	-0.29514	0.92154	0.24859
4.112	69.877	-26207	2024.7	-0.29495	0.92242	0.24947
4.114	69.925	-26205	2024.6	-0.29475	0.9233	0.25034
4.116	69.942	-26206	2024.6	-0.29485	0.92291	0.25005
4.118	69.918	-26207	2024.6	-0.29495	0.92252	0.24976
4.12	69.866	-26207	2024.5	-0.29504	0.92212	0.24947
4.122	69.822	-26208	2024.5	-0.29514	0.92173	0.24917
4.124	69.807	-26209	2024.4	-0.29524	0.92134	0.24888
4.126	69.825	-26211	2024.4	-0.29495	0.92076	0.24742
4.128	69.861	-26209	2024.3	-0.29465	0.92017	0.24595
4.13	69.903	-26207	2024.3	-0.29436	0.91959	0.24449
4.132	69.932	-26207	2024.2	-0.29407	0.919	0.24302
4.134	69.923	-26206	2024.2	-0.29378	0.91842	0.24156
4.136	69.887	-26218	2024.1	-0.29407	0.91871	0.24205
4.138	69.844	-26230	2024.1	-0.29436	0.919	0.24254
4.14	69.812	-26224	2024	-0.29465	0.91929	0.24302
4.142	69.815	-26218	2023.9	-0.29495	0.91959	0.24351
4.144	69.849	-26223	2023.9	-0.29524	0.91988	0.244
4.146	69.892	-26229	2023.8	-0.29456	0.92008	0.24429
4.148	69.919	-26221	2023.7	-0.29387	0.92027	0.24459
4.15	69.911	-26213	2023.7	-0.29319	0.92047	0.24488
4.152	69.886	-26213	2023.6	-0.29251	0.92066	0.24517
4.154	69.865	-26214	2023.6	-0.29182	0.92086	0.24546
4.156	69.84	-26216	2023.5	-0.29143	0.92066	0.24449
4.158	69.827	-26219	2023.5	-0.29104	0.92047	0.24351
4.16	69.843	-26217	2023.5	-0.29065	0.92027	0.24254
4.162	69.873	-26215	2023.4	-0.29026	0.92008	0.24156
4.164	69.885	-26214	2023.4	-0.28987	0.91988	0.24058
4.166	69.857	-26212	2023.3	-0.29095	0.92017	0.24195
4.168	69.789	-26211	2023.3	-0.29202	0.92047	0.24332
4.17	69.706	-26209	2023.2	-0.29309	0.92076	0.24468
4.172	69.603	-26216	2023.2	-0.29417	0.92105	0.24605
4.174	69.522	-26222	2023.2	-0.29524	0.92134	0.24742
4.176	69.488	-26220	2023.1	-0.29524	0.92154	0.24781
4.178	69.473	-26218	2023.1	-0.29524	0.92173	0.2482
4.18	69.47	-26220	2023.1	-0.29524	0.92193	0.24859
4.182	69.43	-26221	2023	-0.29524	0.92212	0.24898
4.184	69.372	-26222	2023	-0.29524	0.92232	0.24937
4.186	69.308	-26222	2023	-0.29436	0.92193	0.248
4.188	69.245	-26222	2023	-0.29348	0.92154	0.24664
4.19	69.204	-26223	2022.9	-0.2926	0.92115	0.24527
4.192	69.224	-26225	2022.9	-0.29173	0.92076	0.2439
4.194	69.291	-26228	2022.8	-0.29085	0.92037	0.24254
4.196	69.375	-26222	2022.8	-0.29202	0.92037	0.24322
4.198	69.479	-26216	2022.8	-0.29319	0.92037	0.2439
4.2	69.566	-26222	2022.8	-0.29436	0.92037	0.24459
4.202	69.63	-26227	2022.7	-0.29553	0.92037	0.24527
4.204	69.69	-26228	2022.7	-0.2967	0.92037	0.24595
4.206	69.741	-26228	2022.7	-0.29661	0.92076	0.24664
4.208	69.779	-26222	2022.7	-0.29651	0.92115	0.24732
4.21	69.822	-26215	2022.6	-0.29641	0.92154	0.248
4.212	69.875	-26217	2022.5	-0.29631	0.92193	0.24868
4.214	69.935	-26219	2022.4	-0.29622	0.92232	0.24937
4.216	69.969	-26219	2022.4	-0.29622	0.92212	0.24829
4.218	69.959	-26218	2022.4	-0.29622	0.92193	0.24722
4.22	69.917	-26223	2022.4	-0.29622	0.92173	0.24615
4.222	69.871	-26227	2022.4	-0.29622	0.92154	0.24507
4.224	69.848	-26227	2022.4	-0.29622	0.92134	0.244
4.226	69.859	-26226	2022.4	-0.2967	0.92232	0.244
4.228	69.894	-26228	2022.4	-0.29719	0.9233	0.244
4.23	69.932	-26230	2022.4	-0.29768	0.92427	0.244
4.232	69.938	-26229	2022.3	-0.29817	0.92525	0.244
4.234	69.907	-26227	2022.3	-0.29866	0.92622	0.244
4.236	69.869	-26231	2022.3	-0.29846	0.92593	0.24488
4.238	69.831	-26234	2022.2	-0.29827	0.92564	0.24576
4.24	69.802	-26230	2022.2	-0.29807	0.92535	0.24664
4.242	69.804	-26226	2022.1	-0.29788	0.92505	0.24751
4.244	69.843	-26233	2022	-0.29768	0.92476	0.24839
4.246	69.898	-26241	2021.9	-0.29827	0.92466	0.24849
4.248	69.937	-26239	2021.8	-0.29885	0.92456	0.24859
4.25	69.939	-26238	2021.7	-0.29944	0.92447	0.24868
4.252	69.896	-26235	2021.7	-0.30002	0.92437	0.24878
4.254	69.852	-26232	2021.6	-0.30061	0.92427	0.24888
4.256	69.813	-26232	2021.5	-0.29846	0.92456	0.24986
4.258	69.797	-26233	2021.4	-0.29631	0.92486	0.25083
4.26	69.824	-26236	2021.4	-0.29417	0.92515	0.25181
4.262	69.865	-26239	2021.3	-0.29202	0.92544	0.25278
4.264	69.899	-26239	2021.3	-0.28987	0.92574	0.25376
4.266	69.916	-26239	2021.3	-0.28997	0.92486	0.25317
4.268	69.909	-26237	2021.3	-0.29007	0.92398	0.25259
4.27	69.86	-26234	2021.3	-0.29016	0.9231	0.252
4.272	69.8	-26238	2021.2	-0.29026	0.92222	0.25142
4.274	69.772	-26241	2021.2	-0.29036	0.92134	0.25083
4.276	69.786	-26240	2021.1	-0.29065	0.92066	0.24878
4.278	69.826	-26238	2021.1	-0.29095	0.91998	0.24673
4.28	69.871	-26239	2021.1	-0.29124	0.91929	0.24468
4.282	69.896	-26239	2021.1	-0.29153	0.91861	0.24263
4.284	69.891	-26241	2021.1	-0.29182	0.91793	0.24058
4.286	69.853	-26244	2021.1	-0.29221	0.91832	0.24117
4.288	69.807	-26244	2021.1	-0.2926	0.91871	0.24176
4.29	69.774	-26245	2021	-0.293	0.9191	0.24234
4.292	69.768	-26244	2021	-0.29339	0.91949	0.24293
4.294	69.792	-26243	2021	-0.29378	0.91988	0.24351
4.296	69.841	-26243	2021	-0.29397	0.92076	0.2441
4.298	69.875	-26242	2021.1	-0.29417	0.92164	0.24468
4.3	69.887	-26239	2021.1	-0.29436	0.92252	0.24527
4.302	69.857	-26236	2021	-0.29456	0.92339	0.24585
4.304	69.797	-26235	2021	-0.29475	0.92427	0.24644
4.306	69.751	-26233	2021	-0.29456	0.92417	0.24664
4.308	69.743	-26235	2021	-0.29436	0.92408	0.24683
4.31	69.768	-26236	2021	-0.29417	0.92398	0.24703
4.312	69.807	-26240	2021.1	-0.29397	0.92388	0.24722
4.314	69.849	-26244	2021.1	-0.29378	0.92378	0.24742
4.316	69.87	-26244	2021.1	-0.293	0.92476	0.24781
4.318	69.848	-26243	2021.1	-0.29221	0.92574	0.2482
4.32	69.801	-26241	2021.1	-0.29143	0.92671	0.24859
4.322	69.759	-26239	2021	-0.29065	0.92769	0.24898
4.324	69.736	-26244	2020.9	-0.28987	0.92866	0.24937
4.326	69.75	-26248	2020.9	-0.29124	0.9272	0.24849
4.328	69.792	-26250	2020.8	-0.2926	0.92574	0.24761
4.33	69.83	-26253	2020.7	-0.29397	0.92427	0.24673
4.332	69.844	-26253	2020.6	-0.29534	0.92281	0.24585
4.334	69.83	-26253	2020.5	-0.2967	0.92134	0.24498
4.336	69.791	-26252	2020.4	-0.29651	0.92066	0.24478
4.338	69.749	-26251	2020.4	-0.29631	0.91998	0.24459
4.34	69.726	-26247	2020.3	-0.29612	0.91929	0.24439
4.342	69.718	-26242	2020.1	-0.29592	0.91861	0.2442
4.344	69.741	-26241	2020	-0.29573	0.91793	0.244
4.346	69.785	-26240	2019.9	-0.29407	0.9189	0.24439
4.348	69.814	-26246	2019.9	-0.29241	0.91988	0.24478
4.35	69.797	-26252	2019.8	-0.29075	0.92086	0.24517
4.352	69.755	-26255	2019.8	-0.28909	0.92183	0.24556
4.354	69.711	-26258	2019.7	-0.28743	0.92281	0.24595
4.356	69.675	-26256	2019.7	-0.28938	0.92252	0.24566
4.358	69.668	-26255	2019.7	-0.29134	0.92222	0.24537
4.36	69.688	-26253	2019.7	-0.29329	0.92193	0.24507
4.362	69.741	-26250	2019.7	-0.29524	0.92164	0.24478
4.364	69.789	-26252	2019.8	-0.29719	0.92134	0.24449
4.366	69.786	-26253	2019.8	-0.29709	0.92222	0.24566
4.368	69.754	-26254	2019.8	-0.297	0.9231	0.24683
4.37	69.704	-26254	2019.8	-0.2969	0.92398	0.248
4.372	69.665	-26254	2019.9	-0.2968	0.92486	0.24917
4.374	69.648	-26254	2020	-0.2967	0.92574	0.25034
4.376	69.659	-26254	2020.1	-0.29651	0.92505	0.25044
4.378	69.698	-26254	2020.2	-0.29631	0.92437	0.25054
4.38	69.733	-26254	2020.3	-0.29612	0.92369	0.25064
4.382	69.751	-26253	2020.4	-0.29592	0.923	0.25073
4.384	69.74	-26251	2020.6	-0.29573	0.92232	0.25083
4.386	69.704	-26249	2020.7	-0.29553	0.92242	0.25064
4.388	69.663	-26248	2020.9	-0.29534	0.92252	0.25044
4.39	69.642	-26247	2021.1	-0.29514	0.92261	0.25025
4.392	69.659	-26241	2021.3	-0.29495	0.92271	0.25005
4.394	69.706	-26236	2021.5	-0.29475	0.92281	0.24986
4.396	69.751	-26237	2021.7	-0.29397	0.92378	0.24966
4.398	69.774	-26238	2021.9	-0.29319	0.92476	0.24947
4.4	69.776	-26239	2022.2	-0.29241	0.92574	0.24927
4.402	69.756	-26240	2022.4	-0.29163	0.92671	0.24908
4.404	69.714	-26239	2022.7	-0.29085	0.92769	0.24888
4.406	69.678	-26237	2023	-0.28899	0.9272	0.24976
4.408	69.672	-26235	2023.3	-0.28714	0.92671	0.25064
4.41	69.7	-26233	2023.6	-0.28528	0.92622	0.25152
4.412	69.744	-26232	2023.8	-0.28343	0.92574	0.25239
4.414	69.785	-26231	2024.1	-0.28158	0.92525	0.25327
4.416	69.811	-26230	2024.4	-0.28284	0.92486	0.25249
4.418	69.796	-26229	2024.7	-0.28411	0.92447	0.25171
4.42	69.757	-26222	2024.9	-0.28538	0.92408	0.25093
4.422	69.706	-26216	2025.1	-0.28665	0.92369	0.25015
4.424	69.673	-26218	2025.4	-0.28792	0.9233	0.24937
4.426	69.687	-26219	2025.6	-0.28782	0.9233	0.24947
4.428	69.736	-26222	2025.8	-0.28772	0.9233	0.24956
4.43	69.796	-26225	2026	-0.28763	0.9233	0.24966
4.432	69.826	-26219	2026.2	-0.28753	0.9233	0.24976
4.434	69.817	-26212	2026.4	-0.28743	0.9233	0.24986
4.436	69.801	-26210	2026.6	-0.28714	0.92349	0.24986
4.438	69.753	-26208	2026.7	-0.28685	0.92369	0.24986
4.44	69.715	-26208	2026.8	-0.28655	0.92388	0.24986
4.442	69.718	-26207	2026.9	-0.28626	0.92408	0.24986
4.444	69.751	-26207	2027	-0.28597	0.92427	0.24986
4.446	69.812	-26207	2027.1	-0.28743	0.92281	0.2479
4.448	69.845	-26205	2027.2	-0.2889	0.92134	0.24595
4.45	69.842	-26203	2027.3	-0.29036	0.91988	0.244
4.452	69.812	-26200	2027.3	-0.29182	0.91842	0.24205
4.454	69.774	-26196	2027.3	-0.29329	0.91695	0.2401
4.456	69.739	-26196	2027.4	-0.2926	0.91715	0.24029
4.458	69.734	-26195	2027.4	-0.29192	0.91734	0.24049
4.46	69.76	-26196	2027.5	-0.29124	0.91754	0.24068
4.462	69.809	-26196	2027.5	-0.29056	0.91773	0.24088
4.464	69.857	-26197	2027.6	-0.28987	0.91793	0.24107
4.466	69.875	-26197	2027.5	-0.29007	0.91803	0.24166
4.468	69.861	-26195	2027.5	-0.29026	0.91812	0.24224
4.47	69.825	-26193	2027.4	-0.29046	0.91822	0.24283
4.472	69.787	-26193	2027.4	-0.29065	0.91832	0.24341
4.474	69.77	-26193	2027.4	-0.29085	0.91842	0.244
4.476	69.786	-26194	2027.3	-0.29202	0.919	0.244
4.478	69.831	-26194	2027.3	-0.29319	0.91959	0.244
4.48	69.881	-26194	2027.3	-0.29436	0.92017	0.244
4.482	69.901	-26195	2027.2	-0.29553	0.92076	0.244
4.484	69.883	-26191	2027.2	-0.2967	0.92134	0.244
4.486	69.843	-26188	2027.1	-0.29651	0.92173	0.24429
4.488	69.795	-26192	2027	-0.29631	0.92212	0.24459
4.49	69.76	-26195	2026.9	-0.29612	0.92252	0.24488
4.492	69.764	-26202	2026.8	-0.29592	0.92291	0.24517
4.494	69.819	-26208	2026.8	-0.29573	0.9233	0.24546
4.496	69.881	-26204	2026.7	-0.29534	0.923	0.24595
4.498	69.907	-26200	2026.6	-0.29495	0.92271	0.24644
4.5	69.906	-26192	2026.5	-0.29456	0.92242	0.24693
4.502	69.88	-26183	2026.4	-0.29417	0.92212	0.24742
4.504	69.831	-26186	2026.3	-0.29378	0.92183	0.2479
4.506	69.788	-26189	2026.2	-0.29456	0.92203	0.24761
4.508	69.781	-26190	2026	-0.29534	0.92222	0.24732
4.51	69.812	-26191	2025.9	-0.29612	0.92242	0.24703
4.512	69.858	-26186	2025.8	-0.2969	0.92261	0.24673
4.514	69.897	-26181	2025.6	-0.29768	0.92281	0.24644
4.516	69.901	-26186	2025.5	-0.2967	0.92203	0.24605
4.518	69.877	-26190	2025.3	-0.29573	0.92125	0.24566
4.52	69.833	-26191	2025.2	-0.29475	0.92047	0.24527
4.522	69.783	-26193	2025	-0.29378	0.91968	0.24488
4.524	69.761	-26194	2024.9	-0.2928	0.9189	0.24449
4.526	69.788	-26195	2024.8	-0.29173	0.92105	0.24332
4.528	69.843	-26197	2024.6	-0.29065	0.9232	0.24215
4.53	69.888	-26198	2024.5	-0.28958	0.92535	0.24097
4.532	69.912	-26194	2024.3	-0.28851	0.92749	0.2398
4.534	69.896	-26190	2024.2	-0.28743	0.92964	0.23863
4.536	69.851	-26191	2024.1	-0.28841	0.92857	0.2398
4.538	69.8	-26192	2023.9	-0.28938	0.92749	0.24097
4.54	69.767	-26191	2023.8	-0.29036	0.92642	0.24215
4.542	69.773	-26189	2023.7	-0.29134	0.92535	0.24332
4.544	69.808	-26194	2023.6	-0.29231	0.92427	0.24449
4.546	69.858	-26198	2023.4	-0.2928	0.92339	0.2439
4.548	69.887	-26203	2023.3	-0.29329	0.92252	0.24332
4.55	69.883	-26208	2023.1	-0.29378	0.92164	0.24273
4.552	69.854	-26203	2023	-0.29426	0.92076	0.24215
4.554	69.814	-26198	2023	-0.29475	0.91988	0.24156
4.556	69.78	-26202	2022.9	-0.29534	0.92056	0.24283
4.558	69.774	-26205	2022.8	-0.29592	0.92125	0.2441
4.56	69.794	-26208	2022.7	-0.29651	0.92193	0.24537
4.562	69.826	-26210	2022.6	-0.29709	0.92261	0.24664
4.564	69.861	-26210	2022.5	-0.29768	0.9233	0.2479
4.566	69.878	-26210	2022.4	-0.29797	0.92369	0.2481
4.568	69.86	-26213	2022.3	-0.29827	0.92408	0.24829
4.57	69.812	-26216	2022.2	-0.29856	0.92447	0.24849
4.572	69.764	-26211	2022.1	-0.29885	0.92486	0.24868
4.574	69.754	-26207	2022	-0.29914	0.92525	0.24888
4.576	69.78	-26209	2021.9	-0.29905	0.92417	0.24839
4.578	69.828	-26211	2021.8	-0.29895	0.9231	0.2479
4.58	69.883	-26209	2021.7	-0.29885	0.92203	0.24742
4.582	69.91	-26208	2021.6	-0.29875	0.92095	0.24693
4.584	69.894	-26213	2021.5	-0.29866	0.91988	0.24644
4.586	69.85	-26217	2021.4	-0.29758	0.91988	0.24605
4.588	69.796	-26221	2021.3	-0.29651	0.91988	0.24566
4.59	69.762	-26225	2021.2	-0.29544	0.91988	0.24527
4.592	69.769	-26223	2021.1	-0.29436	0.91988	0.24488
4.594	69.805	-26221	2021	-0.29329	0.91988	0.24449
4.596	69.855	-26219	2020.9	-0.29202	0.92037	0.2439
4.598	69.894	-26216	2020.8	-0.29075	0.92086	0.24332
4.6	69.902	-26216	2020.8	-0.28948	0.92134	0.24273
4.602	69.88	-26216	2020.7	-0.28821	0.92183	0.24215
4.604	69.83	-26216	2020.7	-0.28694	0.92232	0.24156
4.606	69.782	-26216	2020.6	-0.28743	0.92271	0.24166
4.608	69.765	-26217	2020.6	-0.28792	0.9231	0.24176
4.61	69.801	-26217	2020.5	-0.28841	0.92349	0.24185
4.612	69.855	-26214	2020.5	-0.2889	0.92388	0.24195
4.614	69.903	-26210	2020.4	-0.28938	0.92427	0.24205
4.616	69.906	-26220	2020.4	-0.29007	0.92349	0.24195
4.618	69.892	-26230	2020.3	-0.29075	0.92271	0.24185
4.62	69.857	-26228	2020.3	-0.29143	0.92193	0.24176
4.622	69.8	-26226	2020.3	-0.29212	0.92115	0.24166
4.624	69.774	-26225	2020.3	-0.2928	0.92037	0.24156
4.626	69.796	-26225	2020.2	-0.29329	0.92144	0.24293
4.628	69.847	-26225	2020.1	-0.29378	0.92252	0.24429
4.63	69.885	-26224	2020	-0.29426	0.92359	0.24566
4.632	69.9	-26228	2020	-0.29475	0.92466	0.24703
4.634	69.893	-26232	2020	-0.29524	0.92574	0.24839
4.636	69.861	-26229	2020	-0.29602	0.92613	0.24839
4.638	69.816	-26226	2020	-0.2968	0.92652	0.24839
4.64	69.785	-26228	2019.9	-0.29758	0.92691	0.24839
4.642	69.785	-26231	2019.9	-0.29836	0.9273	0.24839
4.644	69.823	-26229	2019.8	-0.29914	0.92769	0.24839
4.646	69.881	-26227	2019.8	-0.29963	0.92847	0.24771
4.648	69.919	-26226	2019.8	-0.30012	0.92925	0.24703
4.65	69.914	-26226	2019.8	-0.30061	0.93003	0.24634
4.652	69.882	-26232	2019.8	-0.3011	0.93081	0.24566
4.654	69.842	-26237	2019.7	-0.30158	0.93159	0.24498
4.656	69.803	-26230	2019.7	-0.30119	0.9314	0.24478
4.658	69.783	-26223	2019.7	-0.3008	0.9312	0.24459
4.66	69.803	-26226	2019.7	-0.30041	0.93101	0.24439
4.662	69.855	-26228	2019.7	-0.30002	0.93081	0.2442
4.664	69.907	-26230	2019.7	-0.29963	0.93062	0.244
4.666	69.916	-26231	2019.7	-0.29895	0.92944	0.24527
4.668	69.885	-26240	2019.6	-0.29827	0.92827	0.24654
4.67	69.854	-26248	2019.6	-0.29758	0.9271	0.24781
4.672	69.819	-26242	2019.5	-0.2969	0.92593	0.24908
4.674	69.794	-26236	2019.5	-0.29622	0.92476	0.25034
4.676	69.805	-26229	2019.5	-0.29641	0.92447	0.24976
4.678	69.848	-26222	2019.5	-0.29661	0.92417	0.24917
4.68	69.899	-26226	2019.5	-0.2968	0.92388	0.24859
4.682	69.934	-26230	2019.5	-0.297	0.92359	0.248
4.684	69.935	-26235	2019.5	-0.29719	0.9233	0.24742
4.686	69.903	-26240	2019.5	-0.29748	0.92261	0.24751
4.688	69.85	-26237	2019.5	-0.29778	0.92193	0.24761
4.69	69.809	-26233	2019.5	-0.29807	0.92125	0.24771
4.692	69.799	-26230	2019.5	-0.29836	0.92056	0.24781
4.694	69.834	-26226	2019.5	-0.29866	0.91988	0.2479
4.696	69.884	-26229	2019.5	-0.29895	0.92047	0.24771
