t	ekg	optical	pressure	accel_x	accel_y	accel_z
0	90.756	-2.9749e+05	3043.3	-0.50225	0.81086	0.34853
0.002	90.781	-2.975e+05	3042.9	-0.50196	0.80949	0.3497
0.004	90.832	-2.9752e+05	3042.6	-0.50166	0.80813	0.35087
0.006	90.883	-2.9751e+05	3042.3	-0.50137	0.80676	0.35204
0.008	90.908	-2.9751e+05	3042	-0.50108	0.8054	0.35321
0.01	90.89	-2.9751e+05	3041.6	-0.50079	0.80403	0.35439
0.012	90.84	-2.975e+05	3041.3	-0.50049	0.80266	0.35556
0.014	90.78	-2.975e+05	3041	-0.5002	0.8013	0.35673
0.016	90.744	-2.975e+05	3040.7	-0.49922	0.80159	0.35575
0.018	90.756	-2.975e+05	3040.4	-0.49825	0.80188	0.35478
0.02	90.795	-2.975e+05	3040.1	-0.49727	0.80217	0.3538
0.022	90.848	-2.975e+05	3039.8	-0.4963	0.80247	0.35282
0.024	90.885	-2.975e+05	3039.5	-0.49532	0.80276	0.35185
0.026	90.882	-2.9751e+05	3039.3	-0.49552	0.80276	0.35224
0.028	90.843	-2.9751e+05	3039	-0.49571	0.80276	0.35263
0.03	90.786	-2.9751e+05	3038.8	-0.49591	0.80276	0.35302
0.032	90.748	-2.9751e+05	3038.6	-0.4961	0.80276	0.35341
0.034	90.746	-2.9751e+05	3038.5	-0.4963	0.80276	0.3538
0.036	90.781	-2.9751e+05	3038.3	-0.49678	0.80296	0.35341
0.038	90.833	-2.9751e+05	3038.1	-0.49727	0.80315	0.35302
0.04	90.871	-2.9752e+05	3038	-0.49776	0.80335	0.35263
0.042	90.874	-2.9752e+05	3037.9	-0.49825	0.80354	0.35224
0.044	90.841	-2.9752e+05	3037.8	-0.49874	0.80374	0.35185
0.046	90.785	-2.9752e+05	3037.7	-0.49864	0.80383	0.35195
0.048	90.734	-2.9752e+05	3037.6	-0.49854	0.80393	0.35204
0.05	90.709	-2.9751e+05	3037.5	-0.49844	0.80403	0.35214
0.052	90.718	-2.9751e+05	3037.5	-0.49835	0.80413	0.35224
0.054	90.754	-2.9751e+05	3037.4	-0.49825	0.80422	0.35234
0.056	90.789	-2.9752e+05	3037.3	-0.49766	0.80393	0.35165
0.058	90.802	-2.9752e+05	3037.3	-0.49708	0.80364	0.35097
0.06	90.784	-2.9752e+05	3037.2	-0.49649	0.80335	0.35029
0.062	90.743	-2.9752e+05	3037.1	-0.49591	0.80305	0.3496
0.064	90.701	-2.9752e+05	3037	-0.49532	0.80276	0.34892
0.066	90.687	-2.9752e+05	3036.9	-0.4962	0.80335	0.34755
0.068	90.709	-2.9752e+05	3036.8	-0.49708	0.80393	0.34619
0.07	90.755	-2.9751e+05	3036.7	-0.49796	0.80452	0.34482
0.072	90.806	-2.9751e+05	3036.6	-0.49883	0.8051	0.34345
0.074	90.838	-2.9751e+05	3036.4	-0.49971	0.80569	0.34209
0.076	90.836	-2.9751e+05	3036.4	-0.49922	0.80676	0.34306
0.078	90.805	-2.9752e+05	3036.4	-0.49874	0.80784	0.34404
0.08	90.764	-2.9752e+05	3036.3	-0.49825	0.80891	0.34502
0.082	90.736	-2.9753e+05	3036.1	-0.49776	0.80998	0.34599
0.084	90.745	-2.9753e+05	3036	-0.49727	0.81106	0.34697
0.086	90.791	-2.9753e+05	3035.9	-0.49766	0.81028	0.34619
0.088	90.86	-2.9753e+05	3035.8	-0.49805	0.80949	0.34541
0.09	90.919	-2.9752e+05	3035.7	-0.49844	0.80871	0.34463
0.092	90.936	-2.9752e+05	3035.5	-0.49883	0.80793	0.34384
0.094	90.906	-2.9752e+05	3035.3	-0.49922	0.80715	0.34306
0.096	90.852	-2.9752e+05	3035.2	-0.49952	0.80793	0.34336
0.098	90.804	-2.9753e+05	3035	-0.49981	0.80871	0.34365
0.1	90.794	-2.9754e+05	3034.9	-0.5001	0.80949	0.34394
0.102	90.822	-2.9753e+05	3034.7	-0.5004	0.81028	0.34424
0.104	90.873	-2.9752e+05	3034.5	-0.50069	0.81106	0.34453
0.106	90.927	-2.9752e+05	3034.4	-0.5	0.81018	0.34306
0.108	90.952	-2.9752e+05	3034.2	-0.49932	0.8093	0.3416
0.11	90.936	-2.9753e+05	3034	-0.49864	0.80842	0.34014
0.112	90.889	-2.9754e+05	3033.9	-0.49796	0.80754	0.33867
0.114	90.837	-2.9754e+05	3033.7	-0.49727	0.80666	0.33721
0.116	90.808	-2.9753e+05	3033.5	-0.49786	0.80705	0.3374
0.118	90.82	-2.9753e+05	3033.3	-0.49844	0.80744	0.3376
0.12	90.865	-2.9753e+05	3033.1	-0.49903	0.80784	0.33779
0.122	90.92	-2.9753e+05	3033	-0.49961	0.80823	0.33799
0.124	90.954	-2.9753e+05	3032.8	-0.5002	0.80862	0.33818
0.126	90.95	-2.9753e+05	3032.6	-0.49981	0.80803	0.33818
0.128	90.912	-2.9753e+05	3032.4	-0.49942	0.80744	0.33818
0.13	90.858	-2.9753e+05	3032.2	-0.49903	0.80686	0.33818
0.132	90.821	-2.9754e+05	3031.9	-0.49864	0.80627	0.33818
0.134	90.82	-2.9753e+05	3031.7	-0.49825	0.80569	0.33818
0.136	90.853	-2.9753e+05	3031.5	-0.49913	0.80598	0.33906
0.138	90.906	-2.9753e+05	3031.3	-0.5	0.80627	0.33994
0.14	90.949	-2.9754e+05	3031.1	-0.50088	0.80657	0.34082
0.142	90.96	-2.9753e+05	3030.9	-0.50176	0.80686	0.3417
0.144	90.932	-2.9752e+05	3030.7	-0.50264	0.80715	0.34258
0.146	90.883	-2.9752e+05	3030.5	-0.50205	0.80647	0.34297
0.148	90.84	-2.9752e+05	3030.3	-0.50147	0.80579	0.34336
0.15	90.83	-2.9753e+05	3030.1	-0.50088	0.8051	0.34375
0.152	90.855	-2.9754e+05	3029.9	-0.5003	0.80442	0.34414
0.154	90.903	-2.9754e+05	3029.7	-0.49971	0.80374	0.34453
0.156	90.955	-2.9754e+05	3029.4	-0.49825	0.80471	0.34443
0.158	90.983	-2.9753e+05	3029.1	-0.49678	0.80569	0.34433
0.16	90.972	-2.9753e+05	3028.9	-0.49532	0.80666	0.34424
0.162	90.926	-2.9753e+05	3028.7	-0.49386	0.80764	0.34414
0.164	90.87	-2.9753e+05	3028.5	-0.49239	0.80862	0.34404
0.166	90.828	-2.9752e+05	3028.3	-0.49122	0.80842	0.34414
0.168	90.812	-2.9752e+05	3028.1	-0.49005	0.80823	0.34424
0.17	90.807	-2.9753e+05	3027.8	-0.48888	0.80803	0.34433
0.172	90.801	-2.9753e+05	3027.6	-0.48771	0.80784	0.34443
0.174	90.761	-2.9753e+05	3027.4	-0.48654	0.80764	0.34453
0.176	90.663	-2.9753e+05	3027.2	-0.4882	0.80647	0.34453
0.178	90.499	-2.9754e+05	3027	-0.48985	0.8053	0.34453
0.18	90.279	-2.9754e+05	3026.8	-0.49151	0.80413	0.34453
0.182	90.083	-2.9754e+05	3026.6	-0.49317	0.80296	0.34453
0.184	89.964	-2.9753e+05	3026.4	-0.49483	0.80178	0.34453
0.186	89.952	-2.9754e+05	3026.2	-0.49493	0.80139	0.34638
0.188	90.02	-2.9755e+05	3025.9	-0.49503	0.801	0.34824
0.19	90.151	-2.9755e+05	3025.7	-0.49512	0.80061	0.35009
0.192	90.33	-2.9755e+05	3025.5	-0.49522	0.80022	0.35195
0.194	90.51	-2.9754e+05	3025.3	-0.49532	0.79983	0.3538
0.196	90.643	-2.9754e+05	3025.1	-0.49571	0.79964	0.35351
0.198	90.703	-2.9754e+05	3024.8	-0.4961	0.79944	0.35321
0.2	90.733	-2.9755e+05	3024.6	-0.49649	0.79925	0.35292
0.202	90.768	-2.9754e+05	3024.4	-0.49688	0.79905	0.35263
0.204	90.83	-2.9753e+05	3024.2	-0.49727	0.79886	0.35234
0.206	90.907	-2.9754e+05	3024	-0.49737	0.79993	0.35214
0.208	90.954	-2.9754e+05	3023.9	-0.49747	0.801	0.35195
0.21	90.942	-2.9754e+05	3023.7	-0.49756	0.80208	0.35175
0.212	90.908	-2.9754e+05	3023.6	-0.49766	0.80315	0.35156
0.214	90.877	-2.9755e+05	3023.4	-0.49776	0.80422	0.35136
0.216	90.865	-2.9755e+05	3023.3	-0.49737	0.80286	0.35126
0.218	90.888	-2.9755e+05	3023.2	-0.49698	0.80149	0.35116
0.22	90.945	-2.9755e+05	3023.1	-0.49659	0.80012	0.35107
0.222	91.009	-2.9755e+05	3023.1	-0.4962	0.79876	0.35097
0.224	91.042	-2.9755e+05	3023	-0.49581	0.79739	0.35087
0.226	91.03	-2.9755e+05	3023	-0.49591	0.79876	0.35019
0.228	90.984	-2.9755e+05	3022.9	-0.496	0.80012	0.34951
0.23	90.923	-2.9754e+05	3022.8	-0.4961	0.80149	0.34882
0.232	90.875	-2.9754e+05	3022.7	-0.4962	0.80286	0.34814
0.234	90.861	-2.9755e+05	3022.5	-0.4963	0.80422	0.34746
0.236	90.888	-2.9755e+05	3022.4	-0.49727	0.80637	0.34707
0.238	90.94	-2.9755e+05	3022.3	-0.49825	0.80852	0.34668
0.24	90.982	-2.9755e+05	3022.1	-0.49922	0.81067	0.34628
0.242	90.995	-2.9756e+05	3021.9	-0.5002	0.81281	0.34589
0.244	90.966	-2.9756e+05	3021.7	-0.50118	0.81496	0.3455
0.246	90.916	-2.9756e+05	3021.5	-0.50079	0.81437	0.34599
0.248	90.868	-2.9755e+05	3021.3	-0.5004	0.81379	0.34648
0.25	90.849	-2.9755e+05	3021.2	-0.5	0.8132	0.34697
0.252	90.867	-2.9754e+05	3021	-0.49961	0.81262	0.34746
0.254	90.915	-2.9755e+05	3020.8	-0.49922	0.81203	0.34794
0.256	90.969	-2.9755e+05	3020.6	-0.49991	0.81232	0.34902
0.258	90.993	-2.9755e+05	3020.4	-0.50059	0.81262	0.35009
0.26	90.972	-2.9755e+05	3020.3	-0.50127	0.81291	0.35116
0.262	90.923	-2.9755e+05	3020.1	-0.50196	0.8132	0.35224
0.264	90.87	-2.9756e+05	3019.9	-0.50264	0.8135	0.35331
0.266	90.838	-2.9755e+05	3019.8	-0.50362	0.81408	0.35312
0.268	90.844	-2.9755e+05	3019.6	-0.50459	0.81467	0.35292
0.27	90.888	-2.9755e+05	3019.5	-0.50557	0.81525	0.35273
0.272	90.943	-2.9755e+05	3019.3	-0.50654	0.81584	0.35253
0.274	90.978	-2.9755e+05	3019.1	-0.50752	0.81642	0.35234
0.276	90.975	-2.9756e+05	3019	-0.50791	0.81652	0.35282
0.278	90.934	-2.9756e+05	3018.8	-0.5083	0.81662	0.35331
0.28	90.878	-2.9756e+05	3018.6	-0.50869	0.81672	0.3538
0.282	90.839	-2.9755e+05	3018.4	-0.50908	0.81681	0.35429
0.284	90.836	-2.9755e+05	3018.2	-0.50947	0.81691	0.35478
0.286	90.869	-2.9755e+05	3018	-0.50918	0.81642	0.35478
0.288	90.918	-2.9755e+05	3017.7	-0.50889	0.81594	0.35478
0.29	90.963	-2.9755e+05	3017.5	-0.50859	0.81545	0.35478
0.292	90.974	-2.9755e+05	3017.2	-0.5083	0.81496	0.35478
0.294	90.942	-2.9755e+05	3016.9	-0.50801	0.81447	0.35478
0.296	90.89	-2.9755e+05	3016.7	-0.50781	0.81428	0.35536
0.298	90.839	-2.9755e+05	3016.5	-0.50762	0.81408	0.35595
0.3	90.82	-2.9756e+05	3016.4	-0.50742	0.81389	0.35653
0.302	90.84	-2.9756e+05	3016.4	-0.50723	0.81369	0.35712
0.304	90.882	-2.9756e+05	3016.4	-0.50703	0.8135	0.3577
0.306	90.929	-2.9756e+05	3017.1	-0.50576	0.81272	0.35634
0.308	90.949	-2.9756e+05	3017.8	-0.50449	0.81193	0.35497
0.31	90.928	-2.9756e+05	3018.8	-0.50323	0.81115	0.3536
0.312	90.878	-2.9757e+05	3020.2	-0.50196	0.81037	0.35224
0.314	90.821	-2.9756e+05	3021.5	-0.50069	0.80959	0.35087
0.316	90.788	-2.9756e+05	3023.3	-0.49825	0.80901	0.35048
0.318	90.794	-2.9756e+05	3025	-0.49581	0.80842	0.35009
0.32	90.828	-2.9756e+05	3026.9	-0.49337	0.80784	0.3497
0.322	90.871	-2.9756e+05	3028.8	-0.49093	0.80725	0.34931
0.324	90.899	-2.9756e+05	3030.7	-0.48849	0.80666	0.34892
0.326	90.892	-2.9756e+05	3032.7	-0.48878	0.80618	0.34951
0.328	90.85	-2.9756e+05	3034.8	-0.48907	0.80569	0.35009
0.33	90.789	-2.9756e+05	3036.7	-0.48937	0.8052	0.35068
0.332	90.742	-2.9756e+05	3038.7	-0.48966	0.80471	0.35126
0.334	90.736	-2.9755e+05	3040.7	-0.48995	0.80422	0.35185
0.336	90.763	-2.9755e+05	3042.5	-0.48907	0.80383	0.35175
0.338	90.809	-2.9755e+05	3044.4	-0.4882	0.80344	0.35165
0.34	90.854	-2.9755e+05	3046.1	-0.48732	0.80305	0.35156
0.342	90.86	-2.9755e+05	3047.8	-0.48644	0.80266	0.35146
0.344	90.823	-2.9755e+05	3049.4	-0.48556	0.80227	0.35136
0.346	90.764	-2.9755e+05	3050.8	-0.48683	0.80247	0.35126
0.348	90.711	-2.9755e+05	3052.3	-0.4881	0.80266	0.35116
0.35	90.693	-2.9755e+05	3053.6	-0.48937	0.80286	0.35107
0.352	90.705	-2.9756e+05	3054.9	-0.49064	0.80305	0.35097
0.354	90.748	-2.9755e+05	3056.1	-0.4919	0.80325	0.35087
0.356	90.8	-2.9755e+05	3057.2	-0.49171	0.80403	0.34941
0.358	90.819	-2.9755e+05	3058.2	-0.49151	0.80481	0.34794
0.36	90.794	-2.9754e+05	3059.2	-0.49132	0.80559	0.34648
0.362	90.744	-2.9754e+05	3060.2	-0.49112	0.80637	0.34502
0.364	90.682	-2.9754e+05	3061.1	-0.49093	0.80715	0.34355
0.366	90.643	-2.9755e+05	3061.9	-0.49122	0.80686	0.34414
0.368	90.645	-2.9755e+05	3062.8	-0.49151	0.80657	0.34472
0.37	90.681	-2.9755e+05	3063.5	-0.49181	0.80627	0.34531
0.372	90.737	-2.9755e+05	3064.2	-0.4921	0.80598	0.34589
0.374	90.772	-2.9755e+05	3064.9	-0.49239	0.80569	0.34648
0.376	90.761	-2.9755e+05	3065.4	-0.49239	0.8053	0.34687
0.378	90.722	-2.9754e+05	3065.9	-0.49239	0.80491	0.34726
0.38	90.668	-2.9753e+05	3066.4	-0.49239	0.80452	0.34765
0.382	90.627	-2.9753e+05	3066.8	-0.49239	0.80413	0.34804
0.384	90.621	-2.9753e+05	3067.2	-0.49239	0.80374	0.34843
0.386	90.648	-2.9753e+05	3067.5	-0.49376	0.80413	0.34736
0.388	90.694	-2.9753e+05	3067.9	-0.49512	0.80452	0.34628
0.39	90.739	-2.9753e+05	3068.2	-0.49649	0.80491	0.34521
0.392	90.745	-2.9754e+05	3068.4	-0.49786	0.8053	0.34414
0.394	90.71	-2.9753e+05	3068.6	-0.49922	0.80569	0.34306
0.396	90.654	-2.9753e+05	3068.7	-0.50127	0.80579	0.34228
0.398	90.601	-2.9753e+05	3068.8	-0.50332	0.80588	0.3415
0.4	90.574	-2.9752e+05	3068.9	-0.50537	0.80598	0.34072
0.402	90.59	-2.9752e+05	3068.9	-0.50742	0.80608	0.33994
0.404	90.638	-2.9752e+05	3068.9	-0.50947	0.80618	0.33916
0.406	90.687	-2.9751e+05	3068.9	-0.50859	0.80647	0.33984
0.408	90.71	-2.9751e+05	3068.8	-0.50772	0.80676	0.34053
0.41	90.695	-2.9751e+05	3068.7	-0.50684	0.80705	0.34121
0.412	90.649	-2.9751e+05	3068.6	-0.50596	0.80735	0.34189
0.414	90.601	-2.9751e+05	3068.4	-0.50508	0.80764	0.34258
0.416	90.573	-2.9752e+05	3068.2	-0.50284	0.80764	0.34336
0.418	90.581	-2.9752e+05	3068	-0.50059	0.80764	0.34414
0.42	90.623	-2.9751e+05	3067.8	-0.49835	0.80764	0.34492
0.422	90.683	-2.9751e+05	3067.5	-0.4961	0.80764	0.3457
0.424	90.727	-2.9751e+05	3067.2	-0.49386	0.80764	0.34648
0.426	90.733	-2.975e+05	3066.9	-0.49473	0.80774	0.3458
0.428	90.701	-2.975e+05	3066.6	-0.49561	0.80784	0.34511
0.43	90.653	-2.975e+05	3066.3	-0.49649	0.80793	0.34443
0.432	90.611	-2.975e+05	3066	-0.49737	0.80803	0.34375
0.434	90.61	-2.975e+05	3065.7	-0.49825	0.80813	0.34306
0.436	90.647	-2.975e+05	3065.3	-0.49815	0.80842	0.34336
0.438	90.703	-2.975e+05	3064.9	-0.49805	0.80871	0.34365
0.44	90.751	-2.975e+05	3064.5	-0.49796	0.80901	0.34394
0.442	90.773	-2.975e+05	3064.1	-0.49786	0.8093	0.34424
0.444	90.753	-2.975e+05	3063.7	-0.49776	0.80959	0.34453
0.446	90.703	-2.975e+05	3063.2	-0.49669	0.80949	0.34482
0.448	90.657	-2.9749e+05	3062.7	-0.49561	0.8094	0.34511
0.45	90.641	-2.9749e+05	3062.3	-0.49454	0.8093	0.34541
0.452	90.663	-2.975e+05	3061.8	-0.49347	0.8092	0.3457
0.454	90.719	-2.975e+05	3061.4	-0.49239	0.8091	0.34599
0.456	90.775	-2.975e+05	3060.9	-0.49229	0.81018	0.34736
0.458	90.804	-2.9749e+05	3060.4	-0.4922	0.81125	0.34872
0.46	90.791	-2.9749e+05	3060	-0.4921	0.81232	0.35009
0.462	90.751	-2.9749e+05	3059.5	-0.492	0.8134	0.35146
0.464	90.704	-2.9749e+05	3058.9	-0.4919	0.81447	0.35282
0.466	90.672	-2.9749e+05	3058.4	-0.49034	0.81389	0.35165
0.468	90.678	-2.9749e+05	3057.9	-0.48878	0.8133	0.35048
0.47	90.719	-2.9749e+05	3057.4	-0.48722	0.81272	0.34931
0.472	90.776	-2.975e+05	3056.9	-0.48566	0.81213	0.34814
0.474	90.815	-2.975e+05	3056.4	-0.4841	0.81154	0.34697
0.476	90.816	-2.975e+05	3055.8	-0.48654	0.81037	0.34619
0.478	90.785	-2.9749e+05	3055.2	-0.48898	0.8092	0.34541
0.48	90.735	-2.9749e+05	3054.7	-0.49142	0.80803	0.34463
0.482	90.696	-2.9749e+05	3054.2	-0.49386	0.80686	0.34384
0.484	90.695	-2.9749e+05	3053.6	-0.4963	0.80569	0.34306
0.486	90.728	-2.9749e+05	3053	-0.49395	0.80676	0.34404
0.488	90.778	-2.9749e+05	3052.4	-0.49161	0.80784	0.34502
0.49	90.825	-2.9749e+05	3051.8	-0.48927	0.80891	0.34599
0.492	90.844	-2.9749e+05	3051.2	-0.48693	0.80998	0.34697
0.494	90.824	-2.9749e+05	3050.6	-0.48458	0.81106	0.34794
0.496	90.779	-2.9748e+05	3050	-0.48527	0.81125	0.34746
0.498	90.733	-2.9748e+05	3049.4	-0.48595	0.81145	0.34697
0.5	90.714	-2.9748e+05	3048.8	-0.48663	0.81164	0.34648
0.502	90.732	-2.9748e+05	3048.1	-0.48732	0.81184	0.34599
0.504	90.778	-2.9747e+05	3047.5	-0.488	0.81203	0.3455
0.506	90.831	-2.9748e+05	3046.9	-0.48878	0.81106	0.34511
0.508	90.861	-2.9749e+05	3046.3	-0.48956	0.81008	0.34472
0.51	90.844	-2.9748e+05	3045.7	-0.49034	0.8091	0.34433
0.512	90.798	-2.9748e+05	3045.1	-0.49112	0.80813	0.34394
0.514	90.751	-2.9748e+05	3044.5	-0.4919	0.80715	0.34355
0.516	90.723	-2.9749e+05	3044	-0.492	0.80676	0.34443
0.518	90.73	-2.9749e+05	3043.4	-0.4921	0.80637	0.34531
0.52	90.772	-2.9749e+05	3042.9	-0.4922	0.80598	0.34619
0.522	90.83	-2.9749e+05	3042.3	-0.49229	0.80559	0.34707
0.524	90.873	-2.9749e+05	3041.8	-0.49239	0.8052	0.34794
0.526	90.874	-2.9749e+05	3041.4	-0.492	0.80676	0.34736
0.528	90.833	-2.9749e+05	3040.9	-0.49161	0.80832	0.34677
0.53	90.779	-2.9748e+05	3040.5	-0.49122	0.80988	0.34619
0.532	90.733	-2.9748e+05	3040.1	-0.49083	0.81145	0.3456
0.534	90.729	-2.9749e+05	3039.7	-0.49044	0.81301	0.34502
0.536	90.765	-2.9749e+05	3039.4	-0.49024	0.8132	0.34502
0.538	90.819	-2.9749e+05	3039	-0.49005	0.8134	0.34502
0.54	90.862	-2.9749e+05	3038.7	-0.48985	0.81359	0.34502
0.542	90.87	-2.9748e+05	3038.3	-0.48966	0.81379	0.34502
0.544	90.844	-2.9748e+05	3037.9	-0.48946	0.81398	0.34502
0.546	90.797	-2.9749e+05	3037.7	-0.48966	0.81428	0.34599
0.548	90.752	-2.9749e+05	3037.4	-0.48985	0.81457	0.34697
0.55	90.731	-2.9749e+05	3037.1	-0.49005	0.81486	0.34794
0.552	90.747	-2.9749e+05	3036.9	-0.49024	0.81516	0.34892
0.554	90.798	-2.9749e+05	3036.6	-0.49044	0.81545	0.3499
0.556	90.85	-2.9749e+05	3036.4	-0.48995	0.81506	0.3496
0.558	90.874	-2.9749e+05	3036.2	-0.48946	0.81467	0.34931
0.56	90.858	-2.9748e+05	3036	-0.48898	0.81428	0.34902
0.562	90.813	-2.9748e+05	3035.9	-0.48849	0.81389	0.34872
0.564	90.763	-2.9748e+05	3035.7	-0.488	0.8135	0.34843
0.566	90.728	-2.9749e+05	3035.6	-0.48898	0.81311	0.34872
0.568	90.727	-2.9749e+05	3035.4	-0.48995	0.81272	0.34902
0.57	90.767	-2.9749e+05	3035.3	-0.49093	0.81232	0.34931
0.572	90.821	-2.9749e+05	3035.2	-0.4919	0.81193	0.3496
0.574	90.853	-2.9749e+05	3035.1	-0.49288	0.81154	0.3499
0.576	90.847	-2.9749e+05	3035	-0.49356	0.81028	0.34902
0.578	90.812	-2.9749e+05	3034.9	-0.49425	0.80901	0.34814
0.58	90.764	-2.9749e+05	3034.8	-0.49493	0.80774	0.34726
0.582	90.727	-2.9749e+05	3034.8	-0.49561	0.80647	0.34638
0.584	90.723	-2.975e+05	3034.7	-0.4963	0.8052	0.3455
0.586	90.752	-2.975e+05	3034.6	-0.49649	0.80588	0.34687
0.588	90.798	-2.975e+05	3034.6	-0.49669	0.80657	0.34824
0.59	90.838	-2.975e+05	3034.5	-0.49688	0.80725	0.3496
0.592	90.853	-2.9749e+05	3034.5	-0.49708	0.80793	0.35097
0.594	90.825	-2.9749e+05	3034.4	-0.49727	0.80862	0.35234
0.596	90.769	-2.9749e+05	3034.4	-0.49561	0.8094	0.35126
0.598	90.712	-2.9749e+05	3034.3	-0.49395	0.81018	0.35019
0.6	90.69	-2.9749e+05	3034.3	-0.49229	0.81096	0.34912
0.602	90.7	-2.9749e+05	3034.3	-0.49064	0.81174	0.34804
0.604	90.737	-2.9749e+05	3034.2	-0.48898	0.81252	0.34697
0.606	90.777	-2.9749e+05	3034.2	-0.48976	0.81125	0.34658
0.608	90.798	-2.9749e+05	3034.1	-0.49054	0.80998	0.34619
0.61	90.772	-2.9749e+05	3034.1	-0.49132	0.80871	0.3458
0.612	90.725	-2.9749e+05	3034	-0.4921	0.80744	0.34541
0.614	90.673	-2.9749e+05	3034	-0.49288	0.80618	0.34502
0.616	90.644	-2.9749e+05	3033.9	-0.49308	0.80647	0.3457
0.618	90.657	-2.9749e+05	3033.8	-0.49327	0.80676	0.34638
0.62	90.712	-2.975e+05	3033.7	-0.49347	0.80705	0.34707
0.622	90.773	-2.975e+05	3033.6	-0.49366	0.80735	0.34775
0.624	90.809	-2.975e+05	3033.5	-0.49386	0.80764	0.34843
0.626	90.805	-2.975e+05	3033.5	-0.49298	0.8091	0.34941
0.628	90.772	-2.975e+05	3033.4	-0.4921	0.81057	0.35038
0.63	90.725	-2.9749e+05	3033.3	-0.49122	0.81203	0.35136
0.632	90.689	-2.9749e+05	3033.2	-0.49034	0.8135	0.35234
0.634	90.693	-2.9749e+05	3033	-0.48946	0.81496	0.35331
0.636	90.73	-2.9749e+05	3032.9	-0.48976	0.81389	0.35156
0.638	90.794	-2.975e+05	3032.8	-0.49005	0.81281	0.3498
0.64	90.857	-2.975e+05	3032.7	-0.49034	0.81174	0.34804
0.642	90.881	-2.975e+05	3032.6	-0.49064	0.81067	0.34628
0.644	90.859	-2.975e+05	3032.5	-0.49093	0.80959	0.34453
0.646	90.81	-2.975e+05	3032.4	-0.49093	0.80949	0.34492
0.648	90.759	-2.975e+05	3032.2	-0.49093	0.8094	0.34531
0.65	90.735	-2.9749e+05	3032	-0.49093	0.8093	0.3457
0.652	90.757	-2.9749e+05	3031.9	-0.49093	0.8092	0.34609
0.654	90.807	-2.9749e+05	3031.7	-0.49093	0.8091	0.34648
0.656	90.856	-2.975e+05	3031.6	-0.49083	0.80949	0.34668
0.658	90.884	-2.9749e+05	3031.4	-0.49073	0.80988	0.34687
0.66	90.874	-2.9749e+05	3031.3	-0.49064	0.81028	0.34707
0.662	90.831	-2.9749e+05	3031.1	-0.49054	0.81067	0.34726
0.664	90.779	-2.975e+05	3030.9	-0.49044	0.81106	0.34746
0.666	90.749	-2.9749e+05	3030.8	-0.49083	0.80969	0.34785
0.668	90.758	-2.9749e+05	3030.6	-0.49122	0.80832	0.34824
0.67	90.797	-2.9749e+05	3030.5	-0.49161	0.80696	0.34863
0.672	90.849	-2.9749e+05	3030.3	-0.492	0.80559	0.34902
0.674	90.889	-2.975e+05	3030.1	-0.49239	0.80422	0.34941
0.676	90.888	-2.9751e+05	3029.9	-0.49181	0.80559	0.34853
0.678	90.856	-2.975e+05	3029.7	-0.49122	0.80696	0.34765
0.68	90.805	-2.975e+05	3029.5	-0.49064	0.80832	0.34677
0.682	90.756	-2.975e+05	3029.4	-0.49005	0.80969	0.34589
0.684	90.746	-2.9751e+05	3029.2	-0.48946	0.81106	0.34502
0.686	90.781	-2.975e+05	3029	-0.48888	0.81106	0.3456
0.688	90.838	-2.975e+05	3028.9	-0.48829	0.81106	0.34619
0.69	90.88	-2.975e+05	3028.7	-0.48771	0.81106	0.34677
0.692	90.89	-2.975e+05	3028.5	-0.48712	0.81106	0.34736
0.694	90.868	-2.975e+05	3028.3	-0.48654	0.81106	0.34794
0.696	90.812	-2.975e+05	3028.2	-0.48654	0.81125	0.34794
0.698	90.765	-2.975e+05	3028	-0.48654	0.81145	0.34794
0.7	90.748	-2.975e+05	3027.8	-0.48654	0.81164	0.34794
0.702	90.772	-2.975e+05	3027.7	-0.48654	0.81184	0.34794
0.704	90.83	-2.9749e+05	3027.5	-0.48654	0.81203	0.34794
0.706	90.889	-2.975e+05	3027.3	-0.4878	0.81232	0.34882
0.708	90.908	-2.975e+05	3027.1	-0.48907	0.81262	0.3497
0.71	90.899	-2.975e+05	3026.9	-0.49034	0.81291	0.35058
0.712	90.857	-2.9751e+05	3026.8	-0.49161	0.8132	0.35146
0.714	90.806	-2.9751e+05	3026.6	-0.49288	0.8135	0.35234
0.716	90.768	-2.975e+05	3026.4	-0.49405	0.81232	0.35038
0.718	90.772	-2.975e+05	3026.1	-0.49522	0.81115	0.34843
0.72	90.8	-2.9749e+05	3025.9	-0.49639	0.80998	0.34648
0.722	90.821	-2.975e+05	3025.8	-0.49756	0.80881	0.34453
0.724	90.808	-2.9751e+05	3025.6	-0.49874	0.80764	0.34258
0.726	90.743	-2.975e+05	3025.4	-0.49727	0.80793	0.34316
0.728	90.636	-2.975e+05	3025.2	-0.49581	0.80823	0.34375
0.73	90.487	-2.975e+05	3025	-0.49434	0.80852	0.34433
0.732	90.309	-2.975e+05	3024.8	-0.49288	0.80881	0.34492
0.734	90.151	-2.975e+05	3024.6	-0.49142	0.8091	0.3455
0.736	90.057	-2.975e+05	3024.4	-0.49083	0.80979	0.34628
0.738	90.038	-2.975e+05	3024.2	-0.49024	0.81047	0.34707
0.74	90.079	-2.975e+05	3024	-0.48966	0.81115	0.34785
0.742	90.149	-2.9751e+05	3023.8	-0.48907	0.81184	0.34863
0.744	90.242	-2.9751e+05	3023.6	-0.48849	0.81252	0.34941
0.746	90.365	-2.9751e+05	3023.4	-0.48888	0.81184	0.34833
0.748	90.498	-2.9751e+05	3023.2	-0.48927	0.81115	0.34726
0.75	90.619	-2.9751e+05	3023	-0.48966	0.81047	0.34619
0.752	90.719	-2.9751e+05	3022.7	-0.49005	0.80979	0.34511
0.754	90.807	-2.9751e+05	3022.5	-0.49044	0.8091	0.34404
0.756	90.881	-2.9751e+05	3022.3	-0.49132	0.8091	0.34433
0.758	90.923	-2.975e+05	3022.1	-0.4922	0.8091	0.34463
0.76	90.927	-2.975e+05	3022	-0.49308	0.8091	0.34492
0.762	90.899	-2.975e+05	3021.8	-0.49395	0.8091	0.34521
0.764	90.853	-2.975e+05	3021.6	-0.49483	0.8091	0.3455
0.766	90.826	-2.975e+05	3021.4	-0.49337	0.81008	0.34648
0.768	90.837	-2.975e+05	3021.2	-0.4919	0.81106	0.34746
0.77	90.877	-2.975e+05	3021.1	-0.49044	0.81203	0.34843
0.772	90.94	-2.975e+05	3020.9	-0.48898	0.81301	0.34941
0.774	90.984	-2.9751e+05	3020.8	-0.48751	0.81398	0.35038
0.776	90.986	-2.9751e+05	3020.6	-0.4882	0.8135	0.35038
0.778	90.947	-2.9751e+05	3020.5	-0.48888	0.81301	0.35038
0.78	90.887	-2.9751e+05	3020.3	-0.48956	0.81252	0.35038
0.782	90.831	-2.9751e+05	3020.1	-0.49024	0.81203	0.35038
0.784	90.811	-2.975e+05	3019.9	-0.49093	0.81154	0.35038
0.786	90.833	-2.9751e+05	3019.8	-0.49024	0.81291	0.35038
0.788	90.886	-2.9751e+05	3019.6	-0.48956	0.81428	0.35038
0.79	90.931	-2.9751e+05	3019.5	-0.48888	0.81564	0.35038
0.792	90.942	-2.9751e+05	3019.4	-0.4882	0.81701	0.35038
0.794	90.914	-2.9751e+05	3019.3	-0.48751	0.81838	0.35038
0.796	90.857	-2.9751e+05	3019.2	-0.4881	0.81867	0.34931
0.798	90.798	-2.9751e+05	3019.2	-0.48868	0.81896	0.34824
0.8	90.773	-2.975e+05	3019.1	-0.48927	0.81925	0.34716
0.802	90.786	-2.9751e+05	3018.9	-0.48985	0.81955	0.34609
0.804	90.83	-2.9751e+05	3018.8	-0.49044	0.81984	0.34502
0.806	90.884	-2.9751e+05	3018.6	-0.49054	0.81994	0.34472
0.808	90.909	-2.9751e+05	3018.4	-0.49064	0.82004	0.34443
0.81	90.895	-2.9751e+05	3018.3	-0.49073	0.82013	0.34414
0.812	90.848	-2.975e+05	3018.2	-0.49083	0.82023	0.34384
0.814	90.791	-2.975e+05	3018	-0.49093	0.82033	0.34355
0.816	90.753	-2.975e+05	3017.9	-0.49142	0.81984	0.34424
0.818	90.76	-2.975e+05	3017.7	-0.4919	0.81935	0.34492
0.82	90.799	-2.975e+05	3017.6	-0.49239	0.81886	0.3456
0.822	90.846	-2.975e+05	3017.6	-0.49288	0.81838	0.34628
0.824	90.881	-2.975e+05	3017.5	-0.49337	0.81789	0.34697
0.826	90.885	-2.9751e+05	3017.4	-0.49386	0.81779	0.34589
0.828	90.857	-2.9751e+05	3017.3	-0.49434	0.81769	0.34482
0.83	90.806	-2.9751e+05	3017.2	-0.49483	0.8176	0.34375
0.832	90.757	-2.975e+05	3017.2	-0.49532	0.8175	0.34267
0.834	90.747	-2.9751e+05	3017.1	-0.49581	0.8174	0.3416
0.836	90.776	-2.9751e+05	3016.9	-0.49522	0.81633	0.34248
0.838	90.827	-2.9751e+05	3016.8	-0.49464	0.81525	0.34336
0.84	90.874	-2.975e+05	3016.6	-0.49405	0.81418	0.34424
0.842	90.89	-2.975e+05	3016.5	-0.49347	0.81311	0.34511
0.844	90.866	-2.975e+05	3016.4	-0.49288	0.81203	0.34599
0.846	90.815	-2.975e+05	3016.2	-0.49122	0.81145	0.34531
0.848	90.762	-2.975e+05	3016	-0.48956	0.81086	0.34463
0.85	90.735	-2.9751e+05	3015.8	-0.4879	0.81028	0.34394
0.852	90.745	-2.9751e+05	3015.6	-0.48624	0.80969	0.34326
0.854	90.789	-2.9751e+05	3015.4	-0.48458	0.8091	0.34258
0.856	90.842	-2.9751e+05	3015.4	-0.48449	0.8091	0.34238
0.858	90.868	-2.9751e+05	3015.4	-0.48439	0.8091	0.34219
0.86	90.852	-2.9751e+05	3015.7	-0.48429	0.8091	0.34199
0.862	90.805	-2.975e+05	3016.4	-0.48419	0.8091	0.3418
0.864	90.749	-2.975e+05	3017	-0.4841	0.8091	0.3416
0.866	90.713	-2.975e+05	3018.3	-0.48458	0.80881	0.34228
0.868	90.716	-2.9751e+05	3019.7	-0.48507	0.80852	0.34297
0.87	90.763	-2.9751e+05	3021.3	-0.48556	0.80823	0.34365
0.872	90.816	-2.9751e+05	3023.1	-0.48605	0.80793	0.34433
0.874	90.851	-2.9751e+05	3024.9	-0.48654	0.80764	0.34502
0.876	90.849	-2.9751e+05	3027.1	-0.48683	0.80793	0.34443
0.878	90.808	-2.9751e+05	3029.2	-0.48712	0.80823	0.34384
0.88	90.746	-2.9751e+05	3031.3	-0.48741	0.80852	0.34326
0.882	90.7	-2.9751e+05	3033.5	-0.48771	0.80881	0.34267
0.884	90.693	-2.9751e+05	3035.7	-0.488	0.8091	0.34209
0.886	90.709	-2.9751e+05	3037.8	-0.488	0.80871	0.34219
0.888	90.759	-2.9751e+05	3039.8	-0.488	0.80832	0.34228
0.89	90.805	-2.975e+05	3041.8	-0.488	0.80793	0.34238
0.892	90.81	-2.975e+05	3043.7	-0.488	0.80754	0.34248
0.894	90.785	-2.975e+05	3045.7	-0.488	0.80715	0.34258
0.896	90.731	-2.975e+05	3047.4	-0.48751	0.80637	0.34345
0.898	90.676	-2.975e+05	3049.1	-0.48702	0.80559	0.34433
0.9	90.651	-2.975e+05	3050.7	-0.48654	0.80481	0.34521
0.902	90.663	-2.975e+05	3052.1	-0.48605	0.80403	0.34609
0.904	90.704	-2.975e+05	3053.6	-0.48556	0.80325	0.34697
0.906	90.749	-2.975e+05	3054.8	-0.48644	0.80383	0.34619
0.908	90.773	-2.975e+05	3056.1	-0.48732	0.80442	0.34541
0.91	90.759	-2.975e+05	3057.3	-0.4882	0.805	0.34463
0.912	90.708	-2.975e+05	3058.4	-0.48907	0.80559	0.34384
0.914	90.646	-2.975e+05	3059.6	-0.48995	0.80618	0.34306
0.916	90.605	-2.975e+05	3060.5	-0.49132	0.80481	0.34531
0.918	90.605	-2.9749e+05	3061.4	-0.49268	0.80344	0.34755
0.92	90.639	-2.9749e+05	3062.3	-0.49405	0.80208	0.3498
0.922	90.683	-2.9749e+05	3063.2	-0.49542	0.80071	0.35204
0.924	90.712	-2.9749e+05	3064	-0.49678	0.79934	0.35429
0.926	90.714	-2.9749e+05	3064.7	-0.49766	0.80032	0.35419
0.928	90.682	-2.9749e+05	3065.4	-0.49854	0.8013	0.35409
0.93	90.625	-2.9749e+05	3066.1	-0.49942	0.80227	0.354
0.932	90.575	-2.9749e+05	3066.7	-0.5003	0.80325	0.3539
0.934	90.556	-2.9749e+05	3067.3	-0.50118	0.80422	0.3538
0.936	90.583	-2.9749e+05	3067.7	-0.50059	0.80305	0.35351
0.938	90.628	-2.9748e+05	3068.2	-0.5	0.80188	0.35321
0.94	90.674	-2.9748e+05	3068.6	-0.49942	0.80071	0.35292
0.942	90.687	-2.9748e+05	3068.9	-0.49883	0.79954	0.35263
0.944	90.659	-2.9748e+05	3069.3	-0.49825	0.79837	0.35234
0.946	90.597	-2.9748e+05	3069.6	-0.49756	0.79915	0.35077
0.948	90.539	-2.9748e+05	3069.8	-0.49688	0.79993	0.34921
0.95	90.513	-2.9748e+05	3070	-0.4962	0.80071	0.34765
0.952	90.531	-2.9748e+05	3070.2	-0.49552	0.80149	0.34609
0.954	90.573	-2.9748e+05	3070.3	-0.49483	0.80227	0.34453
0.956	90.629	-2.9748e+05	3070.4	-0.49512	0.80217	0.34521
0.958	90.657	-2.9747e+05	3070.5	-0.49542	0.80208	0.34589
0.96	90.646	-2.9747e+05	3070.6	-0.49571	0.80198	0.34658
0.962	90.606	-2.9747e+05	3070.6	-0.496	0.80188	0.34726
0.964	90.548	-2.9747e+05	3070.5	-0.4963	0.80178	0.34794
0.966	90.513	-2.9747e+05	3070.4	-0.496	0.80217	0.34736
0.968	90.522	-2.9746e+05	3070.3	-0.49571	0.80256	0.34677
0.97	90.567	-2.9746e+05	3070.2	-0.49542	0.80296	0.34619
0.972	90.63	-2.9745e+05	3070.1	-0.49512	0.80335	0.3456
0.974	90.674	-2.9745e+05	3070	-0.49483	0.80374	0.34502
0.976	90.678	-2.9745e+05	3069.8	-0.49512	0.80442	0.34482
0.978	90.652	-2.9745e+05	3069.6	-0.49542	0.8051	0.34463
0.98	90.605	-2.9746e+05	3069.4	-0.49571	0.80579	0.34443
0.982	90.563	-2.9745e+05	3069.1	-0.496	0.80647	0.34424
0.984	90.558	-2.9745e+05	3068.8	-0.4963	0.80715	0.34404
0.986	90.593	-2.9746e+05	3068.6	-0.49708	0.80754	0.34365
0.988	90.652	-2.9746e+05	3068.3	-0.49786	0.80793	0.34326
0.99	90.702	-2.9746e+05	3068	-0.49864	0.80832	0.34287
0.992	90.718	-2.9745e+05	3067.6	-0.49942	0.80871	0.34248
0.994	90.699	-2.9745e+05	3067.3	-0.5002	0.8091	0.34209
0.996	90.66	-2.9745e+05	3066.9	-0.5002	0.80862	0.34209
0.998	90.618	-2.9745e+05	3066.5	-0.5002	0.80813	0.34209
1	90.6	-2.9745e+05	3066.1	-0.5002	0.80764	0.34209
1.002	90.619	-2.9745e+05	3065.7	-0.5002	0.80715	0.34209
1.004	90.661	-2.9745e+05	3065.2	-0.5002	0.80666	0.34209
1.006	90.712	-2.9745e+05	3064.8	-0.49971	0.80764	0.34287
1.008	90.746	-2.9745e+05	3064.3	-0.49922	0.80862	0.34365
1.01	90.743	-2.9745e+05	3063.9	-0.49874	0.80959	0.34443
1.012	90.709	-2.9745e+05	3063.4	-0.49825	0.81057	0.34521
1.014	90.66	-2.9744e+05	3063	-0.49776	0.81154	0.34599
1.016	90.624	-2.9744e+05	3062.5	-0.4963	0.81242	0.34599
1.018	90.626	-2.9744e+05	3061.9	-0.49483	0.8133	0.34599
1.02	90.666	-2.9744e+05	3061.4	-0.49337	0.81418	0.34599
1.022	90.718	-2.9744e+05	3060.9	-0.4919	0.81506	0.34599
1.024	90.762	-2.9744e+05	3060.3	-0.49044	0.81594	0.34599
1.026	90.767	-2.9744e+05	3059.8	-0.48976	0.81603	0.34609
1.028	90.736	-2.9744e+05	3059.2	-0.48907	0.81613	0.34619
1.03	90.686	-2.9744e+05	3058.7	-0.48839	0.81623	0.34628
1.032	90.643	-2.9744e+05	3058.1	-0.48771	0.81633	0.34638
1.034	90.625	-2.9744e+05	3057.5	-0.48702	0.81642	0.34648
1.036	90.653	-2.9744e+05	3056.9	-0.48722	0.81652	0.34707
1.038	90.713	-2.9744e+05	3056.2	-0.48741	0.81662	0.34765
1.04	90.756	-2.9743e+05	3055.6	-0.48761	0.81672	0.34824
1.042	90.774	-2.9744e+05	3054.9	-0.4878	0.81681	0.34882
1.044	90.768	-2.9744e+05	3054.3	-0.488	0.81691	0.34941
1.046	90.717	-2.9744e+05	3053.5	-0.48946	0.81525	0.3498
1.048	90.663	-2.9745e+05	3052.8	-0.49093	0.81359	0.35019
1.05	90.638	-2.9744e+05	3052.2	-0.49239	0.81193	0.35058
1.052	90.656	-2.9744e+05	3051.5	-0.49386	0.81028	0.35097
1.054	90.705	-2.9744e+05	3050.9	-0.49532	0.80862	0.35136
1.056	90.759	-2.9743e+05	3050.2	-0.49415	0.81018	0.35136
1.058	90.793	-2.9744e+05	3049.6	-0.49298	0.81174	0.35136
1.06	90.779	-2.9744e+05	3048.9	-0.49181	0.8133	0.35136
1.062	90.732	-2.9743e+05	3048.3	-0.49064	0.81486	0.35136
1.064	90.683	-2.9743e+05	3047.7	-0.48946	0.81642	0.35136
1.066	90.652	-2.9743e+05	3047.1	-0.49034	0.81467	0.35107
1.068	90.657	-2.9743e+05	3046.6	-0.49122	0.81291	0.35077
1.07	90.694	-2.9743e+05	3046	-0.4921	0.81115	0.35048
1.072	90.744	-2.9743e+05	3045.5	-0.49298	0.8094	0.35019
1.074	90.785	-2.9744e+05	3044.9	-0.49386	0.80764	0.3499
1.076	90.794	-2.9744e+05	3044.5	-0.49337	0.80901	0.35087
1.078	90.758	-2.9744e+05	3044	-0.49288	0.81037	0.35185
1.08	90.71	-2.9744e+05	3043.5	-0.49239	0.81174	0.35282
1.082	90.674	-2.9744e+05	3043.1	-0.4919	0.81311	0.3538
1.084	90.663	-2.9743e+05	3042.6	-0.49142	0.81447	0.35478
1.086	90.687	-2.9744e+05	3042.2	-0.49083	0.81408	0.35429
1.088	90.737	-2.9744e+05	3041.9	-0.49024	0.81369	0.3538
1.09	90.784	-2.9744e+05	3041.5	-0.48966	0.8133	0.35331
1.092	90.799	-2.9744e+05	3041.1	-0.48907	0.81291	0.35282
1.094	90.786	-2.9744e+05	3040.7	-0.48849	0.81252	0.35234
1.096	90.746	-2.9743e+05	3040.4	-0.48898	0.81203	0.35185
1.098	90.696	-2.9743e+05	3040.1	-0.48946	0.81154	0.35136
1.1	90.671	-2.9743e+05	3039.8	-0.48995	0.81106	0.35087
1.102	90.687	-2.9744e+05	3039.5	-0.49044	0.81057	0.35038
1.104	90.736	-2.9745e+05	3039.2	-0.49093	0.81008	0.3499
1.106	90.786	-2.9745e+05	3038.9	-0.49171	0.81028	0.35058
1.108	90.807	-2.9745e+05	3038.7	-0.49249	0.81047	0.35126
1.11	90.785	-2.9744e+05	3038.4	-0.49327	0.81067	0.35195
1.112	90.742	-2.9743e+05	3038.2	-0.49405	0.81086	0.35263
1.114	90.694	-2.9742e+05	3038	-0.49483	0.81106	0.35331
1.116	90.657	-2.9742e+05	3037.9	-0.49561	0.81096	0.35351
1.118	90.656	-2.9742e+05	3037.7	-0.49639	0.81086	0.3537
1.12	90.699	-2.9742e+05	3037.5	-0.49717	0.81076	0.3539
1.122	90.752	-2.9742e+05	3037.4	-0.49796	0.81067	0.35409
1.124	90.791	-2.9743e+05	3037.3	-0.49874	0.81057	0.35429
1.126	90.791	-2.9743e+05	3037.2	-0.49766	0.81106	0.35429
1.128	90.751	-2.9743e+05	3037.1	-0.49659	0.81154	0.35429
1.13	90.705	-2.9743e+05	3037	-0.49552	0.81203	0.35429
1.132	90.663	-2.9743e+05	3036.9	-0.49444	0.81252	0.35429
1.134	90.657	-2.9743e+05	3036.8	-0.49337	0.81301	0.35429
1.136	90.686	-2.9743e+05	3036.8	-0.49327	0.8132	0.3537
1.138	90.729	-2.9743e+05	3036.7	-0.49317	0.8134	0.35312
1.14	90.776	-2.9743e+05	3036.7	-0.49308	0.81359	0.35253
1.142	90.789	-2.9743e+05	3036.6	-0.49298	0.81379	0.35195
1.144	90.759	-2.9743e+05	3036.6	-0.49288	0.81398	0.35136
1.146	90.7	-2.9743e+05	3036.5	-0.49229	0.81476	0.35097
1.148	90.64	-2.9742e+05	3036.5	-0.49171	0.81555	0.35058
1.15	90.615	-2.9743e+05	3036.5	-0.49112	0.81633	0.35019
1.152	90.615	-2.9743e+05	3036.4	-0.49054	0.81711	0.3498
1.154	90.646	-2.9743e+05	3036.4	-0.48995	0.81789	0.34941
1.156	90.689	-2.9743e+05	3036.3	-0.49015	0.8175	0.34951
1.158	90.716	-2.9743e+05	3036.3	-0.49034	0.81711	0.3496
1.16	90.719	-2.9743e+05	3036.2	-0.49054	0.81672	0.3497
1.162	90.694	-2.9744e+05	3036.2	-0.49073	0.81633	0.3498
1.164	90.658	-2.9744e+05	3036.1	-0.49093	0.81594	0.3499
1.166	90.627	-2.9743e+05	3036.1	-0.49103	0.81633	0.34912
1.168	90.624	-2.9743e+05	3036	-0.49112	0.81672	0.34833
1.17	90.662	-2.9743e+05	3036	-0.49122	0.81711	0.34755
1.172	90.718	-2.9743e+05	3035.9	-0.49132	0.8175	0.34677
1.174	90.763	-2.9744e+05	3035.9	-0.49142	0.81789	0.34599
1.176	90.778	-2.9744e+05	3035.8	-0.49161	0.81769	0.34677
1.178	90.758	-2.9744e+05	3035.7	-0.49181	0.8175	0.34755
1.18	90.712	-2.9743e+05	3035.6	-0.492	0.8173	0.34833
1.182	90.673	-2.9743e+05	3035.6	-0.4922	0.81711	0.34912
1.184	90.675	-2.9743e+05	3035.5	-0.49239	0.81691	0.3499
1.186	90.71	-2.9743e+05	3035.4	-0.49122	0.81711	0.3498
1.188	90.763	-2.9744e+05	3035.3	-0.49005	0.8173	0.3497
1.19	90.81	-2.9743e+05	3035.1	-0.48888	0.8175	0.3496
1.192	90.821	-2.9742e+05	3035	-0.48771	0.81769	0.34951
1.194	90.806	-2.9742e+05	3034.9	-0.48654	0.81789	0.34941
1.196	90.766	-2.9743e+05	3034.8	-0.4881	0.81711	0.3498
1.198	90.714	-2.9744e+05	3034.7	-0.48966	0.81633	0.35019
1.2	90.686	-2.9744e+05	3034.5	-0.49122	0.81555	0.35058
1.202	90.697	-2.9744e+05	3034.4	-0.49278	0.81476	0.35097
1.204	90.741	-2.9743e+05	3034.3	-0.49434	0.81398	0.35136
1.206	90.811	-2.9743e+05	3034.1	-0.49327	0.81428	0.35097
1.208	90.846	-2.9743e+05	3034	-0.4922	0.81457	0.35058
1.21	90.836	-2.9744e+05	3033.9	-0.49112	0.81486	0.35019
1.212	90.796	-2.9745e+05	3033.7	-0.49005	0.81516	0.3498
1.214	90.736	-2.9745e+05	3033.6	-0.48898	0.81545	0.34941
1.216	90.701	-2.9745e+05	3033.5	-0.48829	0.81516	0.34941
1.218	90.707	-2.9744e+05	3033.3	-0.48761	0.81486	0.34941
1.22	90.734	-2.9744e+05	3033.1	-0.48693	0.81457	0.34941
1.222	90.787	-2.9744e+05	3032.9	-0.48624	0.81428	0.34941
1.224	90.837	-2.9744e+05	3032.7	-0.48556	0.81398	0.34941
1.226	90.846	-2.9744e+05	3032.5	-0.48449	0.8132	0.34872
1.228	90.808	-2.9744e+05	3032.3	-0.48341	0.81242	0.34804
1.23	90.753	-2.9744e+05	3032.1	-0.48234	0.81164	0.34736
1.232	90.707	-2.9745e+05	3032	-0.48127	0.81086	0.34668
1.234	90.7	-2.9744e+05	3031.8	-0.48019	0.81008	0.34599
1.236	90.727	-2.9743e+05	3031.6	-0.48117	0.81047	0.34589
1.238	90.776	-2.9744e+05	3031.3	-0.48214	0.81086	0.3458
1.24	90.828	-2.9744e+05	3031.1	-0.48312	0.81125	0.3457
1.242	90.852	-2.9744e+05	3030.9	-0.4841	0.81164	0.3456
1.244	90.828	-2.9743e+05	3030.8	-0.48507	0.81203	0.3455
1.246	90.781	-2.9743e+05	3030.6	-0.48556	0.81232	0.3455
1.248	90.733	-2.9743e+05	3030.3	-0.48605	0.81262	0.3455
1.25	90.708	-2.9743e+05	3030.2	-0.48654	0.81291	0.3455
1.252	90.724	-2.9743e+05	3030	-0.48702	0.8132	0.3455
1.254	90.771	-2.9743e+05	3029.8	-0.48751	0.8135	0.3455
1.256	90.826	-2.9742e+05	3029.6	-0.48702	0.81428	0.34687
1.258	90.858	-2.9742e+05	3029.4	-0.48654	0.81506	0.34824
1.26	90.851	-2.9742e+05	3029.2	-0.48605	0.81584	0.3496
1.262	90.807	-2.9742e+05	3028.9	-0.48556	0.81662	0.35097
1.264	90.741	-2.9743e+05	3028.7	-0.48507	0.8174	0.35234
1.266	90.682	-2.9743e+05	3028.5	-0.48654	0.81662	0.35263
1.268	90.648	-2.9742e+05	3028.3	-0.488	0.81584	0.35292
1.27	90.631	-2.9743e+05	3028.1	-0.48946	0.81506	0.35321
1.272	90.618	-2.9743e+05	3027.8	-0.49093	0.81428	0.35351
1.274	90.58	-2.9742e+05	3027.6	-0.49239	0.8135	0.3538
1.276	90.478	-2.9742e+05	3027.4	-0.49171	0.81389	0.3537
1.278	90.327	-2.9742e+05	3027.1	-0.49103	0.81428	0.3536
1.28	90.17	-2.9742e+05	3026.9	-0.49034	0.81467	0.35351
1.282	90.054	-2.9742e+05	3026.7	-0.48966	0.81506	0.35341
1.284	90.03	-2.9743e+05	3026.5	-0.48898	0.81545	0.35331
1.286	90.099	-2.9743e+05	3026.3	-0.4882	0.81486	0.35282
1.288	90.241	-2.9743e+05	3026	-0.48741	0.81428	0.35234
1.29	90.451	-2.9743e+05	3025.8	-0.48663	0.81369	0.35185
1.292	90.632	-2.9744e+05	3025.6	-0.48585	0.81311	0.35136
1.294	90.737	-2.9743e+05	3025.4	-0.48507	0.81252	0.35087
1.296	90.765	-2.9742e+05	3025.2	-0.48673	0.81252	0.35136
1.298	90.751	-2.9742e+05	3024.9	-0.48839	0.81252	0.35185
1.3	90.748	-2.9742e+05	3024.7	-0.49005	0.81252	0.35234
1.302	90.784	-2.9742e+05	3024.5	-0.49171	0.81252	0.35282
1.304	90.849	-2.9742e+05	3024.3	-0.49337	0.81252	0.35331
1.306	90.914	-2.9742e+05	3024	-0.49151	0.81154	0.35204
1.308	90.959	-2.9743e+05	3023.8	-0.48966	0.81057	0.35077
1.31	90.948	-2.9743e+05	3023.6	-0.4878	0.80959	0.34951
1.312	90.899	-2.9742e+05	3023.5	-0.48595	0.80862	0.34824
1.314	90.842	-2.9743e+05	3023.3	-0.4841	0.80764	0.34697
1.316	90.801	-2.9743e+05	3023.1	-0.484	0.80735	0.34609
1.318	90.802	-2.9742e+05	3022.9	-0.4839	0.80705	0.34521
1.32	90.839	-2.9741e+05	3022.6	-0.4838	0.80676	0.34433
1.322	90.89	-2.9742e+05	3022.4	-0.48371	0.80647	0.34345
1.324	90.926	-2.9742e+05	3022.1	-0.48361	0.80618	0.34258
1.326	90.919	-2.9742e+05	3021.9	-0.48546	0.80647	0.34287
1.328	90.881	-2.9742e+05	3021.6	-0.48732	0.80676	0.34316
1.33	90.825	-2.9742e+05	3021.4	-0.48917	0.80705	0.34345
1.332	90.774	-2.9742e+05	3021.2	-0.49103	0.80735	0.34375
1.334	90.756	-2.9742e+05	3021	-0.49288	0.80764	0.34404
1.336	90.774	-2.9742e+05	3020.9	-0.49005	0.80813	0.34472
1.338	90.82	-2.9742e+05	3020.7	-0.48722	0.80862	0.34541
1.34	90.867	-2.9742e+05	3020.5	-0.48439	0.8091	0.34609
1.342	90.882	-2.9742e+05	3020.3	-0.48156	0.80959	0.34677
1.344	90.859	-2.9742e+05	3020.1	-0.47873	0.81008	0.34746
1.346	90.809	-2.9742e+05	3019.9	-0.47912	0.8091	0.34687
1.348	90.756	-2.9743e+05	3019.7	-0.47951	0.80813	0.34628
1.35	90.731	-2.9743e+05	3019.4	-0.4799	0.80715	0.3457
1.352	90.748	-2.9743e+05	3019.1	-0.48029	0.80618	0.34511
1.354	90.791	-2.9742e+05	3018.8	-0.48068	0.8052	0.34453
1.356	90.839	-2.9741e+05	3018.6	-0.4841	0.8051	0.34384
1.358	90.872	-2.9742e+05	3018.4	-0.48751	0.805	0.34316
1.36	90.862	-2.9743e+05	3018.1	-0.49093	0.80491	0.34248
1.362	90.815	-2.9742e+05	3017.9	-0.49434	0.80481	0.3418
1.364	90.758	-2.9742e+05	3017.8	-0.49776	0.80471	0.34111
1.366	90.723	-2.9742e+05	3017.6	-0.49688	0.8054	0.34043
1.368	90.724	-2.9741e+05	3017.5	-0.496	0.80608	0.33975
1.37	90.755	-2.9741e+05	3017.4	-0.49512	0.80676	0.33906
1.372	90.807	-2.9742e+05	3017.3	-0.49425	0.80744	0.33838
1.374	90.848	-2.9742e+05	3017.2	-0.49337	0.80813	0.3377
1.376	90.849	-2.9742e+05	3017	-0.49376	0.80784	0.33799
1.378	90.818	-2.9742e+05	3016.9	-0.49415	0.80754	0.33828
1.38	90.767	-2.9742e+05	3016.7	-0.49454	0.80725	0.33857
1.382	90.716	-2.9742e+05	3016.5	-0.49493	0.80696	0.33887
1.384	90.694	-2.9742e+05	3016.2	-0.49532	0.80666	0.33916
1.386	90.718	-2.9742e+05	3016	-0.49376	0.80754	0.34014
1.388	90.774	-2.9742e+05	3015.8	-0.4922	0.80842	0.34111
1.39	90.83	-2.9743e+05	3015.5	-0.49064	0.8093	0.34209
1.392	90.848	-2.9743e+05	3015.3	-0.48907	0.81018	0.34306
1.394	90.823	-2.9742e+05	3015	-0.48751	0.81106	0.34404
1.396	90.781	-2.9741e+05	3014.8	-0.4881	0.81057	0.34394
1.398	90.729	-2.9742e+05	3014.6	-0.48868	0.81008	0.34384
1.4	90.703	-2.9742e+05	3014.5	-0.48927	0.80959	0.34375
1.402	90.716	-2.9741e+05	3014.5	-0.48985	0.8091	0.34365
1.404	90.757	-2.9741e+05	3014.5	-0.49044	0.80862	0.34355
1.406	90.813	-2.9742e+05	3015	-0.49034	0.8092	0.34345
1.408	90.847	-2.9743e+05	3015.5	-0.49024	0.80979	0.34336
1.41	90.841	-2.9743e+05	3016.3	-0.49015	0.81037	0.34326
1.412	90.795	-2.9743e+05	3017.6	-0.49005	0.81096	0.34316
1.414	90.742	-2.9742e+05	3018.9	-0.48995	0.81154	0.34306
1.416	90.708	-2.9742e+05	3020.8	-0.48966	0.81232	0.34384
1.418	90.706	-2.9742e+05	3022.6	-0.48937	0.81311	0.34463
1.42	90.738	-2.9742e+05	3024.6	-0.48907	0.81389	0.34541
1.422	90.785	-2.9742e+05	3026.7	-0.48878	0.81467	0.34619
1.424	90.822	-2.9742e+05	3028.8	-0.48849	0.81545	0.34697
1.426	90.826	-2.9742e+05	3030.8	-0.48829	0.81525	0.34638
1.428	90.79	-2.9742e+05	3032.9	-0.4881	0.81506	0.3458
1.43	90.735	-2.9742e+05	3034.9	-0.4879	0.81486	0.34521
1.432	90.685	-2.9742e+05	3036.9	-0.48771	0.81467	0.34463
1.434	90.663	-2.9742e+05	3039	-0.48751	0.81447	0.34404
1.436	90.68	-2.9743e+05	3040.8	-0.48741	0.81437	0.34453
1.438	90.725	-2.9741e+05	3042.7	-0.48732	0.81428	0.34502
1.44	90.772	-2.974e+05	3044.4	-0.48722	0.81418	0.3455
1.442	90.787	-2.9741e+05	3046.1	-0.48712	0.81408	0.34599
1.444	90.758	-2.9741e+05	3047.8	-0.48702	0.81398	0.34648
1.446	90.704	-2.9741e+05	3049.3	-0.48712	0.81252	0.3456
1.448	90.647	-2.9741e+05	3050.8	-0.48722	0.81106	0.34472
1.45	90.614	-2.9741e+05	3052.2	-0.48732	0.80959	0.34384
1.452	90.623	-2.9741e+05	3053.4	-0.48741	0.80813	0.34297
1.454	90.662	-2.974e+05	3054.7	-0.48751	0.80666	0.34209
1.456	90.71	-2.974e+05	3055.9	-0.48654	0.80754	0.34326
1.458	90.735	-2.974e+05	3057	-0.48556	0.80842	0.34443
1.46	90.724	-2.9739e+05	3058.2	-0.48458	0.8093	0.3456
1.462	90.675	-2.9739e+05	3059.2	-0.48361	0.81018	0.34677
1.464	90.617	-2.9739e+05	3060.3	-0.48263	0.81106	0.34794
1.466	90.571	-2.974e+05	3061.2	-0.48332	0.81028	0.34687
1.468	90.561	-2.974e+05	3062.1	-0.484	0.80949	0.3458
1.47	90.596	-2.9739e+05	3063	-0.48468	0.80871	0.34472
1.472	90.645	-2.9739e+05	3063.8	-0.48536	0.80793	0.34365
1.474	90.686	-2.9739e+05	3064.6	-0.48605	0.80715	0.34258
1.476	90.685	-2.9739e+05	3065.3	-0.48751	0.80881	0.34492
1.478	90.654	-2.9739e+05	3066	-0.48898	0.81047	0.34726
1.48	90.603	-2.9739e+05	3066.6	-0.49044	0.81213	0.3496
1.482	90.548	-2.9739e+05	3067.2	-0.4919	0.81379	0.35195
1.484	90.53	-2.9739e+05	3067.7	-0.49337	0.81545	0.35429
1.486	90.554	-2.9738e+05	3068.2	-0.49298	0.81545	0.35439
1.488	90.601	-2.9738e+05	3068.6	-0.49259	0.81545	0.35448
1.49	90.651	-2.9737e+05	3069	-0.4922	0.81545	0.35458
1.492	90.665	-2.9737e+05	3069.3	-0.49181	0.81545	0.35468
1.494	90.642	-2.9737e+05	3069.6	-0.49142	0.81545	0.35478
1.496	90.596	-2.9737e+05	3069.8	-0.4921	0.81535	0.35536
1.498	90.542	-2.9737e+05	3070	-0.49278	0.81525	0.35595
1.5	90.513	-2.9737e+05	3070.2	-0.49347	0.81516	0.35653
1.502	90.524	-2.9737e+05	3070.3	-0.49415	0.81506	0.35712
1.504	90.568	-2.9737e+05	3070.5	-0.49483	0.81496	0.3577
1.506	90.623	-2.9736e+05	3070.6	-0.49415	0.81408	0.35634
1.508	90.656	-2.9736e+05	3070.6	-0.49347	0.8132	0.35497
1.51	90.65	-2.9736e+05	3070.6	-0.49278	0.81232	0.3536
1.512	90.609	-2.9736e+05	3070.6	-0.4921	0.81145	0.35224
1.514	90.56	-2.9736e+05	3070.6	-0.49142	0.81057	0.35087
1.516	90.53	-2.9735e+05	3070.5	-0.49151	0.81184	0.35136
1.518	90.532	-2.9735e+05	3070.5	-0.49161	0.81311	0.35185
1.52	90.568	-2.9735e+05	3070.4	-0.49171	0.81437	0.35234
1.522	90.622	-2.9735e+05	3070.3	-0.49181	0.81564	0.35282
1.524	90.671	-2.9735e+05	3070.1	-0.4919	0.81691	0.35331
1.526	90.687	-2.9735e+05	3070	-0.48956	0.81613	0.35292
1.528	90.664	-2.9735e+05	3069.8	-0.48722	0.81535	0.35253
1.53	90.621	-2.9735e+05	3069.6	-0.48488	0.81457	0.35214
1.532	90.578	-2.9735e+05	3069.3	-0.48253	0.81379	0.35175
1.534	90.572	-2.9735e+05	3069.1	-0.48019	0.81301	0.35136
1.536	90.605	-2.9734e+05	3068.8	-0.48107	0.81242	0.34999
1.538	90.654	-2.9734e+05	3068.5	-0.48195	0.81184	0.34863
1.54	90.708	-2.9734e+05	3068.2	-0.48283	0.81125	0.34726
1.542	90.733	-2.9733e+05	3067.8	-0.48371	0.81067	0.34589
1.544	90.723	-2.9732e+05	3067.5	-0.48458	0.81008	0.34453
1.546	90.68	-2.9733e+05	3067.1	-0.48517	0.81106	0.34511
1.548	90.628	-2.9733e+05	3066.7	-0.48576	0.81203	0.3457
1.55	90.598	-2.9734e+05	3066.3	-0.48634	0.81301	0.34628
1.552	90.616	-2.9735e+05	3065.8	-0.48693	0.81398	0.34687
1.554	90.661	-2.9734e+05	3065.3	-0.48751	0.81496	0.34746
1.556	90.722	-2.9733e+05	3064.8	-0.48771	0.81398	0.34658
1.558	90.758	-2.9732e+05	3064.3	-0.4879	0.81301	0.3457
1.56	90.758	-2.9732e+05	3063.9	-0.4881	0.81203	0.34482
1.562	90.716	-2.9732e+05	3063.4	-0.48829	0.81106	0.34394
1.564	90.669	-2.9733e+05	3062.9	-0.48849	0.81008	0.34306
1.566	90.632	-2.9733e+05	3062.5	-0.49034	0.8092	0.34228
1.568	90.632	-2.9733e+05	3062	-0.4922	0.80832	0.3415
1.57	90.664	-2.9733e+05	3061.5	-0.49405	0.80744	0.34072
1.572	90.712	-2.9733e+05	3061	-0.49591	0.80657	0.33994
1.574	90.755	-2.9733e+05	3060.5	-0.49776	0.80569	0.33916
1.576	90.761	-2.9733e+05	3059.9	-0.49747	0.80559	0.33975
1.578	90.734	-2.9733e+05	3059.4	-0.49717	0.80549	0.34033
1.58	90.685	-2.9732e+05	3058.8	-0.49688	0.8054	0.34092
1.582	90.641	-2.9732e+05	3058.3	-0.49659	0.8053	0.3415
1.584	90.627	-2.9732e+05	3057.8	-0.4963	0.8052	0.34209
1.586	90.649	-2.9732e+05	3057.2	-0.49669	0.80579	0.34238
1.588	90.696	-2.9732e+05	3056.6	-0.49708	0.80637	0.34267
1.59	90.745	-2.9732e+05	3056	-0.49747	0.80696	0.34297
1.592	90.763	-2.9731e+05	3055.4	-0.49786	0.80754	0.34326
1.594	90.743	-2.9732e+05	3054.9	-0.49825	0.80813	0.34355
1.596	90.701	-2.9732e+05	3054.2	-0.49825	0.80754	0.34375
1.598	90.652	-2.9732e+05	3053.5	-0.49825	0.80696	0.34394
1.6	90.621	-2.9732e+05	3052.9	-0.49825	0.80637	0.34414
1.602	90.63	-2.9732e+05	3052.3	-0.49825	0.80579	0.34433
1.604	90.671	-2.9732e+05	3051.7	-0.49825	0.8052	0.34453
1.606	90.723	-2.9732e+05	3051	-0.49737	0.80471	0.3457
1.608	90.76	-2.9732e+05	3050.3	-0.49649	0.80422	0.34687
1.61	90.758	-2.9732e+05	3049.6	-0.49561	0.80374	0.34804
1.612	90.723	-2.9732e+05	3049	-0.49473	0.80325	0.34921
1.614	90.668	-2.9732e+05	3048.4	-0.49386	0.80276	0.35038
1.616	90.626	-2.9732e+05	3047.8	-0.49308	0.80364	0.3497
1.618	90.622	-2.9732e+05	3047.2	-0.49229	0.80452	0.34902
1.62	90.66	-2.9732e+05	3046.6	-0.49151	0.8054	0.34833
1.622	90.715	-2.9731e+05	3046	-0.49073	0.80627	0.34765
1.624	90.754	-2.9731e+05	3045.5	-0.48995	0.80715	0.34697
1.626	90.762	-2.9732e+05	3044.9	-0.48937	0.80696	0.34697
1.628	90.734	-2.9732e+05	3044.4	-0.48878	0.80676	0.34697
1.63	90.684	-2.9732e+05	3043.8	-0.4882	0.80657	0.34697
1.632	90.639	-2.9733e+05	3043.2	-0.48761	0.80637	0.34697
1.634	90.62	-2.9732e+05	3042.7	-0.48702	0.80618	0.34697
1.636	90.637	-2.9731e+05	3042.2	-0.48683	0.80676	0.34726
1.638	90.695	-2.9732e+05	3041.7	-0.48663	0.80735	0.34755
1.64	90.755	-2.9732e+05	3041.3	-0.48644	0.80793	0.34785
1.642	90.778	-2.9732e+05	3040.8	-0.48624	0.80852	0.34814
1.644	90.763	-2.9732e+05	3040.3	-0.48605	0.8091	0.34843
1.646	90.714	-2.9732e+05	3039.9	-0.48624	0.80862	0.34775
1.648	90.66	-2.9732e+05	3039.5	-0.48644	0.80813	0.34707
1.65	90.631	-2.9732e+05	3039	-0.48663	0.80764	0.34638
1.652	90.636	-2.9733e+05	3038.6	-0.48683	0.80715	0.3457
1.654	90.677	-2.9733e+05	3038.2	-0.48702	0.80666	0.34502
1.656	90.728	-2.9733e+05	3037.8	-0.48673	0.80618	0.34609
1.658	90.763	-2.9733e+05	3037.5	-0.48644	0.80569	0.34716
1.66	90.755	-2.9732e+05	3037.1	-0.48615	0.8052	0.34824
1.662	90.721	-2.9732e+05	3036.8	-0.48585	0.80471	0.34931
1.664	90.668	-2.9732e+05	3036.5	-0.48556	0.80422	0.35038
1.666	90.627	-2.9732e+05	3036.3	-0.48654	0.80569	0.35097
1.668	90.626	-2.9732e+05	3036	-0.48751	0.80715	0.35156
1.67	90.661	-2.9733e+05	3035.8	-0.48849	0.80862	0.35214
1.672	90.716	-2.9734e+05	3035.6	-0.48946	0.81008	0.35273
1.674	90.759	-2.9733e+05	3035.4	-0.49044	0.81154	0.35331
1.676	90.764	-2.9732e+05	3035.2	-0.48966	0.81174	0.35263
1.678	90.733	-2.9732e+05	3035.1	-0.48888	0.81193	0.35195
1.68	90.679	-2.9732e+05	3034.9	-0.4881	0.81213	0.35126
1.682	90.629	-2.9732e+05	3034.8	-0.48732	0.81232	0.35058
1.684	90.611	-2.9733e+05	3034.7	-0.48654	0.81252	0.3499
1.686	90.632	-2.9733e+05	3034.7	-0.48722	0.81184	0.34999
1.688	90.673	-2.9733e+05	3034.6	-0.4879	0.81115	0.35009
1.69	90.712	-2.9733e+05	3034.5	-0.48859	0.81047	0.35019
1.692	90.721	-2.9733e+05	3034.4	-0.48927	0.80979	0.35029
1.694	90.695	-2.9733e+05	3034.3	-0.48995	0.8091	0.35038
1.696	90.648	-2.9733e+05	3034.2	-0.48956	0.81067	0.35048
1.698	90.597	-2.9733e+05	3034.2	-0.48917	0.81223	0.35058
1.7	90.572	-2.9733e+05	3034.2	-0.48878	0.81379	0.35068
1.702	90.592	-2.9733e+05	3034.1	-0.48839	0.81535	0.35077
1.704	90.644	-2.9733e+05	3034.1	-0.488	0.81691	0.35087
1.706	90.703	-2.9733e+05	3034.1	-0.48888	0.81681	0.35116
1.708	90.742	-2.9733e+05	3034.1	-0.48976	0.81672	0.35146
1.71	90.735	-2.9734e+05	3034.1	-0.49064	0.81662	0.35175
1.712	90.696	-2.9734e+05	3034	-0.49151	0.81652	0.35204
1.714	90.646	-2.9733e+05	3034	-0.49239	0.81642	0.35234
1.716	90.607	-2.9733e+05	3034	-0.4919	0.81594	0.35136
1.718	90.612	-2.9733e+05	3034	-0.49142	0.81545	0.35038
1.72	90.66	-2.9733e+05	3034	-0.49093	0.81496	0.34941
1.722	90.722	-2.9733e+05	3034	-0.49044	0.81447	0.34843
1.724	90.78	-2.9733e+05	3033.9	-0.48995	0.81398	0.34746
1.726	90.801	-2.9733e+05	3033.9	-0.48888	0.81389	0.34824
1.728	90.777	-2.9733e+05	3033.8	-0.4878	0.81379	0.34902
1.73	90.724	-2.9733e+05	3033.8	-0.48673	0.81369	0.3498
1.732	90.676	-2.9733e+05	3033.7	-0.48566	0.81359	0.35058
1.734	90.653	-2.9733e+05	3033.7	-0.48458	0.8135	0.35136
1.736	90.681	-2.9733e+05	3033.6	-0.48449	0.81437	0.35068
1.738	90.735	-2.9733e+05	3033.5	-0.48439	0.81525	0.34999
1.74	90.787	-2.9733e+05	3033.4	-0.48429	0.81613	0.34931
1.742	90.813	-2.9733e+05	3033.3	-0.48419	0.81701	0.34863
1.744	90.797	-2.9733e+05	3033.2	-0.4841	0.81789	0.34794
1.746	90.749	-2.9733e+05	3033.1	-0.48517	0.8173	0.34843
1.748	90.694	-2.9733e+05	3033	-0.48624	0.81672	0.34892
1.75	90.666	-2.9733e+05	3032.9	-0.48732	0.81613	0.34941
1.752	90.678	-2.9733e+05	3032.8	-0.48839	0.81555	0.3499
1.754	90.717	-2.9733e+05	3032.7	-0.48946	0.81496	0.35038
1.756	90.767	-2.9734e+05	3032.6	-0.48839	0.81467	0.35009
1.758	90.804	-2.9733e+05	3032.5	-0.48732	0.81437	0.3498
1.76	90.802	-2.9733e+05	3032.3	-0.48624	0.81408	0.34951
1.762	90.761	-2.9733e+05	3032.2	-0.48517	0.81379	0.34921
1.764	90.707	-2.9733e+05	3032.1	-0.4841	0.8135	0.34892
1.766	90.671	-2.9733e+05	3031.9	-0.48351	0.81291	0.34872
1.768	90.668	-2.9732e+05	3031.7	-0.48292	0.81232	0.34853
1.77	90.697	-2.9733e+05	3031.5	-0.48234	0.81174	0.34833
1.772	90.748	-2.9733e+05	3031.3	-0.48175	0.81115	0.34814
1.774	90.796	-2.9733e+05	3031.1	-0.48117	0.81057	0.34794
1.776	90.808	-2.9733e+05	3030.9	-0.48097	0.81067	0.34804
1.778	90.781	-2.9732e+05	3030.7	-0.48078	0.81076	0.34814
1.78	90.73	-2.9732e+05	3030.4	-0.48058	0.81086	0.34824
1.782	90.681	-2.9732e+05	3030.2	-0.48039	0.81096	0.34833
1.784	90.668	-2.9733e+05	3030	-0.48019	0.81106	0.34843
1.786	90.696	-2.9733e+05	3029.7	-0.48029	0.80998	0.34785
1.788	90.752	-2.9733e+05	3029.5	-0.48039	0.80891	0.34726
1.79	90.802	-2.9733e+05	3029.2	-0.48048	0.80784	0.34668
1.792	90.821	-2.9733e+05	3029	-0.48058	0.80676	0.34609
1.794	90.811	-2.9733e+05	3028.8	-0.48068	0.80569	0.3455
1.796	90.769	-2.9733e+05	3028.5	-0.48185	0.80666	0.34531
1.798	90.718	-2.9732e+05	3028.3	-0.48302	0.80764	0.34511
1.8	90.688	-2.9732e+05	3028	-0.48419	0.80862	0.34492
1.802	90.696	-2.9733e+05	3027.7	-0.48536	0.80959	0.34472
1.804	90.732	-2.9734e+05	3027.5	-0.48654	0.81057	0.34453
1.806	90.771	-2.9734e+05	3027.3	-0.48556	0.80998	0.34521
1.808	90.774	-2.9734e+05	3027	-0.48458	0.8094	0.34589
1.81	90.728	-2.9733e+05	3026.8	-0.48361	0.80881	0.34658
1.812	90.636	-2.9733e+05	3026.5	-0.48263	0.80823	0.34726
1.814	90.518	-2.9733e+05	3026.2	-0.48166	0.80764	0.34794
1.816	90.385	-2.9732e+05	3025.9	-0.48127	0.80715	0.34785
1.818	90.261	-2.9733e+05	3025.7	-0.48088	0.80666	0.34775
1.82	90.173	-2.9733e+05	3025.4	-0.48048	0.80618	0.34765
1.822	90.126	-2.9733e+05	3025.1	-0.48009	0.80569	0.34755
1.824	90.123	-2.9733e+05	3024.9	-0.4797	0.8052	0.34746
1.826	90.141	-2.9732e+05	3024.6	-0.48029	0.80598	0.34697
1.828	90.172	-2.9732e+05	3024.4	-0.48088	0.80676	0.34648
1.83	90.245	-2.9732e+05	3024.1	-0.48146	0.80754	0.34599
1.832	90.359	-2.9732e+05	3023.9	-0.48205	0.80832	0.3455
1.834	90.494	-2.9733e+05	3023.6	-0.48263	0.8091	0.34502
1.836	90.625	-2.9733e+05	3023.4	-0.4839	0.80959	0.34511
1.838	90.732	-2.9733e+05	3023.2	-0.48517	0.81008	0.34521
1.84	90.812	-2.9733e+05	3022.9	-0.48644	0.81057	0.34531
1.842	90.854	-2.9733e+05	3022.7	-0.48771	0.81106	0.34541
1.844	90.857	-2.9733e+05	3022.4	-0.48898	0.81154	0.3455
1.846	90.831	-2.9733e+05	3022.2	-0.48878	0.81193	0.34619
1.848	90.79	-2.9733e+05	3022	-0.48859	0.81232	0.34687
1.85	90.765	-2.9734e+05	3021.7	-0.48839	0.81272	0.34755
1.852	90.775	-2.9734e+05	3021.5	-0.4882	0.81311	0.34824
1.854	90.812	-2.9734e+05	3021.3	-0.488	0.8135	0.34892
1.856	90.863	-2.9734e+05	3021.1	-0.48771	0.81311	0.34853
1.858	90.904	-2.9734e+05	3020.9	-0.48741	0.81272	0.34814
1.86	90.906	-2.9733e+05	3020.7	-0.48712	0.81232	0.34775
1.862	90.867	-2.9734e+05	3020.5	-0.48683	0.81193	0.34736
1.864	90.809	-2.9734e+05	3020.3	-0.48654	0.81154	0.34697
1.866	90.762	-2.9734e+05	3020.1	-0.48615	0.81125	0.34677
1.868	90.748	-2.9733e+05	3019.8	-0.48576	0.81096	0.34658
1.87	90.77	-2.9734e+05	3019.6	-0.48536	0.81067	0.34638
1.872	90.816	-2.9734e+05	3019.4	-0.48497	0.81037	0.34619
1.874	90.853	-2.9734e+05	3019.2	-0.48458	0.81008	0.34599
1.876	90.856	-2.9734e+05	3019	-0.48488	0.81106	0.34687
1.878	90.824	-2.9734e+05	3018.8	-0.48517	0.81203	0.34775
1.88	90.769	-2.9734e+05	3018.6	-0.48546	0.81301	0.34863
1.882	90.715	-2.9734e+05	3018.5	-0.48576	0.81398	0.34951
1.884	90.694	-2.9734e+05	3018.3	-0.48605	0.81496	0.35038
1.886	90.715	-2.9734e+05	3018	-0.48663	0.81457	0.35058
1.888	90.76	-2.9734e+05	3017.8	-0.48722	0.81418	0.35077
1.89	90.812	-2.9734e+05	3017.5	-0.4878	0.81379	0.35097
1.892	90.832	-2.9734e+05	3017.2	-0.48839	0.8134	0.35116
1.894	90.813	-2.9734e+05	3017	-0.48898	0.81301	0.35136
1.896	90.765	-2.9734e+05	3016.7	-0.48907	0.8132	0.35146
1.898	90.709	-2.9734e+05	3016.5	-0.48917	0.8134	0.35156
1.9	90.675	-2.9735e+05	3016.3	-0.48927	0.81359	0.35165
1.902	90.684	-2.9735e+05	3016.1	-0.48937	0.81379	0.35175
1.904	90.729	-2.9735e+05	3015.9	-0.48946	0.81398	0.35185
1.906	90.783	-2.9734e+05	3015.7	-0.48898	0.81496	0.35116
1.908	90.812	-2.9734e+05	3015.6	-0.48849	0.81594	0.35048
1.91	90.809	-2.9734e+05	3015.4	-0.488	0.81691	0.3498
1.912	90.772	-2.9735e+05	3015.3	-0.48751	0.81789	0.34912
1.914	90.716	-2.9734e+05	3015.1	-0.48702	0.81886	0.34843
1.916	90.675	-2.9734e+05	3015	-0.48683	0.81847	0.34843
1.918	90.671	-2.9734e+05	3014.8	-0.48663	0.81808	0.34843
1.92	90.7	-2.9735e+05	3014.6	-0.48644	0.81769	0.34843
1.922	90.751	-2.9734e+05	3014.4	-0.48624	0.8173	0.34843
1.924	90.794	-2.9734e+05	3014.2	-0.48605	0.81691	0.34843
1.926	90.803	-2.9735e+05	3014	-0.48644	0.81594	0.34902
1.928	90.774	-2.9735e+05	3013.8	-0.48683	0.81496	0.3496
1.93	90.724	-2.9735e+05	3013.6	-0.48722	0.81398	0.35019
1.932	90.677	-2.9734e+05	3013.4	-0.48761	0.81301	0.35077
1.934	90.655	-2.9734e+05	3013.1	-0.488	0.81203	0.35136
1.936	90.673	-2.9735e+05	3012.9	-0.4878	0.81301	0.35126
1.938	90.718	-2.9734e+05	3012.7	-0.48761	0.81398	0.35116
1.94	90.763	-2.9734e+05	3012.6	-0.48741	0.81496	0.35107
1.942	90.785	-2.9734e+05	3012.7	-0.48722	0.81594	0.35097
1.944	90.767	-2.9734e+05	3012.8	-0.48702	0.81691	0.35087
1.946	90.717	-2.9734e+05	3013.5	-0.48673	0.81594	0.35048
1.948	90.663	-2.9734e+05	3014.1	-0.48644	0.81496	0.35009
1.95	90.63	-2.9735e+05	3015.2	-0.48615	0.81398	0.3497
1.952	90.633	-2.9735e+05	3016.7	-0.48585	0.81301	0.34931
1.954	90.669	-2.9736e+05	3018.1	-0.48556	0.81203	0.34892
1.956	90.718	-2.9736e+05	3020.1	-0.48546	0.81174	0.34863
1.958	90.752	-2.9736e+05	3022	-0.48536	0.81145	0.34833
1.96	90.75	-2.9736e+05	3024.1	-0.48527	0.81115	0.34804
1.962	90.705	-2.9736e+05	3026.2	-0.48517	0.81086	0.34775
1.964	90.649	-2.9735e+05	3028.4	-0.48507	0.81057	0.34746
1.966	90.608	-2.9736e+05	3030.5	-0.48576	0.81047	0.34687
1.968	90.601	-2.9736e+05	3032.7	-0.48644	0.81037	0.34628
1.97	90.626	-2.9736e+05	3034.8	-0.48712	0.81028	0.3457
1.972	90.674	-2.9736e+05	3036.9	-0.4878	0.81018	0.34511
1.974	90.718	-2.9735e+05	3038.9	-0.48849	0.81008	0.34453
1.976	90.723	-2.9735e+05	3040.8	-0.48722	0.81008	0.34492
1.978	90.692	-2.9735e+05	3042.7	-0.48595	0.81008	0.34531
1.98	90.632	-2.9736e+05	3044.5	-0.48468	0.81008	0.3457
1.982	90.575	-2.9736e+05	3046.1	-0.48341	0.81008	0.34609
1.984	90.555	-2.9736e+05	3047.7	-0.48214	0.81008	0.34648
1.986	90.571	-2.9736e+05	3049.1	-0.48175	0.8091	0.34638
1.988	90.614	-2.9735e+05	3050.5	-0.48136	0.80813	0.34628
1.99	90.663	-2.9735e+05	3051.8	-0.48097	0.80715	0.34619
1.992	90.68	-2.9735e+05	3053	-0.48058	0.80618	0.34609
1.994	90.659	-2.9735e+05	3054.1	-0.48019	0.8052	0.34599
1.996	90.608	-2.9735e+05	3055.2	-0.48127	0.80579	0.3457
1.998	90.547	-2.9735e+05	3056.2	-0.48234	0.80637	0.34541
2	90.51	-2.9734e+05	3057.2	-0.48341	0.80696	0.34511
2.002	90.513	-2.9734e+05	3058.1	-0.48449	0.80754	0.34482
2.004	90.548	-2.9734e+05	3059.1	-0.48556	0.80813	0.34453
2.006	90.595	-2.9734e+05	3059.8	-0.48605	0.80803	0.34502
2.008	90.625	-2.9734e+05	3060.6	-0.48654	0.80793	0.3455
2.01	90.617	-2.9733e+05	3061.3	-0.48702	0.80784	0.34599
2.012	90.573	-2.9733e+05	3062	-0.48751	0.80774	0.34648
2.014	90.515	-2.9733e+05	3062.7	-0.488	0.80764	0.34697
2.016	90.473	-2.9733e+05	3063.2	-0.48878	0.80793	0.34736
2.018	90.464	-2.9733e+05	3063.7	-0.48956	0.80823	0.34775
2.02	90.49	-2.9733e+05	3064.1	-0.49034	0.80852	0.34814
2.022	90.538	-2.9733e+05	3064.5	-0.49112	0.80881	0.34853
2.024	90.58	-2.9732e+05	3064.9	-0.4919	0.8091	0.34892
2.026	90.59	-2.9732e+05	3065.1	-0.492	0.80832	0.34892
2.028	90.561	-2.9732e+05	3065.4	-0.4921	0.80754	0.34892
2.03	90.506	-2.9732e+05	3065.6	-0.4922	0.80676	0.34892
2.032	90.453	-2.9732e+05	3065.8	-0.49229	0.80598	0.34892
2.034	90.432	-2.9732e+05	3065.9	-0.49239	0.8052	0.34892
2.036	90.453	-2.9731e+05	3066	-0.49308	0.8051	0.34921
2.038	90.499	-2.9731e+05	3066	-0.49376	0.805	0.34951
2.04	90.546	-2.9731e+05	3066.1	-0.49444	0.80491	0.3498
2.042	90.569	-2.9731e+05	3066.1	-0.49512	0.80481	0.35009
2.044	90.556	-2.9732e+05	3066.1	-0.49581	0.80471	0.35038
2.046	90.508	-2.9731e+05	3066	-0.49688	0.805	0.35048
2.048	90.454	-2.9731e+05	3065.9	-0.49796	0.8053	0.35058
2.05	90.422	-2.9731e+05	3065.8	-0.49903	0.80559	0.35068
2.052	90.431	-2.9731e+05	3065.6	-0.5001	0.80588	0.35077
2.054	90.473	-2.9731e+05	3065.5	-0.50118	0.80618	0.35087
2.056	90.53	-2.9731e+05	3065.3	-0.49903	0.80618	0.35077
2.058	90.573	-2.9731e+05	3065.2	-0.49688	0.80618	0.35068
2.06	90.572	-2.973e+05	3065	-0.49473	0.80618	0.35058
2.062	90.536	-2.973e+05	3064.8	-0.49259	0.80618	0.35048
2.064	90.485	-2.973e+05	3064.6	-0.49044	0.80618	0.35038
2.066	90.446	-2.973e+05	3064.3	-0.49034	0.80764	0.35029
2.068	90.447	-2.973e+05	3064	-0.49024	0.8091	0.35019
2.07	90.482	-2.973e+05	3063.7	-0.49015	0.81057	0.35009
2.072	90.542	-2.973e+05	3063.4	-0.49005	0.81203	0.34999
2.074	90.597	-2.973e+05	3063.1	-0.48995	0.8135	0.3499
2.076	90.614	-2.973e+05	3062.8	-0.48985	0.8132	0.34921
2.078	90.591	-2.973e+05	3062.4	-0.48976	0.81291	0.34853
2.08	90.544	-2.973e+05	3062.1	-0.48966	0.81262	0.34785
2.082	90.501	-2.973e+05	3061.7	-0.48956	0.81232	0.34716
2.084	90.489	-2.973e+05	3061.4	-0.48946	0.81203	0.34648
2.086	90.513	-2.973e+05	3061.1	-0.48976	0.81252	0.34804
2.088	90.566	-2.973e+05	3060.7	-0.49005	0.81301	0.3496
2.09	90.624	-2.973e+05	3060.4	-0.49034	0.8135	0.35116
2.092	90.652	-2.9731e+05	3059.9	-0.49064	0.81398	0.35273
2.094	90.64	-2.973e+05	3059.5	-0.49093	0.81447	0.35429
2.096	90.596	-2.9729e+05	3059.1	-0.48976	0.81389	0.35263
2.098	90.543	-2.9729e+05	3058.7	-0.48859	0.8133	0.35097
2.1	90.514	-2.9729e+05	3058.2	-0.48741	0.81272	0.34931
2.102	90.524	-2.9729e+05	3057.8	-0.48624	0.81213	0.34765
2.104	90.566	-2.9729e+05	3057.3	-0.48507	0.81154	0.34599
2.106	90.621	-2.9729e+05	3056.8	-0.48556	0.81174	0.34628
2.108	90.66	-2.9729e+05	3056.4	-0.48605	0.81193	0.34658
2.11	90.661	-2.973e+05	3055.9	-0.48654	0.81213	0.34687
2.112	90.622	-2.973e+05	3055.5	-0.48702	0.81232	0.34716
2.114	90.567	-2.973e+05	3055	-0.48751	0.81252	0.34746
2.116	90.528	-2.973e+05	3054.5	-0.4882	0.8134	0.34687
2.118	90.524	-2.973e+05	3054.1	-0.48888	0.81428	0.34628
2.12	90.556	-2.973e+05	3053.5	-0.48956	0.81516	0.3457
2.122	90.61	-2.973e+05	3053	-0.49024	0.81603	0.34511
2.124	90.654	-2.973e+05	3052.5	-0.49093	0.81691	0.34453
2.126	90.665	-2.973e+05	3051.9	-0.49034	0.81652	0.34541
2.128	90.638	-2.973e+05	3051.3	-0.48976	0.81613	0.34628
2.13	90.587	-2.973e+05	3050.7	-0.48917	0.81574	0.34716
2.132	90.538	-2.9729e+05	3050.1	-0.48859	0.81535	0.34804
2.134	90.516	-2.9729e+05	3049.5	-0.488	0.81496	0.34892
2.136	90.534	-2.9729e+05	3048.9	-0.48761	0.81496	0.34902
2.138	90.581	-2.9729e+05	3048.3	-0.48722	0.81496	0.34912
2.14	90.633	-2.973e+05	3047.7	-0.48683	0.81496	0.34921
2.142	90.659	-2.973e+05	3047.1	-0.48644	0.81496	0.34931
2.144	90.648	-2.973e+05	3046.5	-0.48605	0.81496	0.34941
2.146	90.605	-2.973e+05	3045.9	-0.48644	0.81594	0.34872
2.148	90.548	-2.973e+05	3045.3	-0.48683	0.81691	0.34804
2.15	90.511	-2.973e+05	3044.7	-0.48722	0.81789	0.34736
2.152	90.515	-2.973e+05	3044	-0.48761	0.81886	0.34668
2.154	90.559	-2.973e+05	3043.4	-0.488	0.81984	0.34599
2.156	90.614	-2.973e+05	3042.8	-0.48907	0.81857	0.34697
2.158	90.652	-2.973e+05	3042.2	-0.49015	0.8173	0.34794
2.16	90.652	-2.973e+05	3041.6	-0.49122	0.81603	0.34892
2.162	90.616	-2.973e+05	3041	-0.49229	0.81476	0.3499
2.164	90.562	-2.973e+05	3040.4	-0.49337	0.8135	0.35087
2.166	90.52	-2.973e+05	3039.9	-0.49288	0.81301	0.35019
2.168	90.512	-2.973e+05	3039.3	-0.49239	0.81252	0.34951
2.17	90.542	-2.9731e+05	3038.7	-0.4919	0.81203	0.34882
2.172	90.594	-2.9731e+05	3038.2	-0.49142	0.81154	0.34814
2.174	90.642	-2.9731e+05	3037.6	-0.49093	0.81106	0.34746
2.176	90.654	-2.9731e+05	3037.2	-0.49132	0.81096	0.34736
2.178	90.627	-2.9731e+05	3036.7	-0.49171	0.81086	0.34726
2.18	90.576	-2.9731e+05	3036.2	-0.4921	0.81076	0.34716
2.182	90.529	-2.973e+05	3035.8	-0.49249	0.81067	0.34707
2.184	90.51	-2.973e+05	3035.4	-0.49288	0.81057	0.34697
2.186	90.53	-2.973e+05	3034.9	-0.49288	0.81067	0.34804
2.188	90.579	-2.9731e+05	3034.5	-0.49288	0.81076	0.34912
2.19	90.632	-2.973e+05	3034.1	-0.49288	0.81086	0.35019
2.192	90.659	-2.973e+05	3033.7	-0.49288	0.81096	0.35126
2.194	90.643	-2.973e+05	3033.3	-0.49288	0.81106	0.35234
2.196	90.598	-2.973e+05	3033	-0.49112	0.81076	0.35214
2.198	90.549	-2.973e+05	3032.7	-0.48937	0.81047	0.35195
2.2	90.52	-2.9731e+05	3032.4	-0.48761	0.81018	0.35175
2.202	90.526	-2.9731e+05	3032.1	-0.48585	0.80988	0.35156
2.204	90.559	-2.9732e+05	3031.8	-0.4841	0.80959	0.35136
2.206	90.608	-2.9732e+05	3031.6	-0.48351	0.80813	0.35156
2.208	90.643	-2.9732e+05	3031.3	-0.48292	0.80666	0.35175
2.21	90.638	-2.9732e+05	3031.1	-0.48234	0.8052	0.35195
2.212	90.602	-2.9731e+05	3030.8	-0.48175	0.80374	0.35214
2.214	90.548	-2.9731e+05	3030.6	-0.48117	0.80227	0.35234
2.216	90.504	-2.9731e+05	3030.4	-0.48127	0.80305	0.35156
2.218	90.496	-2.9731e+05	3030.2	-0.48136	0.80383	0.35077
2.22	90.525	-2.973e+05	3030.1	-0.48146	0.80461	0.34999
2.222	90.574	-2.9731e+05	3029.9	-0.48156	0.8054	0.34921
2.224	90.625	-2.9732e+05	3029.8	-0.48166	0.80618	0.34843
2.226	90.639	-2.9733e+05	3029.6	-0.48224	0.80618	0.34863
2.228	90.609	-2.9733e+05	3029.4	-0.48283	0.80618	0.34882
2.23	90.555	-2.9732e+05	3029.3	-0.48341	0.80618	0.34902
2.232	90.498	-2.9732e+05	3029.2	-0.484	0.80618	0.34921
2.234	90.469	-2.9732e+05	3029	-0.48458	0.80618	0.34941
2.236	90.484	-2.9732e+05	3029	-0.48458	0.80549	0.34921
2.238	90.529	-2.9732e+05	3028.9	-0.48458	0.80481	0.34902
2.24	90.581	-2.9732e+05	3028.8	-0.48458	0.80413	0.34882
2.242	90.599	-2.9732e+05	3028.7	-0.48458	0.80344	0.34863
2.244	90.576	-2.9732e+05	3028.6	-0.48458	0.80276	0.34843
2.246	90.523	-2.9732e+05	3028.5	-0.48536	0.80442	0.34824
2.248	90.453	-2.9732e+05	3028.5	-0.48615	0.80608	0.34804
2.25	90.408	-2.9732e+05	3028.4	-0.48693	0.80774	0.34785
2.252	90.411	-2.9733e+05	3028.3	-0.48771	0.8094	0.34765
2.254	90.454	-2.9733e+05	3028.2	-0.48849	0.81106	0.34746
2.256	90.515	-2.9733e+05	3028.1	-0.48878	0.81106	0.34707
2.258	90.563	-2.9733e+05	3027.9	-0.48907	0.81106	0.34668
2.26	90.575	-2.9734e+05	3027.8	-0.48937	0.81106	0.34628
2.262	90.544	-2.9733e+05	3027.8	-0.48966	0.81106	0.34589
2.264	90.492	-2.9733e+05	3027.7	-0.48995	0.81106	0.3455
2.266	90.448	-2.9733e+05	3027.6	-0.48976	0.81174	0.34648
2.268	90.44	-2.9733e+05	3027.5	-0.48956	0.81242	0.34746
2.27	90.474	-2.9734e+05	3027.4	-0.48937	0.81311	0.34843
2.272	90.535	-2.9734e+05	3027.3	-0.48917	0.81379	0.34941
2.274	90.591	-2.9734e+05	3027.2	-0.48898	0.81447	0.35038
2.276	90.611	-2.9734e+05	3027.1	-0.48917	0.81418	0.34999
2.278	90.596	-2.9734e+05	3026.9	-0.48937	0.81389	0.3496
2.28	90.56	-2.9734e+05	3026.8	-0.48956	0.81359	0.34921
2.282	90.521	-2.9734e+05	3026.7	-0.48976	0.8133	0.34882
2.284	90.504	-2.9734e+05	3026.7	-0.48995	0.81301	0.34843
2.286	90.518	-2.9734e+05	3026.5	-0.48985	0.81359	0.34814
2.288	90.56	-2.9735e+05	3026.4	-0.48976	0.81418	0.34785
2.29	90.611	-2.9734e+05	3026.3	-0.48966	0.81476	0.34755
2.292	90.644	-2.9734e+05	3026.1	-0.48956	0.81535	0.34726
2.294	90.636	-2.9734e+05	3026	-0.48946	0.81594	0.34697
2.296	90.592	-2.9734e+05	3025.8	-0.48956	0.81564	0.34736
2.298	90.541	-2.9734e+05	3025.6	-0.48966	0.81535	0.34775
2.3	90.508	-2.9735e+05	3025.5	-0.48976	0.81506	0.34814
2.302	90.51	-2.9735e+05	3025.3	-0.48985	0.81476	0.34853
2.304	90.55	-2.9735e+05	3025.1	-0.48995	0.81447	0.34892
2.306	90.604	-2.9736e+05	3024.9	-0.48985	0.81476	0.34882
2.308	90.645	-2.9736e+05	3024.7	-0.48976	0.81506	0.34872
2.31	90.647	-2.9736e+05	3024.5	-0.48966	0.81535	0.34863
2.312	90.612	-2.9735e+05	3024.3	-0.48956	0.81564	0.34853
2.314	90.558	-2.9734e+05	3024.1	-0.48946	0.81594	0.34843
2.316	90.511	-2.9734e+05	3023.9	-0.48956	0.81555	0.34863
2.318	90.499	-2.9734e+05	3023.8	-0.48966	0.81516	0.34882
2.32	90.53	-2.9735e+05	3023.6	-0.48976	0.81476	0.34902
2.322	90.584	-2.9735e+05	3023.4	-0.48985	0.81437	0.34921
2.324	90.636	-2.9734e+05	3023.2	-0.48995	0.81398	0.34941
2.326	90.644	-2.9735e+05	3023	-0.49268	0.81418	0.34853
2.328	90.608	-2.9736e+05	3022.8	-0.49542	0.81437	0.34765
2.33	90.563	-2.9736e+05	3022.6	-0.49815	0.81457	0.34677
2.332	90.517	-2.9735e+05	3022.4	-0.50088	0.81476	0.34589
2.334	90.497	-2.9735e+05	3022.2	-0.50362	0.81496	0.34502
2.336	90.514	-2.9735e+05	3021.9	-0.50235	0.8133	0.34443
2.338	90.56	-2.9736e+05	3021.7	-0.50108	0.81164	0.34384
2.34	90.613	-2.9737e+05	3021.4	-0.49981	0.80998	0.34326
2.342	90.645	-2.9736e+05	3021.2	-0.49854	0.80832	0.34267
2.344	90.639	-2.9736e+05	3020.9	-0.49727	0.80666	0.34209
2.346	90.598	-2.9736e+05	3020.7	-0.49766	0.80686	0.34248
2.348	90.544	-2.9737e+05	3020.5	-0.49805	0.80705	0.34287
2.35	90.512	-2.9737e+05	3020.3	-0.49844	0.80725	0.34326
2.352	90.518	-2.9736e+05	3020.1	-0.49883	0.80744	0.34365
2.354	90.559	-2.9736e+05	3019.9	-0.49922	0.80764	0.34404
2.356	90.611	-2.9736e+05	3019.6	-0.49942	0.80793	0.34345
2.358	90.639	-2.9736e+05	3019.4	-0.49961	0.80823	0.34287
2.36	90.626	-2.9736e+05	3019.1	-0.49981	0.80852	0.34228
2.362	90.563	-2.9736e+05	3018.9	-0.5	0.80881	0.3417
2.364	90.466	-2.9736e+05	3018.7	-0.5002	0.8091	0.34111
2.366	90.367	-2.9737e+05	3018.7	-0.49659	0.80998	0.33857
2.368	90.287	-2.9737e+05	3018.7	-0.49298	0.81086	0.33604
2.37	90.224	-2.9737e+05	3018.5	-0.48937	0.81174	0.3335
2.372	90.148	-2.9736e+05	3018.3	-0.48576	0.81262	0.33096
2.374	90.045	-2.9737e+05	3018.1	-0.48214	0.8135	0.32842
2.376	89.925	-2.9738e+05	3017.5	-0.48048	0.81252	0.32979
2.378	89.81	-2.9737e+05	3016.9	-0.47883	0.81154	0.33116
2.38	89.727	-2.9736e+05	3016.4	-0.47717	0.81057	0.33252
2.382	89.695	-2.9737e+05	3015.9	-0.47551	0.80959	0.33389
2.384	89.762	-2.9737e+05	3015.5	-0.47385	0.80862	0.33526
2.386	89.945	-2.9737e+05	3015	-0.48332	0.80901	0.33965
2.388	90.177	-2.9737e+05	3014.6	-0.49278	0.8094	0.34404
2.39	90.385	-2.9736e+05	3014.2	-0.50225	0.80979	0.34843
2.392	90.508	-2.9736e+05	3013.8	-0.51172	0.81018	0.35282
2.394	90.535	-2.9736e+05	3013.3	-0.52118	0.81057	0.35722
2.396	90.503	-2.9736e+05	3012.9	-0.51484	0.81047	0.35536
2.398	90.463	-2.9737e+05	3012.6	-0.5085	0.81037	0.35351
2.4	90.452	-2.9737e+05	3012.2	-0.50215	0.81028	0.35165
2.402	90.474	-2.9738e+05	3011.9	-0.49581	0.81018	0.3498
2.404	90.517	-2.9738e+05	3011.6	-0.48946	0.81008	0.34794
2.406	90.59	-2.9737e+05	3011.5	-0.48722	0.81028	0.34814
2.408	90.643	-2.9737e+05	3011.4	-0.48497	0.81047	0.34833
2.41	90.658	-2.9738e+05	3011.4	-0.48273	0.81067	0.34853
2.412	90.64	-2.9738e+05	3011.3	-0.48048	0.81086	0.34872
2.414	90.599	-2.9738e+05	3011.3	-0.47824	0.81106	0.34892
2.416	90.562	-2.9739e+05	3011.3	-0.48263	0.81037	0.34775
2.418	90.551	-2.9739e+05	3011.3	-0.48702	0.80969	0.34658
2.42	90.575	-2.9739e+05	3011.3	-0.49142	0.80901	0.34541
2.422	90.62	-2.9739e+05	3011.4	-0.49581	0.80832	0.34424
2.424	90.658	-2.974e+05	3011.4	-0.5002	0.80764	0.34306
2.426	90.664	-2.9739e+05	3011.5	-0.4963	0.80842	0.34033
2.428	90.634	-2.9738e+05	3011.6	-0.49239	0.8092	0.3376
2.43	90.577	-2.9738e+05	3011.5	-0.48849	0.80998	0.33487
2.432	90.522	-2.9739e+05	3011.4	-0.48458	0.81076	0.33213
2.434	90.498	-2.9738e+05	3011.2	-0.48068	0.81154	0.3294
2.436	90.512	-2.9738e+05	3011	-0.48361	0.81135	0.33223
2.438	90.552	-2.9738e+05	3010.9	-0.48654	0.81115	0.33506
2.44	90.603	-2.9738e+05	3010.7	-0.48946	0.81096	0.33789
2.442	90.63	-2.9738e+05	3010.5	-0.49239	0.81076	0.34072
2.444	90.618	-2.9738e+05	3010.4	-0.49532	0.81057	0.34355
2.446	90.579	-2.9738e+05	3010.1	-0.49756	0.81164	0.3455
2.448	90.53	-2.9739e+05	3009.9	-0.49981	0.81272	0.34746
2.45	90.499	-2.9739e+05	3009.7	-0.50205	0.81379	0.34941
2.452	90.503	-2.9738e+05	3009.5	-0.5043	0.81486	0.35136
2.454	90.541	-2.9738e+05	3009.4	-0.50654	0.81594	0.35331
2.456	90.592	-2.9739e+05	3009.1	-0.50244	0.81672	0.35312
2.458	90.63	-2.9739e+05	3008.8	-0.49835	0.8175	0.35292
2.46	90.63	-2.9739e+05	3008.5	-0.49425	0.81828	0.35273
2.462	90.593	-2.9739e+05	3008.2	-0.49015	0.81906	0.35253
2.464	90.541	-2.9739e+05	3008	-0.48605	0.81984	0.35234
2.466	90.497	-2.9739e+05	3007.8	-0.48702	0.82004	0.35224
2.468	90.486	-2.974e+05	3007.6	-0.488	0.82023	0.35214
2.47	90.511	-2.9739e+05	3007.4	-0.48898	0.82043	0.35204
2.472	90.56	-2.9739e+05	3007.2	-0.48995	0.82062	0.35195
2.474	90.607	-2.9739e+05	3007	-0.49093	0.82082	0.35185
2.476	90.621	-2.9739e+05	3006.8	-0.49571	0.81955	0.35263
2.478	90.596	-2.9739e+05	3006.6	-0.50049	0.81828	0.35341
2.48	90.548	-2.9739e+05	3006.3	-0.50528	0.81701	0.35419
2.482	90.495	-2.9739e+05	3006.1	-0.51006	0.81574	0.35497
2.484	90.468	-2.9739e+05	3005.8	-0.51484	0.81447	0.35575
2.486	90.483	-2.9739e+05	3005.6	-0.51367	0.81428	0.35526
2.488	90.53	-2.9739e+05	3005.4	-0.5125	0.81408	0.35478
2.49	90.582	-2.9739e+05	3005.3	-0.51133	0.81389	0.35429
2.492	90.608	-2.9739e+05	3005.3	-0.51016	0.81369	0.3538
2.494	90.596	-2.9739e+05	3005.3	-0.50898	0.8135	0.35331
2.496	90.55	-2.9739e+05	3005.7	-0.50791	0.8135	0.35263
2.498	90.489	-2.9739e+05	3006.2	-0.50684	0.8135	0.35195
2.5	90.447	-2.974e+05	3006.9	-0.50576	0.8135	0.35126
2.502	90.449	-2.974e+05	3008.1	-0.50469	0.8135	0.35058
2.504	90.486	-2.974e+05	3009.2	-0.50362	0.8135	0.3499
2.506	90.535	-2.974e+05	3011	-0.50079	0.81262	0.34589
2.508	90.569	-2.974e+05	3012.8	-0.49796	0.81174	0.34189
2.51	90.569	-2.974e+05	3014.6	-0.49512	0.81086	0.33789
2.512	90.532	-2.974e+05	3016.6	-0.49229	0.80998	0.33389
2.514	90.472	-2.974e+05	3018.5	-0.48946	0.8091	0.32989
2.516	90.421	-2.974e+05	3020.3	-0.4879	0.80793	0.33272
2.518	90.407	-2.974e+05	3022.2	-0.48634	0.80676	0.33555
2.52	90.43	-2.974e+05	3024	-0.48478	0.80559	0.33838
2.522	90.474	-2.974e+05	3025.9	-0.48322	0.80442	0.34121
2.524	90.517	-2.974e+05	3027.8	-0.48166	0.80325	0.34404
2.526	90.53	-2.9741e+05	3029.6	-0.48898	0.80383	0.3457
2.528	90.501	-2.9741e+05	3031.3	-0.4963	0.80442	0.34736
2.53	90.446	-2.9741e+05	3033.1	-0.50362	0.805	0.34902
2.532	90.388	-2.9741e+05	3034.7	-0.51094	0.80559	0.35068
2.534	90.359	-2.9741e+05	3036.4	-0.51826	0.80618	0.35234
2.536	90.371	-2.9741e+05	3037.8	-0.51094	0.80579	0.35175
2.538	90.413	-2.9741e+05	3039.2	-0.50362	0.8054	0.35116
2.54	90.459	-2.974e+05	3040.4	-0.4963	0.805	0.35058
2.542	90.481	-2.9741e+05	3041.6	-0.48898	0.80461	0.34999
2.544	90.466	-2.9741e+05	3042.8	-0.48166	0.80422	0.34941
2.546	90.419	-2.9741e+05	3044.1	-0.48117	0.80461	0.34863
2.548	90.361	-2.9741e+05	3045.3	-0.48068	0.805	0.34785
2.55	90.318	-2.9741e+05	3046.5	-0.48019	0.8054	0.34707
2.552	90.313	-2.9741e+05	3047.7	-0.4797	0.80579	0.34628
2.554	90.345	-2.974e+05	3048.9	-0.47922	0.80618	0.3455
2.556	90.392	-2.974e+05	3050.1	-0.4797	0.80666	0.34219
2.558	90.427	-2.974e+05	3051.3	-0.48019	0.80715	0.33887
2.56	90.425	-2.974e+05	3052.3	-0.48068	0.80764	0.33555
2.562	90.383	-2.974e+05	3053	-0.48117	0.80813	0.33223
2.564	90.326	-2.974e+05	3053.8	-0.48166	0.80862	0.32891
2.566	90.276	-2.974e+05	3054.5	-0.48234	0.80842	0.32999
2.568	90.26	-2.9739e+05	3055.2	-0.48302	0.80823	0.33106
2.57	90.281	-2.9739e+05	3055.8	-0.48371	0.80803	0.33213
2.572	90.334	-2.9739e+05	3056.3	-0.48439	0.80784	0.33321
2.574	90.384	-2.9738e+05	3056.8	-0.48507	0.80764	0.33428
2.576	90.399	-2.9738e+05	3057.3	-0.49239	0.80793	0.33574
2.578	90.375	-2.9738e+05	3057.8	-0.49971	0.80823	0.33721
2.58	90.323	-2.9738e+05	3058.2	-0.50703	0.80852	0.33867
2.582	90.266	-2.9739e+05	3058.5	-0.51435	0.80881	0.34014
2.584	90.24	-2.9739e+05	3058.9	-0.52167	0.8091	0.3416
2.586	90.253	-2.9738e+05	3059	-0.51689	0.80891	0.34082
2.588	90.292	-2.9737e+05	3059.2	-0.51211	0.80871	0.34004
2.59	90.344	-2.9738e+05	3059.3	-0.50732	0.80852	0.33926
2.592	90.369	-2.9738e+05	3059.3	-0.50254	0.80832	0.33848
2.594	90.355	-2.9738e+05	3059.4	-0.49776	0.80813	0.3377
2.596	90.309	-2.9739e+05	3059.3	-0.49796	0.80813	0.33809
2.598	90.251	-2.9738e+05	3059.2	-0.49815	0.80813	0.33848
2.6	90.212	-2.9737e+05	3059.1	-0.49835	0.80813	0.33887
2.602	90.213	-2.9737e+05	3059.1	-0.49854	0.80813	0.33926
2.604	90.251	-2.9737e+05	3059	-0.49874	0.80813	0.33965
2.606	90.308	-2.9737e+05	3058.9	-0.50108	0.8091	0.34228
2.608	90.349	-2.9738e+05	3058.7	-0.50342	0.81008	0.34492
2.61	90.353	-2.9737e+05	3058.5	-0.50576	0.81106	0.34755
2.612	90.32	-2.9737e+05	3058.3	-0.50811	0.81203	0.35019
2.614	90.269	-2.9737e+05	3058.1	-0.51045	0.81301	0.35282
2.616	90.229	-2.9737e+05	3057.8	-0.51113	0.81252	0.354
2.618	90.221	-2.9738e+05	3057.6	-0.51181	0.81203	0.35517
2.62	90.249	-2.9738e+05	3057.4	-0.5125	0.81154	0.35634
2.622	90.3	-2.9737e+05	3057.2	-0.51318	0.81106	0.35751
2.624	90.35	-2.9737e+05	3057.1	-0.51386	0.81057	0.35868
2.626	90.372	-2.9737e+05	3056.9	-0.5122	0.81115	0.35683
2.628	90.354	-2.9737e+05	3056.8	-0.51055	0.81174	0.35497
2.63	90.309	-2.9737e+05	3056.7	-0.50889	0.81232	0.35312
2.632	90.263	-2.9737e+05	3056.6	-0.50723	0.81291	0.35126
2.634	90.242	-2.9737e+05	3056.5	-0.50557	0.8135	0.34941
2.636	90.262	-2.9737e+05	3056.4	-0.50469	0.81389	0.3499
2.638	90.312	-2.9737e+05	3056.2	-0.50381	0.81428	0.35038
2.64	90.366	-2.9737e+05	3056	-0.50293	0.81467	0.35087
2.642	90.398	-2.9737e+05	3055.8	-0.50205	0.81506	0.35136
2.644	90.391	-2.9736e+05	3055.5	-0.50118	0.81545	0.35185
2.646	90.349	-2.9737e+05	3055.2	-0.50225	0.81555	0.35195
2.648	90.299	-2.9737e+05	3054.8	-0.50332	0.81564	0.35204
2.65	90.264	-2.9737e+05	3054.4	-0.5044	0.81574	0.35214
2.652	90.269	-2.9737e+05	3054	-0.50547	0.81584	0.35224
2.654	90.307	-2.9736e+05	3053.6	-0.50654	0.81594	0.35234
2.656	90.364	-2.9736e+05	3053.2	-0.50479	0.81457	0.35156
2.658	90.412	-2.9736e+05	3052.7	-0.50303	0.8132	0.35077
2.66	90.418	-2.9737e+05	3052.2	-0.50127	0.81184	0.34999
2.662	90.387	-2.9737e+05	3051.7	-0.49952	0.81047	0.34921
2.664	90.334	-2.9737e+05	3051.2	-0.49776	0.8091	0.34843
2.666	90.287	-2.9737e+05	3050.6	-0.49708	0.80862	0.34863
2.668	90.278	-2.9737e+05	3050.1	-0.49639	0.80813	0.34882
2.67	90.305	-2.9737e+05	3049.5	-0.49571	0.80764	0.34902
2.672	90.356	-2.9736e+05	3049	-0.49503	0.80715	0.34921
2.674	90.411	-2.9736e+05	3048.4	-0.49434	0.80666	0.34941
2.676	90.433	-2.9736e+05	3047.9	-0.49376	0.80774	0.34921
2.678	90.409	-2.9736e+05	3047.3	-0.49317	0.80881	0.34902
2.68	90.361	-2.9736e+05	3046.8	-0.49259	0.80988	0.34882
2.682	90.31	-2.9736e+05	3046.4	-0.492	0.81096	0.34863
2.684	90.29	-2.9736e+05	3045.9	-0.49142	0.81203	0.34843
2.686	90.306	-2.9736e+05	3045.4	-0.49161	0.81145	0.34882
2.688	90.352	-2.9736e+05	3045	-0.49181	0.81086	0.34921
2.69	90.404	-2.9736e+05	3044.5	-0.492	0.81028	0.3496
2.692	90.435	-2.9736e+05	3044.1	-0.4922	0.80969	0.34999
2.694	90.426	-2.9736e+05	3043.7	-0.49239	0.8091	0.35038
2.696	90.384	-2.9736e+05	3043.1	-0.49327	0.80871	0.34912
2.698	90.334	-2.9736e+05	3042.6	-0.49415	0.80832	0.34785
2.7	90.301	-2.9737e+05	3042.1	-0.49503	0.80793	0.34658
2.702	90.303	-2.9737e+05	3041.5	-0.49591	0.80754	0.34531
2.704	90.339	-2.9736e+05	3040.9	-0.49678	0.80715	0.34404
2.706	90.392	-2.9736e+05	3040.4	-0.49639	0.80715	0.34433
2.708	90.433	-2.9737e+05	3039.8	-0.496	0.80715	0.34463
2.71	90.439	-2.9737e+05	3039.2	-0.49561	0.80715	0.34492
2.712	90.409	-2.9738e+05	3038.7	-0.49522	0.80715	0.34521
2.714	90.36	-2.9737e+05	3038.1	-0.49483	0.80715	0.3455
2.716	90.315	-2.9737e+05	3037.5	-0.49512	0.80696	0.34531
2.718	90.304	-2.9737e+05	3037	-0.49542	0.80676	0.34511
2.72	90.33	-2.9737e+05	3036.4	-0.49571	0.80657	0.34492
2.722	90.378	-2.9737e+05	3035.9	-0.496	0.80637	0.34472
2.724	90.429	-2.9737e+05	3035.3	-0.4963	0.80618	0.34453
2.726	90.45	-2.9737e+05	3034.8	-0.4962	0.80618	0.34414
2.728	90.428	-2.9737e+05	3034.2	-0.4961	0.80618	0.34375
2.73	90.379	-2.9737e+05	3033.7	-0.496	0.80618	0.34336
2.732	90.329	-2.9737e+05	3033.2	-0.49591	0.80618	0.34297
2.734	90.303	-2.9737e+05	3032.6	-0.49581	0.80618	0.34258
2.736	90.315	-2.9737e+05	3032.1	-0.49688	0.80657	0.34248
2.738	90.359	-2.9738e+05	3031.7	-0.49796	0.80696	0.34238
2.74	90.412	-2.9738e+05	3031.2	-0.49903	0.80735	0.34228
2.742	90.448	-2.9738e+05	3030.7	-0.5001	0.80774	0.34219
2.744	90.443	-2.9739e+05	3030.3	-0.50118	0.80813	0.34209
2.746	90.399	-2.9738e+05	3029.8	-0.49874	0.80949	0.34326
2.748	90.344	-2.9738e+05	3029.4	-0.4963	0.81086	0.34443
2.75	90.305	-2.9738e+05	3029	-0.49386	0.81223	0.3456
2.752	90.307	-2.9738e+05	3028.6	-0.49142	0.81359	0.34677
2.754	90.348	-2.9738e+05	3028.3	-0.48898	0.81496	0.34794
2.756	90.404	-2.9738e+05	3028	-0.48888	0.81486	0.34843
2.758	90.449	-2.9738e+05	3027.7	-0.48878	0.81476	0.34892
2.76	90.454	-2.9739e+05	3027.4	-0.48868	0.81467	0.34941
2.762	90.42	-2.9738e+05	3027.1	-0.48859	0.81457	0.3499
2.764	90.366	-2.9738e+05	3026.9	-0.48849	0.81447	0.35038
2.766	90.321	-2.9738e+05	3026.6	-0.4879	0.81408	0.35009
2.768	90.312	-2.9738e+05	3026.3	-0.48732	0.81369	0.3498
2.77	90.339	-2.9738e+05	3026.1	-0.48673	0.8133	0.34951
2.772	90.389	-2.9737e+05	3025.9	-0.48615	0.81291	0.34921
2.774	90.435	-2.9738e+05	3025.7	-0.48556	0.81252	0.34892
2.776	90.451	-2.9738e+05	3025.5	-0.48585	0.81301	0.34863
2.778	90.429	-2.9739e+05	3025.4	-0.48615	0.8135	0.34833
2.78	90.379	-2.9739e+05	3025.3	-0.48644	0.81398	0.34804
2.782	90.324	-2.9739e+05	3025.1	-0.48673	0.81447	0.34775
2.784	90.293	-2.974e+05	3025	-0.48702	0.81496	0.34746
2.786	90.302	-2.9739e+05	3024.9	-0.48878	0.8134	0.3457
2.788	90.343	-2.9739e+05	3024.7	-0.49054	0.81184	0.34394
2.79	90.391	-2.9738e+05	3024.6	-0.49229	0.81028	0.34219
2.792	90.42	-2.9738e+05	3024.5	-0.49405	0.80871	0.34043
2.794	90.415	-2.9739e+05	3024.4	-0.49581	0.80715	0.33867
2.796	90.377	-2.9739e+05	3024.3	-0.49659	0.80803	0.33965
2.798	90.329	-2.974e+05	3024.2	-0.49737	0.80891	0.34062
2.8	90.296	-2.9741e+05	3024.1	-0.49815	0.80979	0.3416
2.802	90.294	-2.974e+05	3024	-0.49893	0.81067	0.34258
2.804	90.325	-2.9739e+05	3023.9	-0.49971	0.81154	0.34355
2.806	90.374	-2.9738e+05	3023.8	-0.49981	0.81125	0.34316
2.808	90.415	-2.9738e+05	3023.7	-0.49991	0.81096	0.34277
2.81	90.413	-2.9739e+05	3023.6	-0.5	0.81067	0.34238
2.812	90.371	-2.974e+05	3023.5	-0.5001	0.81037	0.34199
2.814	90.313	-2.9739e+05	3023.4	-0.5002	0.81008	0.3416
2.816	90.262	-2.9739e+05	3023.3	-0.5004	0.80969	0.34111
2.818	90.24	-2.9739e+05	3023.2	-0.50059	0.8093	0.34062
2.82	90.253	-2.974e+05	3023.1	-0.50079	0.80891	0.34014
2.822	90.288	-2.974e+05	3023	-0.50098	0.80852	0.33965
2.824	90.325	-2.974e+05	3022.9	-0.50118	0.80813	0.33916
2.826	90.339	-2.974e+05	3022.8	-0.50127	0.80871	0.33975
2.828	90.319	-2.9741e+05	3022.6	-0.50137	0.8093	0.34033
2.83	90.275	-2.974e+05	3022.5	-0.50147	0.80988	0.34092
2.832	90.232	-2.974e+05	3022.4	-0.50157	0.81047	0.3415
2.834	90.22	-2.974e+05	3022.3	-0.50166	0.81106	0.34209
2.836	90.247	-2.9741e+05	3022.2	-0.50215	0.81115	0.3417
2.838	90.297	-2.974e+05	3022.1	-0.50264	0.81125	0.34131
2.84	90.346	-2.974e+05	3021.9	-0.50313	0.81135	0.34092
2.842	90.37	-2.974e+05	3021.8	-0.50362	0.81145	0.34053
2.844	90.365	-2.9741e+05	3021.6	-0.5041	0.81154	0.34014
2.846	90.334	-2.9741e+05	3021.4	-0.50342	0.81135	0.34004
2.848	90.293	-2.9741e+05	3021.2	-0.50274	0.81115	0.33994
2.85	90.27	-2.9741e+05	3021.1	-0.50205	0.81096	0.33984
2.852	90.283	-2.9742e+05	3020.9	-0.50137	0.81076	0.33975
2.854	90.332	-2.9741e+05	3020.7	-0.50069	0.81057	0.33965
2.856	90.396	-2.9741e+05	3020.5	-0.5	0.81008	0.34014
2.858	90.443	-2.9741e+05	3020.4	-0.49932	0.80959	0.34062
2.86	90.448	-2.9741e+05	3020.2	-0.49864	0.8091	0.34111
2.862	90.416	-2.9741e+05	3020	-0.49796	0.80862	0.3416
2.864	90.365	-2.9741e+05	3019.8	-0.49727	0.80813	0.34209
2.866	90.323	-2.9741e+05	3019.6	-0.49659	0.80852	0.34258
2.868	90.312	-2.9741e+05	3019.4	-0.49591	0.80891	0.34306
2.87	90.339	-2.9741e+05	3019.1	-0.49522	0.8093	0.34355
2.872	90.39	-2.9741e+05	3018.9	-0.49454	0.80969	0.34404
2.874	90.439	-2.9741e+05	3018.7	-0.49386	0.81008	0.34453
2.876	90.461	-2.9741e+05	3018.5	-0.49337	0.81028	0.34443
2.878	90.443	-2.9742e+05	3018.3	-0.49288	0.81047	0.34433
2.88	90.397	-2.9742e+05	3018.1	-0.49239	0.81067	0.34424
2.882	90.348	-2.9742e+05	3017.9	-0.4919	0.81086	0.34414
2.884	90.324	-2.9741e+05	3017.7	-0.49142	0.81106	0.34404
2.886	90.336	-2.9741e+05	3017.5	-0.49005	0.81164	0.34531
2.888	90.381	-2.9742e+05	3017.3	-0.48868	0.81223	0.34658
2.89	90.436	-2.9742e+05	3017.1	-0.48732	0.81281	0.34785
2.892	90.468	-2.9742e+05	3016.9	-0.48595	0.8134	0.34912
2.894	90.46	-2.9742e+05	3016.7	-0.48458	0.81398	0.35038
2.896	90.422	-2.9742e+05	3016.5	-0.48507	0.81369	0.34999
2.898	90.373	-2.9742e+05	3016.2	-0.48556	0.8134	0.3496
2.9	90.333	-2.9742e+05	3016	-0.48605	0.81311	0.34921
2.902	90.333	-2.9742e+05	3015.8	-0.48654	0.81281	0.34882
2.904	90.372	-2.9743e+05	3015.7	-0.48702	0.81252	0.34843
2.906	90.428	-2.9744e+05	3015.4	-0.48673	0.81281	0.34833
2.908	90.473	-2.9744e+05	3015.2	-0.48644	0.81311	0.34824
2.91	90.477	-2.9743e+05	3015	-0.48615	0.8134	0.34814
2.912	90.442	-2.9742e+05	3014.8	-0.48585	0.81369	0.34804
2.914	90.394	-2.9742e+05	3014.6	-0.48556	0.81398	0.34794
2.916	90.347	-2.9743e+05	3014.4	-0.48644	0.81389	0.34746
2.918	90.339	-2.9743e+05	3014.1	-0.48732	0.81379	0.34697
2.92	90.373	-2.9744e+05	3013.9	-0.4882	0.81369	0.34648
2.922	90.427	-2.9743e+05	3013.7	-0.48907	0.81359	0.34599
2.924	90.481	-2.9742e+05	3013.5	-0.48995	0.8135	0.3455
2.926	90.505	-2.9742e+05	3013.3	-0.48937	0.81369	0.34638
2.928	90.49	-2.9743e+05	3013.1	-0.48878	0.81389	0.34726
2.93	90.44	-2.9743e+05	3012.9	-0.4882	0.81408	0.34814
2.932	90.38	-2.9743e+05	3012.7	-0.48761	0.81428	0.34902
2.934	90.344	-2.9743e+05	3012.5	-0.48702	0.81447	0.3499
2.936	90.341	-2.9743e+05	3012.3	-0.4882	0.81398	0.35029
2.938	90.348	-2.9743e+05	3012.1	-0.48937	0.8135	0.35068
2.94	90.346	-2.9743e+05	3011.9	-0.49054	0.81301	0.35107
2.942	90.304	-2.9743e+05	3011.7	-0.49171	0.81252	0.35146
2.944	90.206	-2.9744e+05	3011.5	-0.49288	0.81203	0.35185
2.946	90.049	-2.9744e+05	3011.3	-0.4921	0.81154	0.35068
2.948	89.839	-2.9743e+05	3011.1	-0.49132	0.81106	0.34951
2.95	89.636	-2.9743e+05	3010.9	-0.49054	0.81057	0.34833
2.952	89.495	-2.9742e+05	3010.7	-0.48976	0.81008	0.34716
2.954	89.449	-2.9743e+05	3010.4	-0.48898	0.80959	0.34599
2.956	89.486	-2.9743e+05	3010.3	-0.48849	0.81037	0.34658
2.958	89.575	-2.9743e+05	3010.1	-0.488	0.81115	0.34716
2.96	89.714	-2.9742e+05	3009.9	-0.48751	0.81193	0.34775
2.962	89.882	-2.9743e+05	3009.7	-0.48702	0.81272	0.34833
2.964	90.033	-2.9743e+05	3009.5	-0.48654	0.8135	0.34892
2.966	90.141	-2.9743e+05	3009.3	-0.48644	0.81291	0.34902
2.968	90.212	-2.9743e+05	3009.1	-0.48634	0.81232	0.34912
2.97	90.271	-2.9743e+05	3008.9	-0.48624	0.81174	0.34921
2.972	90.334	-2.9743e+05	3008.7	-0.48615	0.81115	0.34931
2.974	90.399	-2.9743e+05	3008.5	-0.48605	0.81057	0.34941
2.976	90.441	-2.9743e+05	3008.4	-0.48732	0.81106	0.3498
2.978	90.443	-2.9744e+05	3008.2	-0.48859	0.81154	0.35019
2.98	90.408	-2.9745e+05	3008.1	-0.48985	0.81203	0.35058
2.982	90.372	-2.9745e+05	3007.9	-0.49112	0.81252	0.35097
2.984	90.359	-2.9745e+05	3007.8	-0.49239	0.81301	0.35136
2.986	90.385	-2.9744e+05	3007.7	-0.4922	0.8132	0.35146
2.988	90.456	-2.9744e+05	3007.6	-0.492	0.8134	0.35156
2.99	90.532	-2.9744e+05	3007.6	-0.49181	0.81359	0.35165
2.992	90.572	-2.9744e+05	3007.5	-0.49161	0.81379	0.35175
2.994	90.558	-2.9744e+05	3007.4	-0.49142	0.81398	0.35185
2.996	90.509	-2.9744e+05	3007.4	-0.49112	0.81428	0.35126
2.998	90.448	-2.9744e+05	3007.3	-0.49083	0.81457	0.35068
3	90.397	-2.9744e+05	3007.2	-0.49054	0.81486	0.35009
3.002	90.393	-2.9744e+05	3007	-0.49024	0.81516	0.34951
3.004	90.429	-2.9744e+05	3006.8	-0.48995	0.81545	0.34892
3.006	90.478	-2.9745e+05	3006.6	-0.48917	0.81574	0.34863
3.008	90.522	-2.9745e+05	3006.4	-0.48839	0.81603	0.34833
3.01	90.526	-2.9744e+05	3006.2	-0.48761	0.81633	0.34804
3.012	90.491	-2.9744e+05	3006	-0.48683	0.81662	0.34775
3.014	90.442	-2.9744e+05	3005.8	-0.48605	0.81691	0.34746
3.016	90.388	-2.9744e+05	3005.6	-0.48673	0.81691	0.34804
3.018	90.375	-2.9744e+05	3005.4	-0.48741	0.81691	0.34863
3.02	90.402	-2.9744e+05	3005.2	-0.4881	0.81691	0.34921
3.022	90.453	-2.9745e+05	3005	-0.48878	0.81691	0.3498
3.024	90.504	-2.9746e+05	3004.8	-0.48946	0.81691	0.35038
3.026	90.519	-2.9746e+05	3004.7	-0.48937	0.81672	0.35009
3.028	90.5	-2.9745e+05	3004.5	-0.48927	0.81652	0.3498
3.03	90.453	-2.9746e+05	3004.3	-0.48917	0.81633	0.34951
3.032	90.401	-2.9746e+05	3004.1	-0.48907	0.81613	0.34921
3.034	90.375	-2.9746e+05	3004	-0.48898	0.81594	0.34892
3.036	90.383	-2.9746e+05	3003.8	-0.49229	0.81623	0.34999
3.038	90.421	-2.9745e+05	3003.6	-0.49561	0.81652	0.35107
3.04	90.471	-2.9745e+05	3003.5	-0.49893	0.81681	0.35214
3.042	90.504	-2.9745e+05	3003.3	-0.50225	0.81711	0.35321
3.044	90.499	-2.9746e+05	3003.2	-0.50557	0.8174	0.35429
3.046	90.458	-2.9746e+05	3003	-0.50537	0.81769	0.35429
3.048	90.403	-2.9746e+05	3002.8	-0.50518	0.81799	0.35429
3.05	90.365	-2.9746e+05	3002.6	-0.50498	0.81828	0.35429
3.052	90.365	-2.9746e+05	3002.4	-0.50479	0.81857	0.35429
3.054	90.399	-2.9746e+05	3002.3	-0.50459	0.81886	0.35429
3.056	90.447	-2.9745e+05	3002	-0.50284	0.81672	0.35243
3.058	90.489	-2.9745e+05	3001.7	-0.50108	0.81457	0.35058
3.06	90.496	-2.9745e+05	3001.4	-0.49932	0.81242	0.34872
3.062	90.466	-2.9746e+05	3001.1	-0.49756	0.81028	0.34687
3.064	90.413	-2.9746e+05	3000.8	-0.49581	0.80813	0.34502
3.066	90.365	-2.9746e+05	3000.6	-0.49727	0.80803	0.34424
3.068	90.35	-2.9746e+05	3000.4	-0.49874	0.80793	0.34345
3.07	90.37	-2.9746e+05	3000.3	-0.5002	0.80784	0.34267
3.072	90.412	-2.9747e+05	3000.4	-0.50166	0.80774	0.34189
3.074	90.465	-2.9746e+05	3000.4	-0.50313	0.80764	0.34111
3.076	90.487	-2.9746e+05	3001.2	-0.50284	0.80715	0.34111
3.078	90.462	-2.9746e+05	3001.9	-0.50254	0.80666	0.34111
3.08	90.408	-2.9746e+05	3003	-0.50225	0.80618	0.34111
3.082	90.348	-2.9746e+05	3004.4	-0.50196	0.80569	0.34111
3.084	90.315	-2.9747e+05	3005.7	-0.50166	0.8052	0.34111
3.086	90.327	-2.9746e+05	3007.5	-0.50118	0.8053	0.34072
3.088	90.368	-2.9746e+05	3009.3	-0.50069	0.8054	0.34033
3.09	90.418	-2.9746e+05	3011.2	-0.5002	0.80549	0.33994
3.092	90.447	-2.9746e+05	3013.2	-0.49971	0.80559	0.33955
3.094	90.437	-2.9746e+05	3015.2	-0.49922	0.80569	0.33916
3.096	90.392	-2.9746e+05	3017.2	-0.49756	0.80461	0.34092
3.098	90.332	-2.9746e+05	3019.2	-0.49591	0.80354	0.34267
3.1	90.288	-2.9746e+05	3021.2	-0.49425	0.80247	0.34443
3.102	90.28	-2.9746e+05	3023.2	-0.49259	0.80139	0.34619
3.104	90.311	-2.9746e+05	3025.2	-0.49093	0.80032	0.34794
3.106	90.367	-2.9746e+05	3027.1	-0.49024	0.80139	0.34716
3.108	90.404	-2.9746e+05	3028.9	-0.48956	0.80247	0.34638
3.11	90.399	-2.9746e+05	3030.7	-0.48888	0.80354	0.3456
3.112	90.362	-2.9747e+05	3032.4	-0.4882	0.80461	0.34482
3.114	90.306	-2.9747e+05	3034	-0.48751	0.80569	0.34404
3.116	90.255	-2.9747e+05	3035.5	-0.48937	0.8054	0.34394
3.118	90.237	-2.9746e+05	3036.9	-0.49122	0.8051	0.34384
3.12	90.254	-2.9745e+05	3038.3	-0.49308	0.80481	0.34375
3.122	90.296	-2.9746e+05	3039.5	-0.49493	0.80452	0.34365
3.124	90.338	-2.9746e+05	3040.8	-0.49678	0.80422	0.34355
3.126	90.352	-2.9746e+05	3041.9	-0.49747	0.8054	0.34336
3.128	90.325	-2.9745e+05	3043	-0.49815	0.80657	0.34316
3.13	90.274	-2.9745e+05	3044.1	-0.49883	0.80774	0.34297
3.132	90.224	-2.9745e+05	3045	-0.49952	0.80891	0.34277
3.134	90.192	-2.9745e+05	3045.9	-0.5002	0.81008	0.34258
3.136	90.192	-2.9745e+05	3046.6	-0.50059	0.81057	0.34267
3.138	90.225	-2.9745e+05	3047.4	-0.50098	0.81106	0.34277
3.14	90.273	-2.9745e+05	3048.1	-0.50137	0.81154	0.34287
3.142	90.305	-2.9745e+05	3048.7	-0.50176	0.81203	0.34297
3.144	90.296	-2.9745e+05	3049.4	-0.50215	0.81252	0.34306
3.146	90.246	-2.9745e+05	3049.9	-0.50147	0.81086	0.34326
3.148	90.189	-2.9744e+05	3050.4	-0.50079	0.8092	0.34345
3.15	90.148	-2.9744e+05	3050.8	-0.5001	0.80754	0.34365
3.152	90.139	-2.9744e+05	3051.2	-0.49942	0.80588	0.34384
3.154	90.168	-2.9745e+05	3051.6	-0.49874	0.80422	0.34404
3.156	90.222	-2.9745e+05	3051.9	-0.49835	0.8053	0.34424
3.158	90.267	-2.9744e+05	3052.2	-0.49796	0.80637	0.34443
3.16	90.272	-2.9744e+05	3052.4	-0.49756	0.80744	0.34463
3.162	90.242	-2.9744e+05	3052.6	-0.49717	0.80852	0.34482
3.164	90.183	-2.9743e+05	3052.7	-0.49678	0.80959	0.34502
3.166	90.13	-2.9743e+05	3052.8	-0.49639	0.80871	0.34502
3.168	90.111	-2.9742e+05	3052.9	-0.496	0.80784	0.34502
3.17	90.126	-2.9742e+05	3053	-0.49561	0.80696	0.34502
3.172	90.172	-2.9742e+05	3053	-0.49522	0.80608	0.34502
3.174	90.223	-2.9743e+05	3053	-0.49483	0.8052	0.34502
3.176	90.249	-2.9744e+05	3052.9	-0.49591	0.80579	0.34424
3.178	90.23	-2.9743e+05	3052.8	-0.49698	0.80637	0.34345
3.18	90.179	-2.9743e+05	3052.7	-0.49805	0.80696	0.34267
3.182	90.119	-2.9742e+05	3052.5	-0.49913	0.80754	0.34189
3.184	90.087	-2.9742e+05	3052.4	-0.5002	0.80813	0.34111
3.186	90.103	-2.9742e+05	3052.2	-0.49844	0.8094	0.34336
3.188	90.146	-2.9743e+05	3052	-0.49669	0.81067	0.3456
3.19	90.204	-2.9742e+05	3051.8	-0.49493	0.81193	0.34785
3.192	90.244	-2.9742e+05	3051.5	-0.49317	0.8132	0.35009
3.194	90.241	-2.9741e+05	3051.3	-0.49142	0.81447	0.35234
3.196	90.207	-2.9741e+05	3051	-0.49054	0.81506	0.35195
3.198	90.159	-2.9741e+05	3050.8	-0.48966	0.81564	0.35156
3.2	90.125	-2.9742e+05	3050.5	-0.48878	0.81623	0.35116
3.202	90.124	-2.9741e+05	3050.2	-0.4879	0.81681	0.35077
3.204	90.159	-2.9741e+05	3049.9	-0.48702	0.8174	0.35038
3.206	90.217	-2.9741e+05	3049.6	-0.48751	0.81769	0.35019
3.208	90.266	-2.9741e+05	3049.3	-0.488	0.81799	0.34999
3.21	90.28	-2.9741e+05	3049	-0.48849	0.81828	0.3498
3.212	90.255	-2.9741e+05	3048.6	-0.48898	0.81857	0.3496
3.214	90.209	-2.9741e+05	3048.3	-0.48946	0.81886	0.34941
3.216	90.168	-2.9741e+05	3048	-0.48946	0.81877	0.3496
3.218	90.157	-2.9741e+05	3047.6	-0.48946	0.81867	0.3498
3.22	90.183	-2.9741e+05	3047.2	-0.48946	0.81857	0.34999
3.222	90.232	-2.9741e+05	3046.8	-0.48946	0.81847	0.35019
3.224	90.281	-2.974e+05	3046.4	-0.48946	0.81838	0.35038
3.226	90.305	-2.974e+05	3046	-0.48888	0.8173	0.35068
3.228	90.289	-2.974e+05	3045.6	-0.48829	0.81623	0.35097
3.23	90.244	-2.9741e+05	3045.1	-0.48771	0.81516	0.35126
3.232	90.196	-2.9741e+05	3044.7	-0.48712	0.81408	0.35156
3.234	90.17	-2.974e+05	3044.3	-0.48654	0.81301	0.35185
3.236	90.184	-2.974e+05	3043.8	-0.48732	0.81272	0.35087
3.238	90.23	-2.9739e+05	3043.3	-0.4881	0.81242	0.3499
3.24	90.289	-2.9739e+05	3042.8	-0.48888	0.81213	0.34892
3.242	90.329	-2.9739e+05	3042.3	-0.48966	0.81184	0.34794
3.244	90.33	-2.974e+05	3041.8	-0.49044	0.81154	0.34697
3.246	90.292	-2.974e+05	3041.4	-0.49103	0.81135	0.34638
3.248	90.235	-2.974e+05	3040.9	-0.49161	0.81115	0.3458
3.25	90.195	-2.974e+05	3040.3	-0.4922	0.81096	0.34521
3.252	90.195	-2.9739e+05	3039.8	-0.49278	0.81076	0.34463
3.254	90.23	-2.9739e+05	3039.3	-0.49337	0.81057	0.34404
3.256	90.29	-2.9739e+05	3038.7	-0.49171	0.81145	0.34531
3.258	90.338	-2.9739e+05	3038.2	-0.49005	0.81232	0.34658
3.26	90.347	-2.9738e+05	3037.6	-0.48839	0.8132	0.34785
3.262	90.32	-2.9739e+05	3037.1	-0.48673	0.81408	0.34912
3.264	90.266	-2.9739e+05	3036.5	-0.48507	0.81496	0.35038
3.266	90.22	-2.9739e+05	3035.9	-0.48566	0.81525	0.35038
3.268	90.209	-2.974e+05	3035.3	-0.48624	0.81555	0.35038
3.27	90.226	-2.974e+05	3034.7	-0.48683	0.81584	0.35038
3.272	90.277	-2.974e+05	3034.1	-0.48741	0.81613	0.35038
3.274	90.335	-2.9739e+05	3033.5	-0.488	0.81642	0.35038
3.276	90.357	-2.9739e+05	3032.8	-0.48849	0.81545	0.3499
3.278	90.336	-2.9739e+05	3032.1	-0.48898	0.81447	0.34941
3.28	90.292	-2.9739e+05	3031.5	-0.48946	0.8135	0.34892
3.282	90.243	-2.974e+05	3030.9	-0.48995	0.81252	0.34843
3.284	90.217	-2.974e+05	3030.3	-0.49044	0.81154	0.34794
3.286	90.228	-2.974e+05	3029.7	-0.48956	0.81232	0.34814
3.288	90.271	-2.9739e+05	3029.2	-0.48868	0.81311	0.34833
3.29	90.324	-2.9739e+05	3028.6	-0.4878	0.81389	0.34853
3.292	90.358	-2.9739e+05	3028	-0.48693	0.81467	0.34872
3.294	90.352	-2.9739e+05	3027.4	-0.48605	0.81545	0.34892
3.296	90.314	-2.9739e+05	3027	-0.48741	0.81437	0.34726
3.298	90.265	-2.9739e+05	3026.5	-0.48878	0.8133	0.3456
3.3	90.228	-2.9739e+05	3026	-0.49015	0.81223	0.34394
3.302	90.224	-2.974e+05	3025.5	-0.49151	0.81115	0.34228
3.304	90.254	-2.974e+05	3025.1	-0.49288	0.81008	0.34062
3.306	90.305	-2.974e+05	3024.7	-0.49405	0.80891	0.34072
3.308	90.354	-2.9739e+05	3024.3	-0.49522	0.80774	0.34082
3.31	90.369	-2.974e+05	3023.9	-0.49639	0.80657	0.34092
3.312	90.341	-2.974e+05	3023.6	-0.49756	0.8054	0.34101
3.314	90.289	-2.974e+05	3023.2	-0.49874	0.80422	0.34111
3.316	90.243	-2.9739e+05	3022.9	-0.49805	0.80491	0.34072
3.318	90.226	-2.974e+05	3022.5	-0.49737	0.80559	0.34033
3.32	90.247	-2.974e+05	3022.2	-0.49669	0.80627	0.33994
3.322	90.293	-2.974e+05	3021.9	-0.496	0.80696	0.33955
3.324	90.342	-2.974e+05	3021.7	-0.49532	0.80764	0.33916
3.326	90.367	-2.974e+05	3021.4	-0.49581	0.80754	0.33896
3.328	90.352	-2.974e+05	3021.2	-0.4963	0.80744	0.33877
3.33	90.304	-2.974e+05	3021	-0.49678	0.80735	0.33857
3.332	90.252	-2.974e+05	3020.8	-0.49727	0.80725	0.33838
3.334	90.229	-2.974e+05	3020.6	-0.49776	0.80715	0.33818
3.336	90.236	-2.974e+05	3020.5	-0.49766	0.80764	0.33887
3.338	90.278	-2.974e+05	3020.3	-0.49756	0.80813	0.33955
3.34	90.334	-2.9739e+05	3020.2	-0.49747	0.80862	0.34023
3.342	90.373	-2.974e+05	3020.1	-0.49737	0.8091	0.34092
3.344	90.374	-2.974e+05	3020	-0.49727	0.80959	0.3416
3.346	90.331	-2.974e+05	3020	-0.49512	0.80998	0.34277
3.348	90.27	-2.9741e+05	3019.9	-0.49298	0.81037	0.34394
3.35	90.23	-2.9741e+05	3019.8	-0.49083	0.81076	0.34511
3.352	90.222	-2.974e+05	3019.8	-0.48868	0.81115	0.34628
3.354	90.249	-2.9741e+05	3019.7	-0.48654	0.81154	0.34746
3.356	90.301	-2.9741e+05	3019.7	-0.48751	0.81272	0.34824
3.358	90.343	-2.9741e+05	3019.7	-0.48849	0.81389	0.34902
3.36	90.347	-2.9741e+05	3019.7	-0.48946	0.81506	0.3498
3.362	90.32	-2.974e+05	3019.7	-0.49044	0.81623	0.35058
3.364	90.273	-2.974e+05	3019.7	-0.49142	0.8174	0.35136
3.366	90.226	-2.974e+05	3019.7	-0.49024	0.8175	0.35087
3.368	90.209	-2.974e+05	3019.6	-0.48907	0.8176	0.35038
3.37	90.222	-2.974e+05	3019.6	-0.4879	0.81769	0.3499
3.372	90.269	-2.974e+05	3019.6	-0.48673	0.81779	0.34941
3.374	90.328	-2.974e+05	3019.6	-0.48556	0.81789	0.34892
3.376	90.348	-2.974e+05	3019.6	-0.48615	0.81838	0.34882
3.378	90.325	-2.974e+05	3019.5	-0.48673	0.81886	0.34872
3.38	90.278	-2.974e+05	3019.5	-0.48732	0.81935	0.34863
3.382	90.222	-2.9739e+05	3019.5	-0.4879	0.81984	0.34853
3.384	90.19	-2.9739e+05	3019.5	-0.48849	0.82033	0.34843
3.386	90.199	-2.974e+05	3019.4	-0.48859	0.81955	0.34785
3.388	90.228	-2.974e+05	3019.4	-0.48868	0.81877	0.34726
3.39	90.262	-2.974e+05	3019.3	-0.48878	0.81799	0.34668
3.392	90.286	-2.974e+05	3019.3	-0.48888	0.8172	0.34609
3.394	90.274	-2.974e+05	3019.2	-0.48898	0.81642	0.3455
3.396	90.228	-2.974e+05	3019.1	-0.48849	0.81623	0.34609
3.398	90.168	-2.974e+05	3019	-0.488	0.81603	0.34668
3.4	90.125	-2.974e+05	3019	-0.48751	0.81584	0.34726
3.402	90.127	-2.974e+05	3018.9	-0.48702	0.81564	0.34785
3.404	90.167	-2.974e+05	3018.8	-0.48654	0.81545	0.34843
3.406	90.234	-2.974e+05	3018.7	-0.48644	0.81564	0.34863
3.408	90.283	-2.974e+05	3018.6	-0.48634	0.81584	0.34882
3.41	90.291	-2.974e+05	3018.5	-0.48624	0.81603	0.34902
3.412	90.27	-2.9739e+05	3018.3	-0.48615	0.81623	0.34921
3.414	90.224	-2.9739e+05	3018.2	-0.48605	0.81642	0.34941
3.416	90.176	-2.974e+05	3018.1	-0.48507	0.81574	0.34931
3.418	90.164	-2.974e+05	3018	-0.4841	0.81506	0.34921
3.42	90.198	-2.974e+05	3017.8	-0.48312	0.81437	0.34912
3.422	90.249	-2.974e+05	3017.7	-0.48214	0.81369	0.34902
3.424	90.314	-2.974e+05	3017.5	-0.48117	0.81301	0.34892
3.426	90.356	-2.974e+05	3017.4	-0.48166	0.8132	0.34931
3.428	90.355	-2.974e+05	3017.2	-0.48214	0.8134	0.3497
3.43	90.307	-2.974e+05	3017.1	-0.48263	0.81359	0.35009
3.432	90.25	-2.974e+05	3016.9	-0.48312	0.81379	0.35048
3.434	90.219	-2.974e+05	3016.8	-0.48361	0.81398	0.35087
3.436	90.231	-2.974e+05	3016.6	-0.48468	0.81369	0.35077
3.438	90.271	-2.974e+05	3016.4	-0.48576	0.8134	0.35068
3.44	90.326	-2.974e+05	3016.3	-0.48683	0.81311	0.35058
3.442	90.363	-2.9741e+05	3016.1	-0.4879	0.81281	0.35048
3.444	90.365	-2.9741e+05	3015.9	-0.48898	0.81252	0.35038
3.446	90.33	-2.974e+05	3015.8	-0.4881	0.81203	0.34951
3.448	90.274	-2.974e+05	3015.6	-0.48722	0.81154	0.34863
3.45	90.23	-2.974e+05	3015.4	-0.48634	0.81106	0.34775
3.452	90.229	-2.974e+05	3015.3	-0.48546	0.81057	0.34687
3.454	90.255	-2.974e+05	3015.2	-0.48458	0.81008	0.34599
3.456	90.307	-2.974e+05	3014.9	-0.48468	0.81057	0.34658
3.458	90.357	-2.974e+05	3014.7	-0.48478	0.81106	0.34716
3.46	90.367	-2.974e+05	3014.5	-0.48488	0.81154	0.34775
3.462	90.342	-2.974e+05	3014.3	-0.48497	0.81203	0.34833
3.464	90.294	-2.9739e+05	3014.2	-0.48507	0.81252	0.34892
3.466	90.244	-2.974e+05	3014	-0.48497	0.81291	0.34892
3.468	90.224	-2.974e+05	3013.8	-0.48488	0.8133	0.34892
3.47	90.244	-2.974e+05	3013.7	-0.48478	0.81369	0.34892
3.472	90.289	-2.974e+05	3013.5	-0.48468	0.81408	0.34892
3.474	90.335	-2.974e+05	3013.3	-0.48458	0.81447	0.34892
3.476	90.359	-2.974e+05	3013.2	-0.48429	0.81311	0.34804
3.478	90.342	-2.974e+05	3013	-0.484	0.81174	0.34716
3.48	90.295	-2.974e+05	3012.8	-0.48371	0.81037	0.34628
3.482	90.242	-2.974e+05	3012.6	-0.48341	0.80901	0.34541
3.484	90.211	-2.9741e+05	3012.4	-0.48312	0.80764	0.34453
3.486	90.223	-2.974e+05	3012.3	-0.48576	0.80725	0.34345
3.488	90.264	-2.974e+05	3012.1	-0.48839	0.80686	0.34238
3.49	90.32	-2.974e+05	3011.9	-0.49103	0.80647	0.34131
3.492	90.359	-2.9741e+05	3011.7	-0.49366	0.80608	0.34023
3.494	90.36	-2.974e+05	3011.5	-0.4963	0.80569	0.33916
3.496	90.326	-2.9739e+05	3011.3	-0.49669	0.80579	0.33984
3.498	90.276	-2.974e+05	3011.1	-0.49708	0.80588	0.34053
3.5	90.235	-2.974e+05	3010.9	-0.49747	0.80598	0.34121
3.502	90.223	-2.974e+05	3010.8	-0.49786	0.80608	0.34189
3.504	90.247	-2.974e+05	3010.6	-0.49825	0.80618	0.34258
3.506	90.289	-2.974e+05	3010.4	-0.49737	0.80705	0.34248
3.508	90.33	-2.974e+05	3010.2	-0.49649	0.80793	0.34238
3.51	90.312	-2.974e+05	3010	-0.49561	0.80881	0.34228
3.512	90.23	-2.974e+05	3009.8	-0.49473	0.80969	0.34219
3.514	90.109	-2.974e+05	3009.6	-0.49386	0.81057	0.34209
3.516	89.988	-2.974e+05	3009.5	-0.49268	0.81096	0.34336
3.518	89.877	-2.974e+05	3009.3	-0.49151	0.81135	0.34463
3.52	89.761	-2.974e+05	3009.1	-0.49034	0.81174	0.34589
3.522	89.668	-2.974e+05	3008.9	-0.48917	0.81213	0.34716
3.524	89.594	-2.974e+05	3008.7	-0.488	0.81252	0.34843
3.526	89.55	-2.974e+05	3008.4	-0.48849	0.81272	0.34872
3.528	89.524	-2.974e+05	3008.2	-0.48898	0.81291	0.34902
3.53	89.53	-2.974e+05	3008	-0.48946	0.81311	0.34931
3.532	89.587	-2.974e+05	3007.9	-0.48995	0.8133	0.3496
3.534	89.734	-2.974e+05	3007.8	-0.49044	0.8135	0.3499
3.536	89.935	-2.974e+05	3007.5	-0.49083	0.8133	0.35048
3.538	90.124	-2.974e+05	3007.3	-0.49122	0.81311	0.35107
3.54	90.261	-2.974e+05	3007.1	-0.49161	0.81291	0.35165
3.542	90.34	-2.9741e+05	3006.9	-0.492	0.81272	0.35224
3.544	90.352	-2.9741e+05	3006.7	-0.49239	0.81252	0.35282
3.546	90.327	-2.9741e+05	3006.5	-0.4921	0.81164	0.35185
3.548	90.296	-2.9741e+05	3006.3	-0.49181	0.81076	0.35087
3.55	90.283	-2.9741e+05	3006.1	-0.49151	0.80988	0.3499
3.552	90.296	-2.9741e+05	3006	-0.49122	0.80901	0.34892
3.554	90.331	-2.9741e+05	3005.8	-0.49093	0.80813	0.34794
3.556	90.378	-2.9741e+05	3005.6	-0.49005	0.80949	0.34843
3.558	90.42	-2.9741e+05	3005.5	-0.48917	0.81086	0.34892
3.56	90.435	-2.9741e+05	3005.3	-0.48829	0.81223	0.34941
3.562	90.414	-2.9741e+05	3005.2	-0.48741	0.81359	0.3499
3.564	90.366	-2.9741e+05	3005	-0.48654	0.81496	0.35038
3.566	90.315	-2.9741e+05	3004.9	-0.48761	0.81428	0.35068
3.568	90.291	-2.9742e+05	3004.7	-0.48868	0.81359	0.35097
3.57	90.296	-2.9741e+05	3004.5	-0.48976	0.81291	0.35126
3.572	90.33	-2.9741e+05	3004.3	-0.49083	0.81223	0.35156
3.574	90.377	-2.9741e+05	3004.1	-0.4919	0.81154	0.35185
3.576	90.398	-2.9741e+05	3004	-0.4919	0.81164	0.35175
3.578	90.375	-2.9741e+05	3003.8	-0.4919	0.81174	0.35165
3.58	90.322	-2.974e+05	3003.7	-0.4919	0.81184	0.35156
3.582	90.27	-2.974e+05	3003.5	-0.4919	0.81193	0.35146
3.584	90.235	-2.974e+05	3003.4	-0.4919	0.81203	0.35136
3.586	90.236	-2.974e+05	3003.2	-0.49151	0.81301	0.35156
3.588	90.274	-2.974e+05	3003	-0.49112	0.81398	0.35175
3.59	90.321	-2.974e+05	3002.8	-0.49073	0.81496	0.35195
3.592	90.354	-2.974e+05	3002.5	-0.49034	0.81594	0.35214
3.594	90.352	-2.9741e+05	3002.3	-0.48995	0.81691	0.35234
3.596	90.315	-2.9741e+05	3002.1	-0.48937	0.81642	0.35146
3.598	90.259	-2.9741e+05	3001.8	-0.48878	0.81594	0.35058
3.6	90.212	-2.974e+05	3001.6	-0.4882	0.81545	0.3497
3.602	90.201	-2.974e+05	3001.4	-0.48761	0.81496	0.34882
3.604	90.228	-2.9741e+05	3001.2	-0.48702	0.81447	0.34794
3.606	90.288	-2.9741e+05	3001	-0.48663	0.81486	0.34824
3.608	90.338	-2.9741e+05	3000.8	-0.48624	0.81525	0.34853
3.61	90.344	-2.9741e+05	3000.7	-0.48585	0.81564	0.34882
3.612	90.322	-2.974e+05	3000.5	-0.48546	0.81603	0.34912
3.614	90.27	-2.974e+05	3000.4	-0.48507	0.81642	0.34941
3.616	90.218	-2.9741e+05	3000.3	-0.48556	0.81711	0.34902
3.618	90.205	-2.9741e+05	3000.2	-0.48605	0.81779	0.34863
3.62	90.222	-2.9741e+05	3000.1	-0.48654	0.81847	0.34824
3.622	90.262	-2.9741e+05	3000	-0.48702	0.81916	0.34785
3.624	90.313	-2.9741e+05	2999.8	-0.48751	0.81984	0.34746
3.626	90.341	-2.9741e+05	2999.7	-0.48937	0.81877	0.34668
3.628	90.324	-2.9741e+05	2999.6	-0.49122	0.81769	0.34589
3.63	90.274	-2.9741e+05	2999.4	-0.49308	0.81662	0.34511
3.632	90.219	-2.9741e+05	2999.1	-0.49493	0.81555	0.34433
3.634	90.186	-2.9741e+05	2998.9	-0.49678	0.81447	0.34355
3.636	90.191	-2.9741e+05	2998.7	-0.49366	0.81428	0.34482
3.638	90.237	-2.9741e+05	2998.5	-0.49054	0.81408	0.34609
3.64	90.293	-2.9741e+05	2998.3	-0.48741	0.81389	0.34736
3.642	90.325	-2.9741e+05	2998.1	-0.48429	0.81369	0.34863
3.644	90.322	-2.974e+05	2997.9	-0.48117	0.8135	0.3499
3.646	90.284	-2.974e+05	2997.9	-0.48224	0.81291	0.34872
3.648	90.227	-2.974e+05	2997.9	-0.48332	0.81232	0.34755
3.65	90.181	-2.974e+05	2998.2	-0.48439	0.81174	0.34638
3.652	90.174	-2.9739e+05	2998.7	-0.48546	0.81115	0.34521
3.654	90.205	-2.974e+05	2999.3	-0.48654	0.81057	0.34404
3.656	90.253	-2.9741e+05	3000.5	-0.48497	0.81057	0.34394
3.658	90.294	-2.9741e+05	3001.8	-0.48341	0.81057	0.34384
3.66	90.31	-2.9741e+05	3003.3	-0.48185	0.81057	0.34375
3.662	90.286	-2.9741e+05	3005.1	-0.48029	0.81057	0.34365
3.664	90.235	-2.9741e+05	3006.9	-0.47873	0.81057	0.34355
3.666	90.183	-2.9741e+05	3009	-0.47961	0.81106	0.34394
3.668	90.149	-2.974e+05	3011.1	-0.48048	0.81154	0.34433
3.67	90.165	-2.9741e+05	3013.3	-0.48136	0.81203	0.34472
3.672	90.211	-2.9741e+05	3015.4	-0.48224	0.81252	0.34511
3.674	90.261	-2.9741e+05	3017.5	-0.48312	0.81301	0.3455
3.676	90.281	-2.9741e+05	3019.5	-0.48292	0.81213	0.34472
3.678	90.261	-2.974e+05	3021.5	-0.48273	0.81125	0.34394
3.68	90.209	-2.974e+05	3023.5	-0.48253	0.81037	0.34316
3.682	90.155	-2.9739e+05	3025.4	-0.48234	0.80949	0.34238
3.684	90.119	-2.9739e+05	3027.3	-0.48214	0.80862	0.3416
3.686	90.124	-2.9739e+05	3029	-0.48175	0.80852	0.34228
3.688	90.153	-2.9739e+05	3030.7	-0.48136	0.80842	0.34297
3.69	90.212	-2.974e+05	3032.3	-0.48097	0.80832	0.34365
3.692	90.242	-2.974e+05	3033.7	-0.48058	0.80823	0.34433
3.694	90.235	-2.974e+05	3035.2	-0.48019	0.80813	0.34502
3.696	90.191	-2.974e+05	3036.4	-0.48078	0.80881	0.3455
3.698	90.131	-2.974e+05	3037.7	-0.48136	0.80949	0.34599
3.7	90.082	-2.974e+05	3038.8	-0.48195	0.81018	0.34648
3.702	90.072	-2.9739e+05	3039.9	-0.48253	0.81086	0.34697
3.704	90.088	-2.9739e+05	3041	-0.48312	0.81154	0.34746
3.706	90.138	-2.9739e+05	3042	-0.48332	0.81145	0.34707
3.708	90.182	-2.9739e+05	3043	-0.48351	0.81135	0.34668
3.71	90.192	-2.9739e+05	3043.9	-0.48371	0.81125	0.34628
3.712	90.164	-2.9739e+05	3044.8	-0.4839	0.81115	0.34589
3.714	90.107	-2.9739e+05	3045.6	-0.4841	0.81106	0.3455
3.716	90.051	-2.9739e+05	3046.3	-0.48585	0.81106	0.34707
3.718	90.025	-2.9739e+05	3046.9	-0.48761	0.81106	0.34863
3.72	90.042	-2.9738e+05	3047.6	-0.48937	0.81106	0.35019
3.722	90.086	-2.9738e+05	3048.2	-0.49112	0.81106	0.35175
3.724	90.132	-2.9738e+05	3048.8	-0.49288	0.81106	0.35331
3.726	90.154	-2.9739e+05	3049.2	-0.4922	0.81106	0.35292
3.728	90.137	-2.974e+05	3049.7	-0.49151	0.81106	0.35253
3.73	90.092	-2.9739e+05	3050.1	-0.49083	0.81106	0.35214
3.732	90.041	-2.9739e+05	3050.4	-0.49015	0.81106	0.35175
3.734	90.008	-2.9738e+05	3050.7	-0.48946	0.81106	0.35136
3.736	90.006	-2.9737e+05	3050.9	-0.48966	0.81174	0.35195
3.738	90.036	-2.9737e+05	3051.1	-0.48985	0.81242	0.35253
3.74	90.083	-2.9737e+05	3051.2	-0.49005	0.81311	0.35312
3.742	90.118	-2.9737e+05	3051.3	-0.49024	0.81379	0.3537
3.744	90.121	-2.9737e+05	3051.4	-0.49044	0.81447	0.35429
3.746	90.082	-2.9737e+05	3051.4	-0.48878	0.81311	0.35253
3.748	90.023	-2.9737e+05	3051.5	-0.48712	0.81174	0.35077
3.75	89.975	-2.9736e+05	3051.5	-0.48546	0.81037	0.34902
3.752	89.971	-2.9736e+05	3051.5	-0.4838	0.80901	0.34726
3.754	90.005	-2.9736e+05	3051.5	-0.48214	0.80764	0.3455
3.756	90.057	-2.9736e+05	3051.4	-0.48224	0.80871	0.34628
3.758	90.111	-2.9735e+05	3051.3	-0.48234	0.80979	0.34707
3.76	90.131	-2.9735e+05	3051.2	-0.48244	0.81086	0.34785
3.762	90.107	-2.9735e+05	3051	-0.48253	0.81193	0.34863
3.764	90.057	-2.9735e+05	3050.9	-0.48263	0.81301	0.34941
3.766	90.009	-2.9735e+05	3050.7	-0.48244	0.81223	0.34814
3.768	89.989	-2.9735e+05	3050.5	-0.48224	0.81145	0.34687
3.77	90.014	-2.9735e+05	3050.4	-0.48205	0.81067	0.3456
3.772	90.077	-2.9735e+05	3050.2	-0.48185	0.80988	0.34433
3.774	90.14	-2.9735e+05	3050	-0.48166	0.8091	0.34306
3.776	90.17	-2.9734e+05	3049.8	-0.48166	0.81008	0.34453
3.778	90.161	-2.9734e+05	3049.5	-0.48166	0.81106	0.34599
3.78	90.121	-2.9734e+05	3049.3	-0.48166	0.81203	0.34746
3.782	90.074	-2.9733e+05	3049	-0.48166	0.81301	0.34892
3.784	90.047	-2.9733e+05	3048.8	-0.48166	0.81398	0.35038
3.786	90.052	-2.9733e+05	3048.5	-0.48156	0.81369	0.3498
3.788	90.092	-2.9733e+05	3048.1	-0.48146	0.8134	0.34921
3.79	90.148	-2.9733e+05	3047.8	-0.48136	0.81311	0.34863
3.792	90.195	-2.9734e+05	3047.5	-0.48127	0.81281	0.34804
3.794	90.199	-2.9734e+05	3047.1	-0.48117	0.81252	0.34746
3.796	90.165	-2.9734e+05	3046.7	-0.48029	0.81272	0.34726
3.798	90.119	-2.9733e+05	3046.2	-0.47941	0.81291	0.34707
3.8	90.083	-2.9732e+05	3045.8	-0.47853	0.81311	0.34687
3.802	90.078	-2.9732e+05	3045.4	-0.47765	0.8133	0.34668
3.804	90.11	-2.9732e+05	3045	-0.47678	0.8135	0.34648
3.806	90.163	-2.9732e+05	3044.5	-0.47707	0.8132	0.3458
3.808	90.211	-2.9733e+05	3044.1	-0.47736	0.81291	0.34511
3.81	90.228	-2.9733e+05	3043.7	-0.47765	0.81262	0.34443
3.812	90.205	-2.9732e+05	3043.2	-0.47795	0.81232	0.34375
3.814	90.154	-2.9733e+05	3042.7	-0.47824	0.81203	0.34306
3.816	90.107	-2.9733e+05	3042.2	-0.47912	0.81213	0.34345
3.818	90.087	-2.9733e+05	3041.7	-0.48	0.81223	0.34384
3.82	90.102	-2.9733e+05	3041.2	-0.48088	0.81232	0.34424
3.822	90.146	-2.9733e+05	3040.7	-0.48175	0.81242	0.34463
3.824	90.197	-2.9733e+05	3040.2	-0.48263	0.81252	0.34502
3.826	90.228	-2.9733e+05	3039.6	-0.48449	0.81428	0.34443
3.828	90.216	-2.9733e+05	3039	-0.48634	0.81603	0.34384
3.83	90.178	-2.9732e+05	3038.5	-0.4882	0.81779	0.34326
3.832	90.126	-2.9732e+05	3037.9	-0.49005	0.81955	0.34267
3.834	90.097	-2.9733e+05	3037.4	-0.4919	0.8213	0.34209
3.836	90.101	-2.9734e+05	3036.8	-0.48995	0.81935	0.34336
3.838	90.138	-2.9734e+05	3036.2	-0.488	0.8174	0.34463
3.84	90.189	-2.9734e+05	3035.6	-0.48605	0.81545	0.34589
3.842	90.235	-2.9734e+05	3035	-0.4841	0.8135	0.34716
3.844	90.239	-2.9733e+05	3034.4	-0.48214	0.81154	0.34843
3.846	90.208	-2.9734e+05	3033.8	-0.48273	0.81184	0.34785
3.848	90.156	-2.9734e+05	3033.2	-0.48332	0.81213	0.34726
3.85	90.118	-2.9734e+05	3032.7	-0.4839	0.81242	0.34668
3.852	90.102	-2.9733e+05	3032.1	-0.48449	0.81272	0.34609
3.854	90.127	-2.9733e+05	3031.5	-0.48507	0.81301	0.3455
3.856	90.182	-2.9733e+05	3031	-0.48517	0.81272	0.34511
3.858	90.239	-2.9733e+05	3030.5	-0.48527	0.81242	0.34472
3.86	90.254	-2.9733e+05	3030	-0.48536	0.81213	0.34433
3.862	90.216	-2.9734e+05	3029.5	-0.48546	0.81184	0.34394
3.864	90.173	-2.9734e+05	3029	-0.48556	0.81154	0.34355
3.866	90.132	-2.9734e+05	3028.6	-0.48507	0.81096	0.34463
3.868	90.104	-2.9734e+05	3028.1	-0.48458	0.81037	0.3457
3.87	90.122	-2.9733e+05	3027.7	-0.4841	0.80979	0.34677
3.872	90.172	-2.9732e+05	3027.3	-0.48361	0.8092	0.34785
3.874	90.232	-2.9732e+05	3026.9	-0.48312	0.80862	0.34892
3.876	90.255	-2.9732e+05	3026.5	-0.48244	0.80949	0.34863
3.878	90.247	-2.9732e+05	3026.1	-0.48175	0.81037	0.34833
3.88	90.208	-2.9732e+05	3025.7	-0.48107	0.81125	0.34804
3.882	90.155	-2.9732e+05	3025.4	-0.48039	0.81213	0.34775
3.884	90.119	-2.9732e+05	3025.1	-0.4797	0.81301	0.34746
3.886	90.126	-2.9732e+05	3024.8	-0.47931	0.81232	0.34755
3.888	90.163	-2.9733e+05	3024.5	-0.47892	0.81164	0.34765
3.89	90.214	-2.9732e+05	3024.2	-0.47853	0.81096	0.34775
3.892	90.256	-2.9731e+05	3023.9	-0.47814	0.81028	0.34785
3.894	90.256	-2.9731e+05	3023.6	-0.47775	0.80959	0.34794
3.896	90.22	-2.9731e+05	3023.3	-0.47795	0.8094	0.34765
3.898	90.169	-2.9731e+05	3023.1	-0.47814	0.8092	0.34736
3.9	90.128	-2.9732e+05	3022.9	-0.47834	0.80901	0.34707
3.902	90.122	-2.9732e+05	3022.7	-0.47853	0.80881	0.34677
3.904	90.149	-2.9732e+05	3022.5	-0.47873	0.80862	0.34648
3.906	90.191	-2.9732e+05	3022.3	-0.47912	0.80901	0.34716
3.908	90.229	-2.9732e+05	3022.2	-0.47951	0.8094	0.34785
3.91	90.245	-2.9731e+05	3022	-0.4799	0.80979	0.34853
3.912	90.225	-2.9731e+05	3021.9	-0.48029	0.81018	0.34921
3.914	90.179	-2.9732e+05	3021.7	-0.48068	0.81057	0.3499
3.916	90.129	-2.9733e+05	3021.6	-0.48097	0.80988	0.3498
3.918	90.101	-2.9732e+05	3021.5	-0.48127	0.8092	0.3497
3.92	90.115	-2.9732e+05	3021.4	-0.48156	0.80852	0.3496
3.922	90.159	-2.9732e+05	3021.3	-0.48185	0.80784	0.34951
3.924	90.216	-2.9732e+05	3021.2	-0.48214	0.80715	0.34941
3.926	90.249	-2.9732e+05	3021.2	-0.48312	0.80891	0.35038
3.928	90.237	-2.9732e+05	3021.1	-0.4841	0.81067	0.35136
3.93	90.189	-2.9732e+05	3021.1	-0.48507	0.81242	0.35234
3.932	90.136	-2.9732e+05	3021	-0.48605	0.81418	0.35331
3.934	90.097	-2.9732e+05	3020.9	-0.48702	0.81594	0.35429
3.936	90.098	-2.9732e+05	3020.9	-0.48732	0.81691	0.35351
3.938	90.132	-2.9732e+05	3020.8	-0.48761	0.81789	0.35273
3.94	90.176	-2.9731e+05	3020.7	-0.4879	0.81886	0.35195
3.942	90.222	-2.9732e+05	3020.7	-0.4882	0.81984	0.35116
3.944	90.21	-2.9732e+05	3020.6	-0.48849	0.82082	0.35038
3.946	90.159	-2.9732e+05	3020.6	-0.48888	0.81984	0.35107
3.948	90.103	-2.9732e+05	3020.5	-0.48927	0.81886	0.35175
3.95	90.057	-2.9732e+05	3020.5	-0.48966	0.81789	0.35243
3.952	90.03	-2.9732e+05	3020.4	-0.49005	0.81691	0.35312
3.954	90.06	-2.9732e+05	3020.4	-0.49044	0.81594	0.3538
3.956	90.113	-2.9732e+05	3020.3	-0.49064	0.81603	0.3539
3.958	90.159	-2.9731e+05	3020.2	-0.49083	0.81613	0.354
3.96	90.179	-2.9731e+05	3020.1	-0.49103	0.81623	0.35409
3.962	90.163	-2.9731e+05	3020.1	-0.49122	0.81633	0.35419
3.964	90.125	-2.9731e+05	3020	-0.49142	0.81642	0.35429
3.966	90.08	-2.9731e+05	3020	-0.49181	0.81584	0.35409
3.968	90.058	-2.9731e+05	3020	-0.4922	0.81525	0.3539
3.97	90.077	-2.9731e+05	3019.9	-0.49259	0.81467	0.3537
3.972	90.119	-2.9731e+05	3019.8	-0.49298	0.81408	0.35351
3.974	90.18	-2.9732e+05	3019.8	-0.49337	0.8135	0.35331
3.976	90.222	-2.9732e+05	3019.7	-0.49317	0.8133	0.35341
3.978	90.219	-2.9731e+05	3019.6	-0.49298	0.81311	0.35351
3.98	90.185	-2.9731e+05	3019.5	-0.49278	0.81291	0.3536
3.982	90.146	-2.9731e+05	3019.4	-0.49259	0.81272	0.3537
3.984	90.123	-2.9731e+05	3019.3	-0.49239	0.81252	0.3538
3.986	90.134	-2.9732e+05	3019.2	-0.49064	0.81272	0.3536
3.988	90.174	-2.9732e+05	3019.1	-0.48888	0.81291	0.35341
3.99	90.225	-2.9732e+05	3019	-0.48712	0.81311	0.35321
3.992	90.26	-2.9731e+05	3018.9	-0.48536	0.8133	0.35302
3.994	90.262	-2.973e+05	3018.9	-0.48361	0.8135	0.35282
3.996	90.233	-2.973e+05	3018.7	-0.48478	0.8132	0.35077
3.998	90.181	-2.973e+05	3018.6	-0.48595	0.81291	0.34872
4	90.137	-2.9731e+05	3018.4	-0.48712	0.81262	0.34668
4.002	90.127	-2.9731e+05	3018.3	-0.48829	0.81232	0.34463
4.004	90.156	-2.9731e+05	3018.1	-0.48946	0.81203	0.34258
4.006	90.21	-2.9731e+05	3018	-0.48907	0.81145	0.34248
4.008	90.258	-2.9731e+05	3017.8	-0.48868	0.81086	0.34238
4.01	90.279	-2.9731e+05	3017.7	-0.48829	0.81028	0.34228
4.012	90.26	-2.973e+05	3017.5	-0.4879	0.80969	0.34219
4.014	90.211	-2.9731e+05	3017.4	-0.48751	0.8091	0.34209
4.016	90.159	-2.9731e+05	3017.3	-0.48722	0.81018	0.34287
4.018	90.133	-2.9731e+05	3017.1	-0.48693	0.81125	0.34365
4.02	90.151	-2.973e+05	3017	-0.48663	0.81232	0.34443
4.022	90.193	-2.9731e+05	3016.8	-0.48634	0.8134	0.34521
4.024	90.245	-2.9732e+05	3016.6	-0.48605	0.81447	0.34599
4.026	90.282	-2.9732e+05	3016.4	-0.48527	0.81398	0.34589
4.028	90.274	-2.9732e+05	3016.3	-0.48449	0.8135	0.3458
4.03	90.232	-2.9732e+05	3016.1	-0.48371	0.81301	0.3457
4.032	90.18	-2.9731e+05	3015.9	-0.48292	0.81252	0.3456
4.034	90.138	-2.9731e+05	3015.7	-0.48214	0.81203	0.3455
4.036	90.137	-2.973e+05	3015.5	-0.48312	0.81203	0.34511
4.038	90.182	-2.9731e+05	3015.3	-0.4841	0.81203	0.34472
4.04	90.232	-2.9731e+05	3015.1	-0.48507	0.81203	0.34433
4.042	90.274	-2.9732e+05	3014.9	-0.48605	0.81203	0.34394
4.044	90.28	-2.9732e+05	3014.7	-0.48702	0.81203	0.34355
4.046	90.248	-2.9731e+05	3014.5	-0.48683	0.81193	0.34297
4.048	90.202	-2.9731e+05	3014.4	-0.48663	0.81184	0.34238
4.05	90.163	-2.9731e+05	3014.2	-0.48644	0.81174	0.3418
4.052	90.153	-2.973e+05	3014	-0.48624	0.81164	0.34121
4.054	90.177	-2.9732e+05	3013.8	-0.48605	0.81154	0.34062
4.056	90.233	-2.9733e+05	3013.6	-0.48517	0.81145	0.3417
4.058	90.281	-2.9732e+05	3013.4	-0.48429	0.81135	0.34277
4.06	90.291	-2.9731e+05	3013.2	-0.48341	0.81125	0.34384
4.062	90.265	-2.9731e+05	3012.9	-0.48253	0.81115	0.34492
4.064	90.212	-2.9731e+05	3012.7	-0.48166	0.81106	0.34599
4.066	90.142	-2.9731e+05	3012.5	-0.4839	0.81115	0.34482
4.068	90.086	-2.9731e+05	3012.2	-0.48615	0.81125	0.34365
4.07	90.06	-2.973e+05	3012	-0.48839	0.81135	0.34248
4.072	90.051	-2.973e+05	3011.8	-0.49064	0.81145	0.34131
4.074	90.032	-2.973e+05	3011.5	-0.49288	0.81154	0.34014
4.076	89.97	-2.973e+05	3011.3	-0.49083	0.81106	0.34121
4.078	89.85	-2.973e+05	3011.1	-0.48878	0.81057	0.34228
4.08	89.702	-2.973e+05	3010.8	-0.48673	0.81008	0.34336
4.082	89.569	-2.9731e+05	3010.6	-0.48468	0.80959	0.34443
4.084	89.5	-2.9731e+05	3010.4	-0.48263	0.8091	0.3455
4.086	89.526	-2.9731e+05	3010.2	-0.4838	0.81008	0.34531
4.088	89.646	-2.9731e+05	3010	-0.48497	0.81106	0.34511
4.09	89.832	-2.9731e+05	3009.8	-0.48615	0.81203	0.34492
4.092	90.033	-2.9731e+05	3009.5	-0.48732	0.81301	0.34472
4.094	90.176	-2.973e+05	3009.3	-0.48849	0.81398	0.34453
4.096	90.232	-2.973e+05	3009.1	-0.488	0.81281	0.34404
4.098	90.23	-2.973e+05	3008.8	-0.48751	0.81164	0.34355
4.1	90.215	-2.9731e+05	3008.6	-0.48702	0.81047	0.34306
4.102	90.218	-2.9731e+05	3008.3	-0.48654	0.8093	0.34258
4.104	90.257	-2.9731e+05	3008.1	-0.48605	0.80813	0.34209
4.106	90.324	-2.973e+05	3007.9	-0.48546	0.80774	0.34238
4.108	90.381	-2.973e+05	3007.7	-0.48488	0.80735	0.34267
4.11	90.4	-2.973e+05	3007.5	-0.48429	0.80696	0.34297
4.112	90.379	-2.9731e+05	3007.3	-0.48371	0.80657	0.34326
4.114	90.323	-2.9731e+05	3007.1	-0.48312	0.80618	0.34355
4.116	90.261	-2.9731e+05	3006.9	-0.48312	0.80647	0.34345
4.118	90.242	-2.9731e+05	3006.7	-0.48312	0.80676	0.34336
4.12	90.26	-2.9731e+05	3006.5	-0.48312	0.80705	0.34326
4.122	90.308	-2.9731e+05	3006.3	-0.48312	0.80735	0.34316
4.124	90.354	-2.9731e+05	3006.1	-0.48312	0.80764	0.34306
4.126	90.372	-2.9731e+05	3005.8	-0.48283	0.80735	0.34345
4.128	90.353	-2.9731e+05	3005.6	-0.48253	0.80705	0.34384
4.13	90.303	-2.9731e+05	3005.4	-0.48224	0.80676	0.34424
4.132	90.243	-2.9731e+05	3005.2	-0.48195	0.80647	0.34463
4.134	90.204	-2.973e+05	3005	-0.48166	0.80618	0.34502
4.136	90.204	-2.973e+05	3004.8	-0.48117	0.80676	0.34531
4.138	90.239	-2.973e+05	3004.7	-0.48068	0.80735	0.3456
4.14	90.289	-2.973e+05	3004.5	-0.48019	0.80793	0.34589
4.142	90.326	-2.9731e+05	3004.4	-0.4797	0.80852	0.34619
4.144	90.325	-2.9731e+05	3004.2	-0.47922	0.8091	0.34648
4.146	90.29	-2.973e+05	3003.9	-0.48048	0.80901	0.3455
4.148	90.235	-2.973e+05	3003.7	-0.48175	0.80891	0.34453
4.15	90.191	-2.9731e+05	3003.4	-0.48302	0.80881	0.34355
4.152	90.181	-2.9731e+05	3003.2	-0.48429	0.80871	0.34258
4.154	90.203	-2.9731e+05	3002.9	-0.48556	0.80862	0.3416
4.156	90.248	-2.973e+05	3002.7	-0.48576	0.80979	0.34277
4.158	90.294	-2.973e+05	3002.5	-0.48595	0.81096	0.34394
4.16	90.312	-2.9731e+05	3002.3	-0.48615	0.81213	0.34511
4.162	90.287	-2.9731e+05	3002.2	-0.48634	0.8133	0.34628
4.164	90.236	-2.9731e+05	3002.1	-0.48654	0.81447	0.34746
4.166	90.186	-2.9731e+05	3001.9	-0.48536	0.81408	0.34677
4.168	90.16	-2.973e+05	3001.8	-0.48419	0.81369	0.34609
4.17	90.173	-2.9731e+05	3001.7	-0.48302	0.8133	0.34541
4.172	90.209	-2.9731e+05	3001.6	-0.48185	0.81291	0.34472
4.174	90.257	-2.973e+05	3001.5	-0.48068	0.81252	0.34404
4.176	90.29	-2.973e+05	3001.4	-0.48097	0.81281	0.34492
4.178	90.279	-2.973e+05	3001.3	-0.48127	0.81311	0.3458
4.18	90.236	-2.9731e+05	3001.1	-0.48156	0.8134	0.34668
4.182	90.181	-2.9731e+05	3000.9	-0.48185	0.81369	0.34755
4.184	90.141	-2.973e+05	3000.8	-0.48214	0.81398	0.34843
4.186	90.148	-2.9731e+05	3000.5	-0.48127	0.81476	0.34853
4.188	90.181	-2.9731e+05	3000.3	-0.48039	0.81555	0.34863
4.19	90.236	-2.9731e+05	3000.1	-0.47951	0.81633	0.34872
4.192	90.281	-2.973e+05	2999.8	-0.47863	0.81711	0.34882
4.194	90.287	-2.973e+05	2999.6	-0.47775	0.81789	0.34892
4.196	90.253	-2.9731e+05	2999.3	-0.47795	0.81691	0.34902
4.198	90.199	-2.973e+05	2999.1	-0.47814	0.81594	0.34912
4.2	90.15	-2.973e+05	2999	-0.47834	0.81496	0.34921
4.202	90.139	-2.973e+05	2998.8	-0.47853	0.81398	0.34931
4.204	90.175	-2.9731e+05	2998.7	-0.47873	0.81301	0.34941
4.206	90.232	-2.9731e+05	2998.9	-0.47873	0.8135	0.34951
4.208	90.283	-2.973e+05	2999.1	-0.47873	0.81398	0.3496
4.21	90.297	-2.9731e+05	2999.7	-0.47873	0.81447	0.3497
4.212	90.278	-2.9731e+05	3000.5	-0.47873	0.81496	0.3498
4.214	90.228	-2.9731e+05	3001.4	-0.47873	0.81545	0.3499
4.216	90.173	-2.9731e+05	3002.9	-0.47941	0.81545	0.35048
4.218	90.142	-2.973e+05	3004.5	-0.48009	0.81545	0.35107
4.22	90.151	-2.973e+05	3006.2	-0.48078	0.81545	0.35165
4.222	90.196	-2.9731e+05	3008.2	-0.48146	0.81545	0.35224
4.224	90.245	-2.9731e+05	3010.1	-0.48214	0.81545	0.35282
4.226	90.272	-2.973e+05	3012.2	-0.48205	0.81574	0.35243
4.228	90.256	-2.973e+05	3014.2	-0.48195	0.81603	0.35204
4.23	90.209	-2.973e+05	3016.2	-0.48185	0.81633	0.35165
4.232	90.151	-2.9731e+05	3018.2	-0.48175	0.81662	0.35126
4.234	90.107	-2.9731e+05	3020.2	-0.48166	0.81691	0.35087
4.236	90.097	-2.9731e+05	3022.1	-0.48312	0.8173	0.35156
4.238	90.13	-2.9731e+05	3024	-0.48458	0.81769	0.35224
4.24	90.181	-2.9731e+05	3025.8	-0.48605	0.81808	0.35292
4.242	90.216	-2.973e+05	3027.5	-0.48751	0.81847	0.3536
4.244	90.215	-2.973e+05	3029.3	-0.48898	0.81886	0.35429
4.246	90.176	-2.973e+05	3030.8	-0.48839	0.81808	0.35468
4.248	90.114	-2.973e+05	3032.4	-0.4878	0.8173	0.35507
4.25	90.062	-2.9729e+05	3033.8	-0.48722	0.81652	0.35546
4.252	90.042	-2.9729e+05	3035.2	-0.48663	0.81574	0.35585
4.254	90.056	-2.9729e+05	3036.5	-0.48605	0.81496	0.35624
4.256	90.1	-2.9729e+05	3037.7	-0.48654	0.81467	0.35575
4.258	90.144	-2.9729e+05	3038.9	-0.48702	0.81437	0.35526
4.26	90.156	-2.9729e+05	3040.1	-0.48751	0.81408	0.35478
4.262	90.127	-2.9729e+05	3041.1	-0.488	0.81379	0.35429
4.264	90.076	-2.9729e+05	3042.2	-0.48849	0.8135	0.3538
4.266	90.017	-2.9729e+05	3043.1	-0.48868	0.81359	0.35419
4.268	89.987	-2.9729e+05	3044	-0.48888	0.81369	0.35458
4.27	89.995	-2.9729e+05	3044.9	-0.48907	0.81379	0.35497
4.272	90.035	-2.9729e+05	3045.7	-0.48927	0.81389	0.35536
4.274	90.087	-2.9728e+05	3046.5	-0.48946	0.81398	0.35575
4.276	90.114	-2.9728e+05	3047.2	-0.48771	0.81223	0.35341
4.278	90.099	-2.9727e+05	3047.9	-0.48595	0.81047	0.35107
4.28	90.056	-2.9727e+05	3048.5	-0.48419	0.80871	0.34872
4.282	89.996	-2.9726e+05	3049.1	-0.48244	0.80696	0.34638
4.284	89.955	-2.9726e+05	3049.7	-0.48068	0.8052	0.34404
