t	ekg	optical	pressure	accel_x	accel_y	accel_z
0	94.608	-2.9935e+05	3124.3	-0.49386	0.79983	0.38601
0.002	94.587	-2.9935e+05	3124.1	-0.49005	0.79983	0.38484
0.004	94.544	-2.9935e+05	3123.9	-0.48624	0.79983	0.38367
0.006	94.499	-2.9935e+05	3123.6	-0.48244	0.79983	0.38249
0.008	94.478	-2.9936e+05	3123.4	-0.47863	0.79983	0.38132
0.01	94.503	-2.9935e+05	3123.1	-0.47482	0.79983	0.38015
0.012	94.551	-2.9935e+05	3122.7	-0.47795	0.80061	0.38074
0.014	94.603	-2.9935e+05	3122.2	-0.48107	0.80139	0.38132
0.016	94.626	-2.9935e+05	3121.9	-0.48419	0.80217	0.38191
0.018	94.611	-2.9934e+05	3121.6	-0.48732	0.80296	0.38249
0.02	94.568	-2.9934e+05	3121.4	-0.49044	0.80374	0.38308
0.022	94.526	-2.9935e+05	3121.2	-0.48898	0.80315	0.38308
0.024	94.5	-2.9936e+05	3121	-0.48751	0.80256	0.38308
0.026	94.507	-2.9936e+05	3120.8	-0.48605	0.80198	0.38308
0.028	94.547	-2.9935e+05	3120.6	-0.48458	0.80139	0.38308
0.03	94.601	-2.9935e+05	3120.4	-0.48312	0.80081	0.38308
0.032	94.639	-2.9935e+05	3120.2	-0.48371	0.8012	0.38347
0.034	94.637	-2.9935e+05	3119.9	-0.48429	0.80159	0.38386
0.036	94.6	-2.9935e+05	3119.6	-0.48488	0.80198	0.38425
0.038	94.556	-2.9936e+05	3119.3	-0.48546	0.80237	0.38464
0.04	94.516	-2.9936e+05	3119	-0.48605	0.80276	0.38503
0.042	94.516	-2.9936e+05	3118.7	-0.48702	0.80237	0.38513
0.044	94.542	-2.9935e+05	3118.5	-0.488	0.80198	0.38523
0.046	94.586	-2.9935e+05	3118.2	-0.48898	0.80159	0.38532
0.048	94.627	-2.9936e+05	3118	-0.48995	0.8012	0.38542
0.05	94.647	-2.9936e+05	3117.7	-0.49093	0.80081	0.38552
0.052	94.623	-2.9936e+05	3117.3	-0.49093	0.80061	0.38611
0.054	94.574	-2.9935e+05	3116.9	-0.49093	0.80042	0.38669
0.056	94.535	-2.9933e+05	3116.6	-0.49093	0.80022	0.38728
0.058	94.529	-2.9934e+05	3116.3	-0.49093	0.80003	0.38786
0.06	94.547	-2.9935e+05	3116.1	-0.49093	0.79983	0.38845
0.062	94.593	-2.9935e+05	3115.9	-0.49073	0.80012	0.38796
0.064	94.651	-2.9935e+05	3115.6	-0.49054	0.80042	0.38747
0.066	94.675	-2.9935e+05	3115.5	-0.49034	0.80071	0.38698
0.068	94.649	-2.9936e+05	3115.3	-0.49015	0.801	0.3865
0.07	94.602	-2.9935e+05	3115.1	-0.48995	0.8013	0.38601
0.072	94.554	-2.9935e+05	3115	-0.48888	0.80081	0.38562
0.074	94.507	-2.9935e+05	3114.8	-0.4878	0.80032	0.38523
0.076	94.47	-2.9936e+05	3114.6	-0.48673	0.79983	0.38484
0.078	94.455	-2.9936e+05	3114.4	-0.48566	0.79934	0.38445
0.08	94.438	-2.9936e+05	3114.1	-0.48458	0.79886	0.38406
0.082	94.386	-2.9936e+05	3113.9	-0.48507	0.79925	0.38396
0.084	94.282	-2.9935e+05	3113.6	-0.48556	0.79964	0.38386
0.086	94.11	-2.9935e+05	3113.4	-0.48605	0.80003	0.38376
0.088	93.899	-2.9935e+05	3113.2	-0.48654	0.80042	0.38367
0.09	93.716	-2.9935e+05	3112.9	-0.48702	0.80081	0.38357
0.092	93.627	-2.9935e+05	3112.7	-0.48732	0.80052	0.38406
0.094	93.64	-2.9935e+05	3112.5	-0.48761	0.80022	0.38454
0.096	93.718	-2.9935e+05	3112.3	-0.4879	0.79993	0.38503
0.098	93.871	-2.9935e+05	3112	-0.4882	0.79964	0.38552
0.1	94.068	-2.9935e+05	3111.8	-0.48849	0.79934	0.38601
0.102	94.24	-2.9935e+05	3111.6	-0.4879	0.79954	0.38679
0.104	94.353	-2.9935e+05	3111.4	-0.48732	0.79973	0.38757
0.106	94.401	-2.9935e+05	3111.2	-0.48673	0.79993	0.38835
0.108	94.424	-2.9934e+05	3111	-0.48615	0.80012	0.38913
0.11	94.46	-2.9935e+05	3110.8	-0.48556	0.80032	0.38991
0.112	94.526	-2.9935e+05	3110.6	-0.48468	0.79915	0.39011
0.114	94.605	-2.9935e+05	3110.5	-0.4838	0.79798	0.3903
0.116	94.651	-2.9936e+05	3110.3	-0.48292	0.79681	0.3905
0.118	94.669	-2.9935e+05	3110.1	-0.48205	0.79564	0.39069
0.12	94.639	-2.9935e+05	3110	-0.48117	0.79446	0.39089
0.122	94.592	-2.9936e+05	3109.8	-0.48088	0.79427	0.38864
0.124	94.563	-2.9936e+05	3109.7	-0.48058	0.79407	0.3864
0.126	94.58	-2.9936e+05	3109.5	-0.48029	0.79388	0.38415
0.128	94.633	-2.9935e+05	3109.3	-0.48	0.79368	0.38191
0.13	94.688	-2.9935e+05	3109.1	-0.4797	0.79349	0.37966
0.132	94.721	-2.9935e+05	3108.9	-0.47941	0.79388	0.38035
0.134	94.721	-2.9936e+05	3108.7	-0.47912	0.79427	0.38103
0.136	94.68	-2.9936e+05	3108.5	-0.47883	0.79466	0.38171
0.138	94.621	-2.9935e+05	3108.3	-0.47853	0.79505	0.3824
0.14	94.58	-2.9935e+05	3108.2	-0.47824	0.79544	0.38308
0.142	94.572	-2.9935e+05	3108	-0.4798	0.79661	0.38435
0.144	94.6	-2.9935e+05	3107.8	-0.48136	0.79778	0.38562
0.146	94.65	-2.9935e+05	3107.6	-0.48292	0.79895	0.38689
0.148	94.691	-2.9935e+05	3107.4	-0.48449	0.80012	0.38816
0.15	94.705	-2.9936e+05	3107.2	-0.48605	0.8013	0.38942
0.152	94.682	-2.9938e+05	3107	-0.48556	0.80091	0.38884
0.154	94.631	-2.9937e+05	3106.8	-0.48507	0.80052	0.38825
0.156	94.586	-2.9936e+05	3106.6	-0.48458	0.80012	0.38767
0.158	94.567	-2.9936e+05	3106.3	-0.4841	0.79973	0.38708
0.16	94.582	-2.9936e+05	3106	-0.48361	0.79934	0.3865
0.162	94.628	-2.9936e+05	3105.7	-0.48341	0.79895	0.38698
0.164	94.68	-2.9936e+05	3105.5	-0.48322	0.79856	0.38747
0.166	94.701	-2.9936e+05	3105.2	-0.48302	0.79817	0.38796
0.168	94.683	-2.9936e+05	3104.9	-0.48283	0.79778	0.38845
0.17	94.645	-2.9936e+05	3104.7	-0.48263	0.79739	0.38894
0.172	94.599	-2.9937e+05	3104.2	-0.48351	0.79876	0.39011
0.174	94.571	-2.9936e+05	3103.7	-0.48439	0.80012	0.39128
0.176	94.577	-2.9936e+05	3103.4	-0.48527	0.80149	0.39245
0.178	94.614	-2.9935e+05	3103.3	-0.48615	0.80286	0.39362
0.18	94.668	-2.9935e+05	3103.2	-0.48702	0.80422	0.39479
0.182	94.709	-2.9935e+05	3103.2	-0.48566	0.80383	0.39108
0.184	94.706	-2.9936e+05	3103.2	-0.48429	0.80344	0.38737
0.186	94.676	-2.9936e+05	3103.2	-0.48292	0.80305	0.38367
0.188	94.631	-2.9936e+05	3103.2	-0.48156	0.80266	0.37996
0.19	94.59	-2.9936e+05	3103.2	-0.48019	0.80227	0.37625
0.192	94.578	-2.9936e+05	3103	-0.47951	0.80217	0.37722
0.194	94.603	-2.9936e+05	3102.9	-0.47883	0.80208	0.3782
0.196	94.651	-2.9936e+05	3102.7	-0.47814	0.80198	0.37918
0.198	94.691	-2.9936e+05	3102.5	-0.47746	0.80188	0.38015
0.2	94.698	-2.9936e+05	3102.3	-0.47678	0.80178	0.38113
0.202	94.675	-2.9936e+05	3102.1	-0.47775	0.80091	0.38171
0.204	94.628	-2.9936e+05	3101.9	-0.47873	0.80003	0.3823
0.206	94.58	-2.9936e+05	3101.8	-0.4797	0.79915	0.38288
0.208	94.566	-2.9936e+05	3101.7	-0.48068	0.79827	0.38347
0.21	94.581	-2.9936e+05	3101.5	-0.48166	0.79739	0.38406
0.212	94.626	-2.9936e+05	3101.4	-0.48	0.79944	0.38328
0.214	94.674	-2.9936e+05	3101.3	-0.47834	0.80149	0.38249
0.216	94.697	-2.9936e+05	3101.1	-0.47668	0.80354	0.38171
0.218	94.687	-2.9936e+05	3100.9	-0.47502	0.80559	0.38093
0.22	94.644	-2.9935e+05	3100.7	-0.47336	0.80764	0.38015
0.222	94.595	-2.9936e+05	3100.7	-0.47375	0.80725	0.38044
0.224	94.564	-2.9936e+05	3100.6	-0.47414	0.80686	0.38074
0.226	94.571	-2.9936e+05	3100.7	-0.47453	0.80647	0.38103
0.228	94.61	-2.9937e+05	3101	-0.47492	0.80608	0.38132
0.23	94.663	-2.9936e+05	3101.2	-0.47531	0.80569	0.38162
0.232	94.696	-2.9936e+05	3101.9	-0.47541	0.80588	0.38103
0.234	94.69	-2.9936e+05	3102.7	-0.47551	0.80608	0.38044
0.236	94.654	-2.9936e+05	3103.6	-0.4756	0.80627	0.37986
0.238	94.604	-2.9936e+05	3104.8	-0.4757	0.80647	0.37927
0.24	94.562	-2.9936e+05	3106	-0.4758	0.80666	0.37869
0.242	94.557	-2.9935e+05	3107.6	-0.47736	0.8054	0.38035
0.244	94.588	-2.9935e+05	3109.3	-0.47892	0.80413	0.38201
0.246	94.631	-2.9935e+05	3111.1	-0.48048	0.80286	0.38367
0.248	94.664	-2.9935e+05	3113	-0.48205	0.80159	0.38532
0.25	94.669	-2.9935e+05	3114.9	-0.48361	0.80032	0.38698
0.252	94.641	-2.9935e+05	3116.9	-0.484	0.80081	0.38689
0.254	94.594	-2.9936e+05	3119	-0.48439	0.8013	0.38679
0.256	94.543	-2.9936e+05	3121.1	-0.48478	0.80178	0.38669
0.258	94.516	-2.9936e+05	3123.2	-0.48517	0.80227	0.38659
0.26	94.534	-2.9936e+05	3125.3	-0.48556	0.80276	0.3865
0.262	94.57	-2.9936e+05	3127.3	-0.48585	0.80305	0.38591
0.264	94.613	-2.9937e+05	3129.4	-0.48615	0.80335	0.38532
0.266	94.629	-2.9936e+05	3131.3	-0.48644	0.80364	0.38474
0.268	94.615	-2.9936e+05	3133.3	-0.48673	0.80393	0.38415
0.27	94.568	-2.9935e+05	3135.2	-0.48702	0.80422	0.38357
0.272	94.514	-2.9935e+05	3137	-0.48683	0.80354	0.38464
0.274	94.475	-2.9935e+05	3138.9	-0.48663	0.80286	0.38572
0.276	94.48	-2.9935e+05	3140.7	-0.48644	0.80217	0.38679
0.278	94.509	-2.9935e+05	3142.3	-0.48624	0.80149	0.38786
0.28	94.553	-2.9935e+05	3144	-0.48605	0.80081	0.38894
0.282	94.583	-2.9935e+05	3145.4	-0.48566	0.79993	0.38903
0.284	94.583	-2.9935e+05	3146.8	-0.48527	0.79905	0.38913
0.286	94.549	-2.9935e+05	3148.1	-0.48488	0.79817	0.38923
0.288	94.488	-2.9934e+05	3149.3	-0.48449	0.79729	0.38933
0.29	94.44	-2.9935e+05	3150.5	-0.4841	0.79642	0.38942
0.292	94.431	-2.9935e+05	3151.5	-0.48341	0.79651	0.38923
0.294	94.458	-2.9935e+05	3152.6	-0.48273	0.79661	0.38903
0.296	94.504	-2.9934e+05	3153.6	-0.48205	0.79671	0.38884
0.298	94.547	-2.9934e+05	3154.5	-0.48136	0.79681	0.38864
0.3	94.545	-2.9934e+05	3155.5	-0.48068	0.7969	0.38845
0.302	94.516	-2.9934e+05	3156.3	-0.47951	0.79768	0.38952
0.304	94.48	-2.9933e+05	3157.1	-0.47834	0.79847	0.3906
0.306	94.44	-2.9934e+05	3157.8	-0.47717	0.79925	0.39167
0.308	94.423	-2.9934e+05	3158.5	-0.476	0.80003	0.39274
0.31	94.442	-2.9933e+05	3159.1	-0.47482	0.80081	0.39382
0.312	94.484	-2.9933e+05	3159.8	-0.47473	0.8013	0.39323
0.314	94.526	-2.9933e+05	3160.4	-0.47463	0.80178	0.39264
0.316	94.546	-2.9933e+05	3160.9	-0.47453	0.80227	0.39206
0.318	94.535	-2.9932e+05	3161.4	-0.47443	0.80276	0.39147
0.32	94.498	-2.9931e+05	3161.9	-0.47434	0.80325	0.39089
0.322	94.452	-2.9932e+05	3162.3	-0.47648	0.80198	0.3905
0.324	94.421	-2.9933e+05	3162.7	-0.47863	0.80071	0.39011
0.326	94.423	-2.9933e+05	3162.9	-0.48078	0.79944	0.38972
0.328	94.457	-2.9932e+05	3163	-0.48292	0.79817	0.38933
0.33	94.507	-2.9933e+05	3163.2	-0.48507	0.7969	0.38894
0.332	94.546	-2.9933e+05	3163.1	-0.48497	0.79866	0.38923
0.334	94.55	-2.9932e+05	3163	-0.48488	0.80042	0.38952
0.336	94.523	-2.9931e+05	3163.1	-0.48478	0.80217	0.38981
0.338	94.478	-2.9931e+05	3163.4	-0.48468	0.80393	0.39011
0.34	94.439	-2.9931e+05	3163.7	-0.48458	0.80569	0.3904
0.342	94.433	-2.9931e+05	3164	-0.48146	0.8051	0.38816
0.344	94.465	-2.9931e+05	3164.3	-0.47834	0.80452	0.38591
0.346	94.515	-2.9931e+05	3164.5	-0.47521	0.80393	0.38367
0.348	94.565	-2.993e+05	3164.7	-0.47209	0.80335	0.38142
0.35	94.583	-2.993e+05	3164.9	-0.46897	0.80276	0.37918
0.352	94.553	-2.993e+05	3164.9	-0.46975	0.80374	0.37918
0.354	94.512	-2.993e+05	3164.9	-0.47053	0.80471	0.37918
0.356	94.482	-2.993e+05	3164.8	-0.47131	0.80569	0.37918
0.358	94.456	-2.993e+05	3164.7	-0.47209	0.80666	0.37918
0.36	94.476	-2.993e+05	3164.6	-0.47287	0.80764	0.37918
0.362	94.534	-2.993e+05	3164.2	-0.4758	0.80735	0.38054
0.364	94.586	-2.9929e+05	3163.9	-0.47873	0.80705	0.38191
0.366	94.624	-2.9929e+05	3163.7	-0.48166	0.80676	0.38328
0.368	94.607	-2.9928e+05	3163.6	-0.48458	0.80647	0.38464
0.37	94.576	-2.9928e+05	3163.5	-0.48751	0.80618	0.38601
0.372	94.529	-2.9928e+05	3163.4	-0.48371	0.80579	0.38435
0.374	94.506	-2.9928e+05	3163.2	-0.4799	0.8054	0.38269
0.376	94.521	-2.9928e+05	3163.1	-0.47609	0.805	0.38103
0.378	94.559	-2.9928e+05	3163.1	-0.47229	0.80461	0.37937
0.38	94.613	-2.9928e+05	3163	-0.46848	0.80422	0.37771
0.382	94.654	-2.9927e+05	3162.8	-0.46965	0.80422	0.3783
0.384	94.661	-2.9927e+05	3162.7	-0.47082	0.80422	0.37888
0.386	94.633	-2.9927e+05	3162.5	-0.47199	0.80422	0.37947
0.388	94.585	-2.9928e+05	3162.3	-0.47316	0.80422	0.38005
0.39	94.543	-2.9927e+05	3162.1	-0.47434	0.80422	0.38064
0.392	94.536	-2.9927e+05	3161.8	-0.4759	0.80393	0.37966
0.394	94.57	-2.9927e+05	3161.6	-0.47746	0.80364	0.37869
0.396	94.628	-2.9927e+05	3161.3	-0.47902	0.80335	0.37771
0.398	94.678	-2.9927e+05	3161	-0.48058	0.80305	0.37674
0.4	94.693	-2.9927e+05	3160.7	-0.48214	0.80276	0.37576
0.402	94.676	-2.9927e+05	3160.2	-0.48312	0.80305	0.37879
0.404	94.636	-2.9926e+05	3159.6	-0.4841	0.80335	0.38181
0.406	94.594	-2.9926e+05	3159.2	-0.48507	0.80364	0.38484
0.408	94.576	-2.9926e+05	3158.9	-0.48605	0.80393	0.38786
0.41	94.596	-2.9926e+05	3158.6	-0.48702	0.80422	0.39089
0.412	94.641	-2.9926e+05	3158.4	-0.48615	0.80335	0.38981
0.414	94.686	-2.9926e+05	3158.1	-0.48527	0.80247	0.38874
0.416	94.713	-2.9926e+05	3157.8	-0.48439	0.80159	0.38767
0.418	94.704	-2.9926e+05	3157.6	-0.48351	0.80071	0.38659
0.42	94.661	-2.9925e+05	3157.4	-0.48263	0.79983	0.38552
0.422	94.607	-2.9925e+05	3157.1	-0.48341	0.79993	0.38513
0.424	94.574	-2.9925e+05	3156.9	-0.48419	0.80003	0.38474
0.426	94.571	-2.9925e+05	3156.6	-0.48497	0.80012	0.38435
0.428	94.607	-2.9926e+05	3156.2	-0.48576	0.80022	0.38396
0.43	94.673	-2.9926e+05	3155.8	-0.48654	0.80032	0.38357
0.432	94.719	-2.9926e+05	3155.5	-0.48615	0.80091	0.3824
0.434	94.713	-2.9925e+05	3155.2	-0.48576	0.80149	0.38123
0.436	94.667	-2.9925e+05	3154.8	-0.48536	0.80208	0.38005
0.438	94.614	-2.9925e+05	3154.5	-0.48497	0.80266	0.37888
0.44	94.566	-2.9925e+05	3154.1	-0.48458	0.80325	0.37771
0.442	94.555	-2.9926e+05	3153.7	-0.48429	0.80305	0.37898
0.444	94.594	-2.9927e+05	3153.3	-0.484	0.80286	0.38025
0.446	94.646	-2.9927e+05	3152.8	-0.48371	0.80266	0.38152
0.448	94.688	-2.9926e+05	3152.3	-0.48341	0.80247	0.38279
0.45	94.704	-2.9927e+05	3151.7	-0.48312	0.80227	0.38406
0.452	94.677	-2.9928e+05	3151.2	-0.4838	0.80286	0.38367
0.454	94.632	-2.9927e+05	3150.7	-0.48449	0.80344	0.38328
0.456	94.581	-2.9926e+05	3150.2	-0.48517	0.80403	0.38288
0.458	94.558	-2.9926e+05	3149.6	-0.48585	0.80461	0.38249
0.46	94.577	-2.9927e+05	3149.1	-0.48654	0.8052	0.3821
0.462	94.62	-2.9926e+05	3148.6	-0.48702	0.80579	0.38259
0.464	94.677	-2.9926e+05	3148.1	-0.48751	0.80637	0.38308
0.466	94.7	-2.9926e+05	3147.6	-0.488	0.80696	0.38357
0.468	94.684	-2.9926e+05	3147	-0.48849	0.80754	0.38406
0.47	94.646	-2.9926e+05	3146.5	-0.48898	0.80813	0.38454
0.472	94.596	-2.9926e+05	3146	-0.4881	0.80647	0.38513
0.474	94.565	-2.9925e+05	3145.4	-0.48722	0.80481	0.38572
0.476	94.569	-2.9924e+05	3144.9	-0.48634	0.80315	0.3863
0.478	94.608	-2.9924e+05	3144.4	-0.48546	0.80149	0.38689
0.48	94.66	-2.9924e+05	3143.9	-0.48458	0.79983	0.38747
0.482	94.693	-2.9924e+05	3143.4	-0.48439	0.80052	0.38669
0.484	94.691	-2.9924e+05	3143	-0.48419	0.8012	0.38591
0.486	94.659	-2.9923e+05	3142.6	-0.484	0.80188	0.38513
0.488	94.613	-2.9923e+05	3142.1	-0.4838	0.80256	0.38435
0.49	94.577	-2.9923e+05	3141.7	-0.48361	0.80325	0.38357
0.492	94.57	-2.9923e+05	3141.4	-0.48361	0.80286	0.38454
0.494	94.596	-2.9923e+05	3141	-0.48361	0.80247	0.38552
0.496	94.642	-2.9923e+05	3140.7	-0.48361	0.80208	0.3865
0.498	94.683	-2.9924e+05	3140.4	-0.48361	0.80169	0.38747
0.5	94.696	-2.9924e+05	3140	-0.48361	0.8013	0.38845
0.502	94.676	-2.9924e+05	3139.8	-0.48322	0.8011	0.38796
0.504	94.638	-2.9925e+05	3139.5	-0.48283	0.80091	0.38747
0.506	94.592	-2.9925e+05	3139.2	-0.48244	0.80071	0.38698
0.508	94.565	-2.9925e+05	3139	-0.48205	0.80052	0.3865
0.51	94.585	-2.9925e+05	3138.8	-0.48166	0.80032	0.38601
0.512	94.635	-2.9925e+05	3138.6	-0.48136	0.80208	0.38542
0.514	94.682	-2.9924e+05	3138.4	-0.48107	0.80383	0.38484
0.516	94.71	-2.9924e+05	3138.3	-0.48078	0.80559	0.38425
0.518	94.697	-2.9925e+05	3138.1	-0.48048	0.80735	0.38367
0.52	94.646	-2.9925e+05	3137.9	-0.48019	0.8091	0.38308
0.522	94.602	-2.9924e+05	3137.8	-0.4798	0.80881	0.38308
0.524	94.572	-2.9924e+05	3137.7	-0.47941	0.80852	0.38308
0.526	94.582	-2.9924e+05	3137.6	-0.47902	0.80823	0.38308
0.528	94.618	-2.9925e+05	3137.5	-0.47863	0.80793	0.38308
0.53	94.68	-2.9925e+05	3137.5	-0.47824	0.80764	0.38308
0.532	94.72	-2.9925e+05	3137.4	-0.47922	0.80705	0.38347
0.534	94.734	-2.9925e+05	3137.3	-0.48019	0.80647	0.38386
0.536	94.696	-2.9925e+05	3137.2	-0.48117	0.80588	0.38425
0.538	94.636	-2.9925e+05	3137.2	-0.48214	0.8053	0.38464
0.54	94.595	-2.9925e+05	3137.2	-0.48312	0.80471	0.38503
0.542	94.583	-2.9924e+05	3137.1	-0.48283	0.8054	0.38484
0.544	94.61	-2.9923e+05	3137.1	-0.48253	0.80608	0.38464
0.546	94.662	-2.9924e+05	3136.9	-0.48224	0.80676	0.38445
0.548	94.708	-2.9924e+05	3136.4	-0.48195	0.80744	0.38425
0.55	94.722	-2.9925e+05	3136	-0.48166	0.80813	0.38406
0.552	94.696	-2.9925e+05	3136	-0.48175	0.80774	0.38523
0.554	94.646	-2.9925e+05	3136	-0.48185	0.80735	0.3864
0.556	94.603	-2.9925e+05	3136	-0.48195	0.80696	0.38757
0.558	94.591	-2.9924e+05	3136.1	-0.48205	0.80657	0.38874
0.56	94.615	-2.9923e+05	3136.1	-0.48214	0.80618	0.38991
0.562	94.662	-2.9924e+05	3136.2	-0.47883	0.80569	0.38728
0.564	94.714	-2.9924e+05	3136.3	-0.47551	0.8052	0.38464
0.566	94.737	-2.9924e+05	3136.4	-0.47219	0.80471	0.38201
0.568	94.728	-2.9925e+05	3136.4	-0.46887	0.80422	0.37937
0.57	94.686	-2.9924e+05	3136.4	-0.46555	0.80374	0.37674
0.572	94.628	-2.9924e+05	3136	-0.47004	0.80461	0.37966
0.574	94.595	-2.9924e+05	3135.6	-0.47453	0.80549	0.38259
0.576	94.596	-2.9924e+05	3135.3	-0.47902	0.80637	0.38552
0.578	94.619	-2.9924e+05	3135.1	-0.48351	0.80725	0.38845
0.58	94.664	-2.9924e+05	3134.9	-0.488	0.80813	0.39138
0.582	94.707	-2.9924e+05	3134.9	-0.48556	0.80754	0.38981
0.584	94.716	-2.9923e+05	3135	-0.48312	0.80696	0.38825
0.586	94.689	-2.9923e+05	3135	-0.48068	0.80637	0.38669
0.588	94.645	-2.9923e+05	3135.1	-0.47824	0.80579	0.38513
0.59	94.603	-2.9924e+05	3135.1	-0.4758	0.8052	0.38357
0.592	94.588	-2.9924e+05	3134.8	-0.47687	0.80549	0.38542
0.594	94.611	-2.9924e+05	3134.5	-0.47795	0.80579	0.38728
0.596	94.654	-2.9924e+05	3134.2	-0.47902	0.80608	0.38913
0.598	94.695	-2.9924e+05	3134	-0.48009	0.80637	0.39099
0.6	94.711	-2.9924e+05	3133.8	-0.48117	0.80666	0.39284
0.602	94.701	-2.9924e+05	3133.7	-0.48029	0.80608	0.39186
0.604	94.655	-2.9924e+05	3133.7	-0.47941	0.80549	0.39089
0.606	94.593	-2.9923e+05	3133.6	-0.47853	0.80491	0.38991
0.608	94.569	-2.9923e+05	3133.6	-0.47765	0.80432	0.38894
0.61	94.574	-2.9923e+05	3133.7	-0.47678	0.80374	0.38796
0.612	94.617	-2.9924e+05	3133.4	-0.47785	0.80383	0.38825
0.614	94.658	-2.9924e+05	3133	-0.47892	0.80393	0.38855
0.616	94.681	-2.9924e+05	3132.8	-0.48	0.80403	0.38884
0.618	94.661	-2.9924e+05	3132.6	-0.48107	0.80413	0.38913
0.62	94.619	-2.9924e+05	3132.3	-0.48214	0.80422	0.38942
0.622	94.57	-2.9924e+05	3132.2	-0.48166	0.80335	0.38874
0.624	94.532	-2.9924e+05	3132	-0.48117	0.80247	0.38806
0.626	94.559	-2.9924e+05	3131.7	-0.48068	0.80159	0.38737
0.628	94.612	-2.9924e+05	3131.4	-0.48019	0.80071	0.38669
0.63	94.671	-2.9924e+05	3131.1	-0.4797	0.79983	0.38601
0.632	94.713	-2.9924e+05	3130.9	-0.47892	0.80042	0.38728
0.634	94.717	-2.9924e+05	3130.6	-0.47814	0.801	0.38855
0.636	94.692	-2.9924e+05	3130.3	-0.47736	0.80159	0.38981
0.638	94.656	-2.9924e+05	3130	-0.47658	0.80217	0.39108
0.64	94.614	-2.9924e+05	3129.7	-0.4758	0.80276	0.39235
0.642	94.612	-2.9923e+05	3129.4	-0.47697	0.80139	0.39167
0.644	94.659	-2.9922e+05	3129.1	-0.47814	0.80003	0.39099
0.646	94.717	-2.9922e+05	3128.7	-0.47931	0.79866	0.3903
0.648	94.766	-2.9922e+05	3128.4	-0.48048	0.79729	0.38962
0.65	94.78	-2.9923e+05	3128	-0.48166	0.79593	0.38894
0.652	94.757	-2.9923e+05	3127.7	-0.48117	0.79622	0.38962
0.654	94.704	-2.9923e+05	3127.4	-0.48068	0.79651	0.3903
0.656	94.651	-2.9923e+05	3127.1	-0.48019	0.79681	0.39099
0.658	94.638	-2.9923e+05	3126.7	-0.4797	0.7971	0.39167
0.66	94.662	-2.9924e+05	3126.3	-0.47922	0.79739	0.39235
0.662	94.709	-2.9924e+05	3126	-0.47834	0.79817	0.39235
0.664	94.759	-2.9924e+05	3125.7	-0.47746	0.79895	0.39235
0.666	94.786	-2.9923e+05	3125.4	-0.47658	0.79973	0.39235
0.668	94.774	-2.9923e+05	3125.1	-0.4757	0.80052	0.39235
0.67	94.732	-2.9923e+05	3124.8	-0.47482	0.8013	0.39235
0.672	94.681	-2.9923e+05	3124.5	-0.4758	0.801	0.39206
0.674	94.651	-2.9922e+05	3124.2	-0.47678	0.80071	0.39177
0.676	94.658	-2.9922e+05	3123.9	-0.47775	0.80042	0.39147
0.678	94.697	-2.9922e+05	3123.7	-0.47873	0.80012	0.39118
0.68	94.747	-2.9922e+05	3123.5	-0.4797	0.79983	0.39089
0.682	94.782	-2.9923e+05	3123.2	-0.48088	0.80003	0.3902
0.684	94.785	-2.9924e+05	3123	-0.48205	0.80022	0.38952
0.686	94.752	-2.9923e+05	3122.7	-0.48322	0.80042	0.38884
0.688	94.699	-2.9922e+05	3122.5	-0.48439	0.80061	0.38816
0.69	94.658	-2.9921e+05	3122.2	-0.48556	0.80081	0.38747
0.692	94.654	-2.9921e+05	3122	-0.48556	0.801	0.38728
0.694	94.674	-2.9921e+05	3121.7	-0.48556	0.8012	0.38708
0.696	94.723	-2.9921e+05	3121.4	-0.48556	0.80139	0.38689
0.698	94.781	-2.9922e+05	3121.1	-0.48556	0.80159	0.38669
0.7	94.801	-2.9923e+05	3120.9	-0.48556	0.80178	0.3865
0.702	94.77	-2.9922e+05	3120.6	-0.48371	0.80266	0.38464
0.704	94.72	-2.9922e+05	3120.3	-0.48185	0.80354	0.38279
0.706	94.681	-2.9922e+05	3120	-0.48	0.80442	0.38093
0.708	94.649	-2.9922e+05	3119.8	-0.47814	0.8053	0.37908
0.71	94.665	-2.9922e+05	3119.6	-0.47629	0.80618	0.37722
0.712	94.711	-2.9923e+05	3119.3	-0.47697	0.80579	0.37791
0.714	94.75	-2.9923e+05	3119	-0.47765	0.8054	0.37859
0.716	94.781	-2.9923e+05	3118.8	-0.47834	0.805	0.37927
0.718	94.772	-2.9923e+05	3118.5	-0.47902	0.80461	0.37996
0.72	94.737	-2.9922e+05	3118.3	-0.4797	0.80422	0.38064
0.722	94.689	-2.9923e+05	3118.1	-0.48019	0.80422	0.38044
0.724	94.657	-2.9923e+05	3117.9	-0.48068	0.80422	0.38025
0.726	94.667	-2.9923e+05	3117.6	-0.48117	0.80422	0.38005
0.728	94.705	-2.9923e+05	3117.4	-0.48166	0.80422	0.37986
0.73	94.754	-2.9923e+05	3117.2	-0.48214	0.80422	0.37966
0.732	94.784	-2.9923e+05	3116.9	-0.48322	0.80491	0.38054
0.734	94.779	-2.9923e+05	3116.7	-0.48429	0.80559	0.38142
0.736	94.74	-2.9922e+05	3116.4	-0.48536	0.80627	0.3823
0.738	94.691	-2.9922e+05	3116.3	-0.48644	0.80696	0.38318
0.74	94.64	-2.9923e+05	3116.1	-0.48751	0.80764	0.38406
0.742	94.615	-2.9923e+05	3115.9	-0.48732	0.80696	0.38396
0.744	94.609	-2.9923e+05	3115.7	-0.48712	0.80627	0.38386
0.746	94.602	-2.9922e+05	3115.5	-0.48693	0.80559	0.38376
0.748	94.577	-2.9922e+05	3115.3	-0.48673	0.80491	0.38367
0.75	94.504	-2.9922e+05	3115.2	-0.48654	0.80422	0.38357
0.752	94.364	-2.9922e+05	3115	-0.4841	0.8052	0.38162
0.754	94.181	-2.9923e+05	3114.8	-0.48166	0.80618	0.37966
0.756	94.007	-2.9923e+05	3114.7	-0.47922	0.80715	0.37771
0.758	93.893	-2.9922e+05	3114.5	-0.47678	0.80813	0.37576
0.76	93.87	-2.9922e+05	3114.4	-0.47434	0.8091	0.37381
0.762	93.926	-2.9922e+05	3114.2	-0.47502	0.80832	0.37517
0.764	94.05	-2.9922e+05	3114.1	-0.4757	0.80754	0.37654
0.766	94.226	-2.9922e+05	3113.9	-0.47639	0.80676	0.37791
0.768	94.396	-2.9922e+05	3113.8	-0.47707	0.80598	0.37927
0.77	94.505	-2.9922e+05	3113.7	-0.47775	0.8052	0.38064
0.772	94.554	-2.9922e+05	3113.6	-0.47785	0.80676	0.38171
0.774	94.568	-2.9923e+05	3113.5	-0.47795	0.80832	0.38279
0.776	94.602	-2.9923e+05	3113.4	-0.47804	0.80988	0.38386
0.778	94.661	-2.9923e+05	3113.3	-0.47814	0.81145	0.38493
0.78	94.738	-2.9923e+05	3113.2	-0.47824	0.81301	0.38601
0.782	94.788	-2.9922e+05	3113.1	-0.47844	0.81272	0.38581
0.784	94.787	-2.9922e+05	3113	-0.47863	0.81242	0.38562
0.786	94.765	-2.9922e+05	3112.9	-0.47883	0.81213	0.38542
0.788	94.73	-2.9922e+05	3112.7	-0.47902	0.81184	0.38523
0.79	94.671	-2.9922e+05	3112.6	-0.47922	0.81154	0.38503
0.792	94.673	-2.9922e+05	3112.4	-0.47824	0.81184	0.38542
0.794	94.717	-2.9922e+05	3112.2	-0.47726	0.81213	0.38581
0.796	94.773	-2.9922e+05	3112	-0.47629	0.81242	0.3862
0.798	94.814	-2.9923e+05	3111.7	-0.47531	0.81272	0.38659
0.8	94.806	-2.9923e+05	3111.4	-0.47434	0.81301	0.38698
0.802	94.783	-2.9923e+05	3111.1	-0.47463	0.81252	0.3865
0.804	94.739	-2.9923e+05	3110.8	-0.47492	0.81203	0.38601
0.806	94.697	-2.9922e+05	3110.6	-0.47521	0.81154	0.38552
0.808	94.67	-2.9922e+05	3110.3	-0.47551	0.81106	0.38503
0.81	94.663	-2.9922e+05	3110.1	-0.4758	0.81057	0.38454
0.812	94.704	-2.9922e+05	3109.7	-0.47463	0.8092	0.38474
0.814	94.753	-2.9922e+05	3109.4	-0.47346	0.80784	0.38493
0.816	94.783	-2.9922e+05	3109.2	-0.47229	0.80647	0.38513
0.818	94.779	-2.9922e+05	3109.2	-0.47112	0.8051	0.38532
0.82	94.739	-2.9922e+05	3109.2	-0.46994	0.80374	0.38552
0.822	94.682	-2.9922e+05	3108.8	-0.47131	0.80393	0.3864
0.824	94.65	-2.9922e+05	3108.5	-0.47268	0.80413	0.38728
0.826	94.658	-2.9923e+05	3108.2	-0.47404	0.80432	0.38816
0.828	94.687	-2.9923e+05	3107.8	-0.47541	0.80452	0.38903
0.83	94.729	-2.9923e+05	3107.5	-0.47678	0.80471	0.38991
0.832	94.76	-2.9922e+05	3107.2	-0.47619	0.80481	0.38884
0.834	94.76	-2.9922e+05	3106.9	-0.4756	0.80491	0.38776
0.836	94.722	-2.9921e+05	3106.6	-0.47502	0.805	0.38669
0.838	94.67	-2.9922e+05	3106.4	-0.47443	0.8051	0.38562
0.84	94.641	-2.9922e+05	3106.2	-0.47385	0.8052	0.38454
0.842	94.642	-2.9922e+05	3106	-0.47238	0.80452	0.38572
0.844	94.67	-2.9922e+05	3105.8	-0.47092	0.80383	0.38689
0.846	94.709	-2.9921e+05	3105.6	-0.46946	0.80315	0.38806
0.848	94.753	-2.9921e+05	3105.3	-0.46799	0.80247	0.38923
0.85	94.769	-2.9921e+05	3105	-0.46653	0.80178	0.3904
0.852	94.748	-2.9922e+05	3104.9	-0.46692	0.80276	0.38855
0.854	94.701	-2.9922e+05	3104.7	-0.46731	0.80374	0.38669
0.856	94.653	-2.9922e+05	3104.6	-0.4677	0.80471	0.38484
0.858	94.622	-2.9922e+05	3104.4	-0.46809	0.80569	0.38298
0.86	94.637	-2.9922e+05	3104.2	-0.46848	0.80666	0.38113
0.862	94.673	-2.9922e+05	3104.1	-0.4716	0.80705	0.38191
0.864	94.721	-2.9922e+05	3104	-0.47473	0.80744	0.38269
0.866	94.755	-2.9922e+05	3103.9	-0.47785	0.80784	0.38347
0.868	94.749	-2.9922e+05	3103.8	-0.48097	0.80823	0.38425
0.87	94.695	-2.9922e+05	3103.7	-0.4841	0.80862	0.38503
0.872	94.652	-2.9922e+05	3103.5	-0.4841	0.80832	0.38484
0.874	94.623	-2.9922e+05	3103.3	-0.4841	0.80803	0.38464
0.876	94.609	-2.9922e+05	3103.1	-0.4841	0.80774	0.38445
0.878	94.637	-2.9922e+05	3102.9	-0.4841	0.80744	0.38425
0.88	94.695	-2.9923e+05	3102.7	-0.4841	0.80715	0.38406
0.882	94.75	-2.9923e+05	3102.5	-0.48244	0.80803	0.38581
0.884	94.751	-2.9923e+05	3102.3	-0.48078	0.80891	0.38757
0.886	94.712	-2.9923e+05	3102.1	-0.47912	0.80979	0.38933
0.888	94.661	-2.9922e+05	3101.9	-0.47746	0.81067	0.39108
0.89	94.626	-2.9922e+05	3101.8	-0.4758	0.81154	0.39284
0.892	94.621	-2.9922e+05	3101.9	-0.47619	0.81184	0.39401
0.894	94.627	-2.9922e+05	3102	-0.47658	0.81213	0.39518
0.896	94.666	-2.9922e+05	3102.2	-0.47697	0.81242	0.39635
0.898	94.718	-2.9922e+05	3102.6	-0.47736	0.81272	0.39752
0.9	94.744	-2.9922e+05	3103	-0.47775	0.81301	0.3987
0.902	94.717	-2.9922e+05	3103.8	-0.47746	0.81262	0.39782
0.904	94.672	-2.9922e+05	3104.6	-0.47717	0.81223	0.39694
0.906	94.615	-2.9922e+05	3105.6	-0.47687	0.81184	0.39606
0.908	94.606	-2.9922e+05	3106.7	-0.47658	0.81145	0.39518
0.91	94.627	-2.9922e+05	3107.9	-0.47629	0.81106	0.3943
0.912	94.661	-2.9923e+05	3109.4	-0.47619	0.81135	0.39528
0.914	94.706	-2.9922e+05	3110.9	-0.47609	0.81164	0.39626
0.916	94.714	-2.9922e+05	3112.5	-0.476	0.81193	0.39723
0.918	94.69	-2.9922e+05	3114.2	-0.4759	0.81223	0.39821
0.92	94.667	-2.9922e+05	3115.8	-0.4758	0.81252	0.39918
0.922	94.629	-2.9922e+05	3117.6	-0.4758	0.81184	0.39713
0.924	94.585	-2.9922e+05	3119.3	-0.4758	0.81115	0.39508
0.926	94.572	-2.9922e+05	3121	-0.4758	0.81047	0.39304
0.928	94.599	-2.9921e+05	3122.7	-0.4758	0.80979	0.39099
0.93	94.652	-2.9921e+05	3124.4	-0.4758	0.8091	0.38894
0.932	94.692	-2.9921e+05	3126	-0.4757	0.80803	0.38981
0.934	94.696	-2.9922e+05	3127.6	-0.4756	0.80696	0.39069
0.936	94.658	-2.9922e+05	3129.2	-0.47551	0.80588	0.39157
0.938	94.593	-2.9922e+05	3130.8	-0.47541	0.80481	0.39245
0.94	94.552	-2.9922e+05	3132.4	-0.47531	0.80374	0.39333
0.942	94.538	-2.9922e+05	3133.9	-0.47414	0.80305	0.39411
0.944	94.549	-2.9921e+05	3135.5	-0.47297	0.80237	0.39489
0.946	94.588	-2.9921e+05	3136.9	-0.4718	0.80169	0.39567
0.948	94.62	-2.9921e+05	3138.3	-0.47063	0.801	0.39645
0.95	94.634	-2.9921e+05	3139.6	-0.46946	0.80032	0.39723
0.952	94.609	-2.9921e+05	3140.9	-0.47024	0.8012	0.39762
0.954	94.561	-2.9921e+05	3142.1	-0.47102	0.80208	0.39801
0.956	94.498	-2.992e+05	3143.2	-0.4718	0.80296	0.3984
0.958	94.473	-2.9921e+05	3144.3	-0.47258	0.80383	0.39879
0.96	94.478	-2.9921e+05	3145.3	-0.47336	0.80471	0.39918
0.962	94.521	-2.992e+05	3146.3	-0.47219	0.80315	0.3985
0.964	94.583	-2.992e+05	3147.4	-0.47102	0.80159	0.39782
0.966	94.611	-2.992e+05	3148.3	-0.46985	0.80003	0.39713
0.968	94.607	-2.992e+05	3149.2	-0.46868	0.79847	0.39645
0.97	94.549	-2.992e+05	3150.1	-0.4675	0.7969	0.39577
0.972	94.478	-2.992e+05	3150.9	-0.46711	0.79661	0.39528
0.974	94.42	-2.9919e+05	3151.8	-0.46672	0.79632	0.39479
0.976	94.428	-2.9918e+05	3152.6	-0.46633	0.79603	0.3943
0.978	94.466	-2.9918e+05	3153.4	-0.46594	0.79573	0.39382
0.98	94.509	-2.9919e+05	3154.3	-0.46555	0.79544	0.39333
0.982	94.551	-2.9918e+05	3155	-0.46399	0.79778	0.39245
0.984	94.562	-2.9918e+05	3155.7	-0.46243	0.80012	0.39157
0.986	94.533	-2.9919e+05	3156.2	-0.46087	0.80247	0.39069
0.988	94.49	-2.9919e+05	3156.5	-0.45931	0.80481	0.38981
0.99	94.467	-2.9918e+05	3156.8	-0.45774	0.80715	0.38894
0.992	94.454	-2.9916e+05	3157	-0.46136	0.80705	0.38923
0.994	94.47	-2.9917e+05	3157.2	-0.46497	0.80696	0.38952
0.996	94.522	-2.9917e+05	3157.4	-0.46858	0.80686	0.38981
0.998	94.566	-2.9917e+05	3157.6	-0.47219	0.80676	0.39011
1	94.574	-2.9917e+05	3157.9	-0.4758	0.80666	0.3904
1.002	94.553	-2.9918e+05	3158.1	-0.47482	0.8054	0.39206
1.004	94.512	-2.9918e+05	3158.3	-0.47385	0.80413	0.39372
1.006	94.463	-2.9917e+05	3158.4	-0.47287	0.80286	0.39538
1.008	94.437	-2.9916e+05	3158.5	-0.4719	0.80159	0.39704
1.01	94.456	-2.9916e+05	3158.6	-0.47092	0.80032	0.3987
1.012	94.499	-2.9916e+05	3158.5	-0.47024	0.79954	0.39752
1.014	94.542	-2.9916e+05	3158.4	-0.46955	0.79876	0.39635
1.016	94.572	-2.9915e+05	3158.3	-0.46887	0.79798	0.39518
1.018	94.584	-2.9916e+05	3158.2	-0.46819	0.7972	0.39401
1.02	94.561	-2.9917e+05	3158	-0.4675	0.79642	0.39284
1.022	94.499	-2.9916e+05	3157.9	-0.46711	0.79554	0.39284
1.024	94.459	-2.9914e+05	3157.7	-0.46672	0.79466	0.39284
1.026	94.459	-2.9914e+05	3157.5	-0.46633	0.79378	0.39284
1.028	94.496	-2.9914e+05	3157.3	-0.46594	0.7929	0.39284
1.03	94.536	-2.9914e+05	3157	-0.46555	0.79202	0.39284
1.032	94.595	-2.9913e+05	3156.8	-0.46828	0.79241	0.39128
1.034	94.604	-2.9914e+05	3156.7	-0.47102	0.7928	0.38972
1.036	94.57	-2.9914e+05	3156.5	-0.47375	0.7932	0.38816
1.038	94.523	-2.9914e+05	3156.4	-0.47648	0.79359	0.38659
1.04	94.484	-2.9914e+05	3156.2	-0.47922	0.79398	0.38503
1.042	94.465	-2.9913e+05	3156	-0.47853	0.79417	0.38445
1.044	94.505	-2.9913e+05	3155.9	-0.47785	0.79437	0.38386
1.046	94.561	-2.9913e+05	3155.7	-0.47717	0.79456	0.38328
1.048	94.592	-2.9913e+05	3155.4	-0.47648	0.79476	0.38269
1.05	94.613	-2.9913e+05	3155.2	-0.4758	0.79495	0.3821
1.052	94.604	-2.9914e+05	3155	-0.47658	0.79446	0.38249
1.054	94.554	-2.9913e+05	3154.9	-0.47736	0.79398	0.38288
1.056	94.512	-2.9912e+05	3154.7	-0.47814	0.79349	0.38328
1.058	94.491	-2.9912e+05	3154.5	-0.47892	0.793	0.38367
1.06	94.507	-2.9913e+05	3154.4	-0.4797	0.79251	0.38406
1.062	94.555	-2.9912e+05	3154.3	-0.48009	0.7932	0.38445
1.064	94.606	-2.9911e+05	3154.2	-0.48048	0.79388	0.38484
1.066	94.616	-2.9912e+05	3154	-0.48088	0.79456	0.38523
1.068	94.602	-2.9912e+05	3153.9	-0.48127	0.79524	0.38562
1.07	94.551	-2.9912e+05	3153.7	-0.48166	0.79593	0.38601
1.072	94.491	-2.9912e+05	3153.6	-0.48185	0.79642	0.38689
1.074	94.474	-2.9911e+05	3153.5	-0.48205	0.7969	0.38776
1.076	94.491	-2.9911e+05	3153.3	-0.48224	0.79739	0.38864
1.078	94.515	-2.9911e+05	3153.1	-0.48244	0.79788	0.38952
1.08	94.552	-2.9911e+05	3152.8	-0.48263	0.79837	0.3904
1.082	94.59	-2.9911e+05	3152.6	-0.48166	0.79847	0.3906
1.084	94.602	-2.9911e+05	3152.3	-0.48068	0.79856	0.39079
1.086	94.579	-2.9911e+05	3152	-0.4797	0.79866	0.39099
1.088	94.529	-2.991e+05	3151.7	-0.47873	0.79876	0.39118
1.09	94.48	-2.991e+05	3151.3	-0.47775	0.79886	0.39138
1.092	94.454	-2.991e+05	3151	-0.47804	0.79954	0.39069
1.094	94.483	-2.991e+05	3150.6	-0.47834	0.80022	0.39001
1.096	94.537	-2.991e+05	3150.3	-0.47863	0.80091	0.38933
1.098	94.56	-2.991e+05	3149.9	-0.47892	0.80159	0.38864
1.1	94.568	-2.9911e+05	3149.6	-0.47922	0.80227	0.38796
1.102	94.549	-2.9911e+05	3149.3	-0.47824	0.80335	0.38806
1.104	94.497	-2.9911e+05	3149	-0.47726	0.80442	0.38816
1.106	94.466	-2.991e+05	3148.6	-0.47629	0.80549	0.38825
1.108	94.448	-2.9909e+05	3148.3	-0.47531	0.80657	0.38835
1.11	94.449	-2.991e+05	3148	-0.47434	0.80764	0.38845
1.112	94.5	-2.991e+05	3147.6	-0.47551	0.80657	0.38825
1.114	94.551	-2.991e+05	3147.2	-0.47668	0.80549	0.38806
1.116	94.563	-2.9909e+05	3146.8	-0.47785	0.80442	0.38786
1.118	94.541	-2.9909e+05	3146.3	-0.47902	0.80335	0.38767
1.12	94.521	-2.9908e+05	3145.9	-0.48019	0.80227	0.38747
1.122	94.469	-2.9908e+05	3145.4	-0.47785	0.80325	0.38796
1.124	94.423	-2.9909e+05	3144.9	-0.47551	0.80422	0.38845
1.126	94.418	-2.9909e+05	3144.3	-0.47316	0.8052	0.38894
1.128	94.439	-2.9909e+05	3143.7	-0.47082	0.80618	0.38942
1.13	94.498	-2.9909e+05	3143.1	-0.46848	0.80715	0.38991
1.132	94.549	-2.9909e+05	3142.4	-0.46848	0.8054	0.39216
1.134	94.551	-2.9909e+05	3141.8	-0.46848	0.80364	0.3944
1.136	94.508	-2.9909e+05	3141.1	-0.46848	0.80188	0.39665
1.138	94.455	-2.9909e+05	3140.3	-0.46848	0.80012	0.39889
1.14	94.41	-2.991e+05	3139.6	-0.46848	0.79837	0.40114
1.142	94.399	-2.9909e+05	3138.9	-0.46965	0.79905	0.40162
1.144	94.422	-2.9909e+05	3138.2	-0.47082	0.79973	0.40211
1.146	94.473	-2.9908e+05	3137.6	-0.47199	0.80042	0.4026
1.148	94.53	-2.9908e+05	3137.1	-0.47316	0.8011	0.40309
1.15	94.548	-2.9908e+05	3136.5	-0.47434	0.80178	0.40358
1.152	94.513	-2.9908e+05	3135.9	-0.47375	0.80227	0.4027
1.154	94.471	-2.9908e+05	3135.2	-0.47316	0.80276	0.40182
1.156	94.428	-2.9908e+05	3134.6	-0.47258	0.80325	0.40094
1.158	94.413	-2.9908e+05	3134	-0.47199	0.80374	0.40006
1.16	94.422	-2.9908e+05	3133.4	-0.47141	0.80422	0.39918
1.162	94.47	-2.9909e+05	3132.8	-0.47229	0.80442	0.39938
1.164	94.517	-2.9909e+05	3132.3	-0.47316	0.80461	0.39957
1.166	94.53	-2.9909e+05	3131.8	-0.47404	0.80481	0.39977
1.168	94.512	-2.9908e+05	3131.3	-0.47492	0.805	0.39996
1.17	94.473	-2.9909e+05	3130.8	-0.4758	0.8052	0.40016
1.172	94.421	-2.9909e+05	3130.3	-0.47551	0.80461	0.40075
1.174	94.385	-2.9909e+05	3129.8	-0.47521	0.80403	0.40133
1.176	94.398	-2.9909e+05	3129.4	-0.47492	0.80344	0.40192
1.178	94.431	-2.9909e+05	3128.8	-0.47463	0.80286	0.4025
1.18	94.474	-2.9908e+05	3128.3	-0.47434	0.80227	0.40309
1.182	94.527	-2.9908e+05	3127.9	-0.47356	0.80237	0.40299
1.184	94.543	-2.9908e+05	3127.4	-0.47277	0.80247	0.40289
1.186	94.519	-2.9908e+05	3127	-0.47199	0.80256	0.4028
1.188	94.464	-2.9908e+05	3126.6	-0.47121	0.80266	0.4027
1.19	94.409	-2.9908e+05	3126.2	-0.47043	0.80276	0.4026
1.192	94.385	-2.9908e+05	3125.9	-0.47092	0.80315	0.40231
1.194	94.406	-2.9908e+05	3125.6	-0.47141	0.80354	0.40201
1.196	94.459	-2.9908e+05	3125.3	-0.4719	0.80393	0.40172
1.198	94.513	-2.9908e+05	3125.1	-0.47238	0.80432	0.40143
1.2	94.516	-2.9907e+05	3124.8	-0.47287	0.80471	0.40114
1.202	94.491	-2.9907e+05	3124.6	-0.4719	0.80432	0.40123
1.204	94.464	-2.9907e+05	3124.4	-0.47092	0.80393	0.40133
1.206	94.428	-2.9908e+05	3124.2	-0.46994	0.80354	0.40143
1.208	94.406	-2.9908e+05	3124	-0.46897	0.80315	0.40153
1.21	94.394	-2.9908e+05	3123.8	-0.46799	0.80276	0.40162
1.212	94.431	-2.9908e+05	3123.6	-0.46897	0.80374	0.40084
1.214	94.476	-2.9907e+05	3123.4	-0.46994	0.80471	0.40006
1.216	94.5	-2.9907e+05	3123.2	-0.47092	0.80569	0.39928
1.218	94.542	-2.9907e+05	3123	-0.4719	0.80666	0.3985
1.22	94.501	-2.9907e+05	3122.8	-0.47287	0.80764	0.39772
1.222	94.446	-2.9907e+05	3122.6	-0.4716	0.80744	0.39762
1.224	94.375	-2.9907e+05	3122.5	-0.47033	0.80725	0.39752
1.226	94.385	-2.9907e+05	3122.3	-0.46907	0.80705	0.39743
1.228	94.432	-2.9907e+05	3122.2	-0.4678	0.80686	0.39733
1.23	94.465	-2.9907e+05	3122	-0.46653	0.80666	0.39723
1.232	94.503	-2.9908e+05	3121.9	-0.46643	0.80491	0.39879
1.234	94.504	-2.9908e+05	3121.9	-0.46633	0.80315	0.40036
1.236	94.486	-2.9908e+05	3121.7	-0.46624	0.80139	0.40192
1.238	94.432	-2.9907e+05	3121.6	-0.46614	0.79964	0.40348
1.24	94.402	-2.9907e+05	3121.5	-0.46604	0.79788	0.40504
1.242	94.384	-2.9906e+05	3121.4	-0.46624	0.79788	0.40514
1.244	94.392	-2.9906e+05	3121.4	-0.46643	0.79788	0.40524
1.246	94.438	-2.9906e+05	3121.3	-0.46663	0.79788	0.40533
1.248	94.485	-2.9906e+05	3121.3	-0.46682	0.79788	0.40543
1.25	94.511	-2.9906e+05	3121.2	-0.46702	0.79788	0.40553
1.252	94.492	-2.9906e+05	3121.1	-0.4677	0.79925	0.40465
1.254	94.449	-2.9907e+05	3121	-0.46838	0.80061	0.40377
1.256	94.412	-2.9907e+05	3120.9	-0.46907	0.80198	0.40289
1.258	94.388	-2.9907e+05	3120.8	-0.46975	0.80335	0.40201
1.26	94.39	-2.9907e+05	3120.6	-0.47043	0.80471	0.40114
1.262	94.416	-2.9907e+05	3120.4	-0.46936	0.80413	0.40065
1.264	94.463	-2.9907e+05	3120.2	-0.46828	0.80354	0.40016
1.266	94.488	-2.9907e+05	3119.9	-0.46721	0.80296	0.39967
1.268	94.462	-2.9906e+05	3119.7	-0.46614	0.80237	0.39918
1.27	94.431	-2.9906e+05	3119.4	-0.46506	0.80178	0.3987
1.272	94.375	-2.9906e+05	3119.2	-0.46653	0.80286	0.39918
1.274	94.328	-2.9907e+05	3119	-0.46799	0.80393	0.39967
1.276	94.342	-2.9908e+05	3118.8	-0.46946	0.805	0.40016
1.278	94.399	-2.9908e+05	3118.6	-0.47092	0.80608	0.40065
1.28	94.468	-2.9908e+05	3118.4	-0.47238	0.80715	0.40114
1.282	94.508	-2.9908e+05	3118.3	-0.47112	0.80676	0.40075
1.284	94.524	-2.9908e+05	3118.2	-0.46985	0.80637	0.40036
1.286	94.498	-2.9908e+05	3118	-0.46858	0.80598	0.39996
1.288	94.44	-2.9908e+05	3117.8	-0.46731	0.80559	0.39957
1.29	94.406	-2.9908e+05	3117.6	-0.46604	0.8052	0.39918
1.292	94.432	-2.9908e+05	3117.3	-0.46721	0.805	0.39957
1.294	94.46	-2.9908e+05	3117.1	-0.46838	0.80481	0.39996
1.296	94.49	-2.9907e+05	3116.8	-0.46955	0.80461	0.40036
1.298	94.533	-2.9907e+05	3116.6	-0.47072	0.80442	0.40075
1.3	94.569	-2.9907e+05	3116.4	-0.4719	0.80422	0.40114
1.302	94.557	-2.9907e+05	3116.1	-0.47092	0.80364	0.40084
1.304	94.525	-2.9907e+05	3115.9	-0.46994	0.80305	0.40055
1.306	94.469	-2.9906e+05	3115.6	-0.46897	0.80247	0.40026
1.308	94.443	-2.9906e+05	3115.3	-0.46799	0.80188	0.39996
1.31	94.459	-2.9906e+05	3115.1	-0.46702	0.8013	0.39967
1.312	94.499	-2.9906e+05	3114.8	-0.46741	0.80198	0.39948
1.314	94.554	-2.9907e+05	3114.6	-0.4678	0.80266	0.39928
1.316	94.57	-2.9907e+05	3114.4	-0.46819	0.80335	0.39909
1.318	94.574	-2.9907e+05	3114.2	-0.46858	0.80403	0.39889
1.32	94.536	-2.9907e+05	3114	-0.46897	0.80471	0.3987
1.322	94.5	-2.9907e+05	3113.7	-0.46838	0.805	0.39801
1.324	94.443	-2.9907e+05	3113.4	-0.4678	0.8053	0.39733
1.326	94.453	-2.9907e+05	3113.1	-0.46721	0.80559	0.39665
1.328	94.483	-2.9907e+05	3112.8	-0.46663	0.80588	0.39596
1.33	94.537	-2.9908e+05	3112.4	-0.46604	0.80618	0.39528
1.332	94.572	-2.9908e+05	3112	-0.46672	0.80569	0.39655
1.334	94.581	-2.9907e+05	3111.6	-0.46741	0.8052	0.39782
1.336	94.557	-2.9907e+05	3111.2	-0.46809	0.80471	0.39909
1.338	94.501	-2.9906e+05	3110.8	-0.46877	0.80422	0.40036
1.34	94.473	-2.9906e+05	3110.4	-0.46946	0.80374	0.40162
1.342	94.471	-2.9906e+05	3110	-0.46936	0.80452	0.40045
1.344	94.478	-2.9906e+05	3109.6	-0.46926	0.8053	0.39928
1.346	94.524	-2.9906e+05	3109.3	-0.46916	0.80608	0.39811
1.348	94.57	-2.9906e+05	3108.9	-0.46907	0.80686	0.39694
1.35	94.573	-2.9906e+05	3108.5	-0.46897	0.80764	0.39577
1.352	94.559	-2.9906e+05	3108.1	-0.46994	0.80637	0.39713
1.354	94.538	-2.9906e+05	3107.8	-0.47092	0.8051	0.3985
1.356	94.491	-2.9906e+05	3107.4	-0.4719	0.80383	0.39987
1.358	94.443	-2.9907e+05	3107	-0.47287	0.80256	0.40123
1.36	94.455	-2.9907e+05	3106.5	-0.47385	0.8013	0.4026
1.362	94.514	-2.9906e+05	3106.2	-0.47385	0.80178	0.4024
1.364	94.573	-2.9906e+05	3105.9	-0.47385	0.80227	0.40221
1.366	94.595	-2.9906e+05	3105.5	-0.47385	0.80276	0.40201
1.368	94.583	-2.9906e+05	3105.1	-0.47385	0.80325	0.40182
1.37	94.554	-2.9906e+05	3104.7	-0.47385	0.80374	0.40162
1.372	94.503	-2.9905e+05	3104.4	-0.47336	0.80403	0.40123
1.374	94.457	-2.9905e+05	3104.1	-0.47287	0.80432	0.40084
1.376	94.475	-2.9905e+05	3103.8	-0.47238	0.80461	0.40045
1.378	94.516	-2.9906e+05	3103.4	-0.4719	0.80491	0.40006
1.38	94.56	-2.9907e+05	3103.1	-0.47141	0.8052	0.39967
1.382	94.588	-2.9906e+05	3102.8	-0.47199	0.805	0.40006
1.384	94.582	-2.9906e+05	3102.5	-0.47258	0.80481	0.40045
1.386	94.551	-2.9906e+05	3102.2	-0.47316	0.80461	0.40084
1.388	94.49	-2.9906e+05	3101.9	-0.47375	0.80442	0.40123
1.39	94.431	-2.9906e+05	3101.6	-0.47434	0.80422	0.40162
1.392	94.411	-2.9906e+05	3101.4	-0.47424	0.80403	0.40182
1.394	94.402	-2.9907e+05	3101.1	-0.47414	0.80383	0.40201
1.396	94.423	-2.9907e+05	3100.9	-0.47404	0.80364	0.40221
1.398	94.426	-2.9907e+05	3100.5	-0.47395	0.80344	0.4024
1.4	94.405	-2.9907e+05	3100.2	-0.47385	0.80325	0.4026
1.402	94.315	-2.9906e+05	3100	-0.47287	0.80286	0.40192
1.404	94.167	-2.9906e+05	3099.8	-0.4719	0.80247	0.40123
1.406	94.013	-2.9906e+05	3099.5	-0.47092	0.80208	0.40055
1.408	93.93	-2.9906e+05	3099.3	-0.46994	0.80169	0.39987
1.41	93.901	-2.9906e+05	3099.1	-0.46897	0.8013	0.39918
1.412	93.969	-2.9906e+05	3098.8	-0.46682	0.80012	0.3985
1.414	94.097	-2.9906e+05	3098.5	-0.46467	0.79895	0.39782
1.416	94.242	-2.9906e+05	3098.3	-0.46253	0.79778	0.39713
1.418	94.36	-2.9906e+05	3098	-0.46038	0.79661	0.39645
1.42	94.437	-2.9906e+05	3097.8	-0.45823	0.79544	0.39577
1.422	94.449	-2.9906e+05	3097.5	-0.45872	0.79603	0.39704
1.424	94.446	-2.9906e+05	3097.2	-0.45921	0.79661	0.39831
1.426	94.471	-2.9906e+05	3097	-0.4597	0.7972	0.39957
1.428	94.512	-2.9906e+05	3096.8	-0.46018	0.79778	0.40084
1.43	94.583	-2.9906e+05	3096.5	-0.46067	0.79837	0.40211
1.432	94.634	-2.9906e+05	3096.3	-0.46048	0.7972	0.40094
1.434	94.631	-2.9906e+05	3096.1	-0.46028	0.79603	0.39977
1.436	94.615	-2.9907e+05	3095.8	-0.46009	0.79485	0.3986
1.438	94.577	-2.9907e+05	3095.6	-0.45989	0.79368	0.39743
1.44	94.528	-2.9907e+05	3095.4	-0.4597	0.79251	0.39626
1.442	94.517	-2.9907e+05	3095.2	-0.4595	0.79271	0.39596
1.444	94.552	-2.9907e+05	3095	-0.45931	0.7929	0.39567
1.446	94.595	-2.9907e+05	3094.7	-0.45911	0.7931	0.39538
1.448	94.618	-2.9907e+05	3094.4	-0.45892	0.79329	0.39508
1.45	94.617	-2.9907e+05	3094	-0.45872	0.79349	0.39479
1.452	94.613	-2.9906e+05	3093.6	-0.4594	0.79398	0.39596
1.454	94.579	-2.9907e+05	3093.2	-0.46009	0.79446	0.39713
1.456	94.52	-2.9907e+05	3092.8	-0.46077	0.79495	0.39831
1.458	94.483	-2.9907e+05	3092.5	-0.46145	0.79544	0.39948
1.46	94.5	-2.9907e+05	3092.2	-0.46214	0.79593	0.40065
1.462	94.547	-2.9907e+05	3091.9	-0.45999	0.79534	0.39928
1.464	94.584	-2.9907e+05	3091.6	-0.45784	0.79476	0.39792
1.466	94.626	-2.9907e+05	3091.4	-0.45569	0.79417	0.39655
1.468	94.604	-2.9907e+05	3091.1	-0.45355	0.79359	0.39518
1.47	94.556	-2.9907e+05	3090.9	-0.4514	0.793	0.39382
1.472	94.502	-2.9907e+05	3090.7	-0.45286	0.79388	0.39499
1.474	94.48	-2.9907e+05	3090.4	-0.45433	0.79476	0.39616
1.476	94.491	-2.9907e+05	3090.2	-0.45579	0.79564	0.39733
1.478	94.493	-2.9907e+05	3090	-0.45726	0.79651	0.3985
1.48	94.554	-2.9906e+05	3089.7	-0.45872	0.79739	0.39967
1.482	94.617	-2.9906e+05	3089.5	-0.4596	0.79583	0.39909
1.484	94.6	-2.9907e+05	3089.4	-0.46048	0.79427	0.3985
1.486	94.59	-2.9906e+05	3089.2	-0.46136	0.79271	0.39792
1.488	94.548	-2.9905e+05	3089.1	-0.46223	0.79115	0.39733
1.49	94.499	-2.9905e+05	3089	-0.46311	0.78958	0.39674
1.492	94.475	-2.9905e+05	3089	-0.46106	0.79144	0.39655
1.494	94.512	-2.9905e+05	3088.9	-0.45901	0.79329	0.39635
1.496	94.566	-2.9906e+05	3088.8	-0.45696	0.79515	0.39616
1.498	94.6	-2.9906e+05	3088.8	-0.45491	0.797	0.39596
1.5	94.617	-2.9906e+05	3088.7	-0.45286	0.79886	0.39577
1.502	94.596	-2.9906e+05	3088.7	-0.45706	0.80032	0.39713
1.504	94.547	-2.9907e+05	3088.7	-0.46126	0.80178	0.3985
1.506	94.498	-2.9907e+05	3088.7	-0.46545	0.80325	0.39987
1.508	94.483	-2.9907e+05	3088.7	-0.46965	0.80471	0.40123
1.51	94.49	-2.9906e+05	3088.7	-0.47385	0.80618	0.4026
1.512	94.528	-2.9905e+05	3088.7	-0.47131	0.80559	0.40162
1.514	94.582	-2.9906e+05	3088.7	-0.46877	0.805	0.40065
1.516	94.614	-2.9906e+05	3088.7	-0.46624	0.80442	0.39967
1.518	94.62	-2.9906e+05	3088.7	-0.4637	0.80383	0.3987
1.52	94.605	-2.9906e+05	3088.7	-0.46116	0.80325	0.39772
1.522	94.568	-2.9906e+05	3088.6	-0.46204	0.80305	0.39792
1.524	94.516	-2.9905e+05	3088.5	-0.46292	0.80286	0.39811
1.526	94.495	-2.9905e+05	3088.4	-0.4638	0.80266	0.39831
1.528	94.521	-2.9905e+05	3088.3	-0.46467	0.80247	0.3985
1.53	94.57	-2.9906e+05	3088.1	-0.46555	0.80227	0.3987
1.532	94.605	-2.9906e+05	3087.9	-0.46663	0.80335	0.3984
1.534	94.609	-2.9905e+05	3087.8	-0.4677	0.80442	0.39811
1.536	94.592	-2.9905e+05	3087.6	-0.46877	0.80549	0.39782
1.538	94.572	-2.9905e+05	3087.5	-0.46985	0.80657	0.39752
1.54	94.532	-2.9905e+05	3087.4	-0.47092	0.80764	0.39723
1.542	94.518	-2.9905e+05	3087.3	-0.47043	0.80637	0.39811
1.544	94.544	-2.9904e+05	3087.2	-0.46994	0.8051	0.39899
1.546	94.588	-2.9905e+05	3087.2	-0.46946	0.80383	0.39987
1.548	94.618	-2.9906e+05	3087.3	-0.46897	0.80256	0.40075
1.55	94.659	-2.9906e+05	3087.4	-0.46848	0.8013	0.40162
1.552	94.653	-2.9906e+05	3087.9	-0.46819	0.80198	0.40075
1.554	94.587	-2.9907e+05	3088.3	-0.46789	0.80266	0.39987
1.556	94.553	-2.9908e+05	3089	-0.4676	0.80335	0.39899
1.558	94.52	-2.9907e+05	3089.9	-0.46731	0.80403	0.39811
1.56	94.528	-2.9907e+05	3090.9	-0.46702	0.80471	0.39723
1.562	94.563	-2.9907e+05	3092.1	-0.46741	0.80452	0.39772
1.564	94.617	-2.9908e+05	3093.3	-0.4678	0.80432	0.39821
1.566	94.611	-2.9908e+05	3094.6	-0.46819	0.80413	0.3987
1.568	94.606	-2.9908e+05	3096.1	-0.46858	0.80393	0.39918
1.57	94.573	-2.9908e+05	3097.5	-0.46897	0.80374	0.39967
1.572	94.564	-2.9907e+05	3099	-0.46711	0.80286	0.40182
1.574	94.53	-2.9906e+05	3100.6	-0.46526	0.80198	0.40397
1.576	94.515	-2.9906e+05	3102.1	-0.4634	0.8011	0.40611
1.578	94.553	-2.9906e+05	3103.6	-0.46155	0.80022	0.40826
1.58	94.596	-2.9907e+05	3105.2	-0.4597	0.79934	0.41041
1.582	94.639	-2.9907e+05	3106.8	-0.45892	0.79915	0.4106
1.584	94.646	-2.9907e+05	3108.5	-0.45813	0.79895	0.4108
1.586	94.602	-2.9907e+05	3110.2	-0.45735	0.79876	0.41099
1.588	94.541	-2.9907e+05	3111.8	-0.45657	0.79856	0.41119
1.59	94.504	-2.9907e+05	3113.4	-0.45579	0.79837	0.41138
1.592	94.498	-2.9907e+05	3115	-0.45657	0.79749	0.41031
1.594	94.516	-2.9906e+05	3116.5	-0.45735	0.79661	0.40924
1.596	94.537	-2.9906e+05	3118	-0.45813	0.79573	0.40816
1.598	94.577	-2.9905e+05	3119.4	-0.45892	0.79485	0.40709
1.6	94.605	-2.9905e+05	3120.8	-0.4597	0.79398	0.40602
1.602	94.59	-2.9905e+05	3122.1	-0.45979	0.79388	0.40631
1.604	94.551	-2.9906e+05	3123.5	-0.45989	0.79378	0.4066
1.606	94.504	-2.9905e+05	3124.8	-0.45999	0.79368	0.40689
1.608	94.477	-2.9904e+05	3126.1	-0.46009	0.79359	0.40719
1.61	94.48	-2.9904e+05	3127.4	-0.46018	0.79349	0.40748
1.612	94.509	-2.9904e+05	3128.5	-0.46155	0.79232	0.40699
1.614	94.568	-2.9904e+05	3129.6	-0.46292	0.79115	0.4065
1.616	94.609	-2.9903e+05	3130.7	-0.46428	0.78997	0.40602
1.618	94.605	-2.9903e+05	3131.7	-0.46565	0.7888	0.40553
1.62	94.56	-2.9903e+05	3132.7	-0.46702	0.78763	0.40504
1.622	94.527	-2.9904e+05	3133.7	-0.46477	0.78861	0.40524
1.624	94.506	-2.9904e+05	3134.7	-0.46253	0.78958	0.40543
1.626	94.494	-2.9904e+05	3135.6	-0.46028	0.79056	0.40563
1.628	94.521	-2.9904e+05	3136.4	-0.45804	0.79154	0.40582
1.63	94.567	-2.9903e+05	3137.3	-0.45579	0.79251	0.40602
1.632	94.606	-2.9903e+05	3138.2	-0.45696	0.79193	0.40592
1.634	94.6	-2.9903e+05	3139	-0.45813	0.79134	0.40582
1.636	94.587	-2.9904e+05	3139.8	-0.45931	0.79076	0.40572
1.638	94.538	-2.9904e+05	3140.5	-0.46048	0.79017	0.40563
1.64	94.485	-2.9904e+05	3141.2	-0.46165	0.78958	0.40553
1.642	94.468	-2.9904e+05	3141.9	-0.46262	0.78958	0.40494
1.644	94.496	-2.9903e+05	3142.5	-0.4636	0.78958	0.40436
1.646	94.547	-2.9903e+05	3143.1	-0.46458	0.78958	0.40377
1.648	94.612	-2.9902e+05	3143.6	-0.46555	0.78958	0.40319
1.65	94.624	-2.9902e+05	3144.2	-0.46653	0.78958	0.4026
1.652	94.617	-2.9901e+05	3144.6	-0.46672	0.79027	0.4028
1.654	94.6	-2.9901e+05	3145.1	-0.46692	0.79095	0.40299
1.656	94.54	-2.9902e+05	3145.5	-0.46711	0.79163	0.40319
1.658	94.517	-2.9902e+05	3145.9	-0.46731	0.79232	0.40338
1.66	94.524	-2.9902e+05	3146.3	-0.4675	0.793	0.40358
1.662	94.555	-2.9901e+05	3146.6	-0.46721	0.79261	0.40309
1.664	94.632	-2.9901e+05	3146.8	-0.46692	0.79222	0.4026
1.666	94.662	-2.99e+05	3147	-0.46663	0.79183	0.40211
1.668	94.649	-2.99e+05	3147.2	-0.46633	0.79144	0.40162
1.67	94.637	-2.99e+05	3147.4	-0.46604	0.79105	0.40114
1.672	94.597	-2.99e+05	3147.5	-0.46624	0.79124	0.40172
1.674	94.561	-2.99e+05	3147.6	-0.46643	0.79144	0.40231
1.676	94.555	-2.9899e+05	3147.7	-0.46663	0.79163	0.40289
1.678	94.595	-2.9899e+05	3147.8	-0.46682	0.79183	0.40348
1.68	94.645	-2.9899e+05	3148	-0.46702	0.79202	0.40406
1.682	94.682	-2.9899e+05	3147.9	-0.46731	0.79222	0.40406
1.684	94.692	-2.9899e+05	3147.9	-0.4676	0.79241	0.40406
1.686	94.676	-2.9899e+05	3147.9	-0.46789	0.79261	0.40406
1.688	94.648	-2.9899e+05	3147.9	-0.46819	0.7928	0.40406
1.69	94.618	-2.9898e+05	3147.9	-0.46848	0.793	0.40406
1.692	94.613	-2.9898e+05	3147.9	-0.46868	0.79368	0.40416
1.694	94.628	-2.9898e+05	3147.9	-0.46887	0.79437	0.40426
1.696	94.651	-2.9897e+05	3147.8	-0.46907	0.79505	0.40436
1.698	94.694	-2.9897e+05	3147.7	-0.46926	0.79573	0.40445
1.7	94.717	-2.9897e+05	3147.6	-0.46946	0.79642	0.40455
1.702	94.722	-2.9897e+05	3147.6	-0.4678	0.7972	0.40553
1.704	94.693	-2.9897e+05	3147.5	-0.46614	0.79798	0.4065
1.706	94.642	-2.9897e+05	3147.5	-0.46448	0.79876	0.40748
1.708	94.619	-2.9897e+05	3147.4	-0.46282	0.79954	0.40846
1.71	94.635	-2.9897e+05	3147.4	-0.46116	0.80032	0.40943
1.712	94.678	-2.9896e+05	3147.2	-0.46096	0.80071	0.40933
1.714	94.727	-2.9896e+05	3147.1	-0.46077	0.8011	0.40924
1.716	94.759	-2.9897e+05	3147	-0.46057	0.80149	0.40914
1.718	94.753	-2.9897e+05	3146.9	-0.46038	0.80188	0.40904
1.72	94.723	-2.9897e+05	3146.7	-0.46018	0.80227	0.40894
1.722	94.679	-2.9897e+05	3146.6	-0.46087	0.8013	0.40953
1.724	94.654	-2.9896e+05	3146.4	-0.46155	0.80032	0.41012
1.726	94.658	-2.9896e+05	3146.2	-0.46223	0.79934	0.4107
1.728	94.695	-2.9896e+05	3145.9	-0.46292	0.79837	0.41129
1.73	94.744	-2.9896e+05	3145.6	-0.4636	0.79739	0.41187
1.732	94.794	-2.9896e+05	3145.3	-0.46399	0.79749	0.41187
1.734	94.79	-2.9896e+05	3144.9	-0.46438	0.79759	0.41187
1.736	94.776	-2.9896e+05	3144.6	-0.46477	0.79768	0.41187
1.738	94.73	-2.9896e+05	3144.2	-0.46516	0.79778	0.41187
1.74	94.674	-2.9896e+05	3143.9	-0.46555	0.79788	0.41187
1.742	94.657	-2.9896e+05	3143.5	-0.46506	0.79778	0.41168
1.744	94.689	-2.9895e+05	3143.1	-0.46458	0.79768	0.41148
1.746	94.724	-2.9894e+05	3142.8	-0.46409	0.79759	0.41129
1.748	94.767	-2.9893e+05	3142.4	-0.4636	0.79749	0.41109
1.75	94.791	-2.9893e+05	3142.1	-0.46311	0.79739	0.4109
1.752	94.775	-2.9894e+05	3141.6	-0.46292	0.79798	0.4108
1.754	94.728	-2.9894e+05	3141.2	-0.46272	0.79856	0.4107
1.756	94.687	-2.9895e+05	3140.8	-0.46253	0.79915	0.4106
1.758	94.665	-2.9894e+05	3140.4	-0.46233	0.79973	0.41051
1.76	94.665	-2.9894e+05	3140.1	-0.46214	0.80032	0.41041
1.762	94.701	-2.9894e+05	3139.6	-0.46321	0.79964	0.40933
1.764	94.755	-2.9894e+05	3139.1	-0.46428	0.79895	0.40826
1.766	94.781	-2.9894e+05	3138.7	-0.46536	0.79827	0.40719
1.768	94.78	-2.9893e+05	3138.2	-0.46643	0.79759	0.40611
1.77	94.749	-2.9893e+05	3137.7	-0.4675	0.7969	0.40504
1.772	94.705	-2.9893e+05	3137.1	-0.4675	0.79642	0.40514
1.774	94.681	-2.9893e+05	3136.5	-0.4675	0.79593	0.40524
1.776	94.682	-2.9893e+05	3136	-0.4675	0.79544	0.40533
1.778	94.71	-2.9892e+05	3135.4	-0.4675	0.79495	0.40543
1.78	94.757	-2.9892e+05	3134.8	-0.4675	0.79446	0.40553
1.782	94.795	-2.9892e+05	3134.2	-0.46633	0.79515	0.40631
1.784	94.808	-2.9892e+05	3133.5	-0.46516	0.79583	0.40709
1.786	94.791	-2.9893e+05	3132.9	-0.46399	0.79651	0.40787
1.788	94.743	-2.9893e+05	3132.3	-0.46282	0.7972	0.40865
1.79	94.695	-2.9893e+05	3131.7	-0.46165	0.79788	0.40943
1.792	94.677	-2.9892e+05	3131.1	-0.46165	0.79798	0.40924
1.794	94.693	-2.9893e+05	3130.5	-0.46165	0.79808	0.40904
1.796	94.73	-2.9893e+05	3130	-0.46165	0.79817	0.40885
1.798	94.773	-2.9893e+05	3129.4	-0.46165	0.79827	0.40865
1.8	94.81	-2.9893e+05	3128.9	-0.46165	0.79837	0.40846
1.802	94.792	-2.9893e+05	3128.3	-0.46096	0.79856	0.40904
1.804	94.757	-2.9892e+05	3127.7	-0.46028	0.79876	0.40963
1.806	94.712	-2.9893e+05	3127.2	-0.4596	0.79895	0.41021
1.808	94.677	-2.9893e+05	3126.7	-0.45892	0.79915	0.4108
1.81	94.687	-2.9892e+05	3126.2	-0.45823	0.79934	0.41138
1.812	94.709	-2.9892e+05	3125.7	-0.45872	0.79993	0.41051
1.814	94.78	-2.9892e+05	3125.1	-0.45921	0.80052	0.40963
1.816	94.818	-2.9892e+05	3124.6	-0.4597	0.8011	0.40875
1.818	94.815	-2.9892e+05	3124.1	-0.46018	0.80169	0.40787
1.82	94.779	-2.9893e+05	3123.6	-0.46067	0.80227	0.40699
1.822	94.733	-2.9893e+05	3123.2	-0.46233	0.801	0.40621
1.824	94.695	-2.9893e+05	3122.7	-0.46399	0.79973	0.40543
1.826	94.695	-2.9892e+05	3122.2	-0.46565	0.79847	0.40465
1.828	94.734	-2.9892e+05	3121.8	-0.46731	0.7972	0.40387
1.83	94.769	-2.9892e+05	3121.4	-0.46897	0.79593	0.40309
1.832	94.809	-2.9892e+05	3120.9	-0.46868	0.79485	0.4024
1.834	94.824	-2.9892e+05	3120.5	-0.46838	0.79378	0.40172
1.836	94.8	-2.9892e+05	3120.2	-0.46809	0.79271	0.40104
1.838	94.741	-2.9892e+05	3119.8	-0.4678	0.79163	0.40036
1.84	94.702	-2.9892e+05	3119.5	-0.4675	0.79056	0.39967
1.842	94.687	-2.9892e+05	3119.2	-0.46731	0.78997	0.40045
1.844	94.707	-2.9891e+05	3118.8	-0.46711	0.78939	0.40123
1.846	94.747	-2.9892e+05	3118.5	-0.46692	0.7888	0.40201
1.848	94.782	-2.9892e+05	3118.3	-0.46672	0.78822	0.4028
1.85	94.803	-2.9892e+05	3118	-0.46653	0.78763	0.40358
1.852	94.794	-2.9892e+05	3117.8	-0.46663	0.78792	0.40289
1.854	94.748	-2.9892e+05	3117.6	-0.46672	0.78822	0.40221
1.856	94.682	-2.9892e+05	3117.4	-0.46682	0.78851	0.40153
1.858	94.66	-2.9892e+05	3117.1	-0.46692	0.7888	0.40084
1.86	94.693	-2.9892e+05	3116.9	-0.46702	0.7891	0.40016
1.862	94.725	-2.9892e+05	3116.7	-0.46692	0.78929	0.39967
1.864	94.76	-2.9891e+05	3116.5	-0.46682	0.78949	0.39918
1.866	94.797	-2.9891e+05	3116.4	-0.46672	0.78968	0.3987
1.868	94.799	-2.9891e+05	3116.2	-0.46663	0.78988	0.39821
1.87	94.773	-2.9892e+05	3116.1	-0.46653	0.79007	0.39772
1.872	94.735	-2.9892e+05	3116	-0.46565	0.79007	0.39704
1.874	94.697	-2.9892e+05	3115.9	-0.46477	0.79007	0.39635
1.876	94.689	-2.9891e+05	3115.7	-0.46389	0.79007	0.39567
1.878	94.705	-2.9891e+05	3115.6	-0.46301	0.79007	0.39499
1.88	94.739	-2.9891e+05	3115.5	-0.46214	0.79007	0.3943
1.882	94.793	-2.9892e+05	3115.4	-0.46204	0.79183	0.39538
1.884	94.803	-2.9892e+05	3115.3	-0.46194	0.79359	0.39645
1.886	94.772	-2.9892e+05	3115.3	-0.46184	0.79534	0.39752
1.888	94.726	-2.9892e+05	3115.2	-0.46175	0.7971	0.3986
1.89	94.671	-2.9892e+05	3115.2	-0.46165	0.79886	0.39967
1.892	94.647	-2.9892e+05	3115.1	-0.46272	0.79798	0.39938
1.894	94.665	-2.9892e+05	3115	-0.4638	0.7971	0.39909
1.896	94.724	-2.9892e+05	3114.9	-0.46487	0.79622	0.39879
1.898	94.774	-2.9892e+05	3114.9	-0.46594	0.79534	0.3985
1.9	94.815	-2.9891e+05	3114.8	-0.46702	0.79446	0.39821
1.902	94.808	-2.9892e+05	3114.8	-0.46828	0.79573	0.3986
1.904	94.773	-2.9892e+05	3114.7	-0.46955	0.797	0.39899
1.906	94.743	-2.9892e+05	3114.6	-0.47082	0.79827	0.39938
1.908	94.703	-2.9892e+05	3114.6	-0.47209	0.79954	0.39977
1.91	94.713	-2.9891e+05	3114.5	-0.47336	0.80081	0.40016
1.912	94.757	-2.9891e+05	3114.4	-0.47326	0.80081	0.40016
1.914	94.816	-2.9891e+05	3114.4	-0.47316	0.80081	0.40016
1.916	94.866	-2.9891e+05	3114.3	-0.47307	0.80081	0.40016
1.918	94.867	-2.9892e+05	3114.2	-0.47297	0.80081	0.40016
1.92	94.834	-2.9892e+05	3114	-0.47287	0.80081	0.40016
1.922	94.794	-2.9892e+05	3114	-0.47199	0.80139	0.39967
1.924	94.768	-2.9891e+05	3113.9	-0.47112	0.80198	0.39918
1.926	94.759	-2.9891e+05	3113.8	-0.47024	0.80256	0.3987
1.928	94.774	-2.9891e+05	3113.7	-0.46936	0.80315	0.39821
1.93	94.817	-2.9891e+05	3113.6	-0.46848	0.80374	0.39772
1.932	94.864	-2.9891e+05	3113.4	-0.46955	0.80325	0.39879
1.934	94.877	-2.9891e+05	3113.3	-0.47063	0.80276	0.39987
1.936	94.851	-2.9891e+05	3113.2	-0.4717	0.80227	0.40094
1.938	94.804	-2.9891e+05	3113.1	-0.47277	0.80178	0.40201
1.94	94.76	-2.9891e+05	3112.9	-0.47385	0.8013	0.40309
1.942	94.746	-2.9891e+05	3112.8	-0.47385	0.80149	0.40328
1.944	94.766	-2.9891e+05	3112.6	-0.47385	0.80169	0.40348
1.946	94.812	-2.9891e+05	3112.5	-0.47385	0.80188	0.40367
1.948	94.864	-2.9891e+05	3112.3	-0.47385	0.80208	0.40387
1.95	94.886	-2.9891e+05	3112.1	-0.47385	0.80227	0.40406
1.952	94.876	-2.9891e+05	3112	-0.47395	0.80256	0.40319
1.954	94.839	-2.9891e+05	3111.9	-0.47404	0.80286	0.40231
1.956	94.786	-2.9891e+05	3111.7	-0.47414	0.80315	0.40143
1.958	94.75	-2.9892e+05	3111.6	-0.47424	0.80344	0.40055
1.96	94.754	-2.9892e+05	3111.4	-0.47434	0.80374	0.39967
1.962	94.795	-2.9892e+05	3111.2	-0.47473	0.80286	0.40084
1.964	94.851	-2.9892e+05	3111.1	-0.47512	0.80198	0.40201
1.966	94.889	-2.9891e+05	3110.9	-0.47551	0.8011	0.40319
1.968	94.883	-2.9891e+05	3110.8	-0.4759	0.80022	0.40436
1.97	94.847	-2.9891e+05	3110.6	-0.47629	0.79934	0.40553
1.972	94.799	-2.9891e+05	3110.5	-0.47668	0.79925	0.40553
1.974	94.774	-2.9891e+05	3110.3	-0.47707	0.79915	0.40553
1.976	94.776	-2.9891e+05	3110.1	-0.47746	0.79905	0.40553
1.978	94.801	-2.9891e+05	3109.9	-0.47785	0.79895	0.40553
1.98	94.847	-2.989e+05	3109.7	-0.47824	0.79886	0.40553
1.982	94.888	-2.989e+05	3109.5	-0.47736	0.79915	0.40592
1.984	94.887	-2.9891e+05	3109.3	-0.47648	0.79944	0.40631
1.986	94.868	-2.9891e+05	3109.1	-0.4756	0.79973	0.4067
1.988	94.819	-2.9892e+05	3109	-0.47473	0.80003	0.40709
1.99	94.775	-2.9892e+05	3108.8	-0.47385	0.80032	0.40748
1.992	94.762	-2.9891e+05	3108.6	-0.47258	0.80022	0.40738
1.994	94.786	-2.9891e+05	3108.4	-0.47131	0.80012	0.40728
1.996	94.837	-2.9891e+05	3108.2	-0.47004	0.80003	0.40719
1.998	94.889	-2.9891e+05	3107.9	-0.46877	0.79993	0.40709
2	94.911	-2.9891e+05	3107.7	-0.4675	0.79983	0.40699
2.002	94.892	-2.989e+05	3107.5	-0.46965	0.80061	0.4066
2.004	94.835	-2.989e+05	3107.2	-0.4718	0.80139	0.40621
2.006	94.784	-2.989e+05	3107	-0.47395	0.80217	0.40582
2.008	94.769	-2.989e+05	3106.7	-0.47609	0.80296	0.40543
2.01	94.78	-2.9891e+05	3106.5	-0.47824	0.80374	0.40504
2.012	94.8	-2.9892e+05	3106.3	-0.47697	0.80364	0.40543
2.014	94.821	-2.9891e+05	3106.1	-0.4757	0.80354	0.40582
2.016	94.831	-2.9891e+05	3105.9	-0.47443	0.80344	0.40621
2.018	94.801	-2.9891e+05	3105.6	-0.47316	0.80335	0.4066
2.02	94.726	-2.9891e+05	3105.4	-0.4719	0.80325	0.40699
2.022	94.623	-2.9891e+05	3105.2	-0.47297	0.80188	0.40728
2.024	94.52	-2.9891e+05	3104.9	-0.47404	0.80052	0.40758
2.026	94.445	-2.989e+05	3104.7	-0.47512	0.79915	0.40787
2.028	94.402	-2.9889e+05	3104.5	-0.47619	0.79778	0.40816
2.03	94.387	-2.9889e+05	3104.3	-0.47726	0.79642	0.40846
2.032	94.401	-2.9889e+05	3104.2	-0.47746	0.7972	0.40836
2.034	94.433	-2.989e+05	3104	-0.47765	0.79798	0.40826
2.036	94.477	-2.9891e+05	3103.8	-0.47785	0.79876	0.40816
2.038	94.544	-2.9891e+05	3103.6	-0.47804	0.79954	0.40807
2.04	94.629	-2.989e+05	3103.4	-0.47824	0.80032	0.40797
2.042	94.716	-2.989e+05	3103.3	-0.47629	0.80032	0.40768
2.044	94.806	-2.9891e+05	3103.2	-0.47434	0.80032	0.40738
2.046	94.884	-2.989e+05	3103	-0.47238	0.80032	0.40709
2.048	94.947	-2.989e+05	3102.7	-0.47043	0.80032	0.4068
2.05	94.979	-2.989e+05	3102.5	-0.46848	0.80032	0.4065
2.052	94.964	-2.9891e+05	3102.2	-0.46897	0.80012	0.40777
2.054	94.923	-2.9891e+05	3101.9	-0.46946	0.79993	0.40904
2.056	94.873	-2.989e+05	3101.7	-0.46994	0.79973	0.41031
2.058	94.845	-2.989e+05	3101.4	-0.47043	0.79954	0.41158
2.06	94.843	-2.989e+05	3101.1	-0.47092	0.79934	0.41285
2.062	94.872	-2.9891e+05	3100.8	-0.47024	0.79905	0.41265
2.064	94.914	-2.9891e+05	3100.5	-0.46955	0.79876	0.41246
2.066	94.946	-2.9891e+05	3100.3	-0.46887	0.79847	0.41226
2.068	94.941	-2.9891e+05	3100.2	-0.46819	0.79817	0.41207
2.07	94.91	-2.9891e+05	3100	-0.4675	0.79788	0.41187
2.072	94.855	-2.9891e+05	3099.8	-0.46692	0.79759	0.41158
2.074	94.791	-2.989e+05	3099.7	-0.46633	0.79729	0.41129
2.076	94.776	-2.989e+05	3099.4	-0.46575	0.797	0.41099
2.078	94.81	-2.989e+05	3099.2	-0.46516	0.79671	0.4107
2.08	94.864	-2.9891e+05	3098.9	-0.46458	0.79642	0.41041
2.082	94.906	-2.9891e+05	3098.7	-0.46526	0.7969	0.41021
2.084	94.915	-2.9891e+05	3098.4	-0.46594	0.79739	0.41002
2.086	94.899	-2.9892e+05	3098.1	-0.46663	0.79788	0.40982
2.088	94.852	-2.9892e+05	3097.8	-0.46731	0.79837	0.40963
2.09	94.791	-2.9891e+05	3097.5	-0.46799	0.79886	0.40943
2.092	94.772	-2.989e+05	3097.3	-0.4677	0.79788	0.40904
2.094	94.798	-2.9891e+05	3097	-0.46741	0.7969	0.40865
2.096	94.846	-2.9892e+05	3096.8	-0.46711	0.79593	0.40826
2.098	94.893	-2.9891e+05	3096.6	-0.46682	0.79495	0.40787
2.1	94.912	-2.989e+05	3096.3	-0.46653	0.79398	0.40748
2.102	94.893	-2.989e+05	3096	-0.46721	0.79466	0.40738
2.104	94.855	-2.989e+05	3095.8	-0.46789	0.79534	0.40728
2.106	94.812	-2.989e+05	3095.5	-0.46858	0.79603	0.40719
2.108	94.781	-2.989e+05	3095.2	-0.46926	0.79671	0.40709
2.11	94.781	-2.989e+05	3094.9	-0.46994	0.79739	0.40699
2.112	94.812	-2.989e+05	3094.6	-0.46994	0.797	0.40709
2.114	94.852	-2.989e+05	3094.3	-0.46994	0.79661	0.40719
2.116	94.879	-2.9891e+05	3094.1	-0.46994	0.79622	0.40728
2.118	94.88	-2.9891e+05	3093.8	-0.46994	0.79583	0.40738
2.12	94.846	-2.9891e+05	3093.6	-0.46994	0.79544	0.40748
2.122	94.801	-2.9891e+05	3093.4	-0.47004	0.79564	0.40699
2.124	94.766	-2.989e+05	3093.3	-0.47014	0.79583	0.4065
2.126	94.758	-2.9891e+05	3093.1	-0.47024	0.79603	0.40602
2.128	94.785	-2.9891e+05	3093	-0.47033	0.79622	0.40553
2.13	94.832	-2.989e+05	3092.8	-0.47043	0.79642	0.40504
2.132	94.874	-2.989e+05	3092.7	-0.47141	0.79798	0.40416
2.134	94.885	-2.9891e+05	3092.5	-0.47238	0.79954	0.40328
2.136	94.86	-2.9892e+05	3092.3	-0.47336	0.8011	0.4024
2.138	94.818	-2.9891e+05	3092.2	-0.47434	0.80266	0.40153
2.14	94.773	-2.9891e+05	3092.1	-0.47531	0.80422	0.40065
2.142	94.747	-2.9891e+05	3092	-0.47404	0.80403	0.39967
2.144	94.764	-2.9892e+05	3091.9	-0.47277	0.80383	0.3987
2.146	94.815	-2.9891e+05	3091.7	-0.47151	0.80364	0.39772
2.148	94.865	-2.989e+05	3091.6	-0.47024	0.80344	0.39674
2.15	94.884	-2.989e+05	3091.5	-0.46897	0.80325	0.39577
2.152	94.875	-2.989e+05	3091.4	-0.46955	0.80364	0.39606
2.154	94.821	-2.9891e+05	3091.2	-0.47014	0.80403	0.39635
2.156	94.772	-2.9891e+05	3091.1	-0.47072	0.80442	0.39665
2.158	94.749	-2.9891e+05	3090.9	-0.47131	0.80481	0.39694
2.16	94.752	-2.9892e+05	3090.7	-0.4719	0.8052	0.39723
2.162	94.792	-2.9892e+05	3090.6	-0.47268	0.80491	0.39811
2.164	94.84	-2.9892e+05	3090.4	-0.47346	0.80461	0.39899
2.166	94.88	-2.9892e+05	3090.2	-0.47424	0.80432	0.39987
2.168	94.883	-2.9892e+05	3090	-0.47502	0.80403	0.40075
2.17	94.845	-2.9891e+05	3089.8	-0.4758	0.80374	0.40162
2.172	94.797	-2.9891e+05	3089.7	-0.47531	0.80393	0.40201
2.174	94.759	-2.9891e+05	3089.6	-0.47482	0.80413	0.4024
2.176	94.751	-2.9891e+05	3089.5	-0.47434	0.80432	0.4028
2.178	94.777	-2.9891e+05	3089.7	-0.47385	0.80452	0.40319
2.18	94.825	-2.9891e+05	3089.8	-0.47336	0.80471	0.40358
2.182	94.861	-2.9892e+05	3090.2	-0.47473	0.80256	0.40309
2.184	94.866	-2.9892e+05	3090.7	-0.47609	0.80042	0.4026
2.186	94.843	-2.9891e+05	3091.3	-0.47746	0.79827	0.40211
2.188	94.798	-2.9891e+05	3092.1	-0.47883	0.79612	0.40162
2.19	94.751	-2.9891e+05	3092.9	-0.48019	0.79398	0.40114
2.192	94.727	-2.9891e+05	3094	-0.4797	0.79388	0.40084
2.194	94.74	-2.9891e+05	3095.1	-0.47922	0.79378	0.40055
2.196	94.783	-2.9891e+05	3096.3	-0.47873	0.79368	0.40026
2.198	94.83	-2.9891e+05	3097.6	-0.47824	0.79359	0.39996
2.2	94.85	-2.9891e+05	3098.9	-0.47775	0.79349	0.39967
2.202	94.831	-2.9891e+05	3100.3	-0.47756	0.79349	0.39948
2.204	94.785	-2.9892e+05	3101.8	-0.47736	0.79349	0.39928
2.206	94.737	-2.9891e+05	3103.2	-0.47717	0.79349	0.39909
2.208	94.705	-2.9891e+05	3104.7	-0.47697	0.79349	0.39889
2.21	94.706	-2.9891e+05	3106.1	-0.47678	0.79349	0.3987
2.212	94.739	-2.9891e+05	3107.6	-0.47551	0.79437	0.40036
2.214	94.775	-2.9891e+05	3109	-0.47424	0.79524	0.40201
2.216	94.796	-2.9891e+05	3110.5	-0.47297	0.79612	0.40367
2.218	94.8	-2.9891e+05	3111.9	-0.4717	0.797	0.40533
2.22	94.767	-2.9891e+05	3113.3	-0.47043	0.79788	0.40699
2.222	94.714	-2.9891e+05	3114.6	-0.47121	0.79817	0.4065
2.224	94.673	-2.989e+05	3116	-0.47199	0.79847	0.40602
2.226	94.66	-2.989e+05	3117.3	-0.47277	0.79876	0.40553
2.228	94.678	-2.9889e+05	3118.6	-0.47356	0.79905	0.40504
2.23	94.725	-2.989e+05	3119.8	-0.47434	0.79934	0.40455
2.232	94.769	-2.989e+05	3120.9	-0.47404	0.79876	0.40445
2.234	94.788	-2.989e+05	3122	-0.47375	0.79817	0.40436
2.236	94.758	-2.989e+05	3123	-0.47346	0.79759	0.40426
2.238	94.705	-2.989e+05	3124	-0.47316	0.797	0.40416
2.24	94.647	-2.989e+05	3124.9	-0.47287	0.79642	0.40406
2.242	94.634	-2.989e+05	3125.7	-0.47277	0.797	0.40514
2.244	94.652	-2.989e+05	3126.6	-0.47268	0.79759	0.40621
2.246	94.707	-2.989e+05	3127.4	-0.47258	0.79817	0.40728
2.248	94.767	-2.9889e+05	3128.1	-0.47248	0.79876	0.40836
2.25	94.791	-2.9889e+05	3128.8	-0.47238	0.79934	0.40943
2.252	94.774	-2.9889e+05	3129.4	-0.4719	0.79954	0.40885
2.254	94.731	-2.9889e+05	3130.1	-0.47141	0.79973	0.40826
2.256	94.679	-2.9889e+05	3130.7	-0.47092	0.79993	0.40768
2.258	94.655	-2.9889e+05	3131.3	-0.47043	0.80012	0.40709
2.26	94.662	-2.9889e+05	3131.9	-0.46994	0.80032	0.4065
2.262	94.693	-2.9889e+05	3132.4	-0.47072	0.80091	0.40572
2.264	94.74	-2.9889e+05	3132.9	-0.47151	0.80149	0.40494
2.266	94.772	-2.9889e+05	3133.4	-0.47229	0.80208	0.40416
2.268	94.77	-2.9889e+05	3133.8	-0.47307	0.80266	0.40338
2.27	94.734	-2.9889e+05	3134.2	-0.47385	0.80325	0.4026
2.272	94.69	-2.9889e+05	3134.4	-0.47365	0.80344	0.40319
2.274	94.655	-2.9888e+05	3134.5	-0.47346	0.80364	0.40377
2.276	94.647	-2.9887e+05	3134.6	-0.47326	0.80383	0.40436
2.278	94.686	-2.9888e+05	3134.8	-0.47307	0.80403	0.40494
2.28	94.745	-2.9888e+05	3134.9	-0.47287	0.80422	0.40553
2.282	94.792	-2.9888e+05	3135	-0.47463	0.80325	0.40563
2.284	94.807	-2.9888e+05	3135.1	-0.47639	0.80227	0.40572
2.286	94.787	-2.9888e+05	3135.2	-0.47814	0.8013	0.40582
2.288	94.748	-2.9889e+05	3135.3	-0.4799	0.80032	0.40592
2.29	94.709	-2.9888e+05	3135.4	-0.48166	0.79934	0.40602
2.292	94.69	-2.9888e+05	3135.5	-0.48019	0.80032	0.40367
2.294	94.709	-2.9888e+05	3135.6	-0.47873	0.8013	0.40133
2.296	94.756	-2.9888e+05	3135.6	-0.47726	0.80227	0.39899
2.298	94.803	-2.9888e+05	3135.6	-0.4758	0.80325	0.39665
2.3	94.838	-2.9887e+05	3135.6	-0.47434	0.80422	0.3943
2.302	94.836	-2.9887e+05	3135.2	-0.47297	0.80335	0.39616
2.304	94.798	-2.9887e+05	3134.9	-0.4716	0.80247	0.39801
2.306	94.753	-2.9887e+05	3134.6	-0.47024	0.80159	0.39987
2.308	94.728	-2.9887e+05	3134.3	-0.46887	0.80071	0.40172
2.31	94.732	-2.9887e+05	3134	-0.4675	0.79983	0.40358
2.312	94.771	-2.9887e+05	3133.7	-0.47072	0.79954	0.40397
2.314	94.828	-2.9886e+05	3133.4	-0.47395	0.79925	0.40436
2.316	94.862	-2.9886e+05	3133.1	-0.47717	0.79895	0.40475
2.318	94.869	-2.9886e+05	3132.8	-0.48039	0.79866	0.40514
2.32	94.845	-2.9887e+05	3132.5	-0.48361	0.79837	0.40553
2.322	94.798	-2.9887e+05	3132.2	-0.48185	0.79886	0.40397
2.324	94.76	-2.9887e+05	3131.9	-0.48009	0.79934	0.4024
2.326	94.748	-2.9887e+05	3131.6	-0.47834	0.79983	0.40084
2.328	94.776	-2.9886e+05	3131.4	-0.47658	0.80032	0.39928
2.33	94.832	-2.9886e+05	3131.2	-0.47482	0.80081	0.39772
2.332	94.876	-2.9885e+05	3130.8	-0.47277	0.79964	0.39626
2.334	94.892	-2.9885e+05	3130.4	-0.47072	0.79847	0.39479
2.336	94.865	-2.9886e+05	3129.9	-0.46868	0.79729	0.39333
2.338	94.814	-2.9886e+05	3129.4	-0.46663	0.79612	0.39186
2.34	94.765	-2.9886e+05	3128.8	-0.46458	0.79495	0.3904
2.342	94.744	-2.9885e+05	3128.3	-0.46741	0.79515	0.39216
2.344	94.756	-2.9885e+05	3127.8	-0.47024	0.79534	0.39391
2.346	94.798	-2.9885e+05	3127.3	-0.47307	0.79554	0.39567
2.348	94.854	-2.9885e+05	3126.7	-0.4759	0.79573	0.39743
2.35	94.882	-2.9886e+05	3126.1	-0.47873	0.79593	0.39918
2.352	94.878	-2.9886e+05	3125.6	-0.47765	0.797	0.39889
2.354	94.843	-2.9885e+05	3125.1	-0.47658	0.79808	0.3986
2.356	94.788	-2.9885e+05	3124.5	-0.47551	0.79915	0.39831
2.358	94.752	-2.9885e+05	3124.1	-0.47443	0.80022	0.39801
2.36	94.76	-2.9885e+05	3123.6	-0.47336	0.8013	0.39772
2.362	94.799	-2.9885e+05	3122.8	-0.47102	0.79983	0.39704
2.364	94.849	-2.9884e+05	3121.9	-0.46868	0.79837	0.39635
2.366	94.879	-2.9884e+05	3121.1	-0.46633	0.7969	0.39567
2.368	94.869	-2.9884e+05	3120.3	-0.46399	0.79544	0.39499
2.37	94.835	-2.9885e+05	3119.5	-0.46165	0.79398	0.3943
2.372	94.792	-2.9885e+05	3118.8	-0.46575	0.79398	0.39587
2.374	94.755	-2.9885e+05	3118.1	-0.46985	0.79398	0.39743
2.376	94.751	-2.9885e+05	3117.4	-0.47395	0.79398	0.39899
2.378	94.785	-2.9885e+05	3116.7	-0.47804	0.79398	0.40055
2.38	94.836	-2.9885e+05	3116.1	-0.48214	0.79398	0.40211
2.382	94.879	-2.9885e+05	3115.4	-0.4799	0.79485	0.40114
2.384	94.893	-2.9885e+05	3114.8	-0.47765	0.79573	0.40016
2.386	94.862	-2.9885e+05	3114.1	-0.47541	0.79661	0.39918
2.388	94.818	-2.9886e+05	3113.5	-0.47316	0.79749	0.39821
2.39	94.779	-2.9885e+05	3113	-0.47092	0.79837	0.39723
2.392	94.761	-2.9885e+05	3112.4	-0.47014	0.79768	0.39606
2.394	94.778	-2.9885e+05	3111.9	-0.46936	0.797	0.39489
2.396	94.815	-2.9884e+05	3111.5	-0.46858	0.79632	0.39372
2.398	94.864	-2.9884e+05	3111.1	-0.4678	0.79564	0.39255
2.4	94.891	-2.9884e+05	3110.7	-0.46702	0.79495	0.39138
2.402	94.888	-2.9885e+05	3110.4	-0.46809	0.79466	0.39147
2.404	94.845	-2.9885e+05	3110.1	-0.46916	0.79437	0.39157
2.406	94.794	-2.9885e+05	3109.8	-0.47024	0.79407	0.39167
2.408	94.77	-2.9885e+05	3109.4	-0.47131	0.79378	0.39177
2.41	94.773	-2.9885e+05	3109.1	-0.47238	0.79349	0.39186
2.412	94.806	-2.9884e+05	3108.8	-0.47131	0.79271	0.39089
2.414	94.861	-2.9884e+05	3108.6	-0.47024	0.79193	0.38991
2.416	94.891	-2.9885e+05	3108.3	-0.46916	0.79115	0.38894
2.418	94.889	-2.9885e+05	3108	-0.46809	0.79036	0.38796
2.42	94.858	-2.9886e+05	3107.8	-0.46702	0.78958	0.38698
2.422	94.813	-2.9886e+05	3107.6	-0.46702	0.79085	0.38835
2.424	94.778	-2.9886e+05	3107.5	-0.46702	0.79212	0.38972
2.426	94.767	-2.9886e+05	3107.5	-0.46702	0.79339	0.39108
2.428	94.791	-2.9887e+05	3107.6	-0.46702	0.79466	0.39245
2.43	94.843	-2.9886e+05	3107.6	-0.46702	0.79593	0.39382
2.432	94.889	-2.9886e+05	3107.6	-0.46653	0.79446	0.39264
2.434	94.901	-2.9886e+05	3107.5	-0.46604	0.793	0.39147
2.436	94.875	-2.9885e+05	3107.4	-0.46555	0.79154	0.3903
2.438	94.833	-2.9886e+05	3107.2	-0.46506	0.79007	0.38913
2.44	94.784	-2.9886e+05	3107.1	-0.46458	0.78861	0.38796
2.442	94.751	-2.9886e+05	3107	-0.46584	0.79017	0.38864
2.444	94.766	-2.9886e+05	3106.9	-0.46711	0.79173	0.38933
2.446	94.82	-2.9885e+05	3106.9	-0.46838	0.79329	0.39001
2.448	94.871	-2.9885e+05	3107	-0.46965	0.79485	0.39069
2.45	94.895	-2.9885e+05	3107.2	-0.47092	0.79642	0.39138
2.452	94.88	-2.9886e+05	3107.3	-0.4677	0.79671	0.39235
2.454	94.835	-2.9886e+05	3107.5	-0.46448	0.797	0.39333
2.456	94.788	-2.9886e+05	3107.6	-0.46126	0.79729	0.3943
2.458	94.757	-2.9886e+05	3107.7	-0.45804	0.79759	0.39528
2.46	94.756	-2.9886e+05	3107.7	-0.45482	0.79788	0.39626
2.462	94.79	-2.9886e+05	3107.7	-0.45628	0.79798	0.39596
2.464	94.838	-2.9886e+05	3107.7	-0.45774	0.79808	0.39567
2.466	94.876	-2.9886e+05	3107.7	-0.45921	0.79817	0.39538
2.468	94.886	-2.9886e+05	3107.8	-0.46067	0.79827	0.39508
2.47	94.857	-2.9886e+05	3107.9	-0.46214	0.79837	0.39479
2.472	94.807	-2.9885e+05	3108.2	-0.46155	0.79866	0.39499
2.474	94.765	-2.9886e+05	3108.4	-0.46096	0.79895	0.39518
2.476	94.747	-2.9886e+05	3108.7	-0.46038	0.79925	0.39538
2.478	94.77	-2.9887e+05	3108.9	-0.45979	0.79954	0.39557
2.48	94.815	-2.9887e+05	3109.1	-0.45921	0.79983	0.39577
2.482	94.863	-2.9887e+05	3109.2	-0.46165	0.80081	0.39616
2.484	94.875	-2.9887e+05	3109.4	-0.46409	0.80178	0.39655
2.486	94.848	-2.9887e+05	3109.6	-0.46653	0.80276	0.39694
2.488	94.808	-2.9887e+05	3109.8	-0.46897	0.80374	0.39733
2.49	94.766	-2.9887e+05	3110.1	-0.47141	0.80471	0.39772
2.492	94.741	-2.9887e+05	3110.5	-0.47112	0.8053	0.39645
2.494	94.754	-2.9887e+05	3110.8	-0.47082	0.80588	0.39518
2.496	94.792	-2.9886e+05	3111	-0.47053	0.80647	0.39391
2.498	94.84	-2.9886e+05	3111.1	-0.47024	0.80705	0.39264
2.5	94.87	-2.9886e+05	3111.3	-0.46994	0.80764	0.39138
2.502	94.861	-2.9886e+05	3111.5	-0.46975	0.80715	0.39245
2.504	94.82	-2.9885e+05	3111.7	-0.46955	0.80666	0.39352
2.506	94.768	-2.9886e+05	3111.9	-0.46936	0.80618	0.3946
2.508	94.734	-2.9888e+05	3112.1	-0.46916	0.80569	0.39567
2.51	94.742	-2.9887e+05	3112.3	-0.46897	0.8052	0.39674
2.512	94.784	-2.9886e+05	3112.5	-0.46838	0.80461	0.39674
2.514	94.832	-2.9886e+05	3112.6	-0.4678	0.80403	0.39674
2.516	94.869	-2.9886e+05	3112.7	-0.46721	0.80344	0.39674
2.518	94.871	-2.9886e+05	3112.7	-0.46663	0.80286	0.39674
2.52	94.836	-2.9887e+05	3112.8	-0.46604	0.80227	0.39674
2.522	94.785	-2.9886e+05	3112.8	-0.46838	0.80335	0.39723
2.524	94.742	-2.9886e+05	3112.9	-0.47072	0.80442	0.39772
2.526	94.737	-2.9886e+05	3112.9	-0.47307	0.80549	0.39821
2.528	94.769	-2.9886e+05	3113	-0.47541	0.80657	0.3987
2.53	94.814	-2.9885e+05	3113	-0.47775	0.80764	0.39918
2.532	94.849	-2.9885e+05	3113	-0.47873	0.80608	0.40045
2.534	94.854	-2.9886e+05	3112.9	-0.4797	0.80452	0.40172
2.536	94.822	-2.9886e+05	3112.9	-0.48068	0.80296	0.40299
2.538	94.775	-2.9886e+05	3112.8	-0.48166	0.80139	0.40426
2.54	94.734	-2.9887e+05	3112.8	-0.48263	0.79983	0.40553
2.542	94.713	-2.9886e+05	3112.7	-0.48214	0.79925	0.40572
2.544	94.724	-2.9886e+05	3112.6	-0.48166	0.79866	0.40592
2.546	94.764	-2.9886e+05	3112.5	-0.48117	0.79808	0.40611
2.548	94.805	-2.9886e+05	3112.3	-0.48068	0.79749	0.40631
2.55	94.823	-2.9886e+05	3112.1	-0.48019	0.7969	0.4065
2.552	94.811	-2.9886e+05	3111.9	-0.48048	0.79681	0.40602
2.554	94.77	-2.9886e+05	3111.7	-0.48078	0.79671	0.40553
2.556	94.724	-2.9886e+05	3111.4	-0.48107	0.79661	0.40504
2.558	94.697	-2.9886e+05	3111.2	-0.48136	0.79651	0.40455
2.56	94.701	-2.9886e+05	3110.9	-0.48166	0.79642	0.40406
2.562	94.736	-2.9886e+05	3110.7	-0.48234	0.79612	0.40387
2.564	94.781	-2.9887e+05	3110.5	-0.48302	0.79583	0.40367
2.566	94.813	-2.9887e+05	3110.3	-0.48371	0.79554	0.40348
2.568	94.81	-2.9886e+05	3110	-0.48439	0.79524	0.40328
2.57	94.772	-2.9886e+05	3109.8	-0.48507	0.79495	0.40309
2.572	94.711	-2.9886e+05	3109.6	-0.48478	0.79466	0.40299
2.574	94.66	-2.9886e+05	3109.3	-0.48449	0.79437	0.40289
2.576	94.65	-2.9886e+05	3109.1	-0.48419	0.79407	0.4028
2.578	94.671	-2.9886e+05	3108.9	-0.4839	0.79378	0.4027
2.58	94.72	-2.9886e+05	3108.6	-0.48361	0.79349	0.4026
2.582	94.779	-2.9886e+05	3108.4	-0.48468	0.79437	0.4026
2.584	94.805	-2.9886e+05	3108.2	-0.48576	0.79524	0.4026
2.586	94.791	-2.9886e+05	3107.9	-0.48683	0.79612	0.4026
2.588	94.745	-2.9886e+05	3107.7	-0.4879	0.797	0.4026
2.59	94.695	-2.9886e+05	3107.5	-0.48898	0.79788	0.4026
2.592	94.681	-2.9886e+05	3107.3	-0.48829	0.79827	0.40328
2.594	94.708	-2.9886e+05	3107	-0.48761	0.79866	0.40397
2.596	94.761	-2.9886e+05	3106.8	-0.48693	0.79905	0.40465
2.598	94.815	-2.9887e+05	3106.6	-0.48624	0.79944	0.40533
2.6	94.845	-2.9887e+05	3106.4	-0.48556	0.79983	0.40602
2.602	94.843	-2.9887e+05	3106.2	-0.48312	0.79934	0.40426
2.604	94.812	-2.9886e+05	3106	-0.48068	0.79886	0.4025
2.606	94.774	-2.9887e+05	3105.8	-0.47824	0.79837	0.40075
2.608	94.751	-2.9887e+05	3105.5	-0.4758	0.79788	0.39899
2.61	94.759	-2.9887e+05	3105.3	-0.47336	0.79739	0.39723
2.612	94.792	-2.9886e+05	3105.1	-0.47619	0.79768	0.39801
2.614	94.838	-2.9887e+05	3104.9	-0.47902	0.79798	0.39879
2.616	94.874	-2.9887e+05	3104.6	-0.48185	0.79827	0.39957
2.618	94.881	-2.9887e+05	3104.4	-0.48468	0.79856	0.40036
2.62	94.855	-2.9887e+05	3104.2	-0.48751	0.79886	0.40114
2.622	94.811	-2.9886e+05	3104	-0.48751	0.79954	0.40133
2.624	94.773	-2.9886e+05	3103.7	-0.48751	0.80022	0.40153
2.626	94.765	-2.9886e+05	3103.5	-0.48751	0.80091	0.40172
2.628	94.792	-2.9887e+05	3103.3	-0.48751	0.80159	0.40192
2.63	94.842	-2.9887e+05	3103	-0.48751	0.80227	0.40211
2.632	94.887	-2.9888e+05	3102.8	-0.48497	0.80208	0.40143
2.634	94.905	-2.9887e+05	3102.6	-0.48244	0.80188	0.40075
2.636	94.889	-2.9887e+05	3102.3	-0.4799	0.80169	0.40006
2.638	94.841	-2.9886e+05	3102.1	-0.47736	0.80149	0.39938
2.64	94.789	-2.9886e+05	3101.9	-0.47482	0.8013	0.3987
2.642	94.767	-2.9886e+05	3101.7	-0.47551	0.80042	0.39704
2.644	94.785	-2.9887e+05	3101.5	-0.47619	0.79954	0.39538
2.646	94.834	-2.9886e+05	3101.3	-0.47687	0.79866	0.39372
2.648	94.882	-2.9886e+05	3101	-0.47756	0.79778	0.39206
2.65	94.916	-2.9886e+05	3100.8	-0.47824	0.7969	0.3904
2.652	94.905	-2.9887e+05	3100.5	-0.47648	0.7972	0.39118
2.654	94.873	-2.9887e+05	3100.3	-0.47473	0.79749	0.39196
2.656	94.825	-2.9887e+05	3100	-0.47297	0.79778	0.39274
2.658	94.788	-2.9887e+05	3099.7	-0.47121	0.79808	0.39352
2.66	94.797	-2.9887e+05	3099.5	-0.46946	0.79837	0.3943
2.662	94.834	-2.9887e+05	3099.2	-0.46985	0.79847	0.3943
2.664	94.895	-2.9887e+05	3099	-0.47024	0.79856	0.3943
2.666	94.936	-2.9888e+05	3098.8	-0.47063	0.79866	0.3943
2.668	94.937	-2.9888e+05	3098.6	-0.47102	0.79876	0.3943
2.67	94.901	-2.9888e+05	3098.4	-0.47141	0.79886	0.3943
2.672	94.857	-2.9888e+05	3098.2	-0.47141	0.79944	0.39372
2.674	94.814	-2.9887e+05	3098	-0.47141	0.80003	0.39313
2.676	94.802	-2.9887e+05	3097.7	-0.47141	0.80061	0.39255
2.678	94.829	-2.9887e+05	3097.5	-0.47141	0.8012	0.39196
2.68	94.879	-2.9887e+05	3097.3	-0.47141	0.80178	0.39138
2.682	94.919	-2.9887e+05	3097.1	-0.47199	0.80198	0.39118
2.684	94.934	-2.9888e+05	3096.9	-0.47258	0.80217	0.39099
2.686	94.914	-2.9888e+05	3096.7	-0.47316	0.80237	0.39079
2.688	94.872	-2.9887e+05	3096.5	-0.47375	0.80256	0.3906
2.69	94.828	-2.9888e+05	3096.3	-0.47434	0.80276	0.3904
2.692	94.805	-2.9889e+05	3096.2	-0.47541	0.80178	0.3902
2.694	94.804	-2.9889e+05	3096	-0.47648	0.80081	0.39001
2.696	94.82	-2.9889e+05	3095.8	-0.47756	0.79983	0.38981
2.698	94.84	-2.9889e+05	3095.6	-0.47863	0.79886	0.38962
2.7	94.827	-2.9889e+05	3095.5	-0.4797	0.79788	0.38942
2.702	94.768	-2.9889e+05	3095.4	-0.47941	0.79778	0.39001
2.704	94.671	-2.989e+05	3095.2	-0.47912	0.79768	0.3906
2.706	94.544	-2.989e+05	3095.1	-0.47883	0.79759	0.39118
2.708	94.421	-2.989e+05	3095.1	-0.47853	0.79749	0.39177
2.71	94.335	-2.989e+05	3095	-0.47824	0.79739	0.39235
2.712	94.3	-2.9891e+05	3094.9	-0.47746	0.79876	0.39177
2.714	94.319	-2.9891e+05	3094.9	-0.47668	0.80012	0.39118
2.716	94.381	-2.9891e+05	3094.8	-0.4759	0.80149	0.3906
2.718	94.462	-2.9891e+05	3094.7	-0.47512	0.80286	0.39001
2.72	94.549	-2.9891e+05	3094.7	-0.47434	0.80422	0.38942
2.722	94.643	-2.9891e+05	3094.6	-0.47453	0.80432	0.38981
2.724	94.739	-2.989e+05	3094.6	-0.47473	0.80442	0.3902
2.726	94.83	-2.989e+05	3094.5	-0.47492	0.80452	0.3906
2.728	94.917	-2.989e+05	3094.4	-0.47512	0.80461	0.39099
2.73	94.993	-2.9889e+05	3094.4	-0.47531	0.80471	0.39138
2.732	95.052	-2.9889e+05	3094.4	-0.4756	0.80471	0.39108
2.734	95.078	-2.9889e+05	3094.3	-0.4759	0.80471	0.39079
2.736	95.068	-2.9889e+05	3094.3	-0.47619	0.80471	0.3905
2.738	95.025	-2.989e+05	3094.2	-0.47648	0.80471	0.3902
2.74	94.97	-2.989e+05	3094.1	-0.47678	0.80471	0.38991
2.742	94.93	-2.989e+05	3094	-0.47629	0.80461	0.39089
2.744	94.927	-2.989e+05	3093.8	-0.4758	0.80452	0.39186
2.746	94.963	-2.989e+05	3093.7	-0.47531	0.80442	0.39284
2.748	95.014	-2.9889e+05	3093.6	-0.47482	0.80432	0.39382
2.75	95.046	-2.9889e+05	3093.6	-0.47434	0.80422	0.39479
2.752	95.022	-2.989e+05	3093.6	-0.47375	0.80559	0.39508
2.754	94.959	-2.989e+05	3093.5	-0.47316	0.80696	0.39538
2.756	94.891	-2.989e+05	3093.4	-0.47258	0.80832	0.39567
2.758	94.846	-2.989e+05	3093.3	-0.47199	0.80969	0.39596
2.76	94.841	-2.989e+05	3093.1	-0.47141	0.81106	0.39626
2.762	94.868	-2.989e+05	3093	-0.47199	0.81076	0.39557
2.764	94.912	-2.9889e+05	3092.9	-0.47258	0.81047	0.39489
2.766	94.952	-2.989e+05	3092.7	-0.47316	0.81018	0.39421
2.768	94.951	-2.989e+05	3092.5	-0.47375	0.80988	0.39352
2.77	94.915	-2.989e+05	3092.3	-0.47434	0.80959	0.39284
2.772	94.863	-2.9891e+05	3092.2	-0.47502	0.80823	0.39274
2.774	94.82	-2.9891e+05	3092.1	-0.4757	0.80686	0.39264
2.776	94.808	-2.989e+05	3091.9	-0.47639	0.80549	0.39255
2.778	94.828	-2.9891e+05	3091.7	-0.47707	0.80413	0.39245
2.78	94.866	-2.9891e+05	3091.5	-0.47775	0.80276	0.39235
2.782	94.904	-2.9891e+05	3091.3	-0.47726	0.80364	0.39255
2.784	94.918	-2.9891e+05	3091.1	-0.47678	0.80452	0.39274
2.786	94.895	-2.9891e+05	3090.9	-0.47629	0.8054	0.39294
2.788	94.851	-2.9891e+05	3090.6	-0.4758	0.80627	0.39313
2.79	94.805	-2.9891e+05	3090.3	-0.47531	0.80715	0.39333
2.792	94.781	-2.9891e+05	3090	-0.47551	0.80579	0.39479
2.794	94.794	-2.989e+05	3089.8	-0.4757	0.80442	0.39626
2.796	94.837	-2.989e+05	3089.5	-0.4759	0.80305	0.39772
2.798	94.885	-2.989e+05	3089.3	-0.47609	0.80169	0.39918
2.8	94.912	-2.989e+05	3089	-0.47629	0.80032	0.40065
2.802	94.902	-2.9891e+05	3088.8	-0.47736	0.79905	0.40006
2.804	94.863	-2.9891e+05	3088.5	-0.47844	0.79778	0.39948
2.806	94.815	-2.9891e+05	3088.3	-0.47951	0.79651	0.39889
2.808	94.785	-2.9892e+05	3088.1	-0.48058	0.79524	0.39831
2.81	94.788	-2.9891e+05	3087.9	-0.48166	0.79398	0.39772
2.812	94.822	-2.9891e+05	3087.8	-0.48068	0.79476	0.39752
2.814	94.873	-2.9891e+05	3087.6	-0.4797	0.79554	0.39733
2.816	94.909	-2.9891e+05	3087.4	-0.47873	0.79632	0.39713
2.818	94.907	-2.9891e+05	3087.2	-0.47775	0.7971	0.39694
2.82	94.877	-2.9892e+05	3087.1	-0.47678	0.79788	0.39674
2.822	94.83	-2.9891e+05	3086.9	-0.4758	0.79925	0.39635
2.824	94.789	-2.9891e+05	3086.7	-0.47482	0.80061	0.39596
2.826	94.777	-2.9891e+05	3086.5	-0.47385	0.80198	0.39557
2.828	94.8	-2.989e+05	3086.3	-0.47287	0.80335	0.39518
2.83	94.845	-2.989e+05	3086.1	-0.4719	0.80471	0.39479
2.832	94.889	-2.9891e+05	3086	-0.47326	0.80461	0.39343
2.834	94.913	-2.9891e+05	3085.9	-0.47463	0.80452	0.39206
2.836	94.89	-2.9892e+05	3085.7	-0.476	0.80442	0.39069
2.838	94.841	-2.9892e+05	3085.5	-0.47736	0.80432	0.38933
2.84	94.794	-2.9891e+05	3085.4	-0.47873	0.80422	0.38796
2.842	94.778	-2.9891e+05	3085.2	-0.47902	0.80422	0.38796
2.844	94.796	-2.9891e+05	3085	-0.47931	0.80422	0.38796
2.846	94.83	-2.9891e+05	3084.9	-0.47961	0.80422	0.38796
2.848	94.876	-2.9891e+05	3084.8	-0.4799	0.80422	0.38796
2.85	94.908	-2.9892e+05	3084.6	-0.48019	0.80422	0.38796
2.852	94.905	-2.9892e+05	3084.6	-0.47912	0.8053	0.38845
2.854	94.866	-2.9892e+05	3084.6	-0.47804	0.80637	0.38894
2.856	94.811	-2.9892e+05	3084.7	-0.47697	0.80744	0.38942
2.858	94.777	-2.9892e+05	3084.9	-0.4759	0.80852	0.38991
2.86	94.78	-2.9892e+05	3085.2	-0.47482	0.80959	0.3904
2.862	94.812	-2.9892e+05	3085.8	-0.47512	0.80979	0.3904
2.864	94.859	-2.9893e+05	3086.4	-0.47541	0.80998	0.3904
2.866	94.893	-2.9893e+05	3087.3	-0.4757	0.81018	0.3904
2.868	94.893	-2.9893e+05	3088.3	-0.476	0.81037	0.3904
2.87	94.86	-2.9893e+05	3089.4	-0.47629	0.81057	0.3904
2.872	94.81	-2.9893e+05	3090.7	-0.47746	0.80959	0.38991
2.874	94.769	-2.9893e+05	3092.1	-0.47863	0.80862	0.38942
2.876	94.757	-2.9893e+05	3093.6	-0.4798	0.80764	0.38894
2.878	94.779	-2.9893e+05	3095.3	-0.48097	0.80666	0.38845
2.88	94.819	-2.9893e+05	3096.9	-0.48214	0.80569	0.38796
2.882	94.856	-2.9893e+05	3098.6	-0.47834	0.80569	0.38591
2.884	94.871	-2.9892e+05	3100.3	-0.47453	0.80569	0.38386
2.886	94.852	-2.9892e+05	3102	-0.47072	0.80569	0.38181
2.888	94.801	-2.9892e+05	3103.5	-0.46692	0.80569	0.37976
2.89	94.743	-2.9892e+05	3105.1	-0.46311	0.80569	0.37771
2.892	94.712	-2.9892e+05	3106.6	-0.46555	0.80598	0.38015
2.894	94.718	-2.9892e+05	3108.2	-0.46799	0.80627	0.38259
2.896	94.753	-2.9892e+05	3109.7	-0.47043	0.80657	0.38503
2.898	94.798	-2.9892e+05	3111.2	-0.47287	0.80686	0.38747
2.9	94.82	-2.9892e+05	3112.8	-0.47531	0.80715	0.38991
2.902	94.808	-2.9893e+05	3114.1	-0.4756	0.80754	0.39001
2.904	94.768	-2.9893e+05	3115.5	-0.4759	0.80793	0.39011
2.906	94.714	-2.9892e+05	3116.9	-0.47619	0.80832	0.3902
2.908	94.671	-2.9892e+05	3118.1	-0.47648	0.80871	0.3903
2.91	94.664	-2.9892e+05	3119.4	-0.47678	0.8091	0.3904
2.912	94.7	-2.9892e+05	3120.6	-0.47521	0.80881	0.3903
2.914	94.746	-2.9892e+05	3121.7	-0.47365	0.80852	0.3902
2.916	94.778	-2.9892e+05	3122.8	-0.47209	0.80823	0.39011
2.918	94.777	-2.9892e+05	3123.9	-0.47053	0.80793	0.39001
2.92	94.739	-2.9892e+05	3124.9	-0.46897	0.80764	0.38991
2.922	94.686	-2.9892e+05	3126.1	-0.47004	0.80754	0.38689
2.924	94.633	-2.9892e+05	3127.2	-0.47112	0.80744	0.38386
2.926	94.614	-2.9892e+05	3128.1	-0.47219	0.80735	0.38084
2.928	94.641	-2.9892e+05	3128.8	-0.47326	0.80725	0.37781
2.93	94.687	-2.9892e+05	3129.5	-0.47434	0.80715	0.37478
2.932	94.729	-2.9891e+05	3129.8	-0.4717	0.80754	0.37713
2.934	94.741	-2.9891e+05	3130	-0.46907	0.80793	0.37947
2.936	94.714	-2.9891e+05	3130.2	-0.46643	0.80832	0.38181
2.938	94.664	-2.9891e+05	3130.4	-0.4638	0.80871	0.38415
2.94	94.617	-2.9891e+05	3130.7	-0.46116	0.8091	0.3865
2.942	94.601	-2.9891e+05	3130.9	-0.46438	0.80871	0.38776
2.944	94.612	-2.9891e+05	3131.1	-0.4676	0.80832	0.38903
2.946	94.646	-2.9891e+05	3131.2	-0.47082	0.80793	0.3903
2.948	94.692	-2.9891e+05	3131.4	-0.47404	0.80754	0.39157
2.95	94.718	-2.9891e+05	3131.6	-0.47726	0.80715	0.39284
2.952	94.707	-2.9891e+05	3131.7	-0.4758	0.80754	0.39216
2.954	94.673	-2.9891e+05	3131.8	-0.47434	0.80793	0.39147
2.956	94.627	-2.9891e+05	3131.9	-0.47287	0.80832	0.39079
2.958	94.596	-2.9891e+05	3132	-0.47141	0.80871	0.39011
2.96	94.603	-2.9891e+05	3132.1	-0.46994	0.8091	0.38942
2.962	94.643	-2.9891e+05	3132.2	-0.46868	0.80803	0.3865
2.964	94.697	-2.9891e+05	3132.4	-0.46741	0.80696	0.38357
2.966	94.741	-2.9891e+05	3132.3	-0.46614	0.80588	0.38064
2.968	94.754	-2.9891e+05	3132	-0.46487	0.80481	0.37771
2.97	94.731	-2.9891e+05	3131.7	-0.4636	0.80374	0.37478
2.972	94.689	-2.9891e+05	3131.4	-0.46692	0.80442	0.37722
2.974	94.658	-2.9891e+05	3131.1	-0.47024	0.8051	0.37966
2.976	94.653	-2.9891e+05	3130.8	-0.47356	0.80579	0.3821
2.978	94.678	-2.989e+05	3130.6	-0.47687	0.80647	0.38454
2.98	94.732	-2.989e+05	3130.3	-0.48019	0.80715	0.38698
2.982	94.785	-2.989e+05	3129.9	-0.48068	0.80676	0.38689
2.984	94.811	-2.989e+05	3129.6	-0.48117	0.80637	0.38679
2.986	94.801	-2.989e+05	3129.2	-0.48166	0.80598	0.38669
2.988	94.763	-2.989e+05	3128.9	-0.48214	0.80559	0.38659
2.99	94.721	-2.989e+05	3128.5	-0.48263	0.8052	0.3865
2.992	94.698	-2.989e+05	3128.2	-0.4798	0.80588	0.38552
2.994	94.712	-2.989e+05	3127.8	-0.47697	0.80657	0.38454
2.996	94.763	-2.9889e+05	3127.6	-0.47414	0.80725	0.38357
2.998	94.817	-2.989e+05	3127.5	-0.47131	0.80793	0.38259
3	94.854	-2.989e+05	3127.3	-0.46848	0.80862	0.38162
3.002	94.85	-2.989e+05	3127	-0.4676	0.80705	0.38044
3.004	94.814	-2.989e+05	3126.7	-0.46672	0.80549	0.37927
3.006	94.763	-2.989e+05	3126.2	-0.46584	0.80393	0.3781
3.008	94.737	-2.989e+05	3125.5	-0.46497	0.80237	0.37693
3.01	94.745	-2.989e+05	3124.8	-0.46409	0.80081	0.37576
3.012	94.781	-2.989e+05	3124.2	-0.46897	0.80217	0.37781
3.014	94.836	-2.989e+05	3123.6	-0.47385	0.80354	0.37986
3.016	94.875	-2.9891e+05	3123	-0.47873	0.80491	0.38191
3.018	94.877	-2.9891e+05	3122.4	-0.48361	0.80627	0.38396
3.02	94.848	-2.9891e+05	3121.8	-0.48849	0.80764	0.38601
3.022	94.804	-2.989e+05	3121.2	-0.48556	0.80754	0.38513
3.024	94.762	-2.989e+05	3120.7	-0.48263	0.80744	0.38425
3.026	94.75	-2.989e+05	3120.2	-0.4797	0.80735	0.38337
3.028	94.775	-2.989e+05	3119.8	-0.47678	0.80725	0.38249
3.03	94.822	-2.989e+05	3119.4	-0.47385	0.80715	0.38162
3.032	94.869	-2.989e+05	3118.8	-0.4718	0.80598	0.38074
3.034	94.883	-2.989e+05	3118.1	-0.46975	0.80481	0.37986
3.036	94.866	-2.989e+05	3117.4	-0.4677	0.80364	0.37898
3.038	94.823	-2.989e+05	3116.6	-0.46565	0.80247	0.3781
3.04	94.776	-2.989e+05	3115.7	-0.4636	0.8013	0.37722
3.042	94.754	-2.989e+05	3115.1	-0.46643	0.80256	0.37791
3.044	94.773	-2.9891e+05	3114.4	-0.46926	0.80383	0.37859
3.046	94.817	-2.9891e+05	3113.7	-0.47209	0.8051	0.37927
3.048	94.863	-2.989e+05	3113.1	-0.47492	0.80637	0.37996
3.05	94.888	-2.989e+05	3112.5	-0.47775	0.80764	0.38064
3.052	94.878	-2.989e+05	3111.9	-0.47639	0.80705	0.37966
3.054	94.843	-2.9891e+05	3111.4	-0.47502	0.80647	0.37869
3.056	94.797	-2.9891e+05	3110.9	-0.47365	0.80588	0.37771
3.058	94.76	-2.9891e+05	3110.3	-0.47229	0.8053	0.37674
3.06	94.759	-2.9891e+05	3109.8	-0.47092	0.80471	0.37576
3.062	94.794	-2.9891e+05	3109.2	-0.46975	0.80432	0.37664
3.064	94.839	-2.9891e+05	3108.6	-0.46858	0.80393	0.37752
3.066	94.881	-2.9891e+05	3108.1	-0.46741	0.80354	0.3784
3.068	94.891	-2.9891e+05	3107.6	-0.46624	0.80315	0.37927
3.07	94.862	-2.9891e+05	3107.1	-0.46506	0.80276	0.38015
3.072	94.812	-2.9891e+05	3106.7	-0.47033	0.80354	0.38093
3.074	94.768	-2.9891e+05	3106.3	-0.4756	0.80432	0.38171
3.076	94.753	-2.9891e+05	3105.9	-0.48088	0.8051	0.38249
3.078	94.776	-2.9892e+05	3105.6	-0.48615	0.80588	0.38328
3.08	94.824	-2.9892e+05	3105.2	-0.49142	0.80666	0.38406
3.082	94.872	-2.9891e+05	3104.8	-0.48888	0.80696	0.38386
3.084	94.895	-2.9891e+05	3104.5	-0.48634	0.80725	0.38367
3.086	94.873	-2.9891e+05	3104.1	-0.4838	0.80754	0.38347
3.088	94.829	-2.9892e+05	3103.8	-0.48127	0.80784	0.38328
3.09	94.782	-2.9892e+05	3103.5	-0.47873	0.80813	0.38308
3.092	94.752	-2.9892e+05	3103.3	-0.47951	0.80715	0.38308
3.094	94.766	-2.9892e+05	3103.2	-0.48029	0.80618	0.38308
3.096	94.809	-2.9892e+05	3103.1	-0.48107	0.8052	0.38308
3.098	94.866	-2.9892e+05	3103.1	-0.48185	0.80422	0.38308
3.1	94.901	-2.9892e+05	3103.2	-0.48263	0.80325	0.38308
3.102	94.892	-2.9892e+05	3103	-0.48029	0.80461	0.38191
3.104	94.854	-2.9892e+05	3102.8	-0.47795	0.80598	0.38074
3.106	94.806	-2.9892e+05	3102.6	-0.4756	0.80735	0.37957
3.108	94.772	-2.9892e+05	3102.4	-0.47326	0.80871	0.3784
3.11	94.773	-2.9892e+05	3102.2	-0.47092	0.81008	0.37722
3.112	94.81	-2.9891e+05	3102	-0.47473	0.81028	0.38005
3.114	94.862	-2.9891e+05	3101.9	-0.47853	0.81047	0.38288
3.116	94.904	-2.9892e+05	3101.8	-0.48234	0.81067	0.38572
3.118	94.909	-2.9891e+05	3101.7	-0.48615	0.81086	0.38855
3.12	94.879	-2.9891e+05	3101.7	-0.48995	0.81106	0.39138
3.122	94.83	-2.9891e+05	3101.7	-0.48654	0.81057	0.39128
3.124	94.788	-2.9892e+05	3101.7	-0.48312	0.81008	0.39118
3.126	94.78	-2.9892e+05	3101.7	-0.4797	0.80959	0.39108
3.128	94.807	-2.9892e+05	3101.7	-0.47629	0.8091	0.39099
3.13	94.854	-2.9893e+05	3101.7	-0.47287	0.80862	0.39089
3.132	94.894	-2.9893e+05	3101.7	-0.47385	0.80862	0.3904
3.134	94.909	-2.9893e+05	3101.7	-0.47482	0.80862	0.38991
3.136	94.895	-2.9892e+05	3101.8	-0.4758	0.80862	0.38942
3.138	94.861	-2.9893e+05	3101.9	-0.47678	0.80862	0.38894
3.14	94.82	-2.9894e+05	3101.9	-0.47775	0.80862	0.38845
3.142	94.797	-2.9893e+05	3102	-0.47736	0.80705	0.38972
3.144	94.809	-2.9892e+05	3102.1	-0.47697	0.80549	0.39099
3.146	94.848	-2.9892e+05	3102.1	-0.47658	0.80393	0.39225
3.148	94.896	-2.9893e+05	3102.2	-0.47619	0.80237	0.39352
3.15	94.93	-2.9893e+05	3102.3	-0.4758	0.80081	0.39479
3.152	94.923	-2.9893e+05	3102.3	-0.4757	0.80227	0.39382
3.154	94.886	-2.9893e+05	3102.3	-0.4756	0.80374	0.39284
3.156	94.839	-2.9893e+05	3102.3	-0.47551	0.8052	0.39186
3.158	94.8	-2.9893e+05	3102.3	-0.47541	0.80666	0.39089
3.16	94.802	-2.9893e+05	3102.4	-0.47531	0.80813	0.38991
3.162	94.84	-2.9894e+05	3102.4	-0.4758	0.80774	0.38903
3.164	94.891	-2.9894e+05	3102.4	-0.47629	0.80735	0.38816
3.166	94.934	-2.9893e+05	3102.5	-0.47678	0.80696	0.38728
3.168	94.942	-2.9893e+05	3102.5	-0.47726	0.80657	0.3864
3.17	94.913	-2.9893e+05	3102.5	-0.47775	0.80618	0.38552
3.172	94.866	-2.9893e+05	3102.5	-0.47746	0.80598	0.38659
3.174	94.822	-2.9893e+05	3102.4	-0.47717	0.80579	0.38767
3.176	94.803	-2.9894e+05	3102.4	-0.47687	0.80559	0.38874
3.178	94.828	-2.9894e+05	3102.4	-0.47658	0.8054	0.38981
3.18	94.876	-2.9893e+05	3102.4	-0.47629	0.8052	0.39089
3.182	94.922	-2.9893e+05	3102.2	-0.47629	0.80579	0.3906
3.184	94.946	-2.9893e+05	3102.1	-0.47629	0.80637	0.3903
3.186	94.927	-2.9893e+05	3102	-0.47629	0.80696	0.39001
3.188	94.878	-2.9893e+05	3101.9	-0.47629	0.80754	0.38972
3.19	94.826	-2.9893e+05	3101.9	-0.47629	0.80813	0.38942
3.192	94.802	-2.9893e+05	3101.8	-0.4759	0.80725	0.38991
3.194	94.817	-2.9894e+05	3101.7	-0.47551	0.80637	0.3904
3.196	94.863	-2.9895e+05	3101.5	-0.47512	0.80549	0.39089
3.198	94.918	-2.9895e+05	3101.4	-0.47473	0.80461	0.39138
3.2	94.949	-2.9894e+05	3101.2	-0.47434	0.80374	0.39186
3.202	94.943	-2.9894e+05	3101.2	-0.47541	0.80276	0.39069
3.204	94.909	-2.9894e+05	3101.1	-0.47648	0.80178	0.38952
3.206	94.862	-2.9894e+05	3101	-0.47756	0.80081	0.38835
3.208	94.829	-2.9894e+05	3100.8	-0.47863	0.79983	0.38718
3.21	94.833	-2.9894e+05	3100.6	-0.4797	0.79886	0.38601
3.212	94.871	-2.9894e+05	3100.4	-0.47521	0.79973	0.38572
3.214	94.923	-2.9894e+05	3100.2	-0.47072	0.80061	0.38542
3.216	94.963	-2.9894e+05	3100	-0.46624	0.80149	0.38513
3.218	94.969	-2.9894e+05	3099.6	-0.46175	0.80237	0.38484
3.22	94.938	-2.9894e+05	3099.3	-0.45726	0.80325	0.38454
3.222	94.89	-2.9894e+05	3099.1	-0.4636	0.80354	0.38611
3.224	94.851	-2.9895e+05	3098.8	-0.46994	0.80383	0.38767
3.226	94.84	-2.9896e+05	3098.6	-0.47629	0.80413	0.38923
3.228	94.862	-2.9896e+05	3098.3	-0.48263	0.80442	0.39079
3.23	94.907	-2.9896e+05	3098.1	-0.48898	0.80471	0.39235
3.232	94.954	-2.9895e+05	3097.8	-0.48634	0.80461	0.39147
3.234	94.973	-2.9895e+05	3097.6	-0.48371	0.80452	0.3906
3.236	94.954	-2.9894e+05	3097.4	-0.48107	0.80442	0.38972
3.238	94.91	-2.9895e+05	3097.1	-0.47844	0.80432	0.38884
3.24	94.859	-2.9895e+05	3096.8	-0.4758	0.80422	0.38796
3.242	94.831	-2.9895e+05	3096.6	-0.47658	0.80296	0.38806
3.244	94.839	-2.9895e+05	3096.4	-0.47736	0.80169	0.38816
3.246	94.878	-2.9895e+05	3096.2	-0.47814	0.80042	0.38825
3.248	94.922	-2.9896e+05	3096	-0.47892	0.79915	0.38835
3.25	94.951	-2.9895e+05	3095.7	-0.4797	0.79788	0.38845
3.252	94.939	-2.9895e+05	3095.5	-0.48136	0.79837	0.38835
3.254	94.892	-2.9895e+05	3095.3	-0.48302	0.79886	0.38825
3.256	94.849	-2.9895e+05	3095.1	-0.48468	0.79934	0.38816
3.258	94.811	-2.9896e+05	3094.9	-0.48634	0.79983	0.38806
3.26	94.803	-2.9897e+05	3094.6	-0.488	0.80032	0.38796
3.262	94.843	-2.9896e+05	3094.4	-0.48693	0.80052	0.38825
3.264	94.893	-2.9896e+05	3094.1	-0.48585	0.80071	0.38855
3.266	94.929	-2.9895e+05	3093.9	-0.48478	0.80091	0.38884
3.268	94.934	-2.9895e+05	3093.7	-0.48371	0.8011	0.38913
3.27	94.907	-2.9895e+05	3093.5	-0.48263	0.8013	0.38942
3.272	94.86	-2.9895e+05	3093.6	-0.48058	0.80198	0.38611
3.274	94.811	-2.9896e+05	3093.6	-0.47853	0.80266	0.38279
3.276	94.796	-2.9897e+05	3093.5	-0.47648	0.80335	0.37947
3.278	94.814	-2.9896e+05	3093.4	-0.47443	0.80403	0.37615
3.28	94.849	-2.9896e+05	3093.3	-0.47238	0.80471	0.37283
3.282	94.877	-2.9896e+05	3092.8	-0.4718	0.80393	0.37556
3.284	94.885	-2.9896e+05	3092.4	-0.47121	0.80315	0.3783
3.286	94.862	-2.9896e+05	3092	-0.47063	0.80237	0.38103
3.288	94.817	-2.9896e+05	3091.7	-0.47004	0.80159	0.38376
3.29	94.773	-2.9896e+05	3091.5	-0.46946	0.80081	0.3865
3.292	94.759	-2.9896e+05	3091.1	-0.47424	0.801	0.3865
3.294	94.782	-2.9897e+05	3090.8	-0.47902	0.8012	0.3865
3.296	94.831	-2.9898e+05	3090.5	-0.4838	0.80139	0.3865
3.298	94.885	-2.9897e+05	3090.2	-0.48859	0.80159	0.3865
3.3	94.917	-2.9897e+05	3090	-0.49337	0.80178	0.3865
3.302	94.911	-2.9896e+05	3089.7	-0.48878	0.80325	0.38562
3.304	94.881	-2.9896e+05	3089.4	-0.48419	0.80471	0.38474
3.306	94.845	-2.9896e+05	3089.1	-0.47961	0.80618	0.38386
3.308	94.82	-2.9897e+05	3088.8	-0.47502	0.80764	0.38298
3.31	94.823	-2.9898e+05	3088.5	-0.47043	0.8091	0.3821
3.312	94.863	-2.9899e+05	3088.2	-0.4717	0.8091	0.3823
3.314	94.926	-2.9898e+05	3087.9	-0.47297	0.8091	0.38249
3.316	94.979	-2.9898e+05	3087.7	-0.47424	0.8091	0.38269
3.318	94.99	-2.9898e+05	3087.4	-0.47551	0.8091	0.38288
3.32	94.963	-2.9898e+05	3087.1	-0.47678	0.8091	0.38308
3.322	94.919	-2.9897e+05	3086.9	-0.47726	0.80901	0.38318
3.324	94.877	-2.9897e+05	3086.7	-0.47775	0.80891	0.38328
3.326	94.863	-2.9898e+05	3086.5	-0.47824	0.80881	0.38337
3.328	94.888	-2.9898e+05	3086.3	-0.47873	0.80871	0.38347
3.33	94.938	-2.9897e+05	3086.1	-0.47922	0.80862	0.38357
3.332	94.988	-2.9897e+05	3085.9	-0.47912	0.8091	0.38396
3.334	95.006	-2.9897e+05	3085.7	-0.47902	0.80959	0.38435
3.336	94.988	-2.9898e+05	3085.5	-0.47892	0.81008	0.38474
3.338	94.947	-2.9898e+05	3085.4	-0.47883	0.81057	0.38513
3.34	94.896	-2.9898e+05	3085.3	-0.47873	0.81106	0.38552
3.342	94.862	-2.9898e+05	3085.4	-0.47726	0.81086	0.38357
3.344	94.873	-2.9898e+05	3085.5	-0.4758	0.81067	0.38162
3.346	94.919	-2.9898e+05	3085.5	-0.47434	0.81047	0.37966
3.348	94.973	-2.9898e+05	3085.4	-0.47287	0.81028	0.37771
3.35	95.015	-2.9898e+05	3085.2	-0.47141	0.81008	0.37576
3.352	95.008	-2.9898e+05	3084.8	-0.47219	0.80959	0.3783
3.354	94.967	-2.9898e+05	3084.4	-0.47297	0.8091	0.38084
3.356	94.916	-2.9897e+05	3084.1	-0.47375	0.80862	0.38337
3.358	94.876	-2.9898e+05	3083.9	-0.47453	0.80813	0.38591
3.36	94.88	-2.9898e+05	3083.6	-0.47531	0.80764	0.38845
3.362	94.911	-2.9898e+05	3083.3	-0.47717	0.80793	0.38894
3.364	94.966	-2.9898e+05	3083	-0.47902	0.80823	0.38942
3.366	95.009	-2.9898e+05	3082.7	-0.48088	0.80852	0.38991
3.368	95.019	-2.9898e+05	3082.5	-0.48273	0.80881	0.3904
3.37	94.993	-2.9899e+05	3082.2	-0.48458	0.8091	0.39089
3.372	94.944	-2.9899e+05	3081.9	-0.48273	0.8092	0.39069
3.374	94.896	-2.9899e+05	3081.6	-0.48088	0.8093	0.3905
3.376	94.879	-2.9898e+05	3081.3	-0.47902	0.8094	0.3903
3.378	94.898	-2.9898e+05	3081	-0.47717	0.80949	0.39011
3.38	94.936	-2.9898e+05	3080.7	-0.47531	0.80959	0.38991
3.382	94.979	-2.9898e+05	3080.4	-0.476	0.80949	0.38894
3.384	95	-2.9898e+05	3080.1	-0.47668	0.8094	0.38796
3.386	94.984	-2.9899e+05	3079.9	-0.47736	0.8093	0.38698
3.388	94.949	-2.9899e+05	3079.7	-0.47804	0.8092	0.38601
3.39	94.914	-2.9899e+05	3079.5	-0.47873	0.8091	0.38503
3.392	94.896	-2.9899e+05	3079.3	-0.47697	0.80832	0.3864
3.394	94.91	-2.9899e+05	3079.1	-0.47521	0.80754	0.38776
3.396	94.953	-2.9899e+05	3078.9	-0.47346	0.80676	0.38913
3.398	94.999	-2.9899e+05	3078.6	-0.4717	0.80598	0.3905
3.4	95.027	-2.9899e+05	3078.4	-0.46994	0.8052	0.39186
3.402	95.017	-2.9899e+05	3078.2	-0.47072	0.80549	0.39147
3.404	94.972	-2.99e+05	3078.1	-0.47151	0.80579	0.39108
3.406	94.908	-2.99e+05	3077.9	-0.47229	0.80608	0.39069
3.408	94.845	-2.99e+05	3077.8	-0.47307	0.80637	0.3903
3.41	94.801	-2.99e+05	3077.7	-0.47385	0.80666	0.38991
3.412	94.781	-2.99e+05	3077.6	-0.47346	0.80627	0.3906
3.414	94.76	-2.99e+05	3077.5	-0.47307	0.80588	0.39128
3.416	94.707	-2.99e+05	3077.4	-0.47268	0.80549	0.39196
3.418	94.595	-2.99e+05	3077.2	-0.47229	0.8051	0.39264
3.42	94.43	-2.99e+05	3077.1	-0.4719	0.80471	0.39333
3.422	94.254	-2.9901e+05	3077	-0.47346	0.80452	0.39235
3.424	94.125	-2.9901e+05	3076.8	-0.47502	0.80432	0.39138
3.426	94.087	-2.9901e+05	3076.7	-0.47658	0.80413	0.3904
3.428	94.138	-2.9901e+05	3076.5	-0.47814	0.80393	0.38942
3.43	94.277	-2.9901e+05	3076.3	-0.4797	0.80374	0.38845
3.432	94.495	-2.99e+05	3076.1	-0.47892	0.80422	0.38855
3.434	94.702	-2.9901e+05	3075.9	-0.47814	0.80471	0.38864
3.436	94.832	-2.9901e+05	3075.7	-0.47736	0.8052	0.38874
3.438	94.876	-2.9901e+05	3075.5	-0.47658	0.80569	0.38884
3.44	94.869	-2.99e+05	3075.4	-0.4758	0.80618	0.38894
3.442	94.856	-2.99e+05	3075.2	-0.47521	0.80608	0.38913
3.444	94.881	-2.99e+05	3075	-0.47463	0.80598	0.38933
3.446	94.949	-2.99e+05	3074.8	-0.47404	0.80588	0.38952
3.448	95.019	-2.99e+05	3074.5	-0.47346	0.80579	0.38972
3.45	95.059	-2.9901e+05	3074.3	-0.47287	0.80569	0.38991
3.452	95.056	-2.9901e+05	3074.1	-0.47375	0.80491	0.3902
3.454	95.017	-2.9901e+05	3073.9	-0.47463	0.80413	0.3905
3.456	94.969	-2.9902e+05	3073.7	-0.47551	0.80335	0.39079
3.458	94.938	-2.9902e+05	3073.5	-0.47639	0.80256	0.39108
3.46	94.941	-2.9901e+05	3073.3	-0.47726	0.80178	0.39138
3.462	94.982	-2.9901e+05	3073.1	-0.47629	0.80286	0.38972
3.464	95.033	-2.9901e+05	3072.9	-0.47531	0.80393	0.38806
3.466	95.067	-2.9902e+05	3072.7	-0.47434	0.805	0.3864
3.468	95.07	-2.9902e+05	3072.6	-0.47336	0.80608	0.38474
3.47	95.039	-2.9901e+05	3072.4	-0.47238	0.80715	0.38308
3.472	94.986	-2.9901e+05	3072.2	-0.4717	0.80657	0.38308
3.474	94.938	-2.9901e+05	3072	-0.47102	0.80598	0.38308
3.476	94.921	-2.9901e+05	3071.8	-0.47033	0.8054	0.38308
3.478	94.939	-2.9902e+05	3071.6	-0.46965	0.80481	0.38308
3.48	94.984	-2.9902e+05	3071.4	-0.46897	0.80422	0.38308
3.482	95.029	-2.9902e+05	3071.2	-0.47121	0.80286	0.38435
3.484	95.048	-2.9901e+05	3071	-0.47346	0.80149	0.38562
3.486	95.032	-2.9901e+05	3070.8	-0.4757	0.80012	0.38689
3.488	94.989	-2.9901e+05	3070.6	-0.47795	0.79876	0.38816
3.49	94.939	-2.9901e+05	3070.4	-0.48019	0.79739	0.38942
3.492	94.912	-2.9901e+05	3070.2	-0.48136	0.79778	0.38913
3.494	94.919	-2.9901e+05	3070	-0.48253	0.79817	0.38884
3.496	94.955	-2.9902e+05	3069.7	-0.48371	0.79856	0.38855
3.498	95	-2.9902e+05	3069.4	-0.48488	0.79895	0.38825
3.5	95.032	-2.9903e+05	3069.1	-0.48605	0.79934	0.38796
3.502	95.029	-2.9903e+05	3068.8	-0.48546	0.79886	0.38796
3.504	94.994	-2.9903e+05	3068.5	-0.48488	0.79837	0.38796
3.506	94.945	-2.9903e+05	3068.2	-0.48429	0.79788	0.38796
3.508	94.903	-2.9902e+05	3067.9	-0.48371	0.79739	0.38796
3.51	94.9	-2.9902e+05	3067.6	-0.48312	0.7969	0.38796
3.512	94.935	-2.9902e+05	3067.3	-0.48273	0.797	0.38786
3.514	94.985	-2.9902e+05	3067	-0.48234	0.7971	0.38776
3.516	95.031	-2.9902e+05	3066.8	-0.48195	0.7972	0.38767
3.518	95.043	-2.9902e+05	3066.6	-0.48156	0.79729	0.38757
3.52	95.013	-2.9903e+05	3066.4	-0.48117	0.79739	0.38747
3.522	94.962	-2.9903e+05	3066.2	-0.48058	0.79739	0.38757
3.524	94.919	-2.9903e+05	3066	-0.48	0.79739	0.38767
3.526	94.901	-2.9903e+05	3065.8	-0.47941	0.79739	0.38776
3.528	94.919	-2.9904e+05	3065.6	-0.47883	0.79739	0.38786
3.53	94.967	-2.9903e+05	3065.4	-0.47824	0.79739	0.38796
3.532	95.009	-2.9903e+05	3065.1	-0.47931	0.79798	0.38806
3.534	95.018	-2.9903e+05	3064.9	-0.48039	0.79856	0.38816
3.536	94.996	-2.9903e+05	3064.7	-0.48146	0.79915	0.38825
3.538	94.953	-2.9903e+05	3064.4	-0.48253	0.79973	0.38835
3.54	94.908	-2.9903e+05	3064.2	-0.48361	0.80032	0.38845
3.542	94.884	-2.9903e+05	3064	-0.48253	0.79915	0.38796
3.544	94.89	-2.9903e+05	3063.8	-0.48146	0.79798	0.38747
3.546	94.929	-2.9903e+05	3063.5	-0.48039	0.79681	0.38698
3.548	94.98	-2.9903e+05	3063.4	-0.47931	0.79564	0.3865
3.55	95.011	-2.9903e+05	3063.2	-0.47824	0.79446	0.38601
3.552	95	-2.9903e+05	3063	-0.47912	0.79534	0.3862
3.554	94.961	-2.9903e+05	3062.8	-0.48	0.79622	0.3864
3.556	94.918	-2.9903e+05	3062.7	-0.48088	0.7971	0.38659
3.558	94.885	-2.9904e+05	3062.6	-0.48175	0.79798	0.38679
3.56	94.877	-2.9905e+05	3062.6	-0.48263	0.79886	0.38698
3.562	94.903	-2.9904e+05	3062.9	-0.48263	0.79895	0.38679
3.564	94.949	-2.9903e+05	3063.1	-0.48263	0.79905	0.38659
3.566	94.988	-2.9903e+05	3063.6	-0.48263	0.79915	0.3864
3.568	94.998	-2.9903e+05	3064.3	-0.48263	0.79925	0.3862
3.57	94.972	-2.9904e+05	3065	-0.48263	0.79934	0.38601
3.572	94.919	-2.9904e+05	3066.2	-0.48234	0.79905	0.38601
3.574	94.867	-2.9904e+05	3067.5	-0.48205	0.79876	0.38601
3.576	94.849	-2.9905e+05	3069	-0.48175	0.79847	0.38601
3.578	94.865	-2.9905e+05	3070.8	-0.48146	0.79817	0.38601
3.58	94.904	-2.9904e+05	3072.5	-0.48117	0.79788	0.38601
3.582	94.952	-2.9905e+05	3074.5	-0.47795	0.79798	0.38425
3.584	94.974	-2.9905e+05	3076.4	-0.47473	0.79808	0.38249
3.586	94.955	-2.9905e+05	3078.2	-0.47151	0.79817	0.38074
3.588	94.907	-2.9905e+05	3079.9	-0.46828	0.79827	0.37898
3.59	94.851	-2.9905e+05	3081.6	-0.46506	0.79837	0.37722
3.592	94.814	-2.9904e+05	3083.5	-0.4676	0.79964	0.37947
3.594	94.815	-2.9905e+05	3085.3	-0.47014	0.80091	0.38171
3.596	94.848	-2.9905e+05	3087.2	-0.47268	0.80217	0.38396
3.598	94.893	-2.9904e+05	3089.1	-0.47521	0.80344	0.3862
3.6	94.926	-2.9904e+05	3091	-0.47775	0.80471	0.38845
3.602	94.918	-2.9904e+05	3092.8	-0.47785	0.80471	0.38874
3.604	94.875	-2.9905e+05	3094.7	-0.47795	0.80471	0.38903
3.606	94.812	-2.9905e+05	3096.4	-0.47804	0.80471	0.38933
3.608	94.766	-2.9905e+05	3098.1	-0.47814	0.80471	0.38962
3.61	94.757	-2.9905e+05	3099.7	-0.47824	0.80471	0.38991
3.612	94.786	-2.9905e+05	3101.2	-0.47619	0.8053	0.38835
3.614	94.835	-2.9905e+05	3102.7	-0.47414	0.80588	0.38679
3.616	94.874	-2.9904e+05	3104.2	-0.47209	0.80647	0.38523
3.618	94.88	-2.9904e+05	3105.7	-0.47004	0.80705	0.38367
3.62	94.844	-2.9904e+05	3107.2	-0.46799	0.80764	0.3821
3.622	94.786	-2.9905e+05	3108.4	-0.46897	0.80793	0.38298
3.624	94.737	-2.9905e+05	3109.6	-0.46994	0.80823	0.38386
3.626	94.714	-2.9905e+05	3110.7	-0.47092	0.80852	0.38474
3.628	94.728	-2.9905e+05	3111.6	-0.4719	0.80881	0.38562
3.63	94.771	-2.9905e+05	3112.5	-0.47287	0.8091	0.3865
3.632	94.817	-2.9905e+05	3113.3	-0.47268	0.8091	0.38591
3.634	94.835	-2.9905e+05	3114	-0.47248	0.8091	0.38532
3.636	94.818	-2.9904e+05	3114.8	-0.47229	0.8091	0.38474
3.638	94.771	-2.9904e+05	3115.6	-0.47209	0.8091	0.38415
3.64	94.719	-2.9904e+05	3116.4	-0.4719	0.8091	0.38357
3.642	94.691	-2.9904e+05	3117	-0.46936	0.80842	0.38279
3.644	94.698	-2.9904e+05	3117.5	-0.46682	0.80774	0.38201
3.646	94.734	-2.9904e+05	3117.9	-0.46428	0.80705	0.38123
3.648	94.78	-2.9904e+05	3118.1	-0.46175	0.80637	0.38044
3.65	94.807	-2.9903e+05	3118.3	-0.45921	0.80569	0.37966
3.652	94.802	-2.9903e+05	3118.5	-0.46233	0.80569	0.38269
3.654	94.768	-2.9903e+05	3118.8	-0.46545	0.80569	0.38572
3.656	94.719	-2.9903e+05	3119.1	-0.46858	0.80569	0.38874
3.658	94.677	-2.9903e+05	3119.2	-0.4717	0.80569	0.39177
3.66	94.668	-2.9904e+05	3119.4	-0.47482	0.80569	0.39479
3.662	94.696	-2.9904e+05	3119.6	-0.47473	0.80569	0.39401
3.664	94.743	-2.9904e+05	3119.8	-0.47463	0.80569	0.39323
3.666	94.78	-2.9904e+05	3120	-0.47453	0.80569	0.39245
3.668	94.788	-2.9904e+05	3120.1	-0.47443	0.80569	0.39167
3.67	94.763	-2.9904e+05	3120.2	-0.47434	0.80569	0.39089
3.672	94.718	-2.9903e+05	3120.3	-0.47346	0.80686	0.39147
3.674	94.671	-2.9903e+05	3120.4	-0.47258	0.80803	0.39206
3.676	94.656	-2.9903e+05	3120.4	-0.4717	0.8092	0.39264
3.678	94.68	-2.9904e+05	3120.5	-0.47082	0.81037	0.39323
3.68	94.73	-2.9905e+05	3120.5	-0.46994	0.81154	0.39382
3.682	94.784	-2.9905e+05	3120.4	-0.46955	0.81125	0.39372
3.684	94.811	-2.9904e+05	3120.4	-0.46916	0.81096	0.39362
3.686	94.805	-2.9904e+05	3120.3	-0.46877	0.81067	0.39352
3.688	94.767	-2.9904e+05	3120.2	-0.46838	0.81037	0.39343
3.69	94.717	-2.9904e+05	3120.1	-0.46799	0.81008	0.39333
3.692	94.688	-2.9905e+05	3119.9	-0.46828	0.81067	0.39391
3.694	94.698	-2.9904e+05	3119.7	-0.46858	0.81125	0.3945
3.696	94.744	-2.9903e+05	3119.5	-0.46887	0.81184	0.39508
3.698	94.802	-2.9904e+05	3119.2	-0.46916	0.81242	0.39567
3.7	94.839	-2.9904e+05	3118.9	-0.46946	0.81301	0.39626
3.702	94.844	-2.9904e+05	3118.6	-0.47141	0.81291	0.39704
3.704	94.816	-2.9903e+05	3118.3	-0.47336	0.81281	0.39782
3.706	94.769	-2.9903e+05	3118	-0.47531	0.81272	0.3986
3.708	94.734	-2.9903e+05	3117.7	-0.47726	0.81262	0.39938
3.71	94.739	-2.9903e+05	3117.4	-0.47922	0.81252	0.40016
3.712	94.776	-2.9903e+05	3117.1	-0.47775	0.81311	0.39957
3.714	94.83	-2.9903e+05	3116.8	-0.47629	0.81369	0.39899
3.716	94.878	-2.9903e+05	3116.5	-0.47482	0.81428	0.3984
3.718	94.889	-2.9904e+05	3116.1	-0.47336	0.81486	0.39782
3.72	94.864	-2.9904e+05	3115.8	-0.4719	0.81545	0.39723
3.722	94.818	-2.9904e+05	3115.4	-0.47248	0.81476	0.39596
3.724	94.777	-2.9905e+05	3115	-0.47307	0.81408	0.39469
3.726	94.763	-2.9904e+05	3114.7	-0.47365	0.8134	0.39343
3.728	94.787	-2.9904e+05	3114.3	-0.47424	0.81272	0.39216
3.73	94.838	-2.9904e+05	3113.9	-0.47482	0.81203	0.39089
3.732	94.888	-2.9905e+05	3113.4	-0.47414	0.81154	0.39079
3.734	94.91	-2.9904e+05	3113	-0.47346	0.81106	0.39069
3.736	94.896	-2.9904e+05	3112.5	-0.47277	0.81057	0.3906
3.738	94.857	-2.9905e+05	3112.1	-0.47209	0.81008	0.3905
3.74	94.81	-2.9906e+05	3111.6	-0.47141	0.80959	0.3904
3.742	94.781	-2.9905e+05	3111.1	-0.47287	0.80832	0.38981
3.744	94.787	-2.9905e+05	3110.6	-0.47434	0.80705	0.38923
3.746	94.827	-2.9905e+05	3110.1	-0.4758	0.80579	0.38864
3.748	94.877	-2.9905e+05	3109.5	-0.47726	0.80452	0.38806
3.75	94.912	-2.9905e+05	3109	-0.47873	0.80325	0.38747
3.752	94.91	-2.9905e+05	3108.3	-0.47892	0.80227	0.38806
3.754	94.875	-2.9905e+05	3107.7	-0.47912	0.8013	0.38864
3.756	94.826	-2.9905e+05	3107.1	-0.47931	0.80032	0.38923
3.758	94.788	-2.9904e+05	3106.5	-0.47951	0.79934	0.38981
3.76	94.787	-2.9904e+05	3105.9	-0.4797	0.79837	0.3904
3.762	94.818	-2.9904e+05	3105.3	-0.47814	0.79954	0.39001
3.764	94.864	-2.9904e+05	3104.6	-0.47658	0.80071	0.38962
3.766	94.909	-2.9904e+05	3104	-0.47502	0.80188	0.38923
3.768	94.925	-2.9905e+05	3103.4	-0.47346	0.80305	0.38884
3.77	94.903	-2.9904e+05	3102.8	-0.4719	0.80422	0.38845
3.772	94.854	-2.9904e+05	3102.2	-0.47307	0.80217	0.38708
3.774	94.804	-2.9904e+05	3101.6	-0.47424	0.80012	0.38572
3.776	94.787	-2.9904e+05	3101	-0.47541	0.79808	0.38435
3.778	94.807	-2.9904e+05	3100.4	-0.47658	0.79603	0.38298
3.78	94.855	-2.9904e+05	3099.8	-0.47775	0.79398	0.38162
3.782	94.909	-2.9904e+05	3099.2	-0.47746	0.79427	0.38181
3.784	94.933	-2.9904e+05	3098.7	-0.47717	0.79456	0.38201
3.786	94.916	-2.9904e+05	3098.1	-0.47687	0.79485	0.3822
3.788	94.869	-2.9904e+05	3097.6	-0.47658	0.79515	0.3824
3.79	94.816	-2.9905e+05	3097.1	-0.47629	0.79544	0.38259
3.792	94.785	-2.9905e+05	3096.5	-0.47609	0.7972	0.38269
3.794	94.793	-2.9905e+05	3096	-0.4759	0.79895	0.38279
3.796	94.829	-2.9906e+05	3095.5	-0.4757	0.80071	0.38288
3.798	94.879	-2.9905e+05	3095	-0.47551	0.80247	0.38298
3.8	94.914	-2.9904e+05	3094.5	-0.47531	0.80422	0.38308
3.802	94.914	-2.9905e+05	3094.1	-0.47453	0.80393	0.3824
3.804	94.881	-2.9905e+05	3093.7	-0.47375	0.80364	0.38171
3.806	94.831	-2.9905e+05	3093.3	-0.47297	0.80335	0.38103
3.808	94.794	-2.9905e+05	3092.9	-0.47219	0.80305	0.38035
3.81	94.79	-2.9906e+05	3092.5	-0.47141	0.80276	0.37966
3.812	94.815	-2.9906e+05	3092.2	-0.4716	0.80247	0.38084
3.814	94.861	-2.9906e+05	3091.8	-0.4718	0.80217	0.38201
3.816	94.904	-2.9906e+05	3091.5	-0.47199	0.80188	0.38318
3.818	94.916	-2.9906e+05	3091.3	-0.47219	0.80159	0.38435
3.82	94.892	-2.9907e+05	3091	-0.47238	0.8013	0.38552
3.822	94.846	-2.9906e+05	3090.8	-0.4718	0.80188	0.38415
3.824	94.799	-2.9906e+05	3090.5	-0.47121	0.80247	0.38279
3.826	94.778	-2.9906e+05	3090.3	-0.47063	0.80305	0.38142
3.828	94.796	-2.9907e+05	3090.2	-0.47004	0.80364	0.38005
3.83	94.845	-2.9906e+05	3090	-0.46946	0.80422	0.37869
3.832	94.895	-2.9906e+05	3089.9	-0.46907	0.80344	0.37927
3.834	94.917	-2.9907e+05	3089.7	-0.46868	0.80266	0.37986
3.836	94.901	-2.9908e+05	3089.6	-0.46828	0.80188	0.38044
3.838	94.861	-2.9907e+05	3089.5	-0.46789	0.8011	0.38103
3.84	94.813	-2.9907e+05	3089.4	-0.4675	0.80032	0.38162
3.842	94.781	-2.9907e+05	3089.3	-0.47033	0.79934	0.38259
3.844	94.787	-2.9908e+05	3089.2	-0.47316	0.79837	0.38357
3.846	94.825	-2.9909e+05	3089.1	-0.476	0.79739	0.38454
3.848	94.871	-2.991e+05	3089.1	-0.47883	0.79642	0.38552
3.85	94.911	-2.991e+05	3089	-0.48166	0.79544	0.3865
3.852	94.912	-2.991e+05	3089	-0.48185	0.79622	0.38718
3.854	94.879	-2.991e+05	3088.9	-0.48205	0.797	0.38786
3.856	94.829	-2.9909e+05	3088.9	-0.48224	0.79778	0.38855
3.858	94.794	-2.9909e+05	3088.8	-0.48244	0.79856	0.38923
3.86	94.791	-2.991e+05	3088.7	-0.48263	0.79934	0.38991
3.862	94.823	-2.991e+05	3088.7	-0.48205	0.79905	0.38991
3.864	94.874	-2.991e+05	3088.6	-0.48146	0.79876	0.38991
3.866	94.919	-2.991e+05	3088.6	-0.48088	0.79847	0.38991
3.868	94.927	-2.991e+05	3088.6	-0.48029	0.79817	0.38991
3.87	94.899	-2.9911e+05	3088.6	-0.4797	0.79788	0.38991
3.872	94.85	-2.9911e+05	3088.7	-0.47902	0.79954	0.38718
3.874	94.808	-2.9911e+05	3088.9	-0.47834	0.8012	0.38445
3.876	94.792	-2.991e+05	3089	-0.47765	0.80286	0.38171
3.878	94.804	-2.991e+05	3089.2	-0.47697	0.80452	0.37898
3.88	94.849	-2.9909e+05	3089.3	-0.47629	0.80618	0.37625
3.882	94.898	-2.991e+05	3089	-0.47492	0.80598	0.37742
3.884	94.913	-2.991e+05	3088.7	-0.47356	0.80579	0.37859
3.886	94.889	-2.991e+05	3088.4	-0.47219	0.80559	0.37976
3.888	94.855	-2.991e+05	3088.1	-0.47082	0.8054	0.38093
3.89	94.821	-2.991e+05	3087.9	-0.46946	0.8052	0.3821
3.892	94.8	-2.991e+05	3087.6	-0.47346	0.80471	0.38562
3.894	94.807	-2.991e+05	3087.3	-0.47746	0.80422	0.38913
3.896	94.845	-2.9909e+05	3087	-0.48146	0.80374	0.39264
3.898	94.896	-2.9909e+05	3086.7	-0.48546	0.80325	0.39616
3.9	94.931	-2.9909e+05	3086.4	-0.48946	0.80276	0.39967
3.902	94.929	-2.991e+05	3086.2	-0.4878	0.8011	0.39957
3.904	94.896	-2.991e+05	3085.9	-0.48615	0.79944	0.39948
3.906	94.85	-2.991e+05	3085.6	-0.48449	0.79778	0.39938
3.908	94.814	-2.9911e+05	3085.3	-0.48283	0.79612	0.39928
3.91	94.806	-2.9911e+05	3085	-0.48117	0.79446	0.39918
3.912	94.831	-2.9911e+05	3084.7	-0.48166	0.79485	0.39948
3.914	94.878	-2.9911e+05	3084.5	-0.48214	0.79524	0.39977
3.916	94.922	-2.9911e+05	3084.3	-0.48263	0.79564	0.40006
3.918	94.935	-2.9911e+05	3084.2	-0.48312	0.79603	0.40036
3.92	94.91	-2.9911e+05	3084.1	-0.48361	0.79642	0.40065
3.922	94.861	-2.9911e+05	3083.8	-0.48195	0.79632	0.39938
3.924	94.815	-2.9911e+05	3083.6	-0.48029	0.79622	0.39811
3.926	94.798	-2.9911e+05	3083.3	-0.47863	0.79612	0.39684
3.928	94.818	-2.991e+05	3083	-0.47697	0.79603	0.39557
3.93	94.862	-2.991e+05	3082.6	-0.47531	0.79593	0.3943
3.932	94.907	-2.9911e+05	3082.3	-0.47863	0.79603	0.39616
3.934	94.93	-2.9911e+05	3081.9	-0.48195	0.79612	0.39801
3.936	94.919	-2.9912e+05	3081.6	-0.48527	0.79622	0.39987
3.938	94.876	-2.9912e+05	3081.2	-0.48859	0.79632	0.40172
3.94	94.827	-2.9912e+05	3080.9	-0.4919	0.79642	0.40358
3.942	94.792	-2.9912e+05	3080.7	-0.49132	0.79681	0.40319
3.944	94.798	-2.9912e+05	3080.4	-0.49073	0.7972	0.4028
3.946	94.843	-2.9912e+05	3080.1	-0.49015	0.79759	0.4024
3.948	94.896	-2.9912e+05	3079.9	-0.48956	0.79798	0.40201
3.95	94.931	-2.9912e+05	3079.7	-0.48898	0.79837	0.40162
3.952	94.927	-2.9913e+05	3079.3	-0.48634	0.7972	0.40075
3.954	94.89	-2.9913e+05	3078.9	-0.48371	0.79603	0.39987
3.956	94.839	-2.9913e+05	3078.5	-0.48107	0.79485	0.39899
3.958	94.795	-2.9913e+05	3078	-0.47844	0.79368	0.39811
3.96	94.787	-2.9913e+05	3077.6	-0.4758	0.79251	0.39723
3.962	94.815	-2.9913e+05	3077.2	-0.47951	0.79251	0.3985
3.964	94.863	-2.9913e+05	3076.8	-0.48322	0.79251	0.39977
3.966	94.903	-2.9913e+05	3076.4	-0.48693	0.79251	0.40104
3.968	94.913	-2.9914e+05	3076	-0.49064	0.79251	0.40231
3.97	94.886	-2.9914e+05	3075.6	-0.49434	0.79251	0.40358
3.972	94.837	-2.9914e+05	3075.2	-0.49298	0.79339	0.4028
3.974	94.791	-2.9914e+05	3074.9	-0.49161	0.79427	0.40201
3.976	94.772	-2.9914e+05	3074.5	-0.49024	0.79515	0.40123
3.978	94.786	-2.9914e+05	3074.2	-0.48888	0.79603	0.40045
3.98	94.826	-2.9914e+05	3073.9	-0.48751	0.7969	0.39967
3.982	94.868	-2.9914e+05	3073.5	-0.48527	0.79651	0.39831
3.984	94.89	-2.9914e+05	3073.2	-0.48302	0.79612	0.39694
3.986	94.879	-2.9914e+05	3072.8	-0.48078	0.79573	0.39557
3.988	94.837	-2.9914e+05	3072.4	-0.47853	0.79534	0.39421
3.99	94.779	-2.9915e+05	3072	-0.47629	0.79495	0.39284
3.992	94.738	-2.9915e+05	3071.6	-0.47746	0.79495	0.39372
3.994	94.734	-2.9915e+05	3071.2	-0.47863	0.79495	0.3946
3.996	94.753	-2.9915e+05	3070.8	-0.4798	0.79495	0.39548
3.998	94.782	-2.9915e+05	3070.4	-0.48097	0.79495	0.39635
4	94.803	-2.9914e+05	3070	-0.48214	0.79495	0.39723
4.002	94.792	-2.9915e+05	3069.7	-0.48341	0.79603	0.39626
4.004	94.749	-2.9915e+05	3069.4	-0.48468	0.7971	0.39528
4.006	94.7	-2.9915e+05	3069.2	-0.48595	0.79817	0.3943
4.008	94.665	-2.9916e+05	3068.9	-0.48722	0.79925	0.39333
4.01	94.667	-2.9916e+05	3068.6	-0.48849	0.80032	0.39235
4.012	94.707	-2.9916e+05	3068.4	-0.48741	0.80061	0.39167
4.014	94.763	-2.9916e+05	3068.1	-0.48634	0.80091	0.39099
4.016	94.804	-2.9916e+05	3067.9	-0.48527	0.8012	0.3903
4.018	94.811	-2.9916e+05	3067.7	-0.48419	0.80149	0.38962
4.02	94.784	-2.9916e+05	3067.4	-0.48312	0.80178	0.38894
4.022	94.737	-2.9916e+05	3067.2	-0.48507	0.80188	0.38864
4.024	94.695	-2.9917e+05	3066.9	-0.48702	0.80198	0.38835
4.026	94.684	-2.9917e+05	3066.6	-0.48898	0.80208	0.38806
4.028	94.712	-2.9917e+05	3066.3	-0.49093	0.80217	0.38776
4.03	94.767	-2.9916e+05	3066	-0.49288	0.80227	0.38747
4.032	94.824	-2.9916e+05	3065.7	-0.49317	0.80159	0.38747
4.034	94.86	-2.9916e+05	3065.4	-0.49347	0.80091	0.38747
4.036	94.853	-2.9917e+05	3065.1	-0.49376	0.80022	0.38747
4.038	94.807	-2.9916e+05	3064.7	-0.49405	0.79954	0.38747
4.04	94.753	-2.9916e+05	3064.4	-0.49434	0.79886	0.38747
4.042	94.719	-2.9916e+05	3064.1	-0.49151	0.79993	0.38611
4.044	94.725	-2.9915e+05	3063.8	-0.48868	0.801	0.38474
4.046	94.763	-2.9916e+05	3063.6	-0.48585	0.80208	0.38337
4.048	94.815	-2.9917e+05	3063.3	-0.48302	0.80315	0.38201
4.05	94.853	-2.9917e+05	3063	-0.48019	0.80422	0.38064
4.052	94.855	-2.9917e+05	3062.8	-0.48078	0.80413	0.38064
4.054	94.82	-2.9917e+05	3062.5	-0.48136	0.80403	0.38064
4.056	94.769	-2.9918e+05	3062.3	-0.48195	0.80393	0.38064
4.058	94.729	-2.9917e+05	3062	-0.48253	0.80383	0.38064
4.06	94.722	-2.9917e+05	3061.8	-0.48312	0.80374	0.38064
4.062	94.749	-2.9917e+05	3061.6	-0.48166	0.80491	0.37996
4.064	94.799	-2.9917e+05	3061.3	-0.48019	0.80608	0.37927
4.066	94.842	-2.9917e+05	3061.1	-0.47873	0.80725	0.37859
4.068	94.853	-2.9918e+05	3060.9	-0.47726	0.80842	0.37791
4.07	94.832	-2.9917e+05	3060.6	-0.4758	0.80959	0.37722
4.072	94.792	-2.9917e+05	3060.4	-0.47668	0.80862	0.37674
4.074	94.746	-2.9917e+05	3060.2	-0.47756	0.80764	0.37625
4.076	94.725	-2.9916e+05	3060	-0.47844	0.80666	0.37576
4.078	94.744	-2.9917e+05	3059.8	-0.47931	0.80569	0.37527
4.08	94.788	-2.9918e+05	3059.7	-0.48019	0.80471	0.37478
4.082	94.836	-2.9918e+05	3059.5	-0.47883	0.8052	0.37508
4.084	94.862	-2.9918e+05	3059.3	-0.47746	0.80569	0.37537
4.086	94.85	-2.9918e+05	3059.1	-0.47609	0.80618	0.37566
4.088	94.808	-2.9918e+05	3058.8	-0.47473	0.80666	0.37596
4.09	94.758	-2.9918e+05	3058.6	-0.47336	0.80715	0.37625
4.092	94.726	-2.9918e+05	3058.3	-0.47326	0.80715	0.37664
4.094	94.733	-2.9919e+05	3058.1	-0.47316	0.80715	0.37703
4.096	94.776	-2.9919e+05	3057.9	-0.47307	0.80715	0.37742
4.098	94.832	-2.9919e+05	3057.6	-0.47297	0.80715	0.37781
4.1	94.871	-2.9919e+05	3057.4	-0.47287	0.80715	0.3782
4.102	94.872	-2.9919e+05	3057.2	-0.47404	0.80618	0.3784
4.104	94.838	-2.9918e+05	3056.9	-0.47521	0.8052	0.37859
4.106	94.797	-2.9918e+05	3056.7	-0.47639	0.80422	0.37879
4.108	94.766	-2.9918e+05	3056.5	-0.47756	0.80325	0.37898
4.11	94.765	-2.9919e+05	3056.3	-0.47873	0.80227	0.37918
4.112	94.79	-2.9919e+05	3056	-0.47746	0.80364	0.3783
4.114	94.836	-2.9918e+05	3055.7	-0.47619	0.805	0.37742
4.116	94.89	-2.9918e+05	3055.4	-0.47492	0.80637	0.37654
4.118	94.906	-2.9919e+05	3055.2	-0.47365	0.80774	0.37566
4.12	94.877	-2.9919e+05	3054.9	-0.47238	0.8091	0.37478
4.122	94.818	-2.9919e+05	3054.7	-0.4717	0.80881	0.37527
4.124	94.761	-2.992e+05	3054.5	-0.47102	0.80852	0.37576
4.126	94.712	-2.992e+05	3054.2	-0.47033	0.80823	0.37625
4.128	94.68	-2.992e+05	3054	-0.46965	0.80793	0.37674
4.13	94.661	-2.992e+05	3053.7	-0.46897	0.80764	0.37722
4.132	94.622	-2.9919e+05	3053.4	-0.47024	0.80725	0.37869
4.134	94.543	-2.992e+05	3053.1	-0.47151	0.80686	0.38015
4.136	94.382	-2.992e+05	3052.7	-0.47277	0.80647	0.38162
4.138	94.161	-2.992e+05	3052.4	-0.47404	0.80608	0.38308
4.14	93.951	-2.992e+05	3052	-0.47531	0.80569	0.38454
4.142	93.813	-2.992e+05	3051.7	-0.47482	0.8051	0.38503
4.144	93.777	-2.992e+05	3051.4	-0.47434	0.80452	0.38552
4.146	93.839	-2.992e+05	3051.1	-0.47385	0.80393	0.38601
4.148	93.995	-2.9921e+05	3050.8	-0.47336	0.80335	0.3865
4.15	94.212	-2.9921e+05	3050.6	-0.47287	0.80276	0.38698
4.152	94.419	-2.9921e+05	3050.3	-0.47238	0.80217	0.38796
4.154	94.559	-2.992e+05	3050	-0.4719	0.80159	0.38894
4.156	94.612	-2.992e+05	3049.8	-0.47141	0.801	0.38991
4.158	94.618	-2.992e+05	3049.6	-0.47092	0.80042	0.39089
4.16	94.635	-2.9921e+05	3049.3	-0.47043	0.79983	0.39186
4.162	94.684	-2.9921e+05	3049.2	-0.47072	0.79905	0.39157
4.164	94.758	-2.9921e+05	3049	-0.47102	0.79827	0.39128
4.166	94.823	-2.9921e+05	3048.8	-0.47131	0.79749	0.39099
4.168	94.848	-2.9921e+05	3048.5	-0.4716	0.79671	0.39069
4.17	94.84	-2.9921e+05	3048.2	-0.4719	0.79593	0.3904
4.172	94.815	-2.9922e+05	3047.9	-0.47053	0.79622	0.39235
4.174	94.787	-2.9921e+05	3047.6	-0.46916	0.79651	0.3943
4.176	94.784	-2.9921e+05	3047.4	-0.4678	0.79681	0.39626
4.178	94.819	-2.9921e+05	3047.2	-0.46643	0.7971	0.39821
4.18	94.874	-2.9922e+05	3047	-0.46506	0.79739	0.40016
4.182	94.928	-2.9922e+05	3046.9	-0.46594	0.79847	0.3987
4.184	94.96	-2.9922e+05	3046.8	-0.46682	0.79954	0.39723
4.186	94.949	-2.9922e+05	3046.7	-0.4677	0.80061	0.39577
4.188	94.904	-2.9921e+05	3046.6	-0.46858	0.80169	0.3943
4.19	94.845	-2.9922e+05	3046.5	-0.46946	0.80276	0.39284
4.192	94.806	-2.9922e+05	3046.2	-0.46897	0.8011	0.39382
4.194	94.808	-2.9922e+05	3046	-0.46848	0.79944	0.39479
4.196	94.844	-2.9922e+05	3045.8	-0.46799	0.79778	0.39577
4.198	94.895	-2.9922e+05	3045.5	-0.4675	0.79612	0.39674
4.2	94.931	-2.9922e+05	3045.3	-0.46702	0.79446	0.39772
4.202	94.931	-2.9922e+05	3045	-0.46868	0.79642	0.39801
4.204	94.9	-2.9923e+05	3044.8	-0.47033	0.79837	0.39831
4.206	94.849	-2.9923e+05	3044.6	-0.47199	0.80032	0.3986
4.208	94.8	-2.9923e+05	3044.6	-0.47365	0.80227	0.39889
4.21	94.787	-2.9923e+05	3044.6	-0.47531	0.80422	0.39918
4.212	94.814	-2.9923e+05	3044.5	-0.47453	0.80422	0.39792
4.214	94.86	-2.9923e+05	3044.5	-0.47375	0.80422	0.39665
4.216	94.9	-2.9923e+05	3044.4	-0.47297	0.80422	0.39538
4.218	94.921	-2.9923e+05	3044.2	-0.47219	0.80422	0.39411
4.22	94.905	-2.9924e+05	3043.9	-0.47141	0.80422	0.39284
4.222	94.857	-2.9924e+05	3043.5	-0.47033	0.80315	0.3945
4.224	94.804	-2.9924e+05	3043	-0.46926	0.80208	0.39616
4.226	94.781	-2.9923e+05	3042.7	-0.46819	0.801	0.39782
4.228	94.801	-2.9923e+05	3042.4	-0.46711	0.79993	0.39948
4.23	94.849	-2.9923e+05	3042.2	-0.46604	0.79886	0.40114
4.232	94.901	-2.9924e+05	3042.1	-0.46789	0.80149	0.40075
4.234	94.925	-2.9924e+05	3041.9	-0.46975	0.80413	0.40036
4.236	94.912	-2.9924e+05	3041.8	-0.4716	0.80676	0.39996
4.238	94.872	-2.9925e+05	3041.6	-0.47346	0.8094	0.39957
4.24	94.821	-2.9925e+05	3041.5	-0.47531	0.81203	0.39918
4.242	94.785	-2.9925e+05	3041.4	-0.47609	0.81096	0.39704
4.244	94.786	-2.9925e+05	3041.3	-0.47687	0.80988	0.39489
4.246	94.82	-2.9925e+05	3041.3	-0.47765	0.80881	0.39274
4.248	94.869	-2.9925e+05	3041.1	-0.47844	0.80774	0.3906
4.25	94.909	-2.9925e+05	3041	-0.47922	0.80666	0.38845
4.252	94.915	-2.9924e+05	3040.9	-0.47951	0.8054	0.38864
4.254	94.884	-2.9924e+05	3040.7	-0.4798	0.80413	0.38884
4.256	94.835	-2.9923e+05	3040.6	-0.48009	0.80286	0.38903
4.258	94.793	-2.9924e+05	3040.5	-0.48039	0.80159	0.38923
4.26	94.782	-2.9925e+05	3040.5	-0.48068	0.80032	0.38942
4.262	94.805	-2.9925e+05	3040.4	-0.48058	0.8013	0.38825
4.264	94.849	-2.9925e+05	3040.3	-0.48048	0.80227	0.38708
4.266	94.893	-2.9925e+05	3040.3	-0.48039	0.80325	0.38591
4.268	94.905	-2.9924e+05	3040.3	-0.48029	0.80422	0.38474
4.27	94.879	-2.9925e+05	3040.3	-0.48019	0.8052	0.38357
4.272	94.834	-2.9926e+05	3040.3	-0.47883	0.80627	0.38328
4.274	94.787	-2.9925e+05	3040.3	-0.47746	0.80735	0.38298
4.276	94.764	-2.9925e+05	3040.5	-0.47609	0.80842	0.38269
4.278	94.777	-2.9925e+05	3040.7	-0.47473	0.80949	0.3824
4.28	94.818	-2.9926e+05	3041	-0.47336	0.81057	0.3821
