t	ekg	optical	pressure	accel_x	accel_y	accel_z
0	73.07	-3.0887e+05	3034.2	0.087352	-0.27718	0.98674
0.002	73.036	-3.0887e+05	3034	0.08745	-0.27728	0.98615
0.004	73.06	-3.0887e+05	3033.9	0.087547	-0.27738	0.98556
0.006	73.076	-3.0887e+05	3033.7	0.087645	-0.27748	0.98498
0.008	73.081	-3.0888e+05	3033.5	0.087742	-0.27757	0.98439
0.01	73.16	-3.0888e+05	3033.4	0.08784	-0.27767	0.98381
0.012	73.173	-3.0888e+05	3033.2	0.087742	-0.27699	0.98312
0.014	73.127	-3.0889e+05	3033.1	0.087645	-0.27631	0.98244
0.016	73.138	-3.0889e+05	3032.9	0.087547	-0.27562	0.98176
0.018	73.127	-3.0889e+05	3032.7	0.08745	-0.27494	0.98108
0.02	73.122	-3.0889e+05	3032.5	0.087352	-0.27426	0.98039
0.022	73.15	-3.0889e+05	3032.3	0.086083	-0.27631	0.9801
0.024	73.168	-3.0889e+05	3032.2	0.084814	-0.27836	0.97981
0.026	73.174	-3.0889e+05	3031.9	0.083546	-0.2804	0.97951
0.028	73.178	-3.089e+05	3031.7	0.082277	-0.28245	0.97922
0.03	73.143	-3.089e+05	3031.5	0.081008	-0.2845	0.97893
0.032	73.083	-3.089e+05	3031.3	0.081789	-0.28402	0.97932
0.034	73.049	-3.089e+05	3031	0.08257	-0.28353	0.97971
0.036	73.088	-3.089e+05	3030.8	0.08335	-0.28304	0.9801
0.038	73.064	-3.089e+05	3030.5	0.084131	-0.28255	0.98049
0.04	73.019	-3.0891e+05	3030.2	0.084912	-0.28206	0.98088
0.042	73.097	-3.0891e+05	3029.9	0.084326	-0.28216	0.98108
0.044	73.224	-3.0892e+05	3029.6	0.083741	-0.28226	0.98127
0.046	73.258	-3.0892e+05	3029.3	0.083155	-0.28236	0.98147
0.048	73.212	-3.0892e+05	3028.9	0.08257	-0.28245	0.98166
0.05	73.193	-3.0891e+05	3028.6	0.081984	-0.28255	0.98186
0.052	73.18	-3.0891e+05	3028.1	0.081886	-0.28294	0.98088
0.054	73.155	-3.0892e+05	3027.7	0.081789	-0.28333	0.9799
0.056	73.166	-3.0892e+05	3027.3	0.081691	-0.28372	0.97893
0.058	73.15	-3.0893e+05	3026.9	0.081594	-0.28411	0.97795
0.06	73.128	-3.0893e+05	3026.4	0.081496	-0.2845	0.97698
0.062	73.121	-3.0893e+05	3026.1	0.081691	-0.28363	0.97873
0.064	73.135	-3.0893e+05	3025.7	0.081886	-0.28275	0.98049
0.066	73.185	-3.0894e+05	3025.4	0.082082	-0.28187	0.98225
0.068	73.2	-3.0894e+05	3025	0.082277	-0.28099	0.984
0.07	73.186	-3.0894e+05	3024.7	0.082472	-0.28011	0.98576
0.072	73.143	-3.0894e+05	3024.4	0.083838	-0.28011	0.98361
0.074	73.107	-3.0894e+05	3024	0.085205	-0.28011	0.98147
0.076	73.131	-3.0894e+05	3023.6	0.086571	-0.28011	0.97932
0.078	73.145	-3.0894e+05	3023.3	0.087938	-0.28011	0.97717
0.08	73.126	-3.0895e+05	3022.9	0.089304	-0.28011	0.97502
0.082	73.087	-3.0895e+05	3022.6	0.088816	-0.27992	0.97502
0.084	73.082	-3.0895e+05	3022.3	0.088328	-0.27972	0.97502
0.086	73.129	-3.0895e+05	3022	0.08784	-0.27953	0.97502
0.088	73.155	-3.0895e+05	3021.8	0.087352	-0.27933	0.97502
0.09	73.145	-3.0895e+05	3021.5	0.086864	-0.27914	0.97502
0.092	73.152	-3.0896e+05	3021.3	0.08823	-0.27923	0.97444
0.094	73.213	-3.0896e+05	3021	0.089597	-0.27933	0.97385
0.096	73.203	-3.0897e+05	3020.8	0.090963	-0.27943	0.97327
0.098	73.234	-3.0897e+05	3020.5	0.09233	-0.27953	0.97268
0.1	73.18	-3.0898e+05	3020.3	0.093696	-0.27962	0.9721
0.102	73.108	-3.0898e+05	3020	0.093989	-0.27962	0.972
0.104	73.118	-3.0898e+05	3019.7	0.094282	-0.27962	0.9719
0.106	73.203	-3.0898e+05	3019.5	0.094574	-0.27962	0.9718
0.108	73.192	-3.0898e+05	3019.2	0.094867	-0.27962	0.97171
0.11	73.128	-3.0898e+05	3018.8	0.09516	-0.27962	0.97161
0.112	73.056	-3.0898e+05	3018.5	0.096429	-0.27933	0.97297
0.114	72.909	-3.0899e+05	3018.2	0.097698	-0.27904	0.97434
0.116	72.777	-3.0899e+05	3018	0.098966	-0.27875	0.97571
0.118	72.648	-3.0899e+05	3017.7	0.10024	-0.27845	0.97707
0.12	72.515	-3.09e+05	3017.5	0.1015	-0.27816	0.97844
0.122	72.384	-3.09e+05	3017.3	0.099747	-0.27738	0.97795
0.124	72.306	-3.0899e+05	3017	0.09799	-0.2766	0.97746
0.126	72.31	-3.09e+05	3016.8	0.096234	-0.27582	0.97698
0.128	72.353	-3.09e+05	3016.5	0.094477	-0.27504	0.97649
0.13	72.42	-3.0901e+05	3016.3	0.09272	-0.27426	0.976
0.132	72.542	-3.09e+05	3016	0.093989	-0.27416	0.97522
0.134	72.693	-3.0901e+05	3015.8	0.095258	-0.27406	0.97444
0.136	72.812	-3.0901e+05	3015.5	0.096526	-0.27396	0.97366
0.138	72.913	-3.0901e+05	3015.2	0.097795	-0.27387	0.97288
0.14	72.999	-3.0902e+05	3014.9	0.099064	-0.27377	0.9721
0.142	73.013	-3.0902e+05	3014.8	0.10033	-0.27289	0.97171
0.144	73.007	-3.0902e+05	3014.6	0.1016	-0.27201	0.97132
0.146	73.035	-3.0902e+05	3014.4	0.10287	-0.27113	0.97092
0.148	73.069	-3.0902e+05	3014.2	0.10414	-0.27025	0.97053
0.15	73.064	-3.0903e+05	3013.9	0.10541	-0.26938	0.97014
0.152	73.12	-3.0904e+05	3013.8	0.1059	-0.26957	0.97053
0.154	73.136	-3.0905e+05	3013.6	0.10638	-0.26977	0.97092
0.156	73.119	-3.0905e+05	3013.3	0.10687	-0.26996	0.97132
0.158	73.179	-3.0905e+05	3012.8	0.10736	-0.27016	0.97171
0.16	73.217	-3.0905e+05	3012.3	0.10785	-0.27035	0.9721
0.162	73.175	-3.0904e+05	3012.1	0.10716	-0.26957	0.97424
0.164	73.123	-3.0904e+05	3011.8	0.10648	-0.26879	0.97639
0.166	73.082	-3.0904e+05	3011.8	0.1058	-0.26801	0.97854
0.168	73.081	-3.0904e+05	3012	0.10512	-0.26723	0.98068
0.17	73.133	-3.0905e+05	3012.2	0.10443	-0.26645	0.98283
0.172	73.161	-3.0906e+05	3011.9	0.10502	-0.26772	0.98127
0.174	73.193	-3.0907e+05	3011.7	0.1056	-0.26899	0.97971
0.176	73.262	-3.0908e+05	3011.4	0.10619	-0.27025	0.97815
0.178	73.244	-3.0908e+05	3011	0.10677	-0.27152	0.97659
0.18	73.159	-3.0908e+05	3010.6	0.10736	-0.27279	0.97502
0.182	73.104	-3.0908e+05	3010.4	0.10716	-0.2723	0.97659
0.184	73.106	-3.0908e+05	3010.2	0.10697	-0.27182	0.97815
0.186	73.136	-3.0909e+05	3010.1	0.10677	-0.27133	0.97971
0.188	73.192	-3.0909e+05	3010.1	0.10658	-0.27084	0.98127
0.19	73.179	-3.0908e+05	3010	0.10638	-0.27035	0.98283
0.192	73.178	-3.0908e+05	3009.8	0.10638	-0.27016	0.98195
0.194	73.103	-3.0908e+05	3009.6	0.10638	-0.26996	0.98108
0.196	73.037	-3.0909e+05	3009.4	0.10638	-0.26977	0.9802
0.198	73.125	-3.091e+05	3009.1	0.10638	-0.26957	0.97932
0.2	73.201	-3.091e+05	3008.8	0.10638	-0.26938	0.97844
0.202	73.17	-3.091e+05	3008.4	0.10482	-0.27035	0.97981
0.204	73.182	-3.091e+05	3008	0.10326	-0.27133	0.98117
0.206	73.202	-3.0911e+05	3007.6	0.1017	-0.2723	0.98254
0.208	73.182	-3.0911e+05	3007.3	0.10014	-0.27328	0.98391
0.21	73.152	-3.0911e+05	3006.9	0.098576	-0.27426	0.98527
0.212	73.129	-3.0912e+05	3006.7	0.096624	-0.27338	0.98391
0.214	73.122	-3.0912e+05	3006.4	0.094672	-0.2725	0.98254
0.216	73.136	-3.0912e+05	3006.1	0.09272	-0.27162	0.98117
0.218	73.156	-3.0913e+05	3005.8	0.090768	-0.27074	0.97981
0.22	73.146	-3.0914e+05	3005.5	0.088816	-0.26986	0.97844
0.222	73.097	-3.0914e+05	3005.1	0.090768	-0.26977	0.97824
0.224	73.065	-3.0914e+05	3004.6	0.09272	-0.26967	0.97805
0.226	73.086	-3.0914e+05	3004.2	0.094672	-0.26957	0.97785
0.228	73.136	-3.0914e+05	3003.8	0.096624	-0.26947	0.97766
0.23	73.177	-3.0915e+05	3003.3	0.098576	-0.26938	0.97746
0.232	73.192	-3.0915e+05	3002.9	0.099162	-0.26889	0.97737
0.234	73.187	-3.0915e+05	3002.6	0.099747	-0.2684	0.97727
0.236	73.152	-3.0916e+05	3002.2	0.10033	-0.26791	0.97717
0.238	73.155	-3.0916e+05	3001.7	0.10092	-0.26742	0.97707
0.24	73.168	-3.0916e+05	3001.3	0.1015	-0.26694	0.97698
0.242	73.188	-3.0917e+05	3001	0.10248	-0.26733	0.97629
0.244	73.221	-3.0917e+05	3000.6	0.10346	-0.26772	0.97561
0.246	73.175	-3.0917e+05	3000.3	0.10443	-0.26811	0.97493
0.248	73.088	-3.0917e+05	3000.1	0.10541	-0.2685	0.97424
0.25	73.088	-3.0917e+05	3000	0.10638	-0.26889	0.97356
0.252	73.079	-3.0918e+05	2999.7	0.10443	-0.26986	0.97278
0.254	73.119	-3.0918e+05	2999.5	0.10248	-0.27084	0.972
0.256	73.131	-3.0919e+05	2999.3	0.10053	-0.27182	0.97122
0.258	73.167	-3.0919e+05	2999.2	0.098576	-0.27279	0.97044
0.26	73.199	-3.092e+05	2999	0.096624	-0.27377	0.96966
0.262	73.139	-3.092e+05	2998.7	0.095843	-0.27435	0.97161
0.264	73.065	-3.092e+05	2998.5	0.095062	-0.27494	0.97356
0.266	73.055	-3.092e+05	2998.2	0.094282	-0.27552	0.97551
0.268	73.13	-3.092e+05	2998	0.093501	-0.27611	0.97746
0.27	73.161	-3.0921e+05	2997.7	0.09272	-0.2767	0.97942
0.272	73.1	-3.0921e+05	2997.6	0.093208	-0.2767	0.97932
0.274	73.099	-3.0921e+05	2997.5	0.093696	-0.2767	0.97922
0.276	73.166	-3.0922e+05	2997.4	0.094184	-0.2767	0.97912
0.278	73.162	-3.0922e+05	2997.3	0.094672	-0.2767	0.97903
0.28	73.096	-3.0921e+05	2997.3	0.09516	-0.2767	0.97893
0.282	73.112	-3.0921e+05	2997.4	0.093696	-0.27513	0.97844
0.284	73.088	-3.0921e+05	2997.6	0.092232	-0.27357	0.97795
0.286	73.061	-3.0922e+05	2998	0.090768	-0.27201	0.97746
0.288	73.09	-3.0922e+05	2998.5	0.089304	-0.27045	0.97698
0.29	73.136	-3.0923e+05	2999	0.08784	-0.26889	0.97649
0.292	73.155	-3.0924e+05	2999.8	0.088718	-0.26957	0.97698
0.294	73.141	-3.0924e+05	3000.7	0.089597	-0.27025	0.97746
0.296	73.103	-3.0925e+05	3001.7	0.090475	-0.27094	0.97795
0.298	73.076	-3.0925e+05	3003	0.091354	-0.27162	0.97844
0.3	73.111	-3.0925e+05	3004.2	0.092232	-0.2723	0.97893
0.302	73.132	-3.0926e+05	3005.9	0.092232	-0.27279	0.97873
0.304	73.097	-3.0926e+05	3007.6	0.092232	-0.27328	0.97854
0.306	73.038	-3.0926e+05	3009.4	0.092232	-0.27377	0.97834
0.308	72.956	-3.0926e+05	3011.3	0.092232	-0.27426	0.97815
0.31	72.945	-3.0926e+05	3013.2	0.092232	-0.27474	0.97795
0.312	73.049	-3.0927e+05	3015.2	0.090573	-0.27533	0.97873
0.314	73.164	-3.0927e+05	3017.2	0.088914	-0.27592	0.97951
0.316	73.163	-3.0927e+05	3019.1	0.087254	-0.2765	0.98029
0.318	73.11	-3.0927e+05	3021	0.085595	-0.27709	0.98108
0.32	73.076	-3.0927e+05	3022.8	0.083936	-0.27767	0.98186
0.322	72.999	-3.0928e+05	3024.5	0.084912	-0.2767	0.98127
0.324	73.002	-3.0929e+05	3026.3	0.085888	-0.27572	0.98068
0.326	73.046	-3.0929e+05	3028	0.086864	-0.27474	0.9801
0.328	73.031	-3.0929e+05	3029.6	0.08784	-0.27377	0.97951
0.33	73.003	-3.0929e+05	3031.2	0.088816	-0.27279	0.97893
0.332	73.013	-3.0929e+05	3032.7	0.088914	-0.2726	0.97864
0.334	73.065	-3.0929e+05	3034.2	0.089011	-0.2724	0.97834
0.336	73.066	-3.0929e+05	3035.6	0.089109	-0.27221	0.97805
0.338	72.981	-3.0929e+05	3036.9	0.089206	-0.27201	0.97776
0.34	72.889	-3.0929e+05	3038.3	0.089304	-0.27182	0.97746
0.342	72.908	-3.0928e+05	3039.5	0.088426	-0.27201	0.97854
0.344	73.045	-3.0928e+05	3040.7	0.087547	-0.27221	0.97961
0.346	73.063	-3.0928e+05	3041.9	0.086669	-0.2724	0.98068
0.348	72.988	-3.0928e+05	3043	0.08579	-0.2726	0.98176
0.35	72.917	-3.0928e+05	3044.1	0.084912	-0.27279	0.98283
0.352	72.906	-3.0929e+05	3045.1	0.086278	-0.27299	0.98342
0.354	72.974	-3.0929e+05	3046.1	0.087645	-0.27318	0.984
0.356	72.963	-3.0929e+05	3047	0.089011	-0.27338	0.98459
0.358	72.923	-3.0929e+05	3047.9	0.090378	-0.27357	0.98517
0.36	72.926	-3.0928e+05	3048.7	0.091744	-0.27377	0.98576
0.362	72.946	-3.0927e+05	3049.6	0.09067	-0.27357	0.98517
0.364	72.929	-3.0927e+05	3050.4	0.089597	-0.27338	0.98459
0.366	72.986	-3.0927e+05	3051.2	0.088523	-0.27318	0.984
0.368	73.001	-3.0927e+05	3051.9	0.08745	-0.27299	0.98342
0.37	72.968	-3.0927e+05	3052.7	0.086376	-0.27279	0.98283
0.372	72.972	-3.0927e+05	3053.4	0.086571	-0.2726	0.98254
0.374	72.995	-3.0927e+05	3054.1	0.086766	-0.2724	0.98225
0.376	72.967	-3.0926e+05	3054.8	0.086962	-0.27221	0.98195
0.378	72.91	-3.0926e+05	3055.4	0.087157	-0.27201	0.98166
0.38	72.873	-3.0926e+05	3056.1	0.087352	-0.27182	0.98137
0.382	72.87	-3.0925e+05	3056.7	0.087352	-0.27172	0.98176
0.384	72.926	-3.0924e+05	3057.3	0.087352	-0.27162	0.98215
0.386	72.984	-3.0924e+05	3057.9	0.087352	-0.27152	0.98254
0.388	72.982	-3.0924e+05	3058.5	0.087352	-0.27143	0.98293
0.39	72.951	-3.0924e+05	3059.1	0.087352	-0.27133	0.98332
0.392	72.948	-3.0924e+05	3059.6	0.086571	-0.27211	0.98283
0.394	72.985	-3.0924e+05	3060.2	0.08579	-0.27289	0.98234
0.396	73.001	-3.0923e+05	3060.8	0.08501	-0.27367	0.98186
0.398	72.992	-3.0922e+05	3061.3	0.084229	-0.27445	0.98137
0.4	72.983	-3.0922e+05	3061.8	0.083448	-0.27523	0.98088
0.402	72.996	-3.0921e+05	3062.3	0.084912	-0.27445	0.98088
0.404	73.029	-3.0921e+05	3062.7	0.086376	-0.27367	0.98088
0.406	73.051	-3.0921e+05	3063.1	0.08784	-0.27289	0.98088
0.408	73.056	-3.092e+05	3063.4	0.089304	-0.27211	0.98088
0.41	73.022	-3.092e+05	3063.7	0.090768	-0.27133	0.98088
0.412	73.02	-3.0919e+05	3064	0.089792	-0.2723	0.98205
0.414	73.054	-3.0918e+05	3064.3	0.088816	-0.27328	0.98322
0.416	73.008	-3.0919e+05	3064.5	0.08784	-0.27426	0.98439
0.418	72.986	-3.0919e+05	3064.8	0.086864	-0.27523	0.98556
0.42	73.064	-3.0918e+05	3065.1	0.085888	-0.27621	0.98674
0.422	73.103	-3.0918e+05	3065.3	0.087938	-0.27699	0.98771
0.424	73.092	-3.0918e+05	3065.6	0.089987	-0.27777	0.98869
0.426	73.115	-3.0917e+05	3065.8	0.092037	-0.27855	0.98966
0.428	73.075	-3.0916e+05	3066	0.094086	-0.27933	0.99064
0.43	73.06	-3.0916e+05	3066.2	0.096136	-0.28011	0.99162
0.432	73.084	-3.0915e+05	3066.4	0.096234	-0.28011	0.99054
0.434	73.151	-3.0915e+05	3066.6	0.096331	-0.28011	0.98947
0.436	73.094	-3.0915e+05	3066.8	0.096429	-0.28011	0.9884
0.438	73.025	-3.0914e+05	3067	0.096526	-0.28011	0.98732
0.44	73.029	-3.0914e+05	3067.2	0.096624	-0.28011	0.98625
0.442	73.078	-3.0913e+05	3067.4	0.094867	-0.27845	0.98517
0.444	73.104	-3.0912e+05	3067.6	0.09311	-0.27679	0.9841
0.446	73.084	-3.0911e+05	3067.8	0.091354	-0.27513	0.98303
0.448	73.042	-3.0911e+05	3067.9	0.089597	-0.27348	0.98195
0.45	73.047	-3.0911e+05	3068.1	0.08784	-0.27182	0.98088
0.452	73.082	-3.0911e+05	3068.2	0.087742	-0.2726	0.98088
0.454	73.113	-3.091e+05	3068.3	0.087645	-0.27338	0.98088
0.456	73.093	-3.0911e+05	3068.4	0.087547	-0.27416	0.98088
0.458	73.068	-3.091e+05	3068.5	0.08745	-0.27494	0.98088
0.46	73.091	-3.0909e+05	3068.7	0.087352	-0.27572	0.98088
0.462	73.093	-3.0909e+05	3068.7	0.088426	-0.27504	0.97981
0.464	73.061	-3.0908e+05	3068.8	0.089499	-0.27435	0.97873
0.466	73.027	-3.0908e+05	3068.8	0.090573	-0.27367	0.97766
0.468	73.055	-3.0908e+05	3068.9	0.091646	-0.27299	0.97659
0.47	73.126	-3.0908e+05	3068.9	0.09272	-0.2723	0.97551
0.472	73.161	-3.0908e+05	3068.9	0.091842	-0.27201	0.9758
0.474	73.15	-3.0907e+05	3068.8	0.090963	-0.27172	0.9761
0.476	73.148	-3.0907e+05	3068.8	0.090085	-0.27143	0.97639
0.478	73.15	-3.0907e+05	3068.8	0.089206	-0.27113	0.97668
0.48	73.105	-3.0907e+05	3068.7	0.088328	-0.27084	0.97698
0.482	73.05	-3.0906e+05	3068.7	0.089694	-0.27172	0.97688
0.484	73.027	-3.0905e+05	3068.7	0.091061	-0.2726	0.97678
0.486	73.028	-3.0905e+05	3068.7	0.092427	-0.27348	0.97668
0.488	73.054	-3.0904e+05	3068.7	0.093794	-0.27435	0.97659
0.49	73.073	-3.0904e+05	3068.7	0.09516	-0.27523	0.97649
0.492	73.058	-3.0904e+05	3068.6	0.095062	-0.27533	0.97639
0.494	73.086	-3.0904e+05	3068.5	0.094965	-0.27543	0.97629
0.496	73.118	-3.0904e+05	3068.3	0.094867	-0.27552	0.9762
0.498	73.136	-3.0903e+05	3068	0.09477	-0.27562	0.9761
0.5	73.147	-3.0903e+05	3067.7	0.094672	-0.27572	0.976
0.502	73.122	-3.0902e+05	3067.4	0.094574	-0.27543	0.976
0.504	73.197	-3.0902e+05	3067.1	0.094477	-0.27513	0.976
0.506	73.153	-3.0902e+05	3066.8	0.094379	-0.27484	0.976
0.508	73.086	-3.0902e+05	3066.3	0.094282	-0.27455	0.976
0.51	73.059	-3.0902e+05	3065.9	0.094184	-0.27426	0.976
0.512	73.008	-3.0903e+05	3065.4	0.09311	-0.27406	0.97639
0.514	72.993	-3.0903e+05	3064.9	0.092037	-0.27387	0.97678
0.516	73.022	-3.0902e+05	3064.4	0.090963	-0.27367	0.97717
0.518	73.046	-3.0902e+05	3063.9	0.08989	-0.27348	0.97756
0.52	73.154	-3.0901e+05	3063.4	0.088816	-0.27328	0.97795
0.522	73.181	-3.0901e+05	3062.9	0.089597	-0.27367	0.97873
0.524	73.156	-3.0901e+05	3062.5	0.090378	-0.27406	0.97951
0.526	73.088	-3.0901e+05	3062	0.091158	-0.27445	0.98029
0.528	73.031	-3.0901e+05	3061.4	0.091939	-0.27484	0.98108
0.53	73.023	-3.09e+05	3060.9	0.09272	-0.27523	0.98186
0.532	73.088	-3.09e+05	3060.4	0.091549	-0.27435	0.98195
0.534	73.103	-3.0899e+05	3059.9	0.090378	-0.27348	0.98205
0.536	73.063	-3.0899e+05	3059.4	0.089206	-0.2726	0.98215
0.538	73.089	-3.0899e+05	3058.9	0.088035	-0.27172	0.98225
0.54	73.112	-3.09e+05	3058.4	0.086864	-0.27084	0.98234
0.542	73.083	-3.09e+05	3057.9	0.087157	-0.27074	0.98147
0.544	73.006	-3.09e+05	3057.4	0.08745	-0.27064	0.98059
0.546	72.974	-3.09e+05	3056.9	0.087742	-0.27055	0.97971
0.548	73.058	-3.0899e+05	3056.4	0.088035	-0.27045	0.97883
0.55	73.144	-3.0899e+05	3056	0.088328	-0.27035	0.97795
0.552	73.167	-3.0899e+05	3055.5	0.087938	-0.27025	0.97785
0.554	73.131	-3.09e+05	3055.1	0.087547	-0.27016	0.97776
0.556	73.134	-3.09e+05	3054.6	0.087157	-0.27006	0.97766
0.558	73.158	-3.0901e+05	3054.2	0.086766	-0.26996	0.97756
0.56	73.117	-3.0901e+05	3053.8	0.086376	-0.26986	0.97746
0.562	73.058	-3.09e+05	3053.3	0.087157	-0.26986	0.97737
0.564	73.048	-3.09e+05	3052.9	0.087938	-0.26986	0.97727
0.566	73.071	-3.09e+05	3052.4	0.088718	-0.26986	0.97717
0.568	73.039	-3.0899e+05	3052	0.089499	-0.26986	0.97707
0.57	72.984	-3.0899e+05	3051.6	0.09028	-0.26986	0.97698
0.572	73.027	-3.09e+05	3051.2	0.09028	-0.27104	0.97776
0.574	73.127	-3.09e+05	3050.8	0.09028	-0.27221	0.97854
0.576	73.146	-3.09e+05	3050.4	0.09028	-0.27338	0.97932
0.578	73.109	-3.09e+05	3050.1	0.09028	-0.27455	0.9801
0.58	73.113	-3.0899e+05	3049.7	0.09028	-0.27572	0.98088
0.582	73.13	-3.0899e+05	3049.3	0.089597	-0.27543	0.98098
0.584	73.104	-3.09e+05	3048.9	0.088914	-0.27513	0.98108
0.586	73.08	-3.09e+05	3048.5	0.08823	-0.27484	0.98117
0.588	73.094	-3.0899e+05	3048.2	0.087547	-0.27455	0.98127
0.59	73.108	-3.0899e+05	3047.9	0.086864	-0.27426	0.98137
0.592	73.114	-3.0899e+05	3047.6	0.087938	-0.27416	0.98039
0.594	73.099	-3.0899e+05	3047.3	0.089011	-0.27406	0.97942
0.596	73.073	-3.0899e+05	3047.1	0.090085	-0.27396	0.97844
0.598	72.97	-3.0899e+05	3046.9	0.091158	-0.27387	0.97746
0.6	72.923	-3.0899e+05	3046.7	0.092232	-0.27377	0.97649
0.602	73.022	-3.0899e+05	3046.5	0.092818	-0.27494	0.97659
0.604	73.16	-3.09e+05	3046.4	0.093403	-0.27611	0.97668
0.606	73.192	-3.09e+05	3046.2	0.093989	-0.27728	0.97678
0.608	73.224	-3.09e+05	3045.9	0.094574	-0.27845	0.97688
0.61	73.209	-3.09e+05	3045.6	0.09516	-0.27962	0.97698
0.612	73.134	-3.09e+05	3045.5	0.094379	-0.27845	0.97766
0.614	73.079	-3.09e+05	3045.3	0.093598	-0.27728	0.97834
0.616	73.1	-3.0901e+05	3045.1	0.092818	-0.27611	0.97903
0.618	73.081	-3.0901e+05	3044.9	0.092037	-0.27494	0.97971
0.62	73.026	-3.09e+05	3044.7	0.091256	-0.27377	0.98039
0.622	73.028	-3.09e+05	3044.4	0.090573	-0.27387	0.98039
0.624	73.094	-3.09e+05	3044.2	0.08989	-0.27396	0.98039
0.626	73.149	-3.09e+05	3043.9	0.089206	-0.27406	0.98039
0.628	73.153	-3.09e+05	3043.6	0.088523	-0.27416	0.98039
0.63	73.104	-3.09e+05	3043.3	0.08784	-0.27426	0.98039
0.632	73.072	-3.0901e+05	3043	0.08784	-0.27387	0.98029
0.634	73.06	-3.0901e+05	3042.7	0.08784	-0.27348	0.9802
0.636	73.084	-3.09e+05	3042.4	0.08784	-0.27308	0.9801
0.638	73.114	-3.09e+05	3042.2	0.08784	-0.27269	0.98
0.64	73.111	-3.09e+05	3041.9	0.08784	-0.2723	0.9799
0.642	73.096	-3.0901e+05	3041.5	0.087938	-0.27201	0.98
0.644	73.085	-3.0901e+05	3041.2	0.088035	-0.27172	0.9801
0.646	73.075	-3.0901e+05	3040.9	0.088133	-0.27143	0.9802
0.648	73.074	-3.0901e+05	3040.5	0.08823	-0.27113	0.98029
0.65	73.093	-3.0902e+05	3040.2	0.088328	-0.27084	0.98039
0.652	73.112	-3.0903e+05	3039.9	0.089109	-0.27113	0.97981
0.654	73.091	-3.0904e+05	3039.6	0.08989	-0.27143	0.97922
0.656	73.07	-3.0904e+05	3039.3	0.09067	-0.27172	0.97864
0.658	73.124	-3.0904e+05	3039	0.091451	-0.27201	0.97805
0.66	73.215	-3.0903e+05	3038.8	0.092232	-0.2723	0.97746
0.662	73.206	-3.0903e+05	3038.5	0.091354	-0.27211	0.97707
0.664	73.11	-3.0905e+05	3038.2	0.090475	-0.27191	0.97668
0.666	73.032	-3.0905e+05	3037.9	0.089597	-0.27172	0.97629
0.668	73.043	-3.0904e+05	3037.6	0.088718	-0.27152	0.9759
0.67	73.08	-3.0904e+05	3037.3	0.08784	-0.27133	0.97551
0.672	73.104	-3.0903e+05	3036.9	0.089109	-0.2726	0.97571
0.674	73.103	-3.0903e+05	3036.5	0.090378	-0.27387	0.9759
0.676	73.097	-3.0904e+05	3036	0.091646	-0.27513	0.9761
0.678	73.144	-3.0905e+05	3035.6	0.092915	-0.2764	0.97629
0.68	73.102	-3.0904e+05	3035.1	0.094184	-0.27767	0.97649
0.682	73.042	-3.0904e+05	3034.7	0.094574	-0.27748	0.97571
0.684	73.015	-3.0903e+05	3034.3	0.094965	-0.27728	0.97493
0.686	73.027	-3.0903e+05	3033.8	0.095355	-0.27709	0.97415
0.688	73.113	-3.0903e+05	3033.2	0.095746	-0.27689	0.97336
0.69	73.138	-3.0903e+05	3032.7	0.096136	-0.2767	0.97258
0.692	73.119	-3.0904e+05	3032.3	0.095355	-0.27621	0.97278
0.694	73.048	-3.0904e+05	3031.8	0.094574	-0.27572	0.97297
0.696	73.041	-3.0904e+05	3031.4	0.093794	-0.27523	0.97317
0.698	73.023	-3.0904e+05	3031.1	0.093013	-0.27474	0.97336
0.7	73.012	-3.0905e+05	3030.7	0.092232	-0.27426	0.97356
0.702	72.96	-3.0906e+05	3030.3	0.091939	-0.27406	0.97385
0.704	72.98	-3.0905e+05	3030	0.091646	-0.27387	0.97415
0.706	73.043	-3.0905e+05	3029.7	0.091354	-0.27367	0.97444
0.708	73.029	-3.0906e+05	3029.5	0.091061	-0.27348	0.97473
0.71	73.008	-3.0906e+05	3029.3	0.090768	-0.27328	0.97502
0.712	73.052	-3.0906e+05	3029.1	0.090573	-0.27348	0.97541
0.714	73.111	-3.0906e+05	3028.8	0.090378	-0.27367	0.9758
0.716	73.111	-3.0905e+05	3028.5	0.090182	-0.27387	0.9762
0.718	73.056	-3.0905e+05	3028.2	0.089987	-0.27406	0.97659
0.72	72.999	-3.0905e+05	3027.9	0.089792	-0.27426	0.97698
0.722	73.003	-3.0906e+05	3027.5	0.090963	-0.27484	0.97717
0.724	73.034	-3.0906e+05	3027.2	0.092134	-0.27543	0.97737
0.726	73.038	-3.0907e+05	3026.9	0.093306	-0.27601	0.97756
0.728	73.05	-3.0907e+05	3026.5	0.094477	-0.2766	0.97776
0.73	73.086	-3.0908e+05	3026.2	0.095648	-0.27718	0.97795
0.732	73.114	-3.0907e+05	3025.8	0.094672	-0.2764	0.97844
0.734	73.119	-3.0907e+05	3025.4	0.093696	-0.27562	0.97893
0.736	73.122	-3.0907e+05	3025	0.09272	-0.27484	0.97942
0.738	73.138	-3.0908e+05	3024.6	0.091744	-0.27406	0.9799
0.74	73.125	-3.0908e+05	3024.2	0.090768	-0.27328	0.98039
0.742	73.097	-3.0908e+05	3023.8	0.090963	-0.27377	0.98117
0.744	73.092	-3.0909e+05	3023.4	0.091158	-0.27426	0.98195
0.746	73.054	-3.0909e+05	3023	0.091354	-0.27474	0.98273
0.748	73.025	-3.0909e+05	3022.7	0.091549	-0.27523	0.98352
0.75	73.05	-3.0909e+05	3022.3	0.091744	-0.27572	0.9843
0.752	73.071	-3.0909e+05	3021.9	0.092134	-0.2767	0.98391
0.754	73.076	-3.0909e+05	3021.5	0.092525	-0.27767	0.98352
0.756	73.112	-3.0909e+05	3021.1	0.092915	-0.27865	0.98312
0.758	73.197	-3.091e+05	3020.8	0.093306	-0.27962	0.98273
0.76	73.145	-3.091e+05	3020.4	0.093696	-0.2806	0.98234
0.762	73.083	-3.091e+05	3020	0.094574	-0.2806	0.98264
0.764	73.1	-3.091e+05	3019.6	0.095453	-0.2806	0.98293
0.766	73.129	-3.091e+05	3019.2	0.096331	-0.2806	0.98322
0.768	73.124	-3.091e+05	3018.8	0.09721	-0.2806	0.98352
0.77	73.092	-3.0911e+05	3018.5	0.098088	-0.2806	0.98381
0.772	73.109	-3.0911e+05	3018.2	0.09799	-0.2808	0.9841
0.774	73.129	-3.0911e+05	3017.8	0.097893	-0.28099	0.98439
0.776	73.111	-3.0911e+05	3017.5	0.097795	-0.28119	0.98469
0.778	73.098	-3.0912e+05	3017.1	0.097698	-0.28138	0.98498
0.78	73.091	-3.0912e+05	3016.7	0.0976	-0.28158	0.98527
0.782	73.108	-3.0912e+05	3016.4	0.096429	-0.28021	0.9841
0.784	73.133	-3.0912e+05	3016	0.095258	-0.27884	0.98293
0.786	73.13	-3.0912e+05	3015.6	0.094086	-0.27748	0.98176
0.788	73.129	-3.0913e+05	3015.3	0.092915	-0.27611	0.98059
0.79	73.124	-3.0913e+05	3015	0.091744	-0.27474	0.97942
0.792	73.088	-3.0914e+05	3014.7	0.092037	-0.27592	0.97912
0.794	73.11	-3.0914e+05	3014.3	0.09233	-0.27709	0.97883
0.796	73.153	-3.0913e+05	3014	0.092622	-0.27826	0.97854
0.798	73.142	-3.0914e+05	3013.6	0.092915	-0.27943	0.97824
0.8	73.099	-3.0914e+05	3013.2	0.093208	-0.2806	0.97795
0.802	73.12	-3.0915e+05	3012.9	0.092818	-0.28001	0.97903
0.804	73.172	-3.0914e+05	3012.6	0.092427	-0.27943	0.9801
0.806	73.16	-3.0914e+05	3012.2	0.092037	-0.27884	0.98117
0.808	73.12	-3.0915e+05	3011.9	0.091646	-0.27826	0.98225
0.81	73.09	-3.0915e+05	3011.5	0.091256	-0.27767	0.98332
0.812	73.087	-3.0915e+05	3011.3	0.092037	-0.27826	0.98244
0.814	73.145	-3.0915e+05	3011.1	0.092818	-0.27884	0.98156
0.816	73.169	-3.0915e+05	3010.9	0.093598	-0.27943	0.98068
0.818	73.125	-3.0915e+05	3010.6	0.094379	-0.28001	0.97981
0.82	73.106	-3.0916e+05	3010.3	0.09516	-0.2806	0.97893
0.822	73.106	-3.0917e+05	3010.1	0.096819	-0.28031	0.97834
0.824	73.109	-3.0916e+05	3009.8	0.098478	-0.28001	0.97776
0.826	73.13	-3.0916e+05	3009.5	0.10014	-0.27972	0.97717
0.828	73.144	-3.0916e+05	3009.2	0.1018	-0.27943	0.97659
0.83	73.108	-3.0917e+05	3009	0.10346	-0.27914	0.976
0.832	73.089	-3.0917e+05	3008.7	0.1015	-0.27972	0.97629
0.834	73.12	-3.0918e+05	3008.4	0.099552	-0.28031	0.97659
0.836	73.107	-3.0918e+05	3008.1	0.0976	-0.28089	0.97688
0.838	73.095	-3.0918e+05	3007.8	0.095648	-0.28148	0.97717
0.84	73.027	-3.0918e+05	3007.4	0.093696	-0.28206	0.97746
0.842	72.918	-3.0918e+05	3007.1	0.094574	-0.28167	0.97756
0.844	72.75	-3.0918e+05	3006.9	0.095453	-0.28128	0.97766
0.846	72.562	-3.0918e+05	3006.6	0.096331	-0.28089	0.97776
0.848	72.385	-3.0918e+05	3006.3	0.09721	-0.2805	0.97785
0.85	72.215	-3.0918e+05	3006	0.098088	-0.28011	0.97795
0.852	72.171	-3.0919e+05	3005.8	0.096722	-0.27865	0.97815
0.854	72.134	-3.0919e+05	3005.5	0.095355	-0.27718	0.97834
0.856	72.112	-3.0919e+05	3005.2	0.093989	-0.27572	0.97854
0.858	72.239	-3.0919e+05	3004.9	0.092622	-0.27426	0.97873
0.86	72.526	-3.0919e+05	3004.6	0.091256	-0.27279	0.97893
0.862	72.767	-3.092e+05	3004.3	0.090963	-0.27318	0.97951
0.864	72.851	-3.0921e+05	3004	0.09067	-0.27357	0.9801
0.866	72.849	-3.0922e+05	3003.7	0.090378	-0.27396	0.98068
0.868	72.903	-3.0922e+05	3003.4	0.090085	-0.27435	0.98127
0.87	72.912	-3.0922e+05	3003.1	0.089792	-0.27474	0.98186
0.872	72.929	-3.0922e+05	3002.7	0.09028	-0.27474	0.98127
0.874	73.004	-3.0922e+05	3002.4	0.090768	-0.27474	0.98068
0.876	73.052	-3.0923e+05	3002	0.091256	-0.27474	0.9801
0.878	73.074	-3.0923e+05	3001.7	0.091744	-0.27474	0.97951
0.88	73.088	-3.0923e+05	3001.3	0.092232	-0.27474	0.97893
0.882	73.11	-3.0923e+05	3000.9	0.091256	-0.27484	0.97961
0.884	73.114	-3.0924e+05	3000.6	0.09028	-0.27494	0.98029
0.886	73.144	-3.0924e+05	3000.2	0.089304	-0.27504	0.98098
0.888	73.159	-3.0924e+05	2999.8	0.088328	-0.27513	0.98166
0.89	73.134	-3.0924e+05	2999.4	0.087352	-0.27523	0.98234
0.892	73.111	-3.0924e+05	2999.1	0.087547	-0.27552	0.98166
0.894	73.085	-3.0924e+05	2998.7	0.087742	-0.27582	0.98098
0.896	73.115	-3.0924e+05	2998.4	0.087938	-0.27611	0.98029
0.898	73.178	-3.0924e+05	2998	0.088133	-0.2764	0.97961
0.9	73.167	-3.0924e+05	2997.7	0.088328	-0.2767	0.97893
0.902	73.123	-3.0925e+05	2997.3	0.088035	-0.27699	0.97903
0.904	73.151	-3.0925e+05	2996.9	0.087742	-0.27728	0.97912
0.906	73.188	-3.0925e+05	2996.5	0.08745	-0.27757	0.97922
0.908	73.157	-3.0926e+05	2996.2	0.087157	-0.27787	0.97932
0.91	73.145	-3.0927e+05	2995.8	0.086864	-0.27816	0.97942
0.912	73.158	-3.0927e+05	2995.4	0.088133	-0.27845	0.97961
0.914	73.145	-3.0928e+05	2995.1	0.089402	-0.27875	0.97981
0.916	73.133	-3.0928e+05	2994.7	0.09067	-0.27904	0.98
0.918	73.1	-3.0929e+05	2994.3	0.091939	-0.27933	0.9802
0.92	73.081	-3.0928e+05	2993.9	0.093208	-0.27962	0.98039
0.922	73.102	-3.0929e+05	2993.5	0.091842	-0.27972	0.9802
0.924	73.114	-3.0929e+05	2993.1	0.090475	-0.27982	0.98
0.926	73.116	-3.0929e+05	2992.7	0.089109	-0.27992	0.97981
0.928	73.081	-3.0929e+05	2992.2	0.087742	-0.28001	0.97961
0.93	73.103	-3.0929e+05	2991.6	0.086376	-0.28011	0.97942
0.932	73.153	-3.0929e+05	2991.2	0.087059	-0.28001	0.9801
0.934	73.143	-3.0929e+05	2990.7	0.087742	-0.27992	0.98078
0.936	73.165	-3.0929e+05	2990.2	0.088426	-0.27982	0.98147
0.938	73.139	-3.0929e+05	2989.7	0.089109	-0.27972	0.98215
0.94	73.103	-3.093e+05	2989.2	0.089792	-0.27962	0.98283
0.942	73.086	-3.093e+05	2988.7	0.090182	-0.28001	0.98234
0.944	73.087	-3.0931e+05	2988.2	0.090573	-0.2804	0.98186
0.946	73.13	-3.0932e+05	2987.7	0.090963	-0.2808	0.98137
0.948	73.147	-3.0932e+05	2987.1	0.091354	-0.28119	0.98088
0.95	73.11	-3.0932e+05	2986.6	0.091744	-0.28158	0.98039
0.952	73.043	-3.0932e+05	2986.2	0.091451	-0.28255	0.98029
0.954	73.018	-3.0932e+05	2985.7	0.091158	-0.28353	0.9802
0.956	73.065	-3.0933e+05	2985.3	0.090866	-0.2845	0.9801
0.958	73.128	-3.0933e+05	2984.9	0.090573	-0.28548	0.98
0.96	73.113	-3.0934e+05	2984.5	0.09028	-0.28646	0.9799
0.962	73.103	-3.0934e+05	2984.1	0.091744	-0.28607	0.97922
0.964	73.102	-3.0934e+05	2983.7	0.093208	-0.28568	0.97854
0.966	73.18	-3.0934e+05	2983.3	0.094672	-0.28528	0.97785
0.968	73.227	-3.0934e+05	2982.9	0.096136	-0.28489	0.97717
0.97	73.168	-3.0934e+05	2982.4	0.0976	-0.2845	0.97649
0.972	73.117	-3.0935e+05	2982	0.096234	-0.28411	0.97737
0.974	73.097	-3.0935e+05	2981.7	0.094867	-0.28372	0.97824
0.976	73.096	-3.0936e+05	2981.3	0.093501	-0.28333	0.97912
0.978	73.107	-3.0936e+05	2980.9	0.092134	-0.28294	0.98
0.98	73.119	-3.0936e+05	2980.5	0.090768	-0.28255	0.98088
0.982	73.108	-3.0936e+05	2980.1	0.090475	-0.28197	0.98068
0.984	73.078	-3.0936e+05	2979.8	0.090182	-0.28138	0.98049
0.986	73.051	-3.0936e+05	2979.6	0.08989	-0.2808	0.98029
0.988	73.03	-3.0936e+05	2979.4	0.089597	-0.28021	0.9801
0.99	73.014	-3.0937e+05	2979.2	0.089304	-0.27962	0.9799
0.992	73.064	-3.0938e+05	2979	0.090573	-0.28128	0.97981
0.994	73.183	-3.0939e+05	2978.9	0.091842	-0.28294	0.97971
0.996	73.23	-3.0939e+05	2978.8	0.09311	-0.2846	0.97961
0.998	73.172	-3.0939e+05	2978.6	0.094379	-0.28626	0.97951
1	73.144	-3.0939e+05	2978.4	0.095648	-0.28792	0.97942
1.002	73.137	-3.0939e+05	2978.3	0.0976	-0.28665	0.97893
1.004	73.104	-3.094e+05	2978.2	0.099552	-0.28538	0.97844
1.006	73.077	-3.094e+05	2978.1	0.1015	-0.28411	0.97795
1.008	73.09	-3.094e+05	2978.2	0.10346	-0.28284	0.97746
1.01	73.11	-3.094e+05	2978.2	0.10541	-0.28158	0.97698
1.012	73.073	-3.094e+05	2978.5	0.10512	-0.28158	0.97659
1.014	73.055	-3.0941e+05	2978.7	0.10482	-0.28158	0.9762
1.016	73.072	-3.0942e+05	2979.2	0.10453	-0.28158	0.9758
1.018	73.104	-3.0942e+05	2979.8	0.10424	-0.28158	0.97541
1.02	73.079	-3.0943e+05	2980.4	0.10394	-0.28158	0.97502
1.022	73.072	-3.0943e+05	2981.5	0.10385	-0.28128	0.97561
1.024	73.076	-3.0943e+05	2982.6	0.10375	-0.28099	0.9762
1.026	73.098	-3.0943e+05	2984	0.10365	-0.2807	0.97678
1.028	73.118	-3.0943e+05	2985.6	0.10355	-0.2804	0.97737
1.03	73.067	-3.0943e+05	2987.1	0.10346	-0.28011	0.97795
1.032	73.059	-3.0944e+05	2989.1	0.1016	-0.27962	0.97844
1.034	73.05	-3.0944e+05	2991.1	0.099747	-0.27914	0.97893
1.036	73.015	-3.0944e+05	2993.2	0.097893	-0.27865	0.97942
1.038	73.007	-3.0944e+05	2995.3	0.096038	-0.27816	0.9799
1.04	73.02	-3.0945e+05	2997.5	0.094184	-0.27767	0.98039
1.042	73.007	-3.0945e+05	2999.7	0.092818	-0.27689	0.97971
1.044	72.972	-3.0945e+05	3001.9	0.091451	-0.27611	0.97903
1.046	72.977	-3.0945e+05	3004.1	0.090085	-0.27533	0.97834
1.048	73.029	-3.0946e+05	3006.3	0.088718	-0.27455	0.97766
1.05	73.067	-3.0946e+05	3008.4	0.087352	-0.27377	0.97698
1.052	73.108	-3.0946e+05	3010.3	0.090378	-0.27572	0.9761
1.054	73.106	-3.0947e+05	3012.2	0.093403	-0.27767	0.97522
1.056	73.063	-3.0947e+05	3014	0.096429	-0.27962	0.97434
1.058	73	-3.0947e+05	3015.7	0.099454	-0.28158	0.97346
1.06	72.926	-3.0947e+05	3017.5	0.10248	-0.28353	0.97258
1.062	72.886	-3.0947e+05	3019	0.10111	-0.28343	0.97415
1.064	72.924	-3.0947e+05	3020.5	0.099747	-0.28333	0.97571
1.066	72.969	-3.0947e+05	3021.9	0.098381	-0.28324	0.97727
1.068	72.982	-3.0947e+05	3023.3	0.097014	-0.28314	0.97883
1.07	72.995	-3.0947e+05	3024.7	0.095648	-0.28304	0.98039
1.072	73.022	-3.0947e+05	3026	0.095062	-0.28138	0.98049
1.074	73.025	-3.0946e+05	3027.2	0.094477	-0.27972	0.98059
1.076	72.989	-3.0946e+05	3028.4	0.093891	-0.27806	0.98068
1.078	72.962	-3.0946e+05	3029.6	0.093306	-0.2764	0.98078
1.08	72.956	-3.0946e+05	3030.8	0.09272	-0.27474	0.98088
1.082	72.952	-3.0946e+05	3031.9	0.093306	-0.27552	0.9802
1.084	72.924	-3.0945e+05	3032.9	0.093891	-0.27631	0.97951
1.086	72.907	-3.0945e+05	3033.9	0.094477	-0.27709	0.97883
1.088	72.907	-3.0945e+05	3034.9	0.095062	-0.27787	0.97815
1.09	72.897	-3.0944e+05	3035.8	0.095648	-0.27865	0.97746
1.092	72.923	-3.0944e+05	3036.9	0.094965	-0.27777	0.97746
1.094	72.988	-3.0944e+05	3037.9	0.094282	-0.27689	0.97746
1.096	72.984	-3.0944e+05	3038.9	0.093598	-0.27601	0.97746
1.098	72.948	-3.0944e+05	3039.9	0.092915	-0.27513	0.97746
1.1	72.946	-3.0945e+05	3040.8	0.092232	-0.27426	0.97746
1.102	72.932	-3.0944e+05	3041.6	0.091451	-0.27396	0.97727
1.104	72.879	-3.0944e+05	3042.3	0.09067	-0.27367	0.97707
1.106	72.834	-3.0943e+05	3043	0.08989	-0.27338	0.97688
1.108	72.807	-3.0943e+05	3043.8	0.089109	-0.27308	0.97668
1.11	72.903	-3.0943e+05	3044.5	0.088328	-0.27279	0.97649
1.112	72.968	-3.0943e+05	3045.1	0.089597	-0.27318	0.97639
1.114	72.957	-3.0942e+05	3045.8	0.090866	-0.27357	0.97629
1.116	72.966	-3.0942e+05	3046.4	0.092134	-0.27396	0.9762
1.118	72.955	-3.0941e+05	3047	0.093403	-0.27435	0.9761
1.12	72.961	-3.0941e+05	3047.6	0.094672	-0.27474	0.976
1.122	72.978	-3.0941e+05	3048.1	0.094379	-0.27474	0.97571
1.124	72.988	-3.0942e+05	3048.5	0.094086	-0.27474	0.97541
1.126	72.992	-3.0941e+05	3049	0.093794	-0.27474	0.97512
1.128	72.966	-3.0941e+05	3049.6	0.093501	-0.27474	0.97483
1.13	72.976	-3.094e+05	3050.1	0.093208	-0.27474	0.97454
1.132	72.989	-3.0939e+05	3050.5	0.093794	-0.27523	0.97532
1.134	73.036	-3.0938e+05	3050.9	0.094379	-0.27572	0.9761
1.136	73.067	-3.0938e+05	3051.4	0.094965	-0.27621	0.97688
1.138	73.033	-3.0937e+05	3051.8	0.09555	-0.2767	0.97766
1.14	73	-3.0937e+05	3052.2	0.096136	-0.27718	0.97844
1.142	73.027	-3.0937e+05	3052.5	0.096722	-0.27757	0.97766
1.144	73.034	-3.0937e+05	3052.8	0.097307	-0.27796	0.97688
1.146	72.982	-3.0936e+05	3053.1	0.097893	-0.27836	0.9761
1.148	72.97	-3.0936e+05	3053.4	0.098478	-0.27875	0.97532
1.15	73.029	-3.0935e+05	3053.7	0.099064	-0.27914	0.97454
1.152	73.097	-3.0935e+05	3054	0.098966	-0.27962	0.97395
1.154	73.114	-3.0935e+05	3054.4	0.098869	-0.28011	0.97336
1.156	73.091	-3.0934e+05	3054.7	0.098771	-0.2806	0.97278
1.158	73.062	-3.0934e+05	3054.9	0.098674	-0.28109	0.97219
1.16	73.032	-3.0934e+05	3055.2	0.098576	-0.28158	0.97161
1.162	73.028	-3.0934e+05	3055.5	0.098381	-0.28128	0.97141
1.164	73.03	-3.0934e+05	3055.7	0.098186	-0.28099	0.97122
1.166	73.011	-3.0933e+05	3055.9	0.09799	-0.2807	0.97102
1.168	73.042	-3.0932e+05	3056	0.097795	-0.2804	0.97083
1.17	73.08	-3.0932e+05	3056.1	0.0976	-0.28011	0.97063
1.172	73.088	-3.0931e+05	3056.2	0.097698	-0.2806	0.97073
1.174	73.103	-3.0931e+05	3056.2	0.097795	-0.28109	0.97083
1.176	73.128	-3.0931e+05	3056.3	0.097893	-0.28158	0.97092
1.178	73.1	-3.093e+05	3056.3	0.09799	-0.28206	0.97102
1.18	73.069	-3.0929e+05	3056.3	0.098088	-0.28255	0.97112
1.182	73.066	-3.0929e+05	3056.3	0.09799	-0.28167	0.972
1.184	73.066	-3.0929e+05	3056.3	0.097893	-0.2808	0.97288
1.186	73.034	-3.0928e+05	3056.4	0.097795	-0.27992	0.97376
1.188	73.07	-3.0928e+05	3056.4	0.097698	-0.27904	0.97463
1.19	73.104	-3.0928e+05	3056.5	0.0976	-0.27816	0.97551
1.192	73.083	-3.0927e+05	3056.4	0.095941	-0.27738	0.97639
1.194	73.028	-3.0927e+05	3056.4	0.094282	-0.2766	0.97727
1.196	73.096	-3.0926e+05	3056.4	0.092622	-0.27582	0.97815
1.198	73.13	-3.0925e+05	3056.4	0.090963	-0.27504	0.97903
1.2	73.053	-3.0925e+05	3056.4	0.089304	-0.27426	0.9799
1.202	73.074	-3.0925e+05	3056.4	0.08989	-0.27435	0.97942
1.204	73.06	-3.0925e+05	3056.4	0.090475	-0.27445	0.97893
1.206	73.013	-3.0924e+05	3056.4	0.091061	-0.27455	0.97844
1.208	73.059	-3.0924e+05	3056.4	0.091646	-0.27465	0.97795
1.21	73.097	-3.0923e+05	3056.4	0.092232	-0.27474	0.97746
1.212	73.066	-3.0923e+05	3056.3	0.092232	-0.27416	0.97688
1.214	73.07	-3.0923e+05	3056.2	0.092232	-0.27357	0.97629
1.216	73.081	-3.0922e+05	3056	0.092232	-0.27299	0.97571
1.218	73.077	-3.0922e+05	3055.9	0.092232	-0.2724	0.97512
1.22	73.073	-3.0922e+05	3055.8	0.092232	-0.27182	0.97454
1.222	73.079	-3.0922e+05	3055.6	0.092232	-0.27201	0.97493
1.224	73.064	-3.0921e+05	3055.5	0.092232	-0.27221	0.97532
1.226	73.071	-3.0921e+05	3055.3	0.092232	-0.2724	0.97571
1.228	73.112	-3.0921e+05	3055	0.092232	-0.2726	0.9761
1.23	73.111	-3.0921e+05	3054.8	0.092232	-0.27279	0.97649
1.232	73.118	-3.092e+05	3054.5	0.092134	-0.27299	0.97698
1.234	73.115	-3.092e+05	3054.2	0.092037	-0.27318	0.97746
1.236	73.096	-3.092e+05	3053.9	0.091939	-0.27338	0.97795
1.238	73.076	-3.092e+05	3053.6	0.091842	-0.27357	0.97844
1.24	73.059	-3.0919e+05	3053.2	0.091744	-0.27377	0.97893
1.242	73.061	-3.0919e+05	3052.8	0.091646	-0.27348	0.97834
1.244	73.062	-3.0918e+05	3052.4	0.091549	-0.27318	0.97776
1.246	73.057	-3.0918e+05	3052	0.091451	-0.27289	0.97717
1.248	73.055	-3.0918e+05	3051.5	0.091354	-0.2726	0.97659
1.25	73.035	-3.0918e+05	3051	0.091256	-0.2723	0.976
1.252	73.033	-3.0918e+05	3050.5	0.093501	-0.27338	0.97834
1.254	73.063	-3.0918e+05	3050	0.095746	-0.27445	0.98068
1.256	73.112	-3.0918e+05	3049.5	0.09799	-0.27552	0.98303
1.258	73.136	-3.0918e+05	3049	0.10024	-0.2766	0.98537
1.26	73.108	-3.0917e+05	3048.4	0.10248	-0.27767	0.98771
1.262	73.068	-3.0917e+05	3047.9	0.10131	-0.27845	0.9884
1.264	73.032	-3.0917e+05	3047.3	0.10014	-0.27923	0.98908
1.266	73.036	-3.0917e+05	3046.8	0.098966	-0.28001	0.98976
1.268	73.072	-3.0916e+05	3046.3	0.097795	-0.2808	0.99044
1.27	73.088	-3.0916e+05	3045.8	0.096624	-0.28158	0.99113
1.272	73.065	-3.0916e+05	3045.4	0.096917	-0.28187	0.98957
1.274	73.032	-3.0916e+05	3044.9	0.09721	-0.28216	0.988
1.276	73.071	-3.0916e+05	3044.4	0.097502	-0.28245	0.98644
1.278	73.142	-3.0916e+05	3043.8	0.097795	-0.28275	0.98488
1.28	73.101	-3.0917e+05	3043.3	0.098088	-0.28304	0.98332
1.282	73.05	-3.0917e+05	3042.8	0.0976	-0.28245	0.9841
1.284	73.065	-3.0916e+05	3042.3	0.097112	-0.28187	0.98488
1.286	73.093	-3.0916e+05	3041.8	0.096624	-0.28128	0.98566
1.288	73.076	-3.0916e+05	3041.4	0.096136	-0.2807	0.98644
1.29	73.043	-3.0916e+05	3040.9	0.095648	-0.28011	0.98722
1.292	73.047	-3.0916e+05	3040.5	0.095648	-0.28021	0.98703
1.294	73.084	-3.0916e+05	3040	0.095648	-0.28031	0.98683
1.296	73.157	-3.0916e+05	3039.6	0.095648	-0.2804	0.98664
1.298	73.183	-3.0916e+05	3039.1	0.095648	-0.2805	0.98644
1.3	73.117	-3.0916e+05	3038.7	0.095648	-0.2806	0.98625
1.302	73.049	-3.0916e+05	3038.3	0.098088	-0.28011	0.98674
1.304	73.039	-3.0916e+05	3037.8	0.10053	-0.27962	0.98722
1.306	73.041	-3.0916e+05	3037.4	0.10297	-0.27914	0.98771
1.308	72.999	-3.0916e+05	3036.9	0.10541	-0.27865	0.9882
1.31	72.988	-3.0916e+05	3036.5	0.10785	-0.27816	0.98869
1.312	73.106	-3.0917e+05	3036.1	0.10736	-0.27836	0.98918
1.314	73.191	-3.0917e+05	3035.8	0.10687	-0.27855	0.98966
1.316	73.167	-3.0916e+05	3035.4	0.10638	-0.27875	0.99015
1.318	73.107	-3.0916e+05	3035	0.1059	-0.27894	0.99064
1.32	73.078	-3.0917e+05	3034.7	0.10541	-0.27914	0.99113
1.322	73.079	-3.0917e+05	3034.4	0.1057	-0.27875	0.99103
1.324	73.082	-3.0917e+05	3034.1	0.10599	-0.27836	0.99093
1.326	73.086	-3.0917e+05	3034	0.10629	-0.27796	0.99084
1.328	73.092	-3.0917e+05	3033.9	0.10658	-0.27757	0.99074
1.33	73.071	-3.0917e+05	3033.8	0.10687	-0.27718	0.99064
1.332	73.03	-3.0917e+05	3033.5	0.1056	-0.27816	0.98888
1.334	73.031	-3.0917e+05	3033.3	0.10433	-0.27914	0.98713
1.336	73.102	-3.0916e+05	3033.1	0.10307	-0.28011	0.98537
1.338	73.148	-3.0917e+05	3032.7	0.1018	-0.28109	0.98361
1.34	73.089	-3.0917e+05	3032.3	0.10053	-0.28206	0.98186
1.342	73.04	-3.0918e+05	3032.4	0.10033	-0.28099	0.98205
1.344	73.048	-3.0918e+05	3032.5	0.10014	-0.27992	0.98225
1.346	73.076	-3.0918e+05	3032.5	0.099942	-0.27884	0.98244
1.348	73.098	-3.0918e+05	3032.5	0.099747	-0.27777	0.98264
1.35	73.106	-3.0918e+05	3032.6	0.099552	-0.2767	0.98283
1.352	73.082	-3.0918e+05	3032.4	0.099454	-0.27816	0.98078
1.354	73.076	-3.0918e+05	3032.3	0.099357	-0.27962	0.97873
1.356	73.021	-3.0917e+05	3032.1	0.099259	-0.28109	0.97668
1.358	73.04	-3.0917e+05	3031.9	0.099162	-0.28255	0.97463
1.36	73.102	-3.0917e+05	3031.6	0.099064	-0.28402	0.97258
1.362	73.154	-3.0917e+05	3031.5	0.098869	-0.28343	0.97493
1.364	73.106	-3.0917e+05	3031.4	0.098674	-0.28284	0.97727
1.366	73.044	-3.0918e+05	3031.4	0.098478	-0.28226	0.97961
1.368	73.032	-3.0917e+05	3031.4	0.098283	-0.28167	0.98195
1.37	73.112	-3.0917e+05	3031.4	0.098088	-0.28109	0.9843
1.372	73.073	-3.0917e+05	3031.2	0.098869	-0.28148	0.98225
1.374	73.02	-3.0917e+05	3031.1	0.09965	-0.28187	0.9802
1.376	73.048	-3.0918e+05	3030.9	0.10043	-0.28226	0.97815
1.378	73.107	-3.0918e+05	3030.6	0.10121	-0.28265	0.9761
1.38	73.096	-3.0918e+05	3030.4	0.10199	-0.28304	0.97405
1.382	73.112	-3.0918e+05	3030.2	0.10189	-0.28245	0.9758
1.384	73.162	-3.0918e+05	3030	0.1018	-0.28187	0.97756
1.386	73.129	-3.0918e+05	3029.8	0.1017	-0.28128	0.97932
1.388	73.079	-3.0918e+05	3029.5	0.1016	-0.2807	0.98108
1.39	73.057	-3.0919e+05	3029.3	0.1015	-0.28011	0.98283
1.392	73.009	-3.092e+05	3029.1	0.099454	-0.2804	0.98225
1.394	72.981	-3.092e+05	3028.8	0.097405	-0.2807	0.98166
1.396	73.045	-3.0919e+05	3028.6	0.095355	-0.28099	0.98108
1.398	73.119	-3.0918e+05	3028.2	0.093306	-0.28128	0.98049
1.4	73.136	-3.0918e+05	3027.9	0.091256	-0.28158	0.9799
1.402	73.13	-3.0918e+05	3027.6	0.091744	-0.28089	0.98068
1.404	73.13	-3.0918e+05	3027.3	0.092232	-0.28021	0.98147
1.406	73.146	-3.0918e+05	3026.9	0.09272	-0.27953	0.98225
1.408	73.109	-3.0918e+05	3026.6	0.093208	-0.27884	0.98303
1.41	73.08	-3.0919e+05	3026.3	0.093696	-0.27816	0.98381
1.412	73.099	-3.0919e+05	3026	0.093403	-0.27796	0.98186
1.414	73.09	-3.092e+05	3025.7	0.09311	-0.27777	0.9799
1.416	73.071	-3.092e+05	3025.3	0.092818	-0.27757	0.97795
1.418	73.067	-3.092e+05	3025	0.092525	-0.27738	0.976
1.42	73.061	-3.092e+05	3024.6	0.092232	-0.27718	0.97405
1.422	73.072	-3.092e+05	3024.3	0.092037	-0.27875	0.97229
1.424	73.093	-3.092e+05	3023.9	0.091842	-0.28031	0.97053
1.426	73.079	-3.092e+05	3023.5	0.091646	-0.28187	0.96878
1.428	73.041	-3.092e+05	3023.2	0.091451	-0.28343	0.96702
1.43	73.031	-3.092e+05	3022.8	0.091256	-0.28499	0.96526
1.432	73.072	-3.092e+05	3022.5	0.092134	-0.28499	0.96663
1.434	73.086	-3.0921e+05	3022.1	0.093013	-0.28499	0.968
1.436	73.084	-3.092e+05	3021.8	0.093891	-0.28499	0.96936
1.438	73.062	-3.0921e+05	3021.5	0.09477	-0.28499	0.97073
1.44	73.03	-3.0921e+05	3021.2	0.095648	-0.28499	0.9721
1.442	73.01	-3.0921e+05	3020.9	0.096526	-0.28509	0.9718
1.444	72.999	-3.0921e+05	3020.6	0.097405	-0.28519	0.97151
1.446	72.969	-3.0921e+05	3020.3	0.098283	-0.28528	0.97122
1.448	73.02	-3.0921e+05	3020	0.099162	-0.28538	0.97092
1.45	73.084	-3.0921e+05	3019.7	0.10004	-0.28548	0.97063
1.452	73.102	-3.0921e+05	3019.4	0.099845	-0.28568	0.9719
1.454	73.048	-3.0921e+05	3019	0.09965	-0.28587	0.97317
1.456	73.005	-3.0922e+05	3018.7	0.099454	-0.28607	0.97444
1.458	73.007	-3.0922e+05	3018.4	0.099259	-0.28626	0.97571
1.46	73.037	-3.0922e+05	3018.1	0.099064	-0.28646	0.97698
1.462	73.025	-3.0922e+05	3017.8	0.098869	-0.28675	0.97824
1.464	72.951	-3.0922e+05	3017.4	0.098674	-0.28704	0.97951
1.466	72.921	-3.0922e+05	3017.1	0.098478	-0.28733	0.98078
1.468	72.919	-3.0923e+05	3016.7	0.098283	-0.28763	0.98205
1.47	72.963	-3.0923e+05	3016.3	0.098088	-0.28792	0.98332
1.472	73.068	-3.0923e+05	3016	0.097698	-0.28782	0.98273
1.474	73.158	-3.0923e+05	3015.6	0.097307	-0.28772	0.98215
1.476	73.148	-3.0923e+05	3015.3	0.096917	-0.28763	0.98156
1.478	73.123	-3.0924e+05	3014.9	0.096526	-0.28753	0.98098
1.48	73.084	-3.0924e+05	3014.5	0.096136	-0.28743	0.98039
1.482	73.063	-3.0924e+05	3014.1	0.096429	-0.28675	0.9801
1.484	73.082	-3.0924e+05	3013.7	0.096722	-0.28607	0.97981
1.486	73.099	-3.0924e+05	3013.3	0.097014	-0.28538	0.97951
1.488	73.087	-3.0924e+05	3013	0.097307	-0.2847	0.97922
1.49	73.103	-3.0924e+05	3012.6	0.0976	-0.28402	0.97893
1.492	73.181	-3.0924e+05	3012.3	0.098478	-0.28363	0.97873
1.494	73.157	-3.0925e+05	3012	0.099357	-0.28324	0.97854
1.496	73.039	-3.0926e+05	3011.7	0.10024	-0.28284	0.97834
1.498	73.012	-3.0926e+05	3011.4	0.10111	-0.28245	0.97815
1.5	73.062	-3.0926e+05	3011.1	0.10199	-0.28206	0.97795
1.502	73.088	-3.0926e+05	3010.7	0.1016	-0.28167	0.97815
1.504	73.119	-3.0926e+05	3010.3	0.10121	-0.28128	0.97834
1.506	73.187	-3.0926e+05	3010	0.10082	-0.28089	0.97854
1.508	73.22	-3.0926e+05	3009.6	0.10043	-0.2805	0.97873
1.51	73.193	-3.0926e+05	3009.3	0.10004	-0.28011	0.97893
1.512	73.168	-3.0927e+05	3009	0.10131	-0.28001	0.97815
1.514	73.176	-3.0927e+05	3008.7	0.10258	-0.27992	0.97737
1.516	73.149	-3.0928e+05	3008.3	0.10385	-0.27982	0.97659
1.518	73.08	-3.0928e+05	3007.9	0.10512	-0.27972	0.9758
1.52	72.975	-3.0928e+05	3007.5	0.10638	-0.27962	0.97502
1.522	72.971	-3.0928e+05	3007.1	0.1059	-0.27943	0.97639
1.524	73.096	-3.0928e+05	3006.6	0.10541	-0.27923	0.97776
1.526	73.209	-3.0928e+05	3006.2	0.10492	-0.27904	0.97912
1.528	73.221	-3.0928e+05	3005.7	0.10443	-0.27884	0.98049
1.53	73.209	-3.0928e+05	3005.2	0.10394	-0.27865	0.98186
1.532	73.163	-3.0928e+05	3004.8	0.10307	-0.27962	0.98147
1.534	73.112	-3.0929e+05	3004.4	0.10219	-0.2806	0.98108
1.536	73.1	-3.0929e+05	3004	0.10131	-0.28158	0.98068
1.538	73.067	-3.093e+05	3003.6	0.10043	-0.28255	0.98029
1.54	73.034	-3.093e+05	3003.2	0.099552	-0.28353	0.9799
1.542	73.025	-3.093e+05	3002.7	0.1015	-0.28265	0.98147
1.544	73.126	-3.0931e+05	3002.3	0.10346	-0.28177	0.98303
1.546	73.114	-3.0931e+05	3001.9	0.10541	-0.28089	0.98459
1.548	73.058	-3.0931e+05	3001.5	0.10736	-0.28001	0.98615
1.55	72.995	-3.0931e+05	3001.2	0.10931	-0.27914	0.98771
1.552	73.048	-3.0931e+05	3000.8	0.10814	-0.27826	0.98761
1.554	73.157	-3.0932e+05	3000.5	0.10697	-0.27738	0.98752
1.556	73.235	-3.0932e+05	3000.1	0.1058	-0.2765	0.98742
1.558	73.249	-3.0933e+05	2999.8	0.10463	-0.27562	0.98732
1.56	73.199	-3.0933e+05	2999.4	0.10346	-0.27474	0.98722
1.562	73.11	-3.0933e+05	2999.1	0.10287	-0.27592	0.98596
1.564	73.049	-3.0933e+05	2998.8	0.10228	-0.27709	0.98469
1.566	73.047	-3.0933e+05	2998.5	0.1017	-0.27826	0.98342
1.568	73.137	-3.0934e+05	2998.3	0.10111	-0.27943	0.98215
1.57	73.194	-3.0935e+05	2998	0.10053	-0.2806	0.98088
1.572	73.172	-3.0936e+05	2997.6	0.10199	-0.28119	0.97951
1.574	73.121	-3.0936e+05	2997.1	0.10346	-0.28177	0.97815
1.576	73.084	-3.0936e+05	2996.6	0.10492	-0.28236	0.97678
1.578	73.06	-3.0936e+05	2996	0.10638	-0.28294	0.97541
1.58	72.993	-3.0936e+05	2995.3	0.10785	-0.28353	0.97405
1.582	72.9	-3.0937e+05	2994.9	0.10521	-0.28324	0.97483
1.584	72.786	-3.0937e+05	2994.4	0.10258	-0.28294	0.97561
1.586	72.628	-3.0938e+05	2993.9	0.099942	-0.28265	0.97639
1.588	72.451	-3.0938e+05	2993.5	0.097307	-0.28236	0.97717
1.59	72.273	-3.0938e+05	2993.1	0.094672	-0.28206	0.97795
1.592	72.148	-3.0938e+05	2992.7	0.097307	-0.28148	0.97805
1.594	72.118	-3.0938e+05	2992.3	0.099942	-0.28089	0.97815
1.596	72.177	-3.0938e+05	2991.9	0.10258	-0.28031	0.97824
1.598	72.291	-3.0938e+05	2991.6	0.10521	-0.27972	0.97834
1.6	72.461	-3.0939e+05	2991.3	0.10785	-0.27914	0.97844
1.602	72.634	-3.0938e+05	2991	0.10746	-0.27855	0.97864
1.604	72.755	-3.0938e+05	2990.7	0.10707	-0.27796	0.97883
1.606	72.819	-3.0938e+05	2990.3	0.10668	-0.27738	0.97903
1.608	72.849	-3.0938e+05	2989.9	0.10629	-0.27679	0.97922
1.61	72.924	-3.0938e+05	2989.5	0.1059	-0.27621	0.97942
1.612	73.013	-3.0938e+05	2989.1	0.10258	-0.27572	0.97903
1.614	73.119	-3.0938e+05	2988.7	0.099259	-0.27523	0.97864
1.616	73.065	-3.0939e+05	2988.3	0.095941	-0.27474	0.97824
1.618	72.975	-3.0939e+05	2987.9	0.092622	-0.27426	0.97785
1.62	73.018	-3.0939e+05	2987.5	0.089304	-0.27377	0.97746
1.622	73.102	-3.0939e+05	2987.2	0.09272	-0.27348	0.97659
1.624	73.133	-3.094e+05	2986.8	0.096136	-0.27318	0.97571
1.626	73.14	-3.094e+05	2986.4	0.099552	-0.27289	0.97483
1.628	73.125	-3.094e+05	2986	0.10297	-0.2726	0.97395
1.63	73.116	-3.094e+05	2985.7	0.10638	-0.2723	0.97307
1.632	73.12	-3.094e+05	2985.3	0.10551	-0.27348	0.97307
1.634	73.078	-3.0941e+05	2984.9	0.10463	-0.27465	0.97307
1.636	73.057	-3.0941e+05	2984.6	0.10375	-0.27582	0.97307
1.638	73.154	-3.0942e+05	2984.3	0.10287	-0.27699	0.97307
1.64	73.234	-3.0942e+05	2983.9	0.10199	-0.27816	0.97307
1.642	73.234	-3.0942e+05	2983.5	0.10111	-0.27904	0.97356
1.644	73.177	-3.0942e+05	2983.1	0.10024	-0.27992	0.97405
1.646	73.112	-3.0943e+05	2982.7	0.099357	-0.2808	0.97454
1.648	73.062	-3.0943e+05	2982.3	0.098478	-0.28167	0.97502
1.65	73.071	-3.0943e+05	2982	0.0976	-0.28255	0.97551
1.652	73.077	-3.0944e+05	2981.5	0.098088	-0.28255	0.97541
1.654	73.128	-3.0944e+05	2981.1	0.098576	-0.28255	0.97532
1.656	73.212	-3.0944e+05	2980.7	0.099064	-0.28255	0.97522
1.658	73.166	-3.0945e+05	2980.3	0.099552	-0.28255	0.97512
1.66	73.09	-3.0945e+05	2979.8	0.10004	-0.28255	0.97502
1.662	73.121	-3.0945e+05	2979.4	0.099747	-0.28275	0.9758
1.664	73.145	-3.0946e+05	2979.1	0.099454	-0.28294	0.97659
1.666	73.111	-3.0946e+05	2978.6	0.099162	-0.28314	0.97737
1.668	73.08	-3.0946e+05	2978.2	0.098869	-0.28333	0.97815
1.67	73.114	-3.0946e+05	2977.7	0.098576	-0.28353	0.97893
1.672	73.168	-3.0946e+05	2977.3	0.098186	-0.28382	0.97834
1.674	73.11	-3.0946e+05	2976.9	0.097795	-0.28411	0.97776
1.676	73.008	-3.0946e+05	2976.5	0.097405	-0.28441	0.97717
1.678	73.036	-3.0946e+05	2976.1	0.097014	-0.2847	0.97659
1.68	73.158	-3.0947e+05	2975.7	0.096624	-0.28499	0.976
1.682	73.186	-3.0947e+05	2975.2	0.096234	-0.28431	0.97688
1.684	73.12	-3.0948e+05	2974.8	0.095843	-0.28363	0.97776
1.686	73.104	-3.0948e+05	2974.3	0.095453	-0.28294	0.97864
1.688	73.08	-3.0948e+05	2973.9	0.095062	-0.28226	0.97951
1.69	73.059	-3.0948e+05	2973.4	0.094672	-0.28158	0.98039
1.692	73.123	-3.0948e+05	2973	0.094867	-0.28187	0.9799
1.694	73.162	-3.0948e+05	2972.6	0.095062	-0.28216	0.97942
1.696	73.183	-3.0949e+05	2972.1	0.095258	-0.28245	0.97893
1.698	73.188	-3.0949e+05	2971.7	0.095453	-0.28275	0.97844
1.7	73.147	-3.095e+05	2971.3	0.095648	-0.28304	0.97795
1.702	73.096	-3.095e+05	2970.9	0.097112	-0.28187	0.97932
1.704	73.061	-3.0951e+05	2970.5	0.098576	-0.2807	0.98068
1.706	73.096	-3.0951e+05	2970.2	0.10004	-0.27953	0.98205
1.708	73.13	-3.0951e+05	2969.9	0.1015	-0.27836	0.98342
1.71	73.084	-3.0952e+05	2969.5	0.10297	-0.27718	0.98478
1.712	73.053	-3.0952e+05	2969.2	0.10258	-0.27767	0.98596
1.714	73.02	-3.0952e+05	2968.9	0.10219	-0.27816	0.98713
1.716	73.03	-3.0952e+05	2968.5	0.1018	-0.27865	0.9883
1.718	73.052	-3.0952e+05	2968.2	0.10141	-0.27914	0.98947
1.72	73.116	-3.0952e+05	2967.8	0.10102	-0.27962	0.99064
1.722	73.147	-3.0952e+05	2967.5	0.10297	-0.27894	0.98996
1.724	73.146	-3.0952e+05	2967.3	0.10492	-0.27826	0.98927
1.726	73.148	-3.0953e+05	2967	0.10687	-0.27757	0.98859
1.728	73.095	-3.0953e+05	2966.7	0.10882	-0.27689	0.98791
1.73	73.051	-3.0953e+05	2966.5	0.11078	-0.27621	0.98722
1.732	73.023	-3.0953e+05	2966.2	0.10941	-0.27611	0.98713
1.734	73.032	-3.0954e+05	2966	0.10804	-0.27601	0.98703
1.736	73.12	-3.0954e+05	2965.7	0.10668	-0.27592	0.98693
1.738	73.171	-3.0955e+05	2965.5	0.10531	-0.27582	0.98683
1.74	73.131	-3.0954e+05	2965.2	0.10394	-0.27572	0.98674
1.742	73.107	-3.0955e+05	2965	0.10502	-0.27631	0.98644
1.744	73.101	-3.0955e+05	2964.8	0.10609	-0.27689	0.98615
1.746	73.101	-3.0956e+05	2964.6	0.10716	-0.27748	0.98586
1.748	73.09	-3.0956e+05	2964.5	0.10824	-0.27806	0.98556
1.75	73.053	-3.0956e+05	2964.5	0.10931	-0.27865	0.98527
1.752	73.052	-3.0957e+05	2964.5	0.10921	-0.27855	0.98576
1.754	73.088	-3.0957e+05	2964.6	0.10912	-0.27845	0.98625
1.756	73.092	-3.0957e+05	2964.8	0.10902	-0.27836	0.98674
1.758	73.069	-3.0957e+05	2965.2	0.10892	-0.27826	0.98722
1.76	73.041	-3.0957e+05	2965.6	0.10882	-0.27816	0.98771
1.762	73.02	-3.0957e+05	2966.4	0.10716	-0.27816	0.98674
1.764	73.047	-3.0957e+05	2967.1	0.10551	-0.27816	0.98576
1.766	73.099	-3.0957e+05	2968.2	0.10385	-0.27816	0.98478
1.768	73.104	-3.0958e+05	2969.5	0.10219	-0.27816	0.98381
1.77	73.066	-3.0958e+05	2970.9	0.10053	-0.27816	0.98283
1.772	73.054	-3.0959e+05	2972.7	0.10092	-0.27875	0.98225
1.774	73.031	-3.0959e+05	2974.6	0.10131	-0.27933	0.98166
1.776	73.016	-3.0959e+05	2976.6	0.1017	-0.27992	0.98108
1.778	73.003	-3.096e+05	2978.9	0.10209	-0.2805	0.98049
1.78	72.937	-3.096e+05	2981.1	0.10248	-0.28109	0.9799
1.782	72.935	-3.096e+05	2983.5	0.10453	-0.28021	0.97893
1.784	72.996	-3.0961e+05	2986	0.10658	-0.27933	0.97795
1.786	73.063	-3.0961e+05	2988.4	0.10863	-0.27845	0.97698
1.788	73.128	-3.0961e+05	2990.9	0.11068	-0.27757	0.976
1.79	73.058	-3.0962e+05	2993.3	0.11273	-0.2767	0.97502
1.792	73.027	-3.0962e+05	2995.6	0.11419	-0.27523	0.97385
1.794	72.994	-3.0962e+05	2997.9	0.11566	-0.27377	0.97268
1.796	73	-3.0962e+05	3000	0.11712	-0.2723	0.97151
1.798	72.995	-3.0962e+05	3002.1	0.11858	-0.27084	0.97034
1.8	72.994	-3.0962e+05	3004.1	0.12005	-0.26938	0.96917
1.802	72.941	-3.0962e+05	3006	0.11966	-0.27016	0.96985
1.804	72.898	-3.0963e+05	3007.8	0.11927	-0.27094	0.97053
1.806	72.898	-3.0963e+05	3009.5	0.11888	-0.27172	0.97122
1.808	72.99	-3.0963e+05	3011.2	0.11849	-0.2725	0.9719
1.81	73.067	-3.0963e+05	3012.9	0.1181	-0.27328	0.97258
1.812	73.047	-3.0963e+05	3014.3	0.11712	-0.27504	0.97307
1.814	72.993	-3.0963e+05	3015.8	0.11614	-0.27679	0.97356
1.816	72.982	-3.0963e+05	3017.1	0.11517	-0.27855	0.97405
1.818	72.974	-3.0962e+05	3018.4	0.11419	-0.28031	0.97454
1.82	72.922	-3.0962e+05	3019.7	0.11322	-0.28206	0.97502
1.822	72.904	-3.0963e+05	3020.8	0.11312	-0.28206	0.97493
1.824	72.936	-3.0963e+05	3022	0.11302	-0.28206	0.97483
1.826	72.911	-3.0962e+05	3023.1	0.11292	-0.28206	0.97473
1.828	72.852	-3.0961e+05	3024.1	0.11283	-0.28206	0.97463
1.83	72.877	-3.0961e+05	3025.2	0.11273	-0.28206	0.97454
1.832	72.95	-3.0961e+05	3026.2	0.11	-0.28255	0.9758
1.834	72.951	-3.0961e+05	3027.2	0.10726	-0.28304	0.97707
1.836	72.887	-3.0961e+05	3028.2	0.10453	-0.28353	0.97834
1.838	72.857	-3.0961e+05	3029.2	0.1018	-0.28402	0.97961
1.84	72.878	-3.0961e+05	3030.1	0.099064	-0.2845	0.98088
1.842	72.911	-3.0961e+05	3031	0.099552	-0.28275	0.98156
1.844	72.931	-3.096e+05	3031.9	0.10004	-0.28099	0.98225
1.846	72.919	-3.096e+05	3032.7	0.10053	-0.27923	0.98293
1.848	72.904	-3.096e+05	3033.5	0.10102	-0.27748	0.98361
1.85	72.931	-3.096e+05	3034.3	0.1015	-0.27572	0.9843
1.852	72.956	-3.096e+05	3035	0.099845	-0.2766	0.98332
1.854	72.925	-3.096e+05	3035.7	0.098186	-0.27748	0.98234
1.856	72.897	-3.0959e+05	3036.3	0.096526	-0.27836	0.98137
1.858	72.916	-3.0958e+05	3037	0.094867	-0.27923	0.98039
1.86	72.954	-3.0958e+05	3037.6	0.093208	-0.28011	0.97942
1.862	72.992	-3.0958e+05	3038.2	0.09477	-0.28021	0.97893
1.864	72.998	-3.0957e+05	3038.8	0.096331	-0.28031	0.97844
1.866	73.019	-3.0957e+05	3039.3	0.097893	-0.2804	0.97795
1.868	72.982	-3.0957e+05	3039.7	0.099454	-0.2805	0.97746
1.87	72.906	-3.0957e+05	3040.1	0.10102	-0.2806	0.97698
1.872	72.879	-3.0957e+05	3040.4	0.10228	-0.27943	0.97678
1.874	72.94	-3.0956e+05	3040.7	0.10355	-0.27826	0.97659
1.876	73.018	-3.0955e+05	3041	0.10482	-0.27709	0.97639
1.878	73.072	-3.0955e+05	3041.3	0.10609	-0.27592	0.9762
1.88	73.076	-3.0956e+05	3041.6	0.10736	-0.27474	0.976
1.882	73.015	-3.0955e+05	3041.9	0.10687	-0.27494	0.9761
1.884	72.966	-3.0954e+05	3042.2	0.10638	-0.27513	0.9762
1.886	72.997	-3.0953e+05	3042.4	0.1059	-0.27533	0.97629
1.888	73.036	-3.0953e+05	3042.7	0.10541	-0.27552	0.97639
1.89	73.063	-3.0953e+05	3043	0.10492	-0.27572	0.97649
1.892	73.024	-3.0953e+05	3043.1	0.10404	-0.27513	0.97688
1.894	73.04	-3.0953e+05	3043.3	0.10316	-0.27455	0.97727
1.896	73.061	-3.0952e+05	3043.5	0.10228	-0.27396	0.97766
1.898	72.996	-3.0952e+05	3043.7	0.10141	-0.27338	0.97805
1.9	72.948	-3.0951e+05	3043.9	0.10053	-0.27279	0.97844
1.902	72.981	-3.0951e+05	3044	0.099454	-0.27426	0.97883
1.904	73.085	-3.0951e+05	3044.2	0.098381	-0.27572	0.97922
1.906	73.104	-3.0951e+05	3044.3	0.097307	-0.27718	0.97961
1.908	73.119	-3.0951e+05	3044.4	0.096234	-0.27865	0.98
1.91	73.131	-3.095e+05	3044.5	0.09516	-0.28011	0.98039
1.912	73.108	-3.095e+05	3044.5	0.09516	-0.27972	0.98049
1.914	73.081	-3.0949e+05	3044.6	0.09516	-0.27933	0.98059
1.916	73.086	-3.0949e+05	3044.7	0.09516	-0.27894	0.98068
1.918	73.122	-3.0948e+05	3044.8	0.09516	-0.27855	0.98078
1.92	73.095	-3.0948e+05	3044.8	0.09516	-0.27816	0.98088
1.922	73.044	-3.0948e+05	3044.8	0.09516	-0.27943	0.9802
1.924	73.033	-3.0948e+05	3044.9	0.09516	-0.2807	0.97951
1.926	73.043	-3.0948e+05	3044.8	0.09516	-0.28197	0.97883
1.928	73.085	-3.0948e+05	3044.8	0.09516	-0.28324	0.97815
1.93	73.119	-3.0947e+05	3044.7	0.09516	-0.2845	0.97746
1.932	73.097	-3.0945e+05	3044.7	0.094965	-0.28343	0.97883
1.934	73.05	-3.0945e+05	3044.7	0.09477	-0.28236	0.9802
1.936	73.031	-3.0945e+05	3044.7	0.094574	-0.28128	0.98156
1.938	73.037	-3.0946e+05	3044.7	0.094379	-0.28021	0.98293
1.94	73.012	-3.0946e+05	3044.6	0.094184	-0.27914	0.9843
1.942	73.016	-3.0945e+05	3044.7	0.097112	-0.27855	0.98566
1.944	73.062	-3.0944e+05	3044.7	0.10004	-0.27796	0.98703
1.946	73.072	-3.0944e+05	3044.7	0.10297	-0.27738	0.9884
1.948	73.025	-3.0944e+05	3044.7	0.1059	-0.27679	0.98976
1.95	73.005	-3.0943e+05	3044.8	0.10882	-0.27621	0.99113
1.952	73.057	-3.0942e+05	3044.8	0.10921	-0.27679	0.98996
1.954	73.133	-3.0942e+05	3044.9	0.1096	-0.27738	0.98879
1.956	73.142	-3.0943e+05	3044.9	0.11	-0.27796	0.98761
1.958	73.121	-3.0943e+05	3044.9	0.11039	-0.27855	0.98644
1.96	73.108	-3.0942e+05	3044.9	0.11078	-0.27914	0.98527
1.962	73.085	-3.0941e+05	3044.9	0.10902	-0.27787	0.98478
1.964	73.084	-3.0941e+05	3044.8	0.10726	-0.2766	0.9843
1.966	73.083	-3.0941e+05	3044.7	0.10551	-0.27533	0.98381
1.968	73.05	-3.094e+05	3044.5	0.10375	-0.27406	0.98332
1.97	73.007	-3.094e+05	3044.4	0.10199	-0.27279	0.98283
1.972	73.023	-3.094e+05	3044.1	0.10238	-0.27289	0.98215
1.974	73.026	-3.094e+05	3043.9	0.10277	-0.27299	0.98147
1.976	72.983	-3.094e+05	3043.6	0.10316	-0.27308	0.98078
1.978	72.954	-3.0939e+05	3043.2	0.10355	-0.27318	0.9801
1.98	73.118	-3.0939e+05	3042.9	0.10394	-0.27328	0.97942
1.982	73.2	-3.0939e+05	3042.5	0.10453	-0.27348	0.97951
1.984	73.139	-3.0938e+05	3042	0.10512	-0.27367	0.97961
1.986	73.062	-3.0938e+05	3041.6	0.1057	-0.27387	0.97971
1.988	73.049	-3.0938e+05	3041.1	0.10629	-0.27406	0.97981
1.99	73.076	-3.0937e+05	3040.6	0.10687	-0.27426	0.9799
1.992	73.025	-3.0937e+05	3040.1	0.10746	-0.27484	0.97981
1.994	72.96	-3.0937e+05	3039.7	0.10804	-0.27543	0.97971
1.996	73.022	-3.0937e+05	3039.2	0.10863	-0.27601	0.97961
1.998	73.108	-3.0937e+05	3038.6	0.10921	-0.2766	0.97951
2	73.113	-3.0936e+05	3038.1	0.1098	-0.27718	0.97942
2.002	73.091	-3.0936e+05	3037.6	0.10902	-0.27513	0.97912
2.004	73.071	-3.0936e+05	3037.1	0.10824	-0.27308	0.97883
2.006	73.083	-3.0936e+05	3036.6	0.10746	-0.27104	0.97854
2.008	73.097	-3.0937e+05	3036.1	0.10668	-0.26899	0.97824
2.01	73.079	-3.0937e+05	3035.7	0.1059	-0.26694	0.97795
2.012	73.073	-3.0936e+05	3035.2	0.10658	-0.2686	0.97854
2.014	73.059	-3.0936e+05	3034.7	0.10726	-0.27025	0.97912
2.016	73.012	-3.0936e+05	3034.2	0.10795	-0.27191	0.97971
2.018	73.001	-3.0936e+05	3033.7	0.10863	-0.27357	0.98029
2.02	73.06	-3.0936e+05	3033.2	0.10931	-0.27523	0.98088
2.022	73.103	-3.0936e+05	3032.8	0.10795	-0.27494	0.98039
2.024	73.067	-3.0936e+05	3032.3	0.10658	-0.27465	0.9799
2.026	73.063	-3.0936e+05	3031.9	0.10521	-0.27435	0.97942
2.028	73.091	-3.0936e+05	3031.5	0.10385	-0.27406	0.97893
2.03	73.074	-3.0935e+05	3031	0.10248	-0.27377	0.97844
2.032	73.014	-3.0935e+05	3030.7	0.10277	-0.27406	0.97903
2.034	72.982	-3.0936e+05	3030.3	0.10307	-0.27435	0.97961
2.036	73.073	-3.0936e+05	3029.9	0.10336	-0.27465	0.9802
2.038	73.105	-3.0936e+05	3029.5	0.10365	-0.27494	0.98078
2.04	73.078	-3.0936e+05	3029.1	0.10394	-0.27523	0.98137
2.042	73.07	-3.0936e+05	3028.8	0.10521	-0.27601	0.98108
2.044	73.046	-3.0936e+05	3028.4	0.10648	-0.27679	0.98078
2.046	73.032	-3.0936e+05	3028	0.10775	-0.27757	0.98049
2.048	73.03	-3.0936e+05	3027.7	0.10902	-0.27836	0.9802
2.05	73.066	-3.0936e+05	3027.3	0.11029	-0.27914	0.9799
2.052	73.061	-3.0936e+05	3027	0.1099	-0.27914	0.98029
2.054	73.027	-3.0936e+05	3026.6	0.10951	-0.27914	0.98068
2.056	73.042	-3.0936e+05	3026.3	0.10912	-0.27914	0.98108
2.058	73.103	-3.0936e+05	3026	0.10873	-0.27914	0.98147
2.06	73.135	-3.0936e+05	3025.7	0.10834	-0.27914	0.98186
2.062	73.12	-3.0936e+05	3025.4	0.10853	-0.28001	0.98176
2.064	73.081	-3.0937e+05	3025.1	0.10873	-0.28089	0.98166
2.066	73.047	-3.0937e+05	3024.9	0.10892	-0.28177	0.98156
2.068	73.025	-3.0937e+05	3024.7	0.10912	-0.28265	0.98147
2.07	73.047	-3.0936e+05	3024.4	0.10931	-0.28353	0.98137
2.072	73.079	-3.0936e+05	3024.3	0.11058	-0.28284	0.98
2.074	73.112	-3.0936e+05	3024.1	0.11185	-0.28216	0.97864
2.076	73.091	-3.0936e+05	3024	0.11312	-0.28148	0.97727
2.078	73.066	-3.0936e+05	3023.8	0.11439	-0.2808	0.9759
2.08	73.066	-3.0936e+05	3023.7	0.11566	-0.28011	0.97454
2.082	73.03	-3.0937e+05	3023.5	0.114	-0.2805	0.97532
2.084	73.065	-3.0937e+05	3023.3	0.11234	-0.28089	0.9761
2.086	73.133	-3.0937e+05	3023.2	0.11068	-0.28128	0.97688
2.088	73.115	-3.0937e+05	3023	0.10902	-0.28167	0.97766
2.09	73.073	-3.0937e+05	3022.8	0.10736	-0.28206	0.97844
2.092	73.038	-3.0937e+05	3022.6	0.10814	-0.28177	0.97824
2.094	73.015	-3.0937e+05	3022.4	0.10892	-0.28148	0.97805
2.096	73.022	-3.0937e+05	3022.2	0.1097	-0.28119	0.97785
2.098	73.045	-3.0937e+05	3021.9	0.11048	-0.28089	0.97766
2.1	73.075	-3.0938e+05	3021.7	0.11126	-0.2806	0.97746
2.102	73.094	-3.0938e+05	3021.6	0.10873	-0.2806	0.97864
2.104	73.08	-3.0938e+05	3021.4	0.10619	-0.2806	0.97981
2.106	73.043	-3.0938e+05	3021.2	0.10365	-0.2806	0.98098
2.108	73.043	-3.0938e+05	3020.9	0.10111	-0.2806	0.98215
2.11	73.041	-3.0937e+05	3020.6	0.098576	-0.2806	0.98332
2.112	73.028	-3.0938e+05	3020.4	0.098966	-0.28011	0.98303
2.114	73.061	-3.0937e+05	3020.1	0.099357	-0.27962	0.98273
2.116	73.107	-3.0937e+05	3019.9	0.099747	-0.27914	0.98244
2.118	73.061	-3.0937e+05	3019.7	0.10014	-0.27865	0.98215
2.12	72.99	-3.0937e+05	3019.5	0.10053	-0.27816	0.98186
2.122	73.007	-3.0937e+05	3019.3	0.099845	-0.27884	0.98186
2.124	73.031	-3.0937e+05	3019.1	0.099162	-0.27953	0.98186
2.126	73.02	-3.0938e+05	3018.9	0.098478	-0.28021	0.98186
2.128	72.973	-3.0938e+05	3018.8	0.097795	-0.28089	0.98186
2.13	72.94	-3.0938e+05	3018.7	0.097112	-0.28158	0.98186
2.132	72.974	-3.0938e+05	3018.6	0.098381	-0.2804	0.98068
2.134	73.068	-3.0938e+05	3018.6	0.09965	-0.27923	0.97951
2.136	73.102	-3.0938e+05	3018.5	0.10092	-0.27806	0.97834
2.138	73.019	-3.0938e+05	3018.5	0.10219	-0.27689	0.97717
2.14	73.005	-3.0939e+05	3018.4	0.10346	-0.27572	0.976
2.142	72.95	-3.0939e+05	3018.2	0.10512	-0.27679	0.97561
2.144	72.899	-3.0939e+05	3018	0.10677	-0.27787	0.97522
2.146	72.978	-3.0939e+05	3017.9	0.10843	-0.27894	0.97483
2.148	73.073	-3.094e+05	3017.7	0.11009	-0.28001	0.97444
2.15	73.036	-3.094e+05	3017.5	0.11175	-0.28109	0.97405
2.152	72.955	-3.094e+05	3017.2	0.11224	-0.28128	0.97356
2.154	73.004	-3.094e+05	3016.9	0.11273	-0.28148	0.97307
2.156	73.08	-3.094e+05	3016.6	0.11322	-0.28167	0.97258
2.158	73.076	-3.094e+05	3016.3	0.1137	-0.28187	0.9721
2.16	73.013	-3.0941e+05	3016	0.11419	-0.28206	0.97161
2.162	73.015	-3.0941e+05	3015.7	0.11488	-0.2806	0.9721
2.164	73.099	-3.094e+05	3015.3	0.11556	-0.27914	0.97258
2.166	73.131	-3.094e+05	3015	0.11624	-0.27767	0.97307
2.168	73.106	-3.0941e+05	3014.5	0.11692	-0.27621	0.97356
2.17	73.09	-3.0941e+05	3014.1	0.11761	-0.27474	0.97405
2.172	73.044	-3.094e+05	3013.7	0.11663	-0.27504	0.97415
2.174	72.974	-3.094e+05	3013.3	0.11566	-0.27533	0.97424
2.176	72.936	-3.0941e+05	3013	0.11468	-0.27562	0.97434
2.178	72.979	-3.0942e+05	3012.6	0.1137	-0.27592	0.97444
2.18	73.072	-3.0942e+05	3012.2	0.11273	-0.27621	0.97454
2.182	73.145	-3.0942e+05	3011.8	0.11253	-0.27728	0.97454
2.184	73.166	-3.0941e+05	3011.4	0.11234	-0.27836	0.97454
2.186	73.127	-3.0942e+05	3011	0.11214	-0.27943	0.97454
2.188	73.088	-3.0942e+05	3010.6	0.11195	-0.2805	0.97454
2.19	73.076	-3.0942e+05	3010.2	0.11175	-0.28158	0.97454
2.192	73.033	-3.0942e+05	3009.9	0.10941	-0.2804	0.97541
2.194	72.969	-3.0942e+05	3009.5	0.10707	-0.27923	0.97629
2.196	72.939	-3.0942e+05	3009.2	0.10472	-0.27806	0.97717
2.198	72.973	-3.0942e+05	3008.9	0.10238	-0.27689	0.97805
2.2	73.079	-3.0943e+05	3008.6	0.10004	-0.27572	0.97893
2.202	73.237	-3.0943e+05	3008.2	0.099552	-0.27621	0.97903
2.204	73.202	-3.0943e+05	3007.8	0.099064	-0.2767	0.97912
2.206	73.119	-3.0943e+05	3007.5	0.098576	-0.27718	0.97922
2.208	73.054	-3.0943e+05	3007.1	0.098088	-0.27767	0.97932
2.21	73.077	-3.0943e+05	3006.8	0.0976	-0.27816	0.97942
2.212	73.052	-3.0943e+05	3006.5	0.098381	-0.27806	0.97932
2.214	73.061	-3.0943e+05	3006.2	0.099162	-0.27796	0.97922
2.216	73.152	-3.0943e+05	3005.8	0.099942	-0.27787	0.97912
2.218	73.159	-3.0944e+05	3005.5	0.10072	-0.27777	0.97903
2.22	73.08	-3.0944e+05	3005.2	0.1015	-0.27767	0.97893
2.222	73.043	-3.0944e+05	3004.8	0.10385	-0.27728	0.97824
2.224	73.115	-3.0944e+05	3004.4	0.10619	-0.27689	0.97756
2.226	73.184	-3.0944e+05	3004.1	0.10853	-0.2765	0.97688
2.228	73.156	-3.0944e+05	3003.7	0.11087	-0.27611	0.9762
2.23	73.095	-3.0944e+05	3003.3	0.11322	-0.27572	0.97551
2.232	73.081	-3.0944e+05	3003	0.11234	-0.27592	0.97571
2.234	73.074	-3.0945e+05	3002.7	0.11146	-0.27611	0.9759
2.236	73.036	-3.0945e+05	3002.3	0.11058	-0.27631	0.9761
2.238	73.013	-3.0945e+05	3002	0.1097	-0.2765	0.97629
2.24	73.092	-3.0946e+05	3001.8	0.10882	-0.2767	0.97649
2.242	73.16	-3.0946e+05	3001.4	0.1098	-0.2765	0.97571
2.244	73.127	-3.0946e+05	3001	0.11078	-0.27631	0.97493
2.246	73.098	-3.0946e+05	3000.7	0.11175	-0.27611	0.97415
2.248	73.062	-3.0946e+05	3000.4	0.11273	-0.27592	0.97336
2.25	73.06	-3.0946e+05	3000.1	0.1137	-0.27572	0.97258
2.252	73.085	-3.0946e+05	2999.7	0.11244	-0.27513	0.97385
2.254	73.086	-3.0946e+05	2999.4	0.11117	-0.27455	0.97512
2.256	73.101	-3.0946e+05	2999	0.1099	-0.27396	0.97639
2.258	73.133	-3.0947e+05	2998.6	0.10863	-0.27338	0.97766
2.26	73.097	-3.0948e+05	2998.2	0.10736	-0.27279	0.97893
2.262	73.023	-3.0948e+05	2997.7	0.10746	-0.27318	0.97893
2.264	73.055	-3.0948e+05	2997.3	0.10756	-0.27357	0.97893
2.266	73.141	-3.0948e+05	2996.9	0.10765	-0.27396	0.97893
2.268	73.112	-3.0948e+05	2996.5	0.10775	-0.27435	0.97893
2.27	72.974	-3.0948e+05	2996.1	0.10785	-0.27474	0.97893
2.272	72.836	-3.0948e+05	2995.7	0.10814	-0.27494	0.97981
2.274	72.771	-3.0949e+05	2995.3	0.10843	-0.27513	0.98068
2.276	72.714	-3.0949e+05	2995	0.10873	-0.27533	0.98156
2.278	72.571	-3.095e+05	2994.6	0.10902	-0.27552	0.98244
2.28	72.425	-3.095e+05	2994.3	0.10931	-0.27572	0.98332
2.282	72.277	-3.0949e+05	2993.9	0.1098	-0.27601	0.98352
2.284	72.173	-3.0949e+05	2993.6	0.11029	-0.27631	0.98371
2.286	72.209	-3.0949e+05	2993.2	0.11078	-0.2766	0.98391
2.288	72.292	-3.095e+05	2992.8	0.11126	-0.27689	0.9841
2.29	72.378	-3.095e+05	2992.4	0.11175	-0.27718	0.9843
2.292	72.557	-3.095e+05	2992	0.11165	-0.27689	0.98459
2.294	72.777	-3.095e+05	2991.6	0.11156	-0.2766	0.98488
2.296	72.884	-3.095e+05	2991.2	0.11146	-0.27631	0.98517
2.298	72.938	-3.095e+05	2990.8	0.11136	-0.27601	0.98547
2.3	72.985	-3.0951e+05	2990.4	0.11126	-0.27572	0.98576
2.302	72.98	-3.0952e+05	2989.9	0.11097	-0.27631	0.98547
2.304	73.057	-3.0952e+05	2989.5	0.11068	-0.27689	0.98517
2.306	73.164	-3.0952e+05	2989	0.11039	-0.27748	0.98488
2.308	73.075	-3.0951e+05	2988.6	0.11009	-0.27806	0.98459
2.31	72.989	-3.0951e+05	2988.2	0.1098	-0.27865	0.9843
2.312	73.048	-3.0951e+05	2987.7	0.11058	-0.27836	0.9841
2.314	73.049	-3.0952e+05	2987.3	0.11136	-0.27806	0.98391
2.316	72.988	-3.0953e+05	2986.8	0.11214	-0.27777	0.98371
2.318	72.972	-3.0953e+05	2986.3	0.11292	-0.27748	0.98352
2.32	73.028	-3.0954e+05	2985.8	0.1137	-0.27718	0.98332
2.322	73.119	-3.0953e+05	2985.3	0.11566	-0.27689	0.98478
2.324	73.161	-3.0953e+05	2984.7	0.11761	-0.2766	0.98625
2.326	73.151	-3.0953e+05	2984.2	0.11956	-0.27631	0.98771
2.328	73.107	-3.0954e+05	2983.6	0.12151	-0.27601	0.98918
2.33	73.069	-3.0955e+05	2983	0.12346	-0.27572	0.99064
2.332	73.049	-3.0955e+05	2982.5	0.1221	-0.27572	0.98976
2.334	73.074	-3.0955e+05	2982	0.12073	-0.27572	0.98888
2.336	73.121	-3.0955e+05	2981.5	0.11936	-0.27572	0.988
2.338	73.138	-3.0955e+05	2980.9	0.118	-0.27572	0.98713
2.34	73.139	-3.0954e+05	2980.4	0.11663	-0.27572	0.98625
2.342	73.123	-3.0954e+05	2979.8	0.11702	-0.27562	0.98683
2.344	73.142	-3.0955e+05	2979.3	0.11741	-0.27552	0.98742
2.346	73.148	-3.0955e+05	2978.8	0.1178	-0.27543	0.988
2.348	73.102	-3.0955e+05	2978.2	0.11819	-0.27533	0.98859
2.35	73.048	-3.0955e+05	2977.6	0.11858	-0.27523	0.98918
2.352	73.02	-3.0955e+05	2977.1	0.11722	-0.2767	0.9881
2.354	73.077	-3.0956e+05	2976.6	0.11585	-0.27816	0.98703
2.356	73.141	-3.0956e+05	2976.1	0.11448	-0.27962	0.98596
2.358	73.106	-3.0957e+05	2975.7	0.11312	-0.28109	0.98488
2.36	73.059	-3.0957e+05	2975.2	0.11175	-0.28255	0.98381
2.362	73.038	-3.0957e+05	2974.9	0.11	-0.28177	0.9842
2.364	73.031	-3.0957e+05	2974.5	0.10824	-0.28099	0.98459
2.366	73.021	-3.0957e+05	2974.1	0.10648	-0.28021	0.98498
2.368	73.023	-3.0958e+05	2973.8	0.10472	-0.27943	0.98537
2.37	73.116	-3.0958e+05	2973.5	0.10297	-0.27865	0.98576
2.372	73.169	-3.0958e+05	2973.2	0.10219	-0.27816	0.98517
2.374	73.116	-3.0958e+05	2972.9	0.10141	-0.27767	0.98459
2.376	73.083	-3.0958e+05	2972.5	0.10063	-0.27718	0.984
2.378	73.024	-3.0958e+05	2972.2	0.099845	-0.2767	0.98342
2.38	73.007	-3.0959e+05	2971.8	0.099064	-0.27621	0.98283
2.382	73.074	-3.0959e+05	2971.4	0.098966	-0.27767	0.98205
2.384	73.184	-3.0959e+05	2971	0.098869	-0.27914	0.98127
2.386	73.113	-3.0959e+05	2970.6	0.098771	-0.2806	0.98049
2.388	72.999	-3.096e+05	2970.2	0.098674	-0.28206	0.97971
2.39	73.06	-3.096e+05	2969.8	0.098576	-0.28353	0.97893
2.392	73.115	-3.096e+05	2969.4	0.099259	-0.28197	0.97922
2.394	73.122	-3.096e+05	2969.1	0.099942	-0.2804	0.97951
2.396	73.12	-3.0961e+05	2968.7	0.10063	-0.27884	0.97981
2.398	73.1	-3.0961e+05	2968.3	0.10131	-0.27728	0.9801
2.4	73.041	-3.0962e+05	2967.9	0.10199	-0.27572	0.98039
2.402	73.001	-3.0963e+05	2967.5	0.10355	-0.27777	0.98049
2.404	72.997	-3.0963e+05	2967.1	0.10512	-0.27982	0.98059
2.406	73.024	-3.0963e+05	2966.8	0.10668	-0.28187	0.98068
2.408	73.087	-3.0963e+05	2966.5	0.10824	-0.28392	0.98078
2.41	73.078	-3.0963e+05	2966.1	0.1098	-0.28597	0.98088
2.412	73.031	-3.0963e+05	2965.8	0.10951	-0.28509	0.98147
2.414	72.999	-3.0963e+05	2965.5	0.10921	-0.28421	0.98205
2.416	72.973	-3.0964e+05	2965.2	0.10892	-0.28333	0.98264
2.418	73.012	-3.0964e+05	2964.8	0.10863	-0.28245	0.98322
2.42	73.08	-3.0965e+05	2964.5	0.10834	-0.28158	0.98381
2.422	73.087	-3.0964e+05	2964.2	0.10756	-0.28138	0.98303
2.424	73.068	-3.0963e+05	2963.9	0.10677	-0.28119	0.98225
2.426	73.096	-3.0963e+05	2963.6	0.10599	-0.28099	0.98147
2.428	73.105	-3.0964e+05	2963.3	0.10521	-0.2808	0.98068
2.43	73.128	-3.0964e+05	2963.1	0.10443	-0.2806	0.9799
2.432	73.119	-3.0965e+05	2962.8	0.10365	-0.2805	0.9799
2.434	73.061	-3.0966e+05	2962.5	0.10287	-0.2804	0.9799
2.436	73.032	-3.0966e+05	2962.3	0.10209	-0.28031	0.9799
2.438	73.038	-3.0967e+05	2962.1	0.10131	-0.28021	0.9799
2.44	73.054	-3.0966e+05	2961.9	0.10053	-0.28011	0.9799
2.442	73.046	-3.0967e+05	2961.8	0.1015	-0.27962	0.9801
2.444	73.001	-3.0967e+05	2961.7	0.10248	-0.27914	0.98029
2.446	72.944	-3.0967e+05	2961.7	0.10346	-0.27865	0.98049
2.448	72.923	-3.0968e+05	2961.8	0.10443	-0.27816	0.98068
2.45	72.989	-3.0968e+05	2961.9	0.10541	-0.27767	0.98088
2.452	73.041	-3.0969e+05	2962.3	0.10834	-0.27787	0.97942
2.454	73.064	-3.0969e+05	2962.6	0.11126	-0.27806	0.97795
2.456	73.116	-3.0969e+05	2963.2	0.11419	-0.27826	0.97649
2.458	73.056	-3.0969e+05	2964	0.11712	-0.27845	0.97502
2.46	72.98	-3.0969e+05	2964.8	0.12005	-0.27865	0.97356
2.462	72.975	-3.0969e+05	2966.1	0.12063	-0.27875	0.97395
2.464	73.031	-3.0969e+05	2967.4	0.12122	-0.27884	0.97434
2.466	72.99	-3.097e+05	2969	0.1218	-0.27894	0.97473
2.468	72.938	-3.097e+05	2970.8	0.12239	-0.27904	0.97512
2.47	72.963	-3.097e+05	2972.6	0.12298	-0.27914	0.97551
2.472	72.986	-3.097e+05	2974.7	0.12288	-0.27884	0.97454
2.474	72.968	-3.097e+05	2976.9	0.12278	-0.27855	0.97356
2.476	72.931	-3.097e+05	2979.1	0.12268	-0.27826	0.97258
2.478	72.947	-3.0971e+05	2981.5	0.12259	-0.27796	0.97161
2.48	72.973	-3.0971e+05	2983.8	0.12249	-0.27767	0.97063
2.482	73.022	-3.0972e+05	2986.1	0.12151	-0.27855	0.97005
2.484	72.978	-3.0972e+05	2988.4	0.12054	-0.27943	0.96946
2.486	72.957	-3.0972e+05	2990.6	0.11956	-0.28031	0.96888
2.488	72.951	-3.0972e+05	2992.7	0.11858	-0.28119	0.96829
2.49	72.933	-3.0973e+05	2994.8	0.11761	-0.28206	0.9677
2.492	72.895	-3.0974e+05	2996.6	0.11702	-0.28236	0.96653
2.494	72.892	-3.0974e+05	2998.5	0.11644	-0.28265	0.96536
2.496	72.943	-3.0975e+05	3000.2	0.11585	-0.28294	0.96419
2.498	72.996	-3.0975e+05	3001.8	0.11527	-0.28324	0.96302
2.5	72.952	-3.0975e+05	3003.5	0.11468	-0.28353	0.96185
2.502	72.875	-3.0975e+05	3005	0.1138	-0.28431	0.96312
2.504	72.81	-3.0975e+05	3006.5	0.11292	-0.28509	0.96439
2.506	72.835	-3.0975e+05	3007.9	0.11204	-0.28587	0.96565
2.508	72.951	-3.0975e+05	3009.3	0.11117	-0.28665	0.96692
2.51	72.988	-3.0975e+05	3010.6	0.11029	-0.28743	0.96819
2.512	72.936	-3.0975e+05	3011.8	0.11048	-0.28753	0.9677
2.514	72.88	-3.0975e+05	3013	0.11068	-0.28763	0.96722
2.516	72.842	-3.0975e+05	3014.2	0.11087	-0.28772	0.96673
2.518	72.832	-3.0975e+05	3015.3	0.11107	-0.28782	0.96624
2.52	72.857	-3.0975e+05	3016.4	0.11126	-0.28792	0.96575
2.522	72.881	-3.0974e+05	3017.5	0.11039	-0.28704	0.96517
2.524	72.879	-3.0973e+05	3018.5	0.10951	-0.28616	0.96458
2.526	72.871	-3.0972e+05	3019.5	0.10863	-0.28528	0.964
2.528	72.873	-3.0972e+05	3020.4	0.10775	-0.28441	0.96341
2.53	72.867	-3.0972e+05	3021.4	0.10687	-0.28353	0.96282
2.532	72.849	-3.0972e+05	3022.3	0.10619	-0.28314	0.96243
2.534	72.825	-3.0972e+05	3023.2	0.10551	-0.28275	0.96204
2.536	72.784	-3.0971e+05	3024.1	0.10482	-0.28236	0.96165
2.538	72.797	-3.0971e+05	3024.9	0.10414	-0.28197	0.96126
2.54	72.882	-3.097e+05	3025.8	0.10346	-0.28158	0.96087
2.542	72.925	-3.097e+05	3026.5	0.10316	-0.28187	0.96146
2.544	72.916	-3.0969e+05	3027.2	0.10287	-0.28216	0.96204
2.546	72.89	-3.0969e+05	3027.9	0.10258	-0.28245	0.96263
2.548	72.928	-3.0969e+05	3028.5	0.10228	-0.28275	0.96321
2.55	72.978	-3.0969e+05	3029	0.10199	-0.28304	0.9638
2.552	72.923	-3.0969e+05	3029.6	0.10385	-0.28372	0.96243
2.554	72.847	-3.0969e+05	3030.2	0.1057	-0.28441	0.96107
2.556	72.844	-3.0968e+05	3030.7	0.10756	-0.28509	0.9597
2.558	72.915	-3.0968e+05	3031.1	0.10941	-0.28577	0.95833
2.56	72.949	-3.0968e+05	3031.5	0.11126	-0.28646	0.95697
2.562	72.97	-3.0968e+05	3031.9	0.11204	-0.28675	0.95746
2.564	73.016	-3.0967e+05	3032.3	0.11283	-0.28704	0.95794
2.566	72.988	-3.0967e+05	3032.7	0.11361	-0.28733	0.95843
2.568	72.925	-3.0966e+05	3033.1	0.11439	-0.28763	0.95892
2.57	72.964	-3.0966e+05	3033.4	0.11517	-0.28792	0.95941
2.572	73.044	-3.0966e+05	3033.8	0.11312	-0.28714	0.9598
2.574	73.029	-3.0966e+05	3034.1	0.11107	-0.28636	0.96019
2.576	72.948	-3.0965e+05	3034.4	0.10902	-0.28558	0.96058
2.578	72.962	-3.0965e+05	3034.6	0.10697	-0.2848	0.96097
2.58	72.93	-3.0964e+05	3034.8	0.10492	-0.28402	0.96136
2.582	72.979	-3.0964e+05	3034.9	0.10414	-0.28392	0.96195
2.584	73.035	-3.0964e+05	3035	0.10336	-0.28382	0.96253
2.586	73.058	-3.0964e+05	3035.2	0.10258	-0.28372	0.96312
2.588	73.069	-3.0964e+05	3035.3	0.1018	-0.28363	0.9637
2.59	73.019	-3.0964e+05	3035.4	0.10102	-0.28353	0.96429
2.592	72.994	-3.0963e+05	3035.6	0.10248	-0.28382	0.96517
2.594	73.024	-3.0963e+05	3035.7	0.10394	-0.28411	0.96604
2.596	73.002	-3.0962e+05	3035.8	0.10541	-0.28441	0.96692
2.598	72.932	-3.0961e+05	3035.9	0.10687	-0.2847	0.9678
2.6	72.921	-3.096e+05	3036	0.10834	-0.28499	0.96868
2.602	72.984	-3.096e+05	3036.1	0.10902	-0.28538	0.96956
2.604	73.063	-3.096e+05	3036.3	0.1097	-0.28577	0.97044
2.606	73.092	-3.096e+05	3036.4	0.11039	-0.28616	0.97132
2.608	73.075	-3.096e+05	3036.5	0.11107	-0.28655	0.97219
2.61	73.043	-3.0959e+05	3036.6	0.11175	-0.28694	0.97307
2.612	73.027	-3.0959e+05	3036.6	0.11253	-0.28665	0.97268
2.614	73.047	-3.0958e+05	3036.7	0.11331	-0.28636	0.97229
2.616	73.027	-3.0958e+05	3036.8	0.11409	-0.28607	0.9719
2.618	72.975	-3.0957e+05	3036.9	0.11488	-0.28577	0.97151
2.62	72.969	-3.0957e+05	3037	0.11566	-0.28548	0.97112
2.622	73.03	-3.0957e+05	3036.9	0.11614	-0.28528	0.9718
2.624	73.101	-3.0956e+05	3036.9	0.11663	-0.28509	0.97249
2.626	73.077	-3.0956e+05	3036.9	0.11712	-0.28489	0.97317
2.628	73.052	-3.0956e+05	3036.9	0.11761	-0.2847	0.97385
2.63	73.032	-3.0955e+05	3036.8	0.1181	-0.2845	0.97454
2.632	73.011	-3.0955e+05	3036.7	0.11829	-0.28519	0.97454
2.634	72.983	-3.0955e+05	3036.7	0.11849	-0.28587	0.97454
2.636	73.002	-3.0954e+05	3036.6	0.11868	-0.28655	0.97454
2.638	72.999	-3.0953e+05	3036.5	0.11888	-0.28724	0.97454
2.64	73.016	-3.0953e+05	3036.4	0.11907	-0.28792	0.97454
2.642	73.071	-3.0953e+05	3036.3	0.11771	-0.28851	0.97561
2.644	73.093	-3.0953e+05	3036.3	0.11634	-0.28909	0.97668
2.646	73.037	-3.0953e+05	3036.2	0.11497	-0.28968	0.97776
2.648	73.014	-3.0952e+05	3036.1	0.11361	-0.29026	0.97883
2.65	73.004	-3.0951e+05	3036.1	0.11224	-0.29085	0.9799
2.652	72.957	-3.0952e+05	3036	0.11175	-0.29124	0.9802
2.654	72.913	-3.0951e+05	3035.9	0.11126	-0.29163	0.98049
2.656	72.962	-3.0951e+05	3035.8	0.11078	-0.29202	0.98078
2.658	73.144	-3.095e+05	3035.6	0.11029	-0.29241	0.98108
2.66	73.139	-3.0949e+05	3035.4	0.1098	-0.2928	0.98137
2.662	73.056	-3.0949e+05	3035.2	0.11058	-0.29221	0.98068
2.664	73.039	-3.0949e+05	3034.9	0.11136	-0.29163	0.98
2.666	73.026	-3.0949e+05	3034.6	0.11214	-0.29104	0.97932
2.668	72.956	-3.0949e+05	3034.3	0.11292	-0.29046	0.97864
2.67	72.97	-3.0949e+05	3034	0.1137	-0.28987	0.97795
2.672	73.015	-3.0949e+05	3033.6	0.1139	-0.28977	0.97795
2.674	73.014	-3.0949e+05	3033.3	0.11409	-0.28968	0.97795
2.676	72.996	-3.0949e+05	3032.9	0.11429	-0.28958	0.97795
2.678	72.983	-3.0949e+05	3032.4	0.11448	-0.28948	0.97795
2.68	73.005	-3.0948e+05	3032	0.11468	-0.28938	0.97795
2.682	73.019	-3.0948e+05	3031.5	0.11507	-0.28968	0.97951
2.684	73.045	-3.0948e+05	3031	0.11546	-0.28997	0.98108
2.686	73.061	-3.0948e+05	3030.4	0.11585	-0.29026	0.98264
2.688	73.027	-3.0948e+05	3029.9	0.11624	-0.29056	0.9842
2.69	73.012	-3.0948e+05	3029.4	0.11663	-0.29085	0.98576
2.692	73.047	-3.0947e+05	3028.9	0.11585	-0.29026	0.98478
2.694	73.054	-3.0947e+05	3028.3	0.11507	-0.28968	0.98381
2.696	73.007	-3.0947e+05	3027.8	0.11429	-0.28909	0.98283
2.698	72.965	-3.0947e+05	3027.2	0.11351	-0.28851	0.98186
2.7	72.959	-3.0946e+05	3026.7	0.11273	-0.28792	0.98088
2.702	72.967	-3.0946e+05	3026.2	0.11312	-0.28909	0.98166
2.704	72.991	-3.0946e+05	3025.6	0.11351	-0.29026	0.98244
2.706	73.064	-3.0946e+05	3025.1	0.1139	-0.29143	0.98322
2.708	73.114	-3.0946e+05	3024.6	0.11429	-0.2926	0.984
2.71	73.019	-3.0946e+05	3024	0.11468	-0.29378	0.98478
2.712	72.947	-3.0945e+05	3023.5	0.11419	-0.29339	0.98449
2.714	72.926	-3.0945e+05	3023.1	0.1137	-0.293	0.9842
2.716	72.925	-3.0946e+05	3022.6	0.11322	-0.2926	0.98391
2.718	72.954	-3.0946e+05	3022.2	0.11273	-0.29221	0.98361
2.72	73.016	-3.0946e+05	3021.8	0.11224	-0.29182	0.98332
2.722	73.011	-3.0946e+05	3021.3	0.11185	-0.29202	0.98283
2.724	73.005	-3.0946e+05	3020.9	0.11146	-0.29221	0.98234
2.726	73.119	-3.0946e+05	3020.5	0.11107	-0.29241	0.98186
2.728	73.089	-3.0945e+05	3020	0.11068	-0.2926	0.98137
2.73	73.044	-3.0945e+05	3019.6	0.11029	-0.2928	0.98088
2.732	73.015	-3.0945e+05	3019.2	0.11136	-0.2927	0.9802
2.734	72.984	-3.0945e+05	3018.9	0.11244	-0.2926	0.97951
2.736	73.016	-3.0945e+05	3018.5	0.11351	-0.29251	0.97883
2.738	73.049	-3.0945e+05	3018.2	0.11458	-0.29241	0.97815
2.74	73.017	-3.0945e+05	3017.8	0.11566	-0.29231	0.97746
2.742	72.997	-3.0945e+05	3017.5	0.11683	-0.29085	0.9762
2.744	73	-3.0945e+05	3017.3	0.118	-0.28938	0.97493
2.746	72.952	-3.0945e+05	3017	0.11917	-0.28792	0.97366
2.748	72.92	-3.0946e+05	3016.7	0.12034	-0.28646	0.97239
2.75	72.987	-3.0945e+05	3016.4	0.12151	-0.28499	0.97112
2.752	73.053	-3.0945e+05	3016.2	0.12024	-0.28665	0.97141
2.754	73.086	-3.0945e+05	3016	0.11897	-0.28831	0.97171
2.756	73.071	-3.0945e+05	3015.8	0.11771	-0.28997	0.972
2.758	73.068	-3.0946e+05	3015.6	0.11644	-0.29163	0.97229
2.76	73.011	-3.0946e+05	3015.3	0.11517	-0.29329	0.97258
2.762	72.952	-3.0946e+05	3015.2	0.1139	-0.2929	0.97141
2.764	72.974	-3.0947e+05	3015	0.11263	-0.29251	0.97024
2.766	73.045	-3.0947e+05	3014.8	0.11136	-0.29212	0.96907
2.768	73.09	-3.0946e+05	3014.6	0.11009	-0.29173	0.9679
2.77	73.061	-3.0946e+05	3014.4	0.10882	-0.29134	0.96673
2.772	72.994	-3.0946e+05	3014.2	0.11039	-0.29153	0.96809
2.774	72.95	-3.0946e+05	3014.1	0.11195	-0.29173	0.96946
2.776	72.959	-3.0946e+05	3013.9	0.11351	-0.29192	0.97083
2.778	73.005	-3.0946e+05	3013.8	0.11507	-0.29212	0.97219
2.78	73.034	-3.0946e+05	3013.7	0.11663	-0.29231	0.97356
2.782	73.04	-3.0946e+05	3013.5	0.11614	-0.2927	0.97336
2.784	73.034	-3.0945e+05	3013.4	0.11566	-0.29309	0.97317
2.786	73.021	-3.0946e+05	3013.2	0.11517	-0.29348	0.97297
2.788	73.012	-3.0946e+05	3013	0.11468	-0.29387	0.97278
2.79	72.975	-3.0946e+05	3012.8	0.11419	-0.29426	0.97258
2.792	72.953	-3.0946e+05	3012.7	0.114	-0.29368	0.97219
2.794	73.026	-3.0946e+05	3012.5	0.1138	-0.29309	0.9718
2.796	73.135	-3.0947e+05	3012.4	0.11361	-0.29251	0.97141
2.798	73.116	-3.0947e+05	3012.1	0.11341	-0.29192	0.97102
2.8	73.086	-3.0947e+05	3011.9	0.11322	-0.29134	0.97063
2.802	73.049	-3.0947e+05	3011.7	0.11224	-0.29075	0.96927
2.804	73.026	-3.0947e+05	3011.5	0.11126	-0.29016	0.9679
2.806	72.961	-3.0947e+05	3011.2	0.11029	-0.28958	0.96653
2.808	72.995	-3.0947e+05	3011	0.10931	-0.28899	0.96517
2.81	73.032	-3.0947e+05	3010.8	0.10834	-0.28841	0.9638
2.812	73.03	-3.0947e+05	3010.6	0.10863	-0.28909	0.96429
2.814	72.971	-3.0947e+05	3010.4	0.10892	-0.28977	0.96478
2.816	72.986	-3.0947e+05	3010.3	0.10921	-0.29046	0.96526
2.818	73.063	-3.0947e+05	3010.1	0.10951	-0.29114	0.96575
2.82	73.062	-3.0947e+05	3010	0.1098	-0.29182	0.96624
2.822	73.039	-3.0947e+05	3009.8	0.1099	-0.29182	0.96653
2.824	72.988	-3.0947e+05	3009.6	0.11	-0.29182	0.96683
2.826	72.917	-3.0947e+05	3009.4	0.11009	-0.29182	0.96712
2.828	72.875	-3.0947e+05	3009.2	0.11019	-0.29182	0.96741
2.83	72.929	-3.0948e+05	3009.1	0.11029	-0.29182	0.9677
2.832	73.031	-3.0947e+05	3008.8	0.11068	-0.29153	0.9678
2.834	73.028	-3.0947e+05	3008.6	0.11107	-0.29124	0.9679
2.836	73.008	-3.0947e+05	3008.3	0.11146	-0.29095	0.968
2.838	72.982	-3.0947e+05	3008.1	0.11185	-0.29065	0.96809
2.84	72.931	-3.0947e+05	3007.8	0.11224	-0.29036	0.96819
2.842	72.895	-3.0948e+05	3007.6	0.11292	-0.29036	0.96917
2.844	72.949	-3.0948e+05	3007.3	0.11361	-0.29036	0.97014
2.846	73.006	-3.0948e+05	3007.1	0.11429	-0.29036	0.97112
2.848	72.976	-3.0948e+05	3006.8	0.11497	-0.29036	0.9721
2.85	72.912	-3.0948e+05	3006.6	0.11566	-0.29036	0.97307
2.852	72.913	-3.0948e+05	3006.3	0.11692	-0.28919	0.97307
2.854	72.95	-3.0948e+05	3006	0.11819	-0.28802	0.97307
2.856	72.979	-3.0948e+05	3005.7	0.11946	-0.28685	0.97307
2.858	73.042	-3.0948e+05	3005.5	0.12073	-0.28568	0.97307
2.86	73.072	-3.0948e+05	3005.2	0.122	-0.2845	0.97307
2.862	73.026	-3.0948e+05	3005	0.12093	-0.28538	0.97239
2.864	72.974	-3.0948e+05	3004.7	0.11985	-0.28626	0.97171
2.866	72.956	-3.0949e+05	3004.4	0.11878	-0.28714	0.97102
2.868	72.961	-3.0949e+05	3004.2	0.11771	-0.28802	0.97034
2.87	72.978	-3.0949e+05	3003.9	0.11663	-0.2889	0.96966
2.872	73.003	-3.095e+05	3003.6	0.11556	-0.28899	0.96936
2.874	72.989	-3.095e+05	3003.3	0.11448	-0.28909	0.96907
2.876	72.949	-3.0949e+05	3003.1	0.11341	-0.28919	0.96878
2.878	72.96	-3.0949e+05	3002.8	0.11234	-0.28929	0.96848
2.88	73.036	-3.0949e+05	3002.5	0.11126	-0.28938	0.96819
2.882	73.092	-3.0949e+05	3002.1	0.11302	-0.2888	0.96848
2.884	73.081	-3.0949e+05	3001.7	0.11478	-0.28821	0.96878
2.886	73.061	-3.0949e+05	3001.3	0.11653	-0.28763	0.96907
2.888	73.029	-3.0949e+05	3000.9	0.11829	-0.28704	0.96936
2.89	73.043	-3.0949e+05	3000.6	0.12005	-0.28646	0.96966
2.892	73.071	-3.0949e+05	3000.2	0.11878	-0.28704	0.96975
2.894	73.008	-3.095e+05	2999.8	0.11751	-0.28763	0.96985
2.896	72.973	-3.095e+05	2999.3	0.11624	-0.28821	0.96995
2.898	73.03	-3.0951e+05	2998.8	0.11497	-0.2888	0.97005
2.9	73.094	-3.0951e+05	2998.3	0.1137	-0.28938	0.97014
2.902	73.105	-3.0951e+05	2997.9	0.11458	-0.28899	0.97024
2.904	73.018	-3.0951e+05	2997.4	0.11546	-0.2886	0.97034
2.906	72.875	-3.0951e+05	2996.9	0.11634	-0.28821	0.97044
2.908	72.889	-3.0951e+05	2996.4	0.11722	-0.28782	0.97053
2.91	73.13	-3.0951e+05	2995.9	0.1181	-0.28743	0.97063
2.912	73.201	-3.0951e+05	2995.4	0.11907	-0.28753	0.97122
2.914	73.159	-3.0951e+05	2994.9	0.12005	-0.28763	0.9718
2.916	73.065	-3.0951e+05	2994.4	0.12102	-0.28772	0.97239
2.918	72.978	-3.0951e+05	2994	0.122	-0.28782	0.97297
2.92	72.981	-3.0952e+05	2993.5	0.12298	-0.28792	0.97356
2.922	73.049	-3.0952e+05	2993.1	0.12268	-0.28743	0.97356
2.924	73.073	-3.0952e+05	2992.7	0.12239	-0.28694	0.97356
2.926	73.114	-3.0953e+05	2992.2	0.1221	-0.28646	0.97356
2.928	73.112	-3.0952e+05	2991.9	0.1218	-0.28597	0.97356
2.93	73.054	-3.0952e+05	2991.5	0.12151	-0.28548	0.97356
2.932	73.034	-3.0953e+05	2991.1	0.12063	-0.28568	0.97268
2.934	73.046	-3.0953e+05	2990.7	0.11976	-0.28587	0.9718
2.936	73.073	-3.0953e+05	2990.4	0.11888	-0.28607	0.97092
2.938	73.083	-3.0953e+05	2990	0.118	-0.28626	0.97005
2.94	73.078	-3.0953e+05	2989.7	0.11712	-0.28646	0.96917
2.942	73.031	-3.0953e+05	2989.3	0.11692	-0.28665	0.96936
2.944	72.976	-3.0954e+05	2988.9	0.11673	-0.28685	0.96956
2.946	73.01	-3.0954e+05	2988.6	0.11653	-0.28704	0.96975
2.948	73.092	-3.0954e+05	2988.2	0.11634	-0.28724	0.96995
2.95	73.094	-3.0954e+05	2987.9	0.11614	-0.28743	0.97014
2.952	73.049	-3.0954e+05	2987.5	0.11712	-0.28665	0.97112
2.954	73.065	-3.0954e+05	2987.1	0.1181	-0.28587	0.9721
2.956	73.1	-3.0954e+05	2986.7	0.11907	-0.28509	0.97307
2.958	73.102	-3.0955e+05	2986.4	0.12005	-0.28431	0.97405
2.96	73.112	-3.0955e+05	2986	0.12102	-0.28353	0.97502
2.962	73.106	-3.0955e+05	2985.7	0.12073	-0.28382	0.97532
2.964	73.089	-3.0955e+05	2985.3	0.12044	-0.28411	0.97561
2.966	73.053	-3.0955e+05	2984.9	0.12015	-0.28441	0.9759
2.968	73.033	-3.0955e+05	2984.6	0.11985	-0.2847	0.9762
2.97	73.08	-3.0955e+05	2984.2	0.11956	-0.28499	0.97649
2.972	73.124	-3.0955e+05	2983.8	0.12073	-0.28558	0.9762
2.974	73.076	-3.0956e+05	2983.5	0.1219	-0.28616	0.9759
2.976	72.961	-3.0956e+05	2983.1	0.12307	-0.28675	0.97561
2.978	72.845	-3.0956e+05	2982.8	0.12424	-0.28733	0.97532
2.98	72.879	-3.0957e+05	2982.4	0.12542	-0.28792	0.97502
2.982	72.902	-3.0957e+05	2982	0.12444	-0.28812	0.976
2.984	72.752	-3.0957e+05	2981.6	0.12346	-0.28831	0.97698
2.986	72.554	-3.0958e+05	2981.2	0.12249	-0.28851	0.97795
2.988	72.359	-3.0958e+05	2980.9	0.12151	-0.2887	0.97893
2.99	72.225	-3.0958e+05	2980.5	0.12054	-0.2889	0.9799
2.992	72.171	-3.0958e+05	2980.1	0.12073	-0.28782	0.97893
2.994	72.136	-3.0958e+05	2979.8	0.12093	-0.28675	0.97795
2.996	72.175	-3.0958e+05	2979.4	0.12112	-0.28568	0.97698
2.998	72.254	-3.0958e+05	2979	0.12132	-0.2846	0.976
3	72.383	-3.0959e+05	2978.7	0.12151	-0.28353	0.97502
3.002	72.604	-3.0959e+05	2978.3	0.12151	-0.28441	0.97541
3.004	72.827	-3.0959e+05	2977.9	0.12151	-0.28528	0.9758
3.006	72.958	-3.0959e+05	2977.5	0.12151	-0.28616	0.9762
3.008	73.011	-3.0959e+05	2977.2	0.12151	-0.28704	0.97659
3.01	72.985	-3.0959e+05	2976.8	0.12151	-0.28792	0.97698
3.012	72.939	-3.096e+05	2976.4	0.12112	-0.28694	0.97629
3.014	72.908	-3.096e+05	2976	0.12073	-0.28597	0.97561
3.016	72.914	-3.096e+05	2975.7	0.12034	-0.28499	0.97493
3.018	72.996	-3.0961e+05	2975.3	0.11995	-0.28402	0.97424
3.02	73.068	-3.0961e+05	2975	0.11956	-0.28304	0.97356
3.022	73.075	-3.0961e+05	2974.7	0.11956	-0.28363	0.97268
3.024	73.028	-3.0962e+05	2974.3	0.11956	-0.28421	0.9718
3.026	73.001	-3.0962e+05	2974	0.11956	-0.2848	0.97092
3.028	73.05	-3.0962e+05	2973.7	0.11956	-0.28538	0.97005
3.03	73.14	-3.0962e+05	2973.4	0.11956	-0.28597	0.96917
3.032	73.157	-3.0961e+05	2973	0.11771	-0.28714	0.96936
3.034	73.077	-3.0962e+05	2972.6	0.11585	-0.28831	0.96956
3.036	73	-3.0962e+05	2972.2	0.114	-0.28948	0.96975
3.038	73	-3.0962e+05	2971.8	0.11214	-0.29065	0.96995
3.04	73.069	-3.0962e+05	2971.4	0.11029	-0.29182	0.97014
3.042	73.13	-3.0962e+05	2971	0.11107	-0.29192	0.97005
3.044	73.136	-3.0963e+05	2970.6	0.11185	-0.29202	0.96995
3.046	73.109	-3.0963e+05	2970.2	0.11263	-0.29212	0.96985
3.048	73.08	-3.0963e+05	2969.8	0.11341	-0.29221	0.96975
3.05	73.032	-3.0963e+05	2969.4	0.11419	-0.29231	0.96966
3.052	72.957	-3.0963e+05	2969	0.11566	-0.29163	0.96985
3.054	72.94	-3.0963e+05	2968.5	0.11712	-0.29095	0.97005
3.056	73.02	-3.0964e+05	2968.1	0.11858	-0.29026	0.97024
3.058	73.1	-3.0964e+05	2967.6	0.12005	-0.28958	0.97044
3.06	73.116	-3.0964e+05	2967.2	0.12151	-0.2889	0.97063
3.062	73.083	-3.0964e+05	2966.7	0.12171	-0.28821	0.97044
3.064	73.054	-3.0965e+05	2966.2	0.1219	-0.28753	0.97024
3.066	73.095	-3.0965e+05	2965.8	0.1221	-0.28685	0.97005
3.068	73.129	-3.0965e+05	2965.3	0.12229	-0.28616	0.96985
3.07	73.065	-3.0965e+05	2964.8	0.12249	-0.28548	0.96966
3.072	72.989	-3.0965e+05	2964.3	0.12141	-0.28577	0.96946
3.074	72.976	-3.0965e+05	2963.9	0.12034	-0.28607	0.96927
3.076	73.081	-3.0966e+05	2963.4	0.11927	-0.28636	0.96907
3.078	73.098	-3.0966e+05	2962.9	0.11819	-0.28665	0.96888
3.08	73.144	-3.0967e+05	2962.4	0.11712	-0.28694	0.96868
3.082	73.117	-3.0967e+05	2961.9	0.11536	-0.28724	0.96829
3.084	73.112	-3.0967e+05	2961.4	0.11361	-0.28753	0.9679
3.086	73.033	-3.0967e+05	2960.8	0.11185	-0.28782	0.96751
3.088	72.999	-3.0967e+05	2960.3	0.11009	-0.28812	0.96712
3.09	73.056	-3.0967e+05	2959.8	0.10834	-0.28841	0.96673
3.092	73.095	-3.0968e+05	2959.3	0.10892	-0.2886	0.96702
3.094	73.069	-3.0969e+05	2958.9	0.10951	-0.2888	0.96731
3.096	73.01	-3.0969e+05	2958.4	0.11009	-0.28899	0.96761
3.098	72.996	-3.097e+05	2958	0.11068	-0.28919	0.9679
3.1	73.036	-3.097e+05	2957.5	0.11126	-0.28938	0.96819
3.102	73.076	-3.097e+05	2957.1	0.11292	-0.28802	0.96888
3.104	73.037	-3.097e+05	2956.6	0.11458	-0.28665	0.96956
3.106	73.032	-3.097e+05	2956.2	0.11624	-0.28528	0.97024
3.108	73.069	-3.097e+05	2955.8	0.1179	-0.28392	0.97092
3.11	73.079	-3.0971e+05	2955.5	0.11956	-0.28255	0.97161
3.112	73.045	-3.0971e+05	2955.1	0.11917	-0.28324	0.97112
3.114	73	-3.0971e+05	2954.8	0.11878	-0.28392	0.97063
3.116	72.985	-3.0971e+05	2954.4	0.11839	-0.2846	0.97014
3.118	73.012	-3.0971e+05	2954.1	0.118	-0.28528	0.96966
3.12	73.074	-3.0971e+05	2953.7	0.11761	-0.28597	0.96917
3.122	73.107	-3.0971e+05	2953.3	0.11751	-0.28636	0.96917
3.124	73.079	-3.0971e+05	2953	0.11741	-0.28675	0.96917
3.126	73.059	-3.0972e+05	2952.6	0.11732	-0.28714	0.96917
3.128	73.073	-3.0972e+05	2952.2	0.11722	-0.28753	0.96917
3.13	73.077	-3.0972e+05	2951.8	0.11712	-0.28792	0.96917
3.132	73.049	-3.0972e+05	2951.5	0.11741	-0.28724	0.96888
3.134	73.012	-3.0972e+05	2951.2	0.11771	-0.28655	0.96858
3.136	72.969	-3.0972e+05	2950.9	0.118	-0.28587	0.96829
3.138	72.969	-3.0973e+05	2950.5	0.11829	-0.28519	0.968
3.14	73.046	-3.0973e+05	2950.2	0.11858	-0.2845	0.9677
3.142	73.069	-3.0974e+05	2949.9	0.11722	-0.28577	0.96839
3.144	73.033	-3.0974e+05	2949.7	0.11585	-0.28704	0.96907
3.146	73.073	-3.0974e+05	2949.5	0.11448	-0.28831	0.96975
3.148	73.093	-3.0974e+05	2949.3	0.11312	-0.28958	0.97044
3.15	73.059	-3.0975e+05	2949.2	0.11175	-0.29085	0.97112
3.152	73.044	-3.0975e+05	2949.3	0.11214	-0.29134	0.97112
3.154	73.036	-3.0975e+05	2949.3	0.11253	-0.29182	0.97112
3.156	73.019	-3.0976e+05	2949.6	0.11292	-0.29231	0.97112
3.158	73.049	-3.0976e+05	2950	0.11331	-0.2928	0.97112
3.16	73.105	-3.0976e+05	2950.4	0.1137	-0.29329	0.97112
3.162	73.091	-3.0976e+05	2951.3	0.1139	-0.2928	0.97092
3.164	73.07	-3.0977e+05	2952.2	0.11409	-0.29231	0.97073
3.166	73.07	-3.0977e+05	2953.3	0.11429	-0.29182	0.97053
3.168	73.031	-3.0977e+05	2954.7	0.11448	-0.29134	0.97034
3.17	72.976	-3.0978e+05	2956.2	0.11468	-0.29085	0.97014
3.172	72.975	-3.0978e+05	2958.2	0.1139	-0.29085	0.96956
3.174	72.945	-3.0978e+05	2960.2	0.11312	-0.29085	0.96897
3.176	72.927	-3.0978e+05	2962.4	0.11234	-0.29085	0.96839
3.178	72.962	-3.0978e+05	2964.8	0.11156	-0.29085	0.9678
3.18	72.99	-3.0979e+05	2967.2	0.11078	-0.29085	0.96722
3.182	72.991	-3.0979e+05	2969.7	0.11224	-0.28997	0.96722
3.184	73.018	-3.0979e+05	2972.2	0.1137	-0.28909	0.96722
3.186	72.957	-3.0979e+05	2974.7	0.11517	-0.28821	0.96722
3.188	72.929	-3.0979e+05	2977.1	0.11663	-0.28733	0.96722
3.19	72.994	-3.0979e+05	2979.5	0.1181	-0.28646	0.96722
3.192	73.049	-3.0979e+05	2981.8	0.11751	-0.28753	0.96897
3.194	73.023	-3.098e+05	2984.1	0.11692	-0.2886	0.97073
3.196	72.957	-3.098e+05	2986.2	0.11634	-0.28968	0.97249
3.198	72.901	-3.0981e+05	2988.2	0.11575	-0.29075	0.97424
3.2	72.903	-3.0981e+05	2990.2	0.11517	-0.29182	0.976
3.202	72.96	-3.0981e+05	2991.9	0.11527	-0.29212	0.97649
3.204	72.996	-3.0981e+05	2993.6	0.11536	-0.29241	0.97698
3.206	72.976	-3.0981e+05	2995.3	0.11546	-0.2927	0.97746
3.208	72.944	-3.0981e+05	2996.9	0.11556	-0.293	0.97795
3.21	72.903	-3.0981e+05	2998.4	0.11566	-0.29329	0.97844
3.212	72.843	-3.0981e+05	2999.8	0.1138	-0.293	0.97883
3.214	72.864	-3.0981e+05	3001.2	0.11195	-0.2927	0.97922
3.216	72.941	-3.0981e+05	3002.5	0.11009	-0.29241	0.97961
3.218	72.935	-3.0981e+05	3003.8	0.10824	-0.29212	0.98
3.22	72.941	-3.098e+05	3005	0.10638	-0.29182	0.98039
3.222	72.958	-3.0979e+05	3006.2	0.10707	-0.2929	0.97981
3.224	72.956	-3.0979e+05	3007.3	0.10775	-0.29397	0.97922
3.226	72.911	-3.098e+05	3008.4	0.10843	-0.29504	0.97864
3.228	72.849	-3.098e+05	3009.5	0.10912	-0.29612	0.97805
3.23	72.851	-3.098e+05	3010.5	0.1098	-0.29719	0.97746
3.232	72.889	-3.098e+05	3011.5	0.11068	-0.29622	0.97678
3.234	72.884	-3.0979e+05	3012.5	0.11156	-0.29524	0.9761
3.236	72.883	-3.0978e+05	3013.5	0.11244	-0.29426	0.97541
3.238	72.897	-3.0978e+05	3014.4	0.11331	-0.29329	0.97473
3.24	72.922	-3.0977e+05	3015.3	0.11419	-0.29231	0.97405
3.242	72.911	-3.0977e+05	3016.2	0.11497	-0.29251	0.97405
3.244	72.856	-3.0977e+05	3017	0.11575	-0.2927	0.97405
3.246	72.852	-3.0977e+05	3017.8	0.11653	-0.2929	0.97405
3.248	72.874	-3.0977e+05	3018.5	0.11732	-0.29309	0.97405
3.25	72.874	-3.0977e+05	3019.2	0.1181	-0.29329	0.97405
3.252	72.894	-3.0976e+05	3019.8	0.11663	-0.29407	0.97288
3.254	72.872	-3.0976e+05	3020.5	0.11517	-0.29485	0.97171
3.256	72.819	-3.0976e+05	3021.1	0.1137	-0.29563	0.97053
3.258	72.855	-3.0976e+05	3021.7	0.11224	-0.29641	0.96936
3.26	72.879	-3.0975e+05	3022.2	0.11078	-0.29719	0.96819
3.262	72.944	-3.0975e+05	3022.7	0.11146	-0.29729	0.96848
3.264	72.959	-3.0975e+05	3023.2	0.11214	-0.29739	0.96878
3.266	72.96	-3.0974e+05	3023.7	0.11283	-0.29748	0.96907
3.268	72.987	-3.0973e+05	3024.1	0.11351	-0.29758	0.96936
3.27	72.99	-3.0972e+05	3024.5	0.11419	-0.29768	0.96966
3.272	72.915	-3.0972e+05	3024.8	0.1139	-0.29817	0.96985
3.274	72.916	-3.0972e+05	3025.2	0.11361	-0.29866	0.97005
3.276	73.015	-3.0972e+05	3025.5	0.11331	-0.29914	0.97024
3.278	73.041	-3.0971e+05	3025.8	0.11302	-0.29963	0.97044
3.28	72.988	-3.097e+05	3026.1	0.11273	-0.30012	0.97063
3.282	72.975	-3.0969e+05	3026.4	0.11273	-0.29944	0.97171
3.284	72.971	-3.0969e+05	3026.6	0.11273	-0.29875	0.97278
3.286	72.939	-3.0969e+05	3026.8	0.11273	-0.29807	0.97385
3.288	72.929	-3.0969e+05	3027	0.11273	-0.29739	0.97493
3.29	72.961	-3.0969e+05	3027.2	0.11273	-0.2967	0.976
3.292	73.017	-3.0968e+05	3027.5	0.11087	-0.29651	0.97688
3.294	73.05	-3.0968e+05	3027.7	0.10902	-0.29631	0.97776
3.296	73.035	-3.0968e+05	3028	0.10716	-0.29612	0.97864
3.298	73.034	-3.0967e+05	3028.2	0.10531	-0.29592	0.97951
3.3	73.064	-3.0967e+05	3028.5	0.10346	-0.29573	0.98039
3.302	73.086	-3.0966e+05	3028.7	0.10346	-0.29485	0.9801
3.304	73.123	-3.0966e+05	3028.8	0.10346	-0.29397	0.97981
3.306	73.091	-3.0966e+05	3029	0.10346	-0.29309	0.97951
3.308	73.058	-3.0965e+05	3029.2	0.10346	-0.29221	0.97922
3.31	73.035	-3.0964e+05	3029.3	0.10346	-0.29134	0.97893
3.312	73	-3.0963e+05	3029.4	0.10463	-0.29143	0.97864
3.314	73.009	-3.0963e+05	3029.5	0.1058	-0.29153	0.97834
3.316	73.044	-3.0963e+05	3029.6	0.10697	-0.29163	0.97805
3.318	73.079	-3.0963e+05	3029.7	0.10814	-0.29173	0.97776
3.32	73.063	-3.0963e+05	3029.7	0.10931	-0.29182	0.97746
3.322	73.047	-3.0963e+05	3029.8	0.10873	-0.29153	0.97717
3.324	73.068	-3.0963e+05	3029.8	0.10814	-0.29124	0.97688
3.326	73.017	-3.0963e+05	3029.8	0.10756	-0.29095	0.97659
3.328	72.898	-3.0961e+05	3029.8	0.10697	-0.29065	0.97629
3.33	72.967	-3.0961e+05	3029.9	0.10638	-0.29036	0.976
3.332	73.027	-3.0962e+05	3029.8	0.10609	-0.29026	0.97717
3.334	73.028	-3.0962e+05	3029.8	0.1058	-0.29016	0.97834
3.336	73.094	-3.0961e+05	3029.7	0.10551	-0.29007	0.97951
3.338	73.122	-3.096e+05	3029.7	0.10521	-0.28997	0.98068
3.34	73.097	-3.0959e+05	3029.6	0.10492	-0.28987	0.98186
3.342	73.034	-3.0959e+05	3029.6	0.10463	-0.29036	0.98186
3.344	73.015	-3.0959e+05	3029.6	0.10433	-0.29085	0.98186
3.346	73.03	-3.0958e+05	3029.6	0.10404	-0.29134	0.98186
3.348	72.974	-3.0957e+05	3029.5	0.10375	-0.29182	0.98186
3.35	73.014	-3.0956e+05	3029.5	0.10346	-0.29231	0.98186
3.352	73.064	-3.0956e+05	3029.6	0.10404	-0.2929	0.98254
3.354	73.035	-3.0956e+05	3029.6	0.10463	-0.29348	0.98322
3.356	73.016	-3.0956e+05	3029.6	0.10521	-0.29407	0.98391
3.358	73.077	-3.0955e+05	3029.5	0.1058	-0.29465	0.98459
3.36	73.064	-3.0955e+05	3029.5	0.10638	-0.29524	0.98527
3.362	72.993	-3.0954e+05	3029.4	0.10619	-0.29544	0.9841
3.364	73.016	-3.0953e+05	3029.3	0.10599	-0.29563	0.98293
3.366	73.048	-3.0953e+05	3029.1	0.1058	-0.29583	0.98176
3.368	73.04	-3.0954e+05	3029	0.1056	-0.29602	0.98059
3.37	73.048	-3.0954e+05	3028.8	0.10541	-0.29622	0.97942
3.372	73.065	-3.0953e+05	3028.5	0.1059	-0.29524	0.97903
3.374	73.067	-3.0953e+05	3028.3	0.10638	-0.29426	0.97864
3.376	73.063	-3.0952e+05	3028	0.10687	-0.29329	0.97824
3.378	73.048	-3.0952e+05	3027.6	0.10736	-0.29231	0.97785
3.38	73.047	-3.0952e+05	3027.2	0.10785	-0.29134	0.97746
3.382	73.062	-3.0952e+05	3026.8	0.10834	-0.29192	0.97737
3.384	73.023	-3.0951e+05	3026.4	0.10882	-0.29251	0.97727
3.386	72.973	-3.095e+05	3026	0.10931	-0.29309	0.97717
3.388	72.995	-3.095e+05	3025.5	0.1098	-0.29368	0.97707
3.39	73.039	-3.095e+05	3025	0.11029	-0.29426	0.97698
3.392	73.037	-3.095e+05	3024.6	0.11087	-0.29446	0.97688
3.394	73.046	-3.095e+05	3024.1	0.11146	-0.29465	0.97678
3.396	73.041	-3.0949e+05	3023.6	0.11204	-0.29485	0.97668
3.398	73.018	-3.0949e+05	3023.1	0.11263	-0.29504	0.97659
3.4	73.019	-3.0949e+05	3022.7	0.11322	-0.29524	0.97649
3.402	73.027	-3.0949e+05	3022.3	0.11331	-0.29485	0.9761
3.404	73.055	-3.0949e+05	3021.9	0.11341	-0.29446	0.97571
3.406	73.063	-3.0949e+05	3021.5	0.11351	-0.29407	0.97532
3.408	73.058	-3.0948e+05	3021.1	0.11361	-0.29368	0.97493
3.41	73.066	-3.0948e+05	3020.6	0.1137	-0.29329	0.97454
3.412	73.021	-3.0949e+05	3020.2	0.1137	-0.29309	0.97376
3.414	73.079	-3.0949e+05	3019.7	0.1137	-0.2929	0.97297
3.416	73.104	-3.095e+05	3019.3	0.1137	-0.2927	0.97219
3.418	73.104	-3.095e+05	3018.9	0.1137	-0.29251	0.97141
3.42	73.001	-3.0949e+05	3018.6	0.1137	-0.29231	0.97063
3.422	72.962	-3.0949e+05	3018.1	0.11429	-0.29163	0.97044
3.424	73.027	-3.095e+05	3017.7	0.11488	-0.29095	0.97024
3.426	73.091	-3.095e+05	3017.3	0.11546	-0.29026	0.97005
3.428	73.041	-3.095e+05	3016.9	0.11605	-0.28958	0.96985
3.43	73.025	-3.095e+05	3016.5	0.11663	-0.2889	0.96966
3.432	73.062	-3.0949e+05	3016.1	0.11683	-0.28938	0.97014
3.434	73.034	-3.0949e+05	3015.8	0.11702	-0.28987	0.97063
3.436	73.016	-3.0949e+05	3015.4	0.11722	-0.29036	0.97112
3.438	73.044	-3.0949e+05	3015	0.11741	-0.29085	0.97161
3.44	73.057	-3.0948e+05	3014.7	0.11761	-0.29134	0.9721
3.442	73.022	-3.0948e+05	3014.3	0.11605	-0.29143	0.97141
3.444	72.966	-3.0948e+05	3014	0.11448	-0.29153	0.97073
3.446	72.977	-3.0948e+05	3013.6	0.11292	-0.29163	0.97005
3.448	73.015	-3.0947e+05	3013.3	0.11136	-0.29173	0.96936
3.45	72.987	-3.0947e+05	3013	0.1098	-0.29182	0.96868
3.452	72.962	-3.0947e+05	3012.7	0.11146	-0.29046	0.96829
3.454	72.965	-3.0947e+05	3012.4	0.11312	-0.28909	0.9679
3.456	73.025	-3.0947e+05	3012.2	0.11478	-0.28772	0.96751
3.458	73.153	-3.0947e+05	3012	0.11644	-0.28636	0.96712
3.46	73.183	-3.0947e+05	3011.8	0.1181	-0.28499	0.96673
3.462	73.092	-3.0947e+05	3011.5	0.11614	-0.28538	0.96702
3.464	73.039	-3.0947e+05	3011.2	0.11419	-0.28577	0.96731
3.466	73.033	-3.0947e+05	3010.9	0.11224	-0.28616	0.96761
3.468	73.044	-3.0947e+05	3010.7	0.11029	-0.28655	0.9679
3.47	73.067	-3.0947e+05	3010.5	0.10834	-0.28694	0.96819
3.472	73.027	-3.0947e+05	3010.3	0.10716	-0.28772	0.968
3.474	72.969	-3.0948e+05	3010.1	0.10599	-0.28851	0.9678
3.476	72.998	-3.0948e+05	3009.9	0.10482	-0.28929	0.96761
3.478	73.045	-3.0947e+05	3009.7	0.10365	-0.29007	0.96741
3.48	73.123	-3.0947e+05	3009.5	0.10248	-0.29085	0.96722
3.482	73.199	-3.0946e+05	3009.3	0.10551	-0.29085	0.96819
3.484	73.12	-3.0946e+05	3009.1	0.10853	-0.29085	0.96917
3.486	73.047	-3.0947e+05	3008.9	0.11156	-0.29085	0.97014
3.488	73.031	-3.0947e+05	3008.7	0.11458	-0.29085	0.97112
3.49	73.052	-3.0947e+05	3008.5	0.11761	-0.29085	0.9721
3.492	73.034	-3.0947e+05	3008.3	0.11712	-0.29095	0.97171
3.494	73.071	-3.0947e+05	3008.2	0.11663	-0.29104	0.97132
3.496	73.04	-3.0947e+05	3008	0.11614	-0.29114	0.97092
3.498	72.94	-3.0947e+05	3007.7	0.11566	-0.29124	0.97053
3.5	72.88	-3.0947e+05	3007.5	0.11517	-0.29134	0.97014
3.502	73.054	-3.0947e+05	3007.3	0.11517	-0.29065	0.96995
3.504	73.12	-3.0947e+05	3007.2	0.11517	-0.28997	0.96975
3.506	73.087	-3.0948e+05	3007	0.11517	-0.28929	0.96956
3.508	73.084	-3.0948e+05	3006.9	0.11517	-0.2886	0.96936
3.51	73.067	-3.0948e+05	3006.8	0.11517	-0.28792	0.96917
3.512	73.139	-3.0948e+05	3006.6	0.11566	-0.28802	0.96975
3.514	73.084	-3.0948e+05	3006.5	0.11614	-0.28812	0.97034
3.516	73.031	-3.0947e+05	3006.4	0.11663	-0.28821	0.97092
3.518	73.042	-3.0947e+05	3006.2	0.11712	-0.28831	0.97151
3.52	73.065	-3.0947e+05	3006.1	0.11761	-0.28841	0.9721
3.522	73.037	-3.0947e+05	3006	0.1178	-0.28851	0.9719
3.524	73.049	-3.0947e+05	3005.8	0.118	-0.2886	0.97171
3.526	73.072	-3.0947e+05	3005.7	0.11819	-0.2887	0.97151
3.528	73.069	-3.0947e+05	3005.5	0.11839	-0.2888	0.97132
3.53	73.044	-3.0948e+05	3005.4	0.11858	-0.2889	0.97112
3.532	73.029	-3.0948e+05	3005.2	0.11732	-0.28987	0.97141
3.534	73.016	-3.0948e+05	3005	0.11605	-0.29085	0.97171
3.536	73.001	-3.0947e+05	3004.8	0.11478	-0.29182	0.972
3.538	73.008	-3.0947e+05	3004.6	0.11351	-0.2928	0.97229
3.54	73.043	-3.0947e+05	3004.4	0.11224	-0.29378	0.97258
3.542	73.046	-3.0947e+05	3004.2	0.11429	-0.2926	0.97249
3.544	73.051	-3.0948e+05	3003.9	0.11634	-0.29143	0.97239
3.546	73.082	-3.0948e+05	3003.7	0.11839	-0.29026	0.97229
3.548	73.096	-3.0947e+05	3003.4	0.12044	-0.28909	0.97219
3.55	73.074	-3.0947e+05	3003.2	0.12249	-0.28792	0.9721
3.552	73.04	-3.0947e+05	3002.9	0.1218	-0.28792	0.97171
3.554	73.034	-3.0948e+05	3002.6	0.12112	-0.28792	0.97132
3.556	73.015	-3.0948e+05	3002.2	0.12044	-0.28792	0.97092
3.558	72.986	-3.0948e+05	3001.9	0.11976	-0.28792	0.97053
3.56	72.944	-3.0949e+05	3001.6	0.11907	-0.28792	0.97014
3.562	72.895	-3.0949e+05	3001.2	0.11946	-0.28782	0.97053
3.564	72.917	-3.0948e+05	3000.9	0.11985	-0.28772	0.97092
3.566	73.038	-3.0948e+05	3000.6	0.12024	-0.28763	0.97132
3.568	73.115	-3.0948e+05	3000.2	0.12063	-0.28753	0.97171
3.57	73.098	-3.0948e+05	2999.9	0.12102	-0.28743	0.9721
3.572	73.014	-3.0948e+05	2999.5	0.11927	-0.28851	0.97356
3.574	72.964	-3.0949e+05	2999.1	0.11751	-0.28958	0.97502
3.576	73	-3.0949e+05	2998.8	0.11575	-0.29065	0.97649
3.578	73.063	-3.0949e+05	2998.4	0.114	-0.29173	0.97795
3.58	73.026	-3.0949e+05	2998.1	0.11224	-0.2928	0.97942
3.582	72.924	-3.0949e+05	2997.8	0.11165	-0.2926	0.97903
3.584	72.871	-3.0949e+05	2997.6	0.11107	-0.29241	0.97864
3.586	72.904	-3.0949e+05	2997.3	0.11048	-0.29221	0.97824
3.588	72.988	-3.0949e+05	2997.1	0.1099	-0.29202	0.97785
3.59	73.015	-3.0949e+05	2996.9	0.10931	-0.29182	0.97746
3.592	72.967	-3.095e+05	2996.6	0.11039	-0.29231	0.97678
3.594	72.957	-3.095e+05	2996.4	0.11146	-0.2928	0.9761
3.596	73.034	-3.095e+05	2996.2	0.11253	-0.29329	0.97541
3.598	73.052	-3.095e+05	2995.9	0.11361	-0.29378	0.97473
3.6	73.06	-3.095e+05	2995.7	0.11468	-0.29426	0.97405
3.602	73.051	-3.095e+05	2995.3	0.11458	-0.29446	0.97356
3.604	73.041	-3.095e+05	2995	0.11448	-0.29465	0.97307
3.606	73.08	-3.095e+05	2994.6	0.11439	-0.29485	0.97258
3.608	73.032	-3.095e+05	2994.3	0.11429	-0.29504	0.9721
3.61	72.987	-3.095e+05	2993.9	0.11419	-0.29524	0.97161
3.612	72.967	-3.095e+05	2993.5	0.11517	-0.29475	0.97239
3.614	72.988	-3.095e+05	2993.1	0.11614	-0.29426	0.97317
3.616	73.009	-3.095e+05	2992.7	0.11712	-0.29378	0.97395
3.618	73.056	-3.095e+05	2992.3	0.1181	-0.29329	0.97473
3.62	73.118	-3.0951e+05	2991.9	0.11907	-0.2928	0.97551
3.622	73.121	-3.0951e+05	2991.6	0.1181	-0.29339	0.97571
3.624	73.054	-3.0951e+05	2991.2	0.11712	-0.29397	0.9759
3.626	72.963	-3.0951e+05	2990.8	0.11614	-0.29456	0.9761
3.628	72.952	-3.095e+05	2990.5	0.11517	-0.29514	0.97629
3.63	73.053	-3.095e+05	2990.2	0.11419	-0.29573	0.97649
3.632	73.111	-3.095e+05	2989.8	0.11429	-0.29563	0.9759
3.634	73.099	-3.095e+05	2989.4	0.11439	-0.29553	0.97532
3.636	73.125	-3.095e+05	2989	0.11448	-0.29544	0.97473
3.638	73.146	-3.0951e+05	2988.6	0.11458	-0.29534	0.97415
3.64	73.1	-3.0951e+05	2988.2	0.11468	-0.29524	0.97356
3.642	73.02	-3.0952e+05	2987.9	0.11214	-0.29524	0.97522
3.644	72.986	-3.0952e+05	2987.6	0.1096	-0.29524	0.97688
3.646	73.024	-3.0952e+05	2987.2	0.10707	-0.29524	0.97854
3.648	73.055	-3.0951e+05	2986.9	0.10453	-0.29524	0.9802
3.65	73.08	-3.0951e+05	2986.5	0.10199	-0.29524	0.98186
3.652	73.126	-3.0951e+05	2986.1	0.10268	-0.29387	0.98186
3.654	73.116	-3.0952e+05	2985.7	0.10336	-0.29251	0.98186
3.656	73.124	-3.0952e+05	2985.3	0.10404	-0.29114	0.98186
3.658	73.123	-3.0953e+05	2984.9	0.10472	-0.28977	0.98186
3.66	73.102	-3.0953e+05	2984.4	0.10541	-0.28841	0.98186
3.662	73.048	-3.0953e+05	2984	0.10512	-0.28929	0.98147
3.664	73.043	-3.0954e+05	2983.6	0.10482	-0.29016	0.98108
3.666	72.985	-3.0954e+05	2983.2	0.10453	-0.29104	0.98068
3.668	72.99	-3.0954e+05	2982.8	0.10424	-0.29192	0.98029
3.67	73.064	-3.0954e+05	2982.3	0.10394	-0.2928	0.9799
3.672	73.034	-3.0954e+05	2981.9	0.10453	-0.2926	0.97961
3.674	73.061	-3.0953e+05	2981.4	0.10512	-0.29241	0.97932
3.676	73.053	-3.0953e+05	2981	0.1057	-0.29221	0.97903
3.678	73.017	-3.0953e+05	2980.7	0.10629	-0.29202	0.97873
3.68	73.089	-3.0954e+05	2980.3	0.10687	-0.29182	0.97844
3.682	73.155	-3.0954e+05	2979.9	0.10824	-0.29348	0.97678
3.684	73.13	-3.0954e+05	2979.6	0.1096	-0.29514	0.97512
3.686	73.118	-3.0954e+05	2979.2	0.11097	-0.2968	0.97346
3.688	73.107	-3.0954e+05	2978.8	0.11234	-0.29846	0.9718
3.69	73.031	-3.0954e+05	2978.4	0.1137	-0.30012	0.97014
3.692	73.003	-3.0954e+05	2978	0.11292	-0.29992	0.97014
3.694	73.057	-3.0955e+05	2977.6	0.11214	-0.29973	0.97014
3.696	73.119	-3.0955e+05	2977.2	0.11136	-0.29953	0.97014
3.698	73.125	-3.0955e+05	2976.8	0.11058	-0.29934	0.97014
3.7	73.131	-3.0955e+05	2976.3	0.1098	-0.29914	0.97014
3.702	73.126	-3.0955e+05	2975.9	0.11019	-0.29875	0.97151
3.704	73.097	-3.0955e+05	2975.5	0.11058	-0.29836	0.97288
3.706	73.087	-3.0955e+05	2975.1	0.11097	-0.29797	0.97424
3.708	73.118	-3.0957e+05	2974.7	0.11136	-0.29758	0.97561
3.71	73.12	-3.0957e+05	2974.4	0.11175	-0.29719	0.97698
3.712	73.073	-3.0957e+05	2974.2	0.11195	-0.29719	0.97727
3.714	73.03	-3.0957e+05	2973.9	0.11214	-0.29719	0.97756
3.716	72.978	-3.0957e+05	2973.8	0.11234	-0.29719	0.97785
3.718	72.889	-3.0958e+05	2973.6	0.11253	-0.29719	0.97815
3.72	72.781	-3.0957e+05	2973.5	0.11273	-0.29719	0.97844
3.722	72.615	-3.0957e+05	2973.3	0.11322	-0.29631	0.97785
3.724	72.395	-3.0958e+05	2973.1	0.1137	-0.29544	0.97727
3.726	72.262	-3.0959e+05	2972.9	0.11419	-0.29456	0.97668
3.728	72.204	-3.0959e+05	2972.8	0.11468	-0.29368	0.9761
3.73	72.116	-3.0959e+05	2972.6	0.11517	-0.2928	0.97551
3.732	72.075	-3.0959e+05	2972.3	0.11448	-0.29407	0.97522
3.734	72.145	-3.0959e+05	2971.9	0.1138	-0.29534	0.97493
3.736	72.302	-3.0959e+05	2971.6	0.11312	-0.29661	0.97463
3.738	72.51	-3.096e+05	2971.3	0.11244	-0.29788	0.97434
3.74	72.723	-3.096e+05	2971.1	0.11175	-0.29914	0.97405
3.742	72.876	-3.096e+05	2970.8	0.11146	-0.29846	0.97512
3.744	72.939	-3.0961e+05	2970.4	0.11117	-0.29778	0.9762
3.746	72.915	-3.0961e+05	2970.1	0.11087	-0.29709	0.97727
3.748	72.825	-3.0961e+05	2969.8	0.11058	-0.29641	0.97834
3.75	72.835	-3.0961e+05	2969.4	0.11029	-0.29573	0.97942
3.752	72.972	-3.0961e+05	2969	0.11019	-0.29612	0.98
3.754	73.048	-3.0961e+05	2968.6	0.11009	-0.29651	0.98059
3.756	73.046	-3.0961e+05	2968.3	0.11	-0.2969	0.98117
3.758	73.052	-3.0961e+05	2967.9	0.1099	-0.29729	0.98176
3.76	73.108	-3.0962e+05	2967.6	0.1098	-0.29768	0.98234
3.762	73.055	-3.0962e+05	2967.2	0.10951	-0.29778	0.98186
3.764	72.99	-3.0962e+05	2966.8	0.10921	-0.29788	0.98137
3.766	73.027	-3.0962e+05	2966.5	0.10892	-0.29797	0.98088
3.768	73.076	-3.0962e+05	2966.2	0.10863	-0.29807	0.98039
3.77	73.096	-3.0962e+05	2965.8	0.10834	-0.29817	0.9799
3.772	73.111	-3.0963e+05	2965.5	0.10775	-0.29661	0.97932
3.774	73.076	-3.0963e+05	2965.2	0.10716	-0.29504	0.97873
3.776	72.979	-3.0963e+05	2965	0.10658	-0.29348	0.97815
3.778	72.935	-3.0963e+05	2964.7	0.10599	-0.29192	0.97756
3.78	73.033	-3.0964e+05	2964.4	0.10541	-0.29036	0.97698
3.782	73.182	-3.0964e+05	2964.1	0.10609	-0.29251	0.97493
3.784	73.227	-3.0964e+05	2963.8	0.10677	-0.29465	0.97288
3.786	73.135	-3.0964e+05	2963.5	0.10746	-0.2968	0.97083
3.788	73.045	-3.0964e+05	2963.2	0.10814	-0.29895	0.96878
3.79	73.001	-3.0964e+05	2962.9	0.10882	-0.3011	0.96673
3.792	73.007	-3.0965e+05	2962.5	0.10921	-0.3008	0.96614
3.794	73.059	-3.0965e+05	2962.1	0.1096	-0.30051	0.96556
3.796	73.08	-3.0965e+05	2961.7	0.11	-0.30022	0.96497
3.798	73.065	-3.0966e+05	2961.2	0.11039	-0.29992	0.96439
3.8	73.07	-3.0966e+05	2960.8	0.11078	-0.29963	0.9638
3.802	73.116	-3.0966e+05	2960.3	0.11234	-0.29866	0.96546
3.804	73.137	-3.0967e+05	2959.8	0.1139	-0.29768	0.96712
3.806	73.118	-3.0967e+05	2959.3	0.11546	-0.2967	0.96878
3.808	73.113	-3.0967e+05	2958.8	0.11702	-0.29573	0.97044
3.81	73.094	-3.0966e+05	2958.4	0.11858	-0.29475	0.9721
3.812	73.066	-3.0967e+05	2957.9	0.11829	-0.29368	0.97171
3.814	73.055	-3.0967e+05	2957.4	0.118	-0.2926	0.97132
3.816	73.061	-3.0968e+05	2957	0.11771	-0.29153	0.97092
3.818	73.069	-3.0968e+05	2956.5	0.11741	-0.29046	0.97053
3.82	73.046	-3.0968e+05	2956.1	0.11712	-0.28938	0.97014
3.822	73.022	-3.0968e+05	2955.6	0.11536	-0.29026	0.97161
3.824	73.031	-3.0968e+05	2955.2	0.11361	-0.29114	0.97307
3.826	73.039	-3.0968e+05	2954.7	0.11185	-0.29202	0.97454
3.828	73.042	-3.0969e+05	2954.2	0.11009	-0.2929	0.976
3.83	73.121	-3.097e+05	2953.7	0.10834	-0.29378	0.97746
3.832	73.175	-3.0971e+05	2953.3	0.10931	-0.29368	0.97737
3.834	73.09	-3.0971e+05	2952.8	0.11029	-0.29358	0.97727
3.836	73.029	-3.097e+05	2952.3	0.11126	-0.29348	0.97717
3.838	73.005	-3.0969e+05	2951.9	0.11224	-0.29339	0.97707
3.84	73.038	-3.097e+05	2951.5	0.11322	-0.29329	0.97698
3.842	73.038	-3.0971e+05	2951	0.11224	-0.29339	0.97776
3.844	73.034	-3.0971e+05	2950.6	0.11126	-0.29348	0.97854
3.846	73.046	-3.0972e+05	2950.2	0.11029	-0.29358	0.97932
3.848	73.025	-3.0972e+05	2949.8	0.10931	-0.29368	0.9801
3.85	72.977	-3.0972e+05	2949.4	0.10834	-0.29378	0.98088
3.852	72.973	-3.0972e+05	2949.1	0.11039	-0.2926	0.97903
3.854	73.05	-3.0972e+05	2948.7	0.11244	-0.29143	0.97717
3.856	73.027	-3.0972e+05	2948.4	0.11448	-0.29026	0.97532
3.858	73.029	-3.0972e+05	2948.1	0.11653	-0.28909	0.97346
3.86	73.035	-3.0973e+05	2947.8	0.11858	-0.28792	0.97161
3.862	73.079	-3.0973e+05	2947.6	0.11907	-0.28743	0.97092
3.864	73.111	-3.0974e+05	2947.3	0.11956	-0.28694	0.97024
3.866	73.123	-3.0974e+05	2947	0.12005	-0.28646	0.96956
3.868	73.094	-3.0974e+05	2946.8	0.12054	-0.28597	0.96888
3.87	73.061	-3.0975e+05	2946.6	0.12102	-0.28548	0.96819
3.872	73.027	-3.0974e+05	2946.4	0.11995	-0.28694	0.96927
3.874	72.968	-3.0975e+05	2946.1	0.11888	-0.28841	0.97034
3.876	72.97	-3.0975e+05	2945.9	0.1178	-0.28987	0.97141
3.878	73.025	-3.0975e+05	2945.8	0.11673	-0.29134	0.97249
3.88	73.059	-3.0975e+05	2945.6	0.11566	-0.2928	0.97356
3.882	73.062	-3.0975e+05	2945.6	0.11517	-0.29319	0.97307
3.884	73.08	-3.0976e+05	2945.5	0.11468	-0.29358	0.97258
3.886	73.094	-3.0976e+05	2945.6	0.11419	-0.29397	0.9721
3.888	73.09	-3.0976e+05	2945.7	0.1137	-0.29436	0.97161
3.89	73.05	-3.0976e+05	2945.8	0.11322	-0.29475	0.97112
3.892	72.976	-3.0977e+05	2946.2	0.11351	-0.29348	0.97053
3.894	72.976	-3.0977e+05	2946.6	0.1138	-0.29221	0.96995
3.896	73.051	-3.0977e+05	2947.2	0.11409	-0.29095	0.96936
3.898	73.076	-3.0978e+05	2948.1	0.11439	-0.28968	0.96878
3.9	73.047	-3.0978e+05	2949	0.11468	-0.28841	0.96819
3.902	73.014	-3.0979e+05	2950.4	0.11448	-0.28968	0.96907
3.904	73.001	-3.0979e+05	2951.8	0.11429	-0.29095	0.96995
3.906	73.006	-3.0979e+05	2953.4	0.11409	-0.29221	0.97083
3.908	72.988	-3.0979e+05	2955.3	0.1139	-0.29348	0.97171
3.91	72.929	-3.0979e+05	2957.3	0.1137	-0.29475	0.97258
3.912	72.927	-3.098e+05	2959.5	0.114	-0.29397	0.97239
3.914	72.995	-3.098e+05	2961.7	0.11429	-0.29319	0.97219
3.916	73.023	-3.0981e+05	2964.1	0.11458	-0.29241	0.972
3.918	72.976	-3.0981e+05	2966.5	0.11488	-0.29163	0.9718
3.92	72.988	-3.098e+05	2969	0.11517	-0.29085	0.97161
3.922	73.074	-3.098e+05	2971.4	0.11517	-0.29036	0.97102
3.924	73.038	-3.098e+05	2973.8	0.11517	-0.28987	0.97044
3.926	72.966	-3.098e+05	2976.1	0.11517	-0.28938	0.96985
3.928	72.942	-3.098e+05	2978.4	0.11517	-0.2889	0.96927
3.93	72.91	-3.098e+05	2980.7	0.11517	-0.28841	0.96868
3.932	72.881	-3.0981e+05	2982.8	0.11458	-0.29007	0.96878
3.934	72.852	-3.0981e+05	2984.9	0.114	-0.29173	0.96888
3.936	72.918	-3.0982e+05	2986.8	0.11341	-0.29339	0.96897
3.938	73.069	-3.0982e+05	2988.6	0.11283	-0.29504	0.96907
3.94	73.032	-3.0982e+05	2990.4	0.11224	-0.2967	0.96917
3.942	72.93	-3.0981e+05	2992.1	0.11283	-0.29631	0.96946
3.944	72.882	-3.0981e+05	2993.8	0.11341	-0.29592	0.96975
3.946	72.897	-3.0981e+05	2995.4	0.114	-0.29553	0.97005
3.948	72.915	-3.0981e+05	2996.9	0.11458	-0.29514	0.97034
3.95	72.895	-3.0981e+05	2998.5	0.11517	-0.29475	0.97063
3.952	72.828	-3.0981e+05	2999.8	0.11361	-0.29407	0.97014
3.954	72.81	-3.098e+05	3001.1	0.11204	-0.29339	0.96966
3.956	72.889	-3.098e+05	3002.4	0.11048	-0.2927	0.96917
3.958	72.96	-3.098e+05	3003.6	0.10892	-0.29202	0.96868
3.96	72.969	-3.098e+05	3004.8	0.10736	-0.29134	0.96819
3.962	72.909	-3.098e+05	3005.8	0.10941	-0.29163	0.96858
3.964	72.816	-3.098e+05	3006.9	0.11146	-0.29192	0.96897
3.966	72.756	-3.098e+05	3007.9	0.11351	-0.29221	0.96936
3.968	72.742	-3.0979e+05	3008.9	0.11556	-0.29251	0.96975
3.97	72.782	-3.0979e+05	3009.9	0.11761	-0.2928	0.97014
3.972	72.889	-3.0979e+05	3010.9	0.11712	-0.29319	0.97034
3.974	72.982	-3.0978e+05	3011.8	0.11663	-0.29358	0.97053
3.976	72.973	-3.0978e+05	3012.7	0.11614	-0.29397	0.97073
3.978	72.923	-3.0978e+05	3013.5	0.11566	-0.29436	0.97092
3.98	72.904	-3.0978e+05	3014.3	0.11517	-0.29475	0.97112
3.982	72.883	-3.0977e+05	3015	0.11439	-0.29524	0.97083
3.984	72.84	-3.0977e+05	3015.8	0.11361	-0.29573	0.97053
3.986	72.813	-3.0976e+05	3016.5	0.11283	-0.29622	0.97024
3.988	72.84	-3.0977e+05	3017.2	0.11204	-0.2967	0.96995
3.99	72.873	-3.0976e+05	3017.8	0.11126	-0.29719	0.96966
3.992	72.916	-3.0976e+05	3018.4	0.11087	-0.29641	0.97092
3.994	72.9	-3.0975e+05	3019	0.11048	-0.29563	0.97219
3.996	72.83	-3.0974e+05	3019.5	0.11009	-0.29485	0.97346
3.998	72.821	-3.0974e+05	3020.1	0.1097	-0.29407	0.97473
4	72.903	-3.0974e+05	3020.7	0.10931	-0.29329	0.976
4.002	72.951	-3.0974e+05	3021.2	0.11048	-0.29426	0.97512
4.004	72.941	-3.0974e+05	3021.7	0.11165	-0.29524	0.97424
4.006	72.951	-3.0973e+05	3022.1	0.11283	-0.29622	0.97336
4.008	72.952	-3.0973e+05	3022.4	0.114	-0.29719	0.97249
4.01	72.936	-3.0972e+05	3022.8	0.11517	-0.29817	0.97161
4.012	72.913	-3.0972e+05	3023.1	0.11429	-0.29739	0.97219
4.014	72.939	-3.0971e+05	3023.4	0.11341	-0.29661	0.97278
4.016	73.008	-3.0971e+05	3023.7	0.11253	-0.29583	0.97336
4.018	72.977	-3.097e+05	3024	0.11165	-0.29504	0.97395
4.02	72.883	-3.097e+05	3024.3	0.11078	-0.29426	0.97454
4.022	72.841	-3.0969e+05	3024.6	0.11087	-0.29436	0.97395
4.024	72.868	-3.0968e+05	3025	0.11097	-0.29446	0.97336
4.026	73.01	-3.0968e+05	3025.3	0.11107	-0.29456	0.97278
4.028	73.065	-3.0968e+05	3025.5	0.11117	-0.29465	0.97219
4.03	73.042	-3.0968e+05	3025.8	0.11126	-0.29475	0.97161
4.032	72.988	-3.0967e+05	3026.1	0.11068	-0.29504	0.97122
4.034	72.985	-3.0967e+05	3026.3	0.11009	-0.29534	0.97083
4.036	72.998	-3.0966e+05	3026.5	0.10951	-0.29563	0.97044
4.038	72.978	-3.0965e+05	3026.7	0.10892	-0.29592	0.97005
4.04	72.925	-3.0965e+05	3027	0.10834	-0.29622	0.96966
4.042	72.925	-3.0964e+05	3027.1	0.10941	-0.2967	0.96966
4.044	73.041	-3.0963e+05	3027.3	0.11048	-0.29719	0.96966
4.046	73.095	-3.0962e+05	3027.4	0.11156	-0.29768	0.96966
4.048	73.056	-3.0962e+05	3027.6	0.11263	-0.29817	0.96966
4.05	73.03	-3.0961e+05	3027.8	0.1137	-0.29866	0.96966
4.052	73.034	-3.0961e+05	3027.9	0.11341	-0.29963	0.97014
4.054	73.025	-3.096e+05	3028	0.11312	-0.30061	0.97063
4.056	72.989	-3.096e+05	3028.2	0.11283	-0.30158	0.97112
4.058	72.983	-3.096e+05	3028.3	0.11253	-0.30256	0.97161
4.06	73.04	-3.0959e+05	3028.4	0.11224	-0.30354	0.9721
4.062	73.081	-3.0959e+05	3028.5	0.11234	-0.30285	0.97219
4.064	73.048	-3.0958e+05	3028.6	0.11244	-0.30217	0.97229
4.066	72.987	-3.0957e+05	3028.7	0.11253	-0.30149	0.97239
4.068	72.951	-3.0957e+05	3028.8	0.11263	-0.3008	0.97249
4.07	72.953	-3.0957e+05	3028.9	0.11273	-0.30012	0.97258
4.072	72.978	-3.0957e+05	3028.9	0.11165	-0.29934	0.97366
4.074	73.034	-3.0956e+05	3029	0.11058	-0.29856	0.97473
4.076	73.04	-3.0955e+05	3029.1	0.10951	-0.29778	0.9758
4.078	72.985	-3.0954e+05	3029.1	0.10843	-0.297	0.97688
4.08	72.987	-3.0954e+05	3029.1	0.10736	-0.29622	0.97795
4.082	73.056	-3.0953e+05	3029.1	0.10834	-0.29641	0.98
4.084	73.039	-3.0953e+05	3029.1	0.10931	-0.29661	0.98205
4.086	72.963	-3.0953e+05	3029.1	0.11029	-0.2968	0.9841
4.088	72.932	-3.0953e+05	3029.1	0.11126	-0.297	0.98615
4.09	72.95	-3.0952e+05	3029.1	0.11224	-0.29719	0.9882
4.092	73.047	-3.0952e+05	3029.1	0.11068	-0.29661	0.98732
4.094	73.137	-3.0952e+05	3029	0.10912	-0.29602	0.98644
4.096	73.051	-3.0952e+05	3029	0.10756	-0.29544	0.98556
4.098	72.952	-3.0951e+05	3029	0.10599	-0.29485	0.98469
4.1	72.977	-3.095e+05	3029	0.10443	-0.29426	0.98381
4.102	73.016	-3.095e+05	3028.8	0.1056	-0.29514	0.98352
4.104	73.02	-3.095e+05	3028.7	0.10677	-0.29602	0.98322
4.106	73.018	-3.095e+05	3028.6	0.10795	-0.2969	0.98293
4.108	72.963	-3.095e+05	3028.4	0.10912	-0.29778	0.98264
4.11	72.949	-3.0949e+05	3028.3	0.11029	-0.29866	0.98234
4.112	72.953	-3.0948e+05	3028	0.11009	-0.29846	0.98156
4.114	72.962	-3.0947e+05	3027.7	0.1099	-0.29827	0.98078
4.116	73.029	-3.0947e+05	3027.4	0.1097	-0.29807	0.98
4.118	73.053	-3.0947e+05	3027.1	0.10951	-0.29788	0.97922
4.12	73.044	-3.0947e+05	3026.8	0.10931	-0.29768	0.97844
4.122	73.011	-3.0947e+05	3026.5	0.11009	-0.29709	0.9802
4.124	72.972	-3.0946e+05	3026.2	0.11087	-0.29651	0.98195
4.126	72.957	-3.0945e+05	3025.8	0.11165	-0.29592	0.98371
4.128	72.942	-3.0945e+05	3025.5	0.11244	-0.29534	0.98547
4.13	72.941	-3.0945e+05	3025.1	0.11322	-0.29475	0.98722
4.132	73.035	-3.0945e+05	3024.7	0.11204	-0.29475	0.98596
4.134	73.107	-3.0944e+05	3024.4	0.11087	-0.29475	0.98469
4.136	73.061	-3.0944e+05	3024	0.1097	-0.29475	0.98342
4.138	73.004	-3.0944e+05	3023.6	0.10853	-0.29475	0.98215
4.14	72.988	-3.0944e+05	3023.3	0.10736	-0.29475	0.98088
4.142	72.967	-3.0944e+05	3022.9	0.10726	-0.29397	0.98098
4.144	72.969	-3.0943e+05	3022.5	0.10716	-0.29319	0.98108
4.146	72.994	-3.0943e+05	3022.2	0.10707	-0.29241	0.98117
4.148	72.98	-3.0943e+05	3021.7	0.10697	-0.29163	0.98127
4.15	72.963	-3.0942e+05	3021.3	0.10687	-0.29085	0.98137
4.152	72.983	-3.0942e+05	3020.9	0.10834	-0.29182	0.9801
4.154	73.002	-3.0942e+05	3020.6	0.1098	-0.2928	0.97883
4.156	72.997	-3.0942e+05	3020.1	0.11126	-0.29378	0.97756
4.158	72.979	-3.0942e+05	3019.7	0.11273	-0.29475	0.97629
4.16	72.937	-3.0941e+05	3019.2	0.11419	-0.29573	0.97502
4.162	72.926	-3.0941e+05	3018.7	0.11341	-0.29534	0.97629
4.164	72.985	-3.0941e+05	3018.3	0.11263	-0.29495	0.97756
4.166	73.049	-3.094e+05	3017.9	0.11185	-0.29456	0.97883
4.168	73.032	-3.094e+05	3017.5	0.11107	-0.29417	0.9801
4.17	72.997	-3.0941e+05	3017.1	0.11029	-0.29378	0.98137
4.172	72.993	-3.0941e+05	3016.7	0.11175	-0.29348	0.9801
4.174	72.988	-3.0941e+05	3016.4	0.11322	-0.29319	0.97883
4.176	72.962	-3.094e+05	3016.1	0.11468	-0.2929	0.97756
4.178	72.959	-3.094e+05	3015.8	0.11614	-0.2926	0.97629
4.18	72.983	-3.0941e+05	3015.5	0.11761	-0.29231	0.97502
4.182	73.017	-3.0941e+05	3015.2	0.11663	-0.29153	0.97278
4.184	72.952	-3.094e+05	3015	0.11566	-0.29075	0.97053
4.186	72.976	-3.094e+05	3014.7	0.11468	-0.28997	0.96829
4.188	73.048	-3.094e+05	3014.5	0.1137	-0.28919	0.96604
4.19	73.003	-3.094e+05	3014.2	0.11273	-0.28841	0.9638
4.192	73.008	-3.094e+05	3013.9	0.11195	-0.28968	0.9636
4.194	73.051	-3.094e+05	3013.7	0.11117	-0.29095	0.96341
4.196	73.017	-3.094e+05	3013.4	0.11039	-0.29221	0.96321
4.198	72.958	-3.094e+05	3013.2	0.1096	-0.29348	0.96302
4.2	72.891	-3.094e+05	3012.9	0.10882	-0.29475	0.96282
4.202	72.89	-3.094e+05	3012.7	0.10941	-0.29514	0.9639
4.204	72.959	-3.094e+05	3012.6	0.11	-0.29553	0.96497
4.206	73.043	-3.0941e+05	3012.4	0.11058	-0.29592	0.96604
4.208	73.043	-3.094e+05	3012.3	0.11117	-0.29631	0.96712
4.21	72.999	-3.094e+05	3012.1	0.11175	-0.2967	0.96819
4.212	72.976	-3.094e+05	3012	0.11048	-0.29592	0.96809
4.214	72.974	-3.094e+05	3011.9	0.10921	-0.29514	0.968
4.216	73.002	-3.094e+05	3011.8	0.10795	-0.29436	0.9679
4.218	73.057	-3.094e+05	3011.6	0.10668	-0.29358	0.9678
4.22	73.052	-3.0941e+05	3011.5	0.10541	-0.2928	0.9677
4.222	72.991	-3.0941e+05	3011.3	0.10551	-0.29202	0.96673
4.224	72.974	-3.0941e+05	3011.1	0.1056	-0.29124	0.96575
4.226	72.999	-3.094e+05	3010.9	0.1057	-0.29046	0.96478
4.228	72.996	-3.094e+05	3010.7	0.1058	-0.28968	0.9638
4.23	73	-3.094e+05	3010.5	0.1059	-0.2889	0.96282
4.232	73.044	-3.094e+05	3010.4	0.10697	-0.29065	0.96419
4.234	73.064	-3.094e+05	3010.3	0.10804	-0.29241	0.96556
4.236	73.025	-3.094e+05	3010.1	0.10912	-0.29417	0.96692
4.238	72.96	-3.094e+05	3010	0.11019	-0.29592	0.96829
4.24	72.92	-3.094e+05	3009.9	0.11126	-0.29768	0.96966
4.242	72.925	-3.094e+05	3009.7	0.11048	-0.29661	0.96966
4.244	72.987	-3.094e+05	3009.6	0.1097	-0.29553	0.96966
4.246	73.041	-3.0939e+05	3009.5	0.10892	-0.29446	0.96966
4.248	73.007	-3.094e+05	3009.3	0.10814	-0.29339	0.96966
4.25	72.966	-3.094e+05	3009.1	0.10736	-0.29231	0.96966
4.252	72.968	-3.094e+05	3008.9	0.10931	-0.29212	0.97063
4.254	72.946	-3.094e+05	3008.7	0.11126	-0.29192	0.97161
4.256	72.96	-3.094e+05	3008.5	0.11322	-0.29173	0.97258
4.258	72.999	-3.094e+05	3008.4	0.11517	-0.29153	0.97356
4.26	73.01	-3.0939e+05	3008.2	0.11712	-0.29134	0.97454
