t	ekg	optical	pressure	accel_x	accel_y	accel_z
1.1369e-13	135.9	-3.0133e+05	3078.6	-0.4353	0.77982	0.47726
0.002	135.91	-3.0133e+05	3078.5	-0.43412	0.7806	0.47717
0.004	135.91	-3.0133e+05	3078.4	-0.43295	0.78139	0.47707
0.006	135.92	-3.0133e+05	3078.3	-0.43178	0.78217	0.47697
0.008	135.92	-3.0132e+05	3078.2	-0.43061	0.78295	0.47687
0.01	135.92	-3.0133e+05	3078.1	-0.42944	0.78373	0.47678
0.012	135.93	-3.0133e+05	3078	-0.42983	0.78353	0.47687
0.014	135.94	-3.0133e+05	3077.9	-0.43022	0.78334	0.47697
0.016	135.94	-3.0132e+05	3077.8	-0.43061	0.78314	0.47707
0.018	135.95	-3.0133e+05	3077.7	-0.431	0.78295	0.47717
0.02	135.95	-3.0133e+05	3077.7	-0.43139	0.78275	0.47726
0.022	135.96	-3.0134e+05	3077.6	-0.4312	0.78353	0.47736
0.024	135.96	-3.0134e+05	3077.5	-0.431	0.78431	0.47746
0.026	135.96	-3.0134e+05	3077.4	-0.43081	0.78509	0.47756
0.028	135.96	-3.0133e+05	3077.3	-0.43061	0.78588	0.47765
0.03	135.96	-3.0133e+05	3077.3	-0.43042	0.78666	0.47775
0.032	135.96	-3.0132e+05	3077.2	-0.43061	0.78558	0.47756
0.034	135.96	-3.0132e+05	3077.1	-0.43081	0.78451	0.47736
0.036	135.97	-3.0133e+05	3077	-0.431	0.78344	0.47717
0.038	135.97	-3.0132e+05	3076.9	-0.4312	0.78236	0.47697
0.04	135.97	-3.0131e+05	3076.8	-0.43139	0.78129	0.47678
0.042	135.97	-3.0132e+05	3076.7	-0.42973	0.78256	0.4759
0.044	135.96	-3.0132e+05	3076.6	-0.42807	0.78383	0.47502
0.046	135.97	-3.0132e+05	3076.5	-0.42641	0.78509	0.47414
0.048	135.97	-3.0131e+05	3076.4	-0.42476	0.78636	0.47326
0.05	135.97	-3.0132e+05	3076.3	-0.4231	0.78763	0.47238
0.052	135.98	-3.0132e+05	3076.3	-0.42349	0.78753	0.47277
0.054	135.98	-3.0132e+05	3076.2	-0.42388	0.78744	0.47316
0.056	135.97	-3.0132e+05	3076.1	-0.42427	0.78734	0.47356
0.058	135.97	-3.0132e+05	3076	-0.42466	0.78724	0.47395
0.06	135.97	-3.0132e+05	3075.9	-0.42505	0.78714	0.47434
0.062	135.97	-3.0132e+05	3075.8	-0.42515	0.78646	0.47463
0.064	135.98	-3.0131e+05	3075.8	-0.42524	0.78578	0.47492
0.066	135.98	-3.0131e+05	3075.7	-0.42534	0.78509	0.47521
0.068	135.98	-3.0131e+05	3075.6	-0.42544	0.78441	0.47551
0.07	135.98	-3.0131e+05	3075.5	-0.42554	0.78373	0.4758
0.072	135.98	-3.0131e+05	3075.4	-0.4269	0.78256	0.47521
0.074	135.97	-3.0131e+05	3075.3	-0.42827	0.78139	0.47463
0.076	135.97	-3.0131e+05	3075.2	-0.42964	0.78021	0.47404
0.078	135.97	-3.0131e+05	3075.1	-0.431	0.77904	0.47346
0.08	135.97	-3.013e+05	3074.9	-0.43237	0.77787	0.47287
0.082	135.97	-3.013e+05	3074.8	-0.43178	0.77904	0.47346
0.084	135.97	-3.013e+05	3074.7	-0.4312	0.78021	0.47404
0.086	135.98	-3.0131e+05	3074.6	-0.43061	0.78139	0.47463
0.088	135.98	-3.0131e+05	3074.4	-0.43003	0.78256	0.47521
0.09	135.98	-3.0132e+05	3074.2	-0.42944	0.78373	0.4758
0.092	135.98	-3.0132e+05	3074	-0.42895	0.78431	0.47551
0.094	135.98	-3.0131e+05	3073.8	-0.42846	0.7849	0.47521
0.096	135.98	-3.0131e+05	3073.6	-0.42798	0.78548	0.47492
0.098	135.98	-3.0131e+05	3073.3	-0.42749	0.78607	0.47463
0.1	135.98	-3.0131e+05	3073.1	-0.427	0.78666	0.47434
0.102	135.98	-3.013e+05	3072.8	-0.42671	0.78685	0.47385
0.104	135.98	-3.013e+05	3072.6	-0.42641	0.78705	0.47336
0.106	135.98	-3.0131e+05	3072.3	-0.42612	0.78724	0.47287
0.108	135.98	-3.0131e+05	3072	-0.42583	0.78744	0.47238
0.11	135.98	-3.0131e+05	3071.7	-0.42554	0.78763	0.4719
0.112	135.98	-3.0131e+05	3071.4	-0.42573	0.78753	0.47258
0.114	135.99	-3.0131e+05	3071	-0.42593	0.78744	0.47326
0.116	135.99	-3.013e+05	3070.6	-0.42612	0.78734	0.47395
0.118	135.99	-3.0131e+05	3070.3	-0.42632	0.78724	0.47463
0.12	135.99	-3.0131e+05	3069.9	-0.42651	0.78714	0.47531
0.122	135.98	-3.0132e+05	3069.5	-0.42671	0.78724	0.47473
0.124	135.99	-3.0132e+05	3069.2	-0.4269	0.78734	0.47414
0.126	135.99	-3.0132e+05	3068.8	-0.4271	0.78744	0.47356
0.128	135.99	-3.0132e+05	3068.4	-0.42729	0.78753	0.47297
0.13	135.99	-3.0132e+05	3068	-0.42749	0.78763	0.47238
0.132	135.99	-3.0132e+05	3067.6	-0.42749	0.78724	0.47287
0.134	135.99	-3.0132e+05	3067.3	-0.42749	0.78685	0.47336
0.136	136	-3.0132e+05	3066.9	-0.42749	0.78646	0.47385
0.138	136	-3.0132e+05	3066.5	-0.42749	0.78607	0.47434
0.14	136	-3.0132e+05	3066.1	-0.42749	0.78568	0.47482
0.142	136	-3.0132e+05	3065.8	-0.427	0.78558	0.47512
0.144	136	-3.0131e+05	3065.5	-0.42651	0.78548	0.47541
0.146	136	-3.0132e+05	3065.2	-0.42602	0.78539	0.4757
0.148	136	-3.0132e+05	3065	-0.42554	0.78529	0.476
0.15	136	-3.0132e+05	3064.7	-0.42505	0.78519	0.47629
0.152	136	-3.0132e+05	3064.6	-0.42563	0.7847	0.4758
0.154	136	-3.0132e+05	3064.4	-0.42622	0.78422	0.47531
0.156	136	-3.0132e+05	3064.2	-0.4268	0.78373	0.47482
0.158	136	-3.0131e+05	3064.1	-0.42739	0.78324	0.47434
0.16	136	-3.0131e+05	3063.9	-0.42798	0.78275	0.47385
0.162	136	-3.0131e+05	3063.8	-0.42866	0.78285	0.47463
0.164	136	-3.013e+05	3063.7	-0.42934	0.78295	0.47541
0.166	136.01	-3.013e+05	3063.6	-0.43003	0.78304	0.47619
0.168	136.01	-3.0131e+05	3063.5	-0.43071	0.78314	0.47697
0.17	136.01	-3.013e+05	3063.5	-0.43139	0.78324	0.47775
0.172	136.01	-3.0129e+05	3063.5	-0.43208	0.78314	0.47795
0.174	136.01	-3.013e+05	3063.5	-0.43276	0.78304	0.47814
0.176	136.01	-3.013e+05	3063.5	-0.43344	0.78295	0.47834
0.178	136	-3.013e+05	3063.4	-0.43412	0.78285	0.47853
0.18	136	-3.013e+05	3063.4	-0.43481	0.78275	0.47873
0.182	136.01	-3.013e+05	3063.4	-0.43305	0.78304	0.47824
0.184	136.01	-3.0131e+05	3063.4	-0.43129	0.78334	0.47775
0.186	136.01	-3.0131e+05	3063.4	-0.42954	0.78363	0.47726
0.188	136.01	-3.013e+05	3063.4	-0.42778	0.78392	0.47678
0.19	136.01	-3.013e+05	3063.4	-0.42602	0.78422	0.47629
0.192	136	-3.013e+05	3063.5	-0.42729	0.78295	0.47609
0.194	136	-3.013e+05	3063.5	-0.42856	0.78168	0.4759
0.196	136	-3.013e+05	3063.5	-0.42983	0.78041	0.4757
0.198	136.01	-3.013e+05	3063.5	-0.4311	0.77914	0.47551
0.2	136.01	-3.0131e+05	3063.5	-0.43237	0.77787	0.47531
0.202	136.01	-3.013e+05	3063.6	-0.4311	0.77982	0.47541
0.204	136.01	-3.013e+05	3063.6	-0.42983	0.78178	0.47551
0.206	136.01	-3.013e+05	3063.6	-0.42856	0.78373	0.4756
0.208	136.01	-3.0129e+05	3063.7	-0.42729	0.78568	0.4757
0.21	136.01	-3.0129e+05	3063.7	-0.42602	0.78763	0.4758
0.212	136.01	-3.0129e+05	3063.8	-0.42641	0.78705	0.476
0.214	136.01	-3.0129e+05	3063.8	-0.4268	0.78646	0.47619
0.216	136.01	-3.0129e+05	3063.8	-0.4272	0.78588	0.47639
0.218	136.01	-3.013e+05	3063.9	-0.42759	0.78529	0.47658
0.22	136.01	-3.013e+05	3063.9	-0.42798	0.7847	0.47678
0.222	136.01	-3.013e+05	3063.9	-0.42934	0.78383	0.47668
0.224	136.01	-3.013e+05	3064	-0.43071	0.78295	0.47658
0.226	136.01	-3.013e+05	3064	-0.43208	0.78207	0.47648
0.228	136.01	-3.013e+05	3064	-0.43344	0.78119	0.47639
0.23	136.01	-3.0131e+05	3064	-0.43481	0.78031	0.47629
0.232	136.01	-3.0131e+05	3064	-0.43247	0.78139	0.4756
0.234	136.01	-3.0131e+05	3063.9	-0.43012	0.78246	0.47492
0.236	136.01	-3.013e+05	3063.9	-0.42778	0.78353	0.47424
0.238	136.01	-3.013e+05	3063.9	-0.42544	0.78461	0.47356
0.24	136.01	-3.013e+05	3063.8	-0.4231	0.78568	0.47287
0.242	136.01	-3.013e+05	3063.8	-0.42368	0.78588	0.47326
0.244	136.01	-3.013e+05	3063.8	-0.42427	0.78607	0.47365
0.246	136.01	-3.013e+05	3063.7	-0.42485	0.78627	0.47404
0.248	136.01	-3.013e+05	3063.7	-0.42544	0.78646	0.47443
0.25	136.01	-3.013e+05	3063.6	-0.42602	0.78666	0.47482
0.252	136.01	-3.013e+05	3063.5	-0.42612	0.78675	0.47463
0.254	136.02	-3.013e+05	3063.5	-0.42622	0.78685	0.47443
0.256	136.01	-3.013e+05	3063.4	-0.42632	0.78695	0.47424
0.258	136.01	-3.013e+05	3063.3	-0.42641	0.78705	0.47404
0.26	136.01	-3.013e+05	3063.2	-0.42651	0.78714	0.47385
0.262	136.01	-3.013e+05	3063.1	-0.42622	0.78773	0.47297
0.264	136.01	-3.013e+05	3063	-0.42593	0.78832	0.47209
0.266	136.02	-3.013e+05	3062.9	-0.42563	0.7889	0.47121
0.268	136.02	-3.013e+05	3062.8	-0.42534	0.78949	0.47033
0.27	136.02	-3.013e+05	3062.7	-0.42505	0.79007	0.46946
0.272	136.02	-3.013e+05	3062.6	-0.42505	0.78929	0.47004
0.274	136.01	-3.013e+05	3062.5	-0.42505	0.78851	0.47063
0.276	136.01	-3.0129e+05	3062.4	-0.42505	0.78773	0.47121
0.278	136.01	-3.013e+05	3062.3	-0.42505	0.78695	0.4718
0.28	136.01	-3.013e+05	3062.2	-0.42505	0.78617	0.47238
0.282	136.01	-3.013e+05	3062	-0.42446	0.78588	0.47277
0.284	136.01	-3.013e+05	3061.9	-0.42388	0.78558	0.47316
0.286	136.01	-3.013e+05	3061.8	-0.42329	0.78529	0.47356
0.288	136.01	-3.013e+05	3061.7	-0.42271	0.785	0.47395
0.29	136.01	-3.013e+05	3061.6	-0.42212	0.7847	0.47434
0.292	136.01	-3.013e+05	3061.4	-0.4231	0.785	0.47443
0.294	136.01	-3.013e+05	3061.3	-0.42407	0.78529	0.47453
0.296	136	-3.013e+05	3061.2	-0.42505	0.78558	0.47463
0.298	136	-3.013e+05	3061.1	-0.42602	0.78588	0.47473
0.3	136	-3.013e+05	3061	-0.427	0.78617	0.47482
0.302	136	-3.013e+05	3060.8	-0.42671	0.78607	0.47473
0.304	136	-3.013e+05	3060.7	-0.42641	0.78597	0.47463
0.306	136	-3.013e+05	3060.5	-0.42612	0.78588	0.47453
0.308	136	-3.013e+05	3060.4	-0.42583	0.78578	0.47443
0.31	135.99	-3.013e+05	3060.3	-0.42554	0.78568	0.47434
0.312	135.99	-3.013e+05	3060.1	-0.42632	0.78588	0.47443
0.314	135.99	-3.013e+05	3059.9	-0.4271	0.78607	0.47453
0.316	135.98	-3.013e+05	3059.7	-0.42788	0.78627	0.47463
0.318	135.98	-3.013e+05	3059.6	-0.42866	0.78646	0.47473
0.32	135.99	-3.013e+05	3059.4	-0.42944	0.78666	0.47482
0.322	135.99	-3.013e+05	3059.2	-0.42924	0.78627	0.47551
0.324	135.99	-3.013e+05	3059	-0.42905	0.78588	0.47619
0.326	135.98	-3.013e+05	3058.9	-0.42885	0.78548	0.47687
0.328	135.97	-3.013e+05	3058.7	-0.42866	0.78509	0.47756
0.33	135.96	-3.013e+05	3058.5	-0.42846	0.7847	0.47824
0.332	135.95	-3.013e+05	3058.3	-0.42827	0.78431	0.47834
0.334	135.94	-3.013e+05	3058.1	-0.42807	0.78392	0.47844
0.336	135.94	-3.013e+05	3057.9	-0.42788	0.78353	0.47853
0.338	135.94	-3.013e+05	3057.6	-0.42768	0.78314	0.47863
0.34	135.94	-3.0131e+05	3057.4	-0.42749	0.78275	0.47873
0.342	135.94	-3.013e+05	3057.2	-0.42817	0.78295	0.47775
0.344	135.95	-3.013e+05	3056.9	-0.42885	0.78314	0.47678
0.346	135.96	-3.013e+05	3056.7	-0.42954	0.78334	0.4758
0.348	135.97	-3.0129e+05	3056.5	-0.43022	0.78353	0.47482
0.35	135.96	-3.0129e+05	3056.2	-0.4309	0.78373	0.47385
0.352	135.97	-3.0129e+05	3056	-0.43042	0.78402	0.47453
0.354	135.98	-3.0129e+05	3055.8	-0.42993	0.78431	0.47521
0.356	135.98	-3.013e+05	3055.5	-0.42944	0.78461	0.4759
0.358	135.99	-3.013e+05	3055.3	-0.42895	0.7849	0.47658
0.36	136	-3.0129e+05	3055.1	-0.42846	0.78519	0.47726
0.362	136.01	-3.0129e+05	3054.8	-0.42915	0.78451	0.47756
0.364	136.02	-3.013e+05	3054.6	-0.42983	0.78383	0.47785
0.366	136.03	-3.013e+05	3054.4	-0.43051	0.78314	0.47814
0.368	136.04	-3.013e+05	3054.2	-0.4312	0.78246	0.47844
0.37	136.04	-3.0129e+05	3053.9	-0.43188	0.78178	0.47873
0.372	136.04	-3.0129e+05	3053.7	-0.43139	0.78217	0.47902
0.374	136.04	-3.0129e+05	3053.5	-0.4309	0.78256	0.47931
0.376	136.03	-3.013e+05	3053.3	-0.43042	0.78295	0.47961
0.378	136.04	-3.013e+05	3053.1	-0.42993	0.78334	0.4799
0.38	136.04	-3.013e+05	3053	-0.42944	0.78373	0.48019
0.382	136.04	-3.013e+05	3052.7	-0.42934	0.78324	0.47902
0.384	136.05	-3.013e+05	3052.5	-0.42924	0.78275	0.47785
0.386	136.05	-3.013e+05	3052.3	-0.42915	0.78226	0.47668
0.388	136.05	-3.013e+05	3052.1	-0.42905	0.78178	0.47551
0.39	136.05	-3.013e+05	3051.9	-0.42895	0.78129	0.47434
0.392	136.05	-3.013e+05	3051.8	-0.42876	0.78295	0.47385
0.394	136.05	-3.013e+05	3051.6	-0.42856	0.78461	0.47336
0.396	136.05	-3.013e+05	3051.4	-0.42837	0.78627	0.47287
0.398	136.05	-3.013e+05	3051.2	-0.42817	0.78792	0.47238
0.4	136.05	-3.013e+05	3051	-0.42798	0.78958	0.4719
0.402	136.06	-3.013e+05	3050.9	-0.42729	0.7891	0.47268
0.404	136.06	-3.013e+05	3050.7	-0.42661	0.78861	0.47346
0.406	136.06	-3.013e+05	3050.6	-0.42593	0.78812	0.47424
0.408	136.07	-3.013e+05	3050.4	-0.42524	0.78763	0.47502
0.41	136.07	-3.013e+05	3050.3	-0.42456	0.78714	0.4758
0.412	136.06	-3.0131e+05	3050.1	-0.42378	0.78675	0.47492
0.414	136.06	-3.0131e+05	3050	-0.423	0.78636	0.47404
0.416	136.07	-3.0131e+05	3049.9	-0.42222	0.78597	0.47316
0.418	136.07	-3.013e+05	3049.8	-0.42144	0.78558	0.47229
0.42	136.07	-3.0129e+05	3049.7	-0.42066	0.78519	0.47141
0.422	136.07	-3.0129e+05	3049.5	-0.42144	0.78597	0.47112
0.424	136.07	-3.0129e+05	3049.4	-0.42222	0.78675	0.47082
0.426	136.07	-3.0129e+05	3049.3	-0.423	0.78753	0.47053
0.428	136.07	-3.0129e+05	3049.2	-0.42378	0.78832	0.47024
0.43	136.07	-3.013e+05	3049.1	-0.42456	0.7891	0.46994
0.432	136.07	-3.013e+05	3049.1	-0.42436	0.789	0.47033
0.434	136.07	-3.013e+05	3049	-0.42417	0.7889	0.47072
0.436	136.07	-3.013e+05	3048.9	-0.42397	0.7888	0.47112
0.438	136.08	-3.013e+05	3048.9	-0.42378	0.78871	0.47151
0.44	136.07	-3.013e+05	3048.9	-0.42358	0.78861	0.4719
0.442	136.07	-3.013e+05	3048.8	-0.42319	0.78734	0.47258
0.444	136.07	-3.013e+05	3048.7	-0.4228	0.78607	0.47326
0.446	136.07	-3.013e+05	3048.7	-0.42241	0.7848	0.47395
0.448	136.07	-3.0129e+05	3048.7	-0.42202	0.78353	0.47463
0.45	136.08	-3.0129e+05	3048.7	-0.42163	0.78226	0.47531
0.452	136.09	-3.0128e+05	3048.7	-0.42388	0.78168	0.4756
0.454	136.08	-3.0129e+05	3048.7	-0.42612	0.78109	0.4759
0.456	136.08	-3.0129e+05	3048.6	-0.42837	0.78051	0.47619
0.458	136.09	-3.013e+05	3048.6	-0.43061	0.77992	0.47648
0.46	136.09	-3.013e+05	3048.6	-0.43286	0.77934	0.47678
0.462	136.09	-3.0131e+05	3048.6	-0.43227	0.7806	0.47658
0.464	136.08	-3.0131e+05	3048.6	-0.43168	0.78187	0.47639
0.466	136.06	-3.0131e+05	3048.5	-0.4311	0.78314	0.47619
0.468	136.04	-3.0131e+05	3048.5	-0.43051	0.78441	0.476
0.47	136	-3.013e+05	3048.5	-0.42993	0.78568	0.4758
0.472	135.94	-3.013e+05	3048.5	-0.42934	0.78509	0.4759
0.474	135.87	-3.013e+05	3048.5	-0.42876	0.78451	0.476
0.476	135.77	-3.013e+05	3048.4	-0.42817	0.78392	0.47609
0.478	135.64	-3.013e+05	3048.4	-0.42759	0.78334	0.47619
0.48	135.48	-3.013e+05	3048.4	-0.427	0.78275	0.47629
0.482	135.33	-3.0129e+05	3048.3	-0.42602	0.78344	0.4758
0.484	135.21	-3.0129e+05	3048.3	-0.42505	0.78412	0.47531
0.486	135.16	-3.013e+05	3048.2	-0.42407	0.7848	0.47482
0.488	135.16	-3.013e+05	3048.1	-0.4231	0.78548	0.47434
0.49	135.24	-3.013e+05	3048.1	-0.42212	0.78617	0.47385
0.492	135.39	-3.013e+05	3048	-0.42319	0.78636	0.47424
0.494	135.6	-3.013e+05	3047.9	-0.42427	0.78656	0.47463
0.496	135.79	-3.013e+05	3047.8	-0.42534	0.78675	0.47502
0.498	135.92	-3.013e+05	3047.7	-0.42641	0.78695	0.47541
0.5	135.97	-3.0131e+05	3047.7	-0.42749	0.78714	0.4758
0.502	135.99	-3.0131e+05	3047.6	-0.4271	0.78783	0.47492
0.504	136.01	-3.0131e+05	3047.5	-0.42671	0.78851	0.47404
0.506	136.03	-3.0131e+05	3047.4	-0.42632	0.78919	0.47316
0.508	136.04	-3.0131e+05	3047.3	-0.42593	0.78988	0.47229
0.51	136.04	-3.013e+05	3047.2	-0.42554	0.79056	0.47141
0.512	136.05	-3.013e+05	3047	-0.42446	0.78929	0.47209
0.514	136.06	-3.013e+05	3046.9	-0.42339	0.78802	0.47277
0.516	136.07	-3.013e+05	3046.8	-0.42232	0.78675	0.47346
0.518	136.08	-3.013e+05	3046.7	-0.42124	0.78548	0.47414
0.52	136.09	-3.013e+05	3046.6	-0.42017	0.78422	0.47482
0.522	136.1	-3.013e+05	3046.4	-0.42212	0.78431	0.47502
0.524	136.09	-3.013e+05	3046.3	-0.42407	0.78441	0.47521
0.526	136.08	-3.013e+05	3046.2	-0.42602	0.78451	0.47541
0.528	136.08	-3.013e+05	3046	-0.42798	0.78461	0.4756
0.53	136.08	-3.013e+05	3045.9	-0.42993	0.7847	0.4758
0.532	136.08	-3.013e+05	3045.8	-0.42827	0.7849	0.47541
0.534	136.08	-3.013e+05	3045.7	-0.42661	0.78509	0.47502
0.536	136.08	-3.013e+05	3045.6	-0.42495	0.78529	0.47463
0.538	136.08	-3.013e+05	3045.6	-0.42329	0.78548	0.47424
0.54	136.07	-3.013e+05	3045.5	-0.42163	0.78568	0.47385
0.542	136.07	-3.013e+05	3045.4	-0.42173	0.78519	0.47414
0.544	136.07	-3.013e+05	3045.3	-0.42183	0.7847	0.47443
0.546	136.07	-3.013e+05	3045.2	-0.42192	0.78422	0.47473
0.548	136.07	-3.013e+05	3045.2	-0.42202	0.78373	0.47502
0.55	136.07	-3.013e+05	3045.1	-0.42212	0.78324	0.47531
0.552	136.07	-3.013e+05	3045.1	-0.42261	0.78441	0.47463
0.554	136.07	-3.013e+05	3045	-0.4231	0.78558	0.47395
0.556	136.07	-3.0131e+05	3045	-0.42358	0.78675	0.47326
0.558	136.07	-3.0131e+05	3045	-0.42407	0.78792	0.47258
0.56	136.07	-3.0131e+05	3044.9	-0.42456	0.7891	0.4719
0.562	136.07	-3.0131e+05	3044.9	-0.42534	0.78871	0.4716
0.564	136.06	-3.0131e+05	3044.8	-0.42612	0.78832	0.47131
0.566	136.06	-3.013e+05	3044.8	-0.4269	0.78792	0.47102
0.568	136.06	-3.0129e+05	3044.7	-0.42768	0.78753	0.47072
0.57	136.06	-3.013e+05	3044.7	-0.42846	0.78714	0.47043
0.572	136.07	-3.0132e+05	3044.6	-0.42905	0.78783	0.47004
0.574	136.07	-3.0131e+05	3044.6	-0.42964	0.78851	0.46965
0.576	136.06	-3.013e+05	3044.5	-0.43022	0.78919	0.46926
0.578	136.06	-3.013e+05	3044.4	-0.43081	0.78988	0.46887
0.58	136.06	-3.0131e+05	3044.3	-0.43139	0.79056	0.46848
0.582	136.06	-3.0131e+05	3044.3	-0.42993	0.79036	0.46868
0.584	136.06	-3.0132e+05	3044.2	-0.42846	0.79017	0.46887
0.586	136.05	-3.0131e+05	3044.1	-0.427	0.78997	0.46907
0.588	136.05	-3.0131e+05	3044	-0.42554	0.78978	0.46926
0.59	136.04	-3.013e+05	3043.9	-0.42407	0.78958	0.46946
0.592	136.04	-3.013e+05	3043.7	-0.42427	0.7891	0.47053
0.594	136.05	-3.013e+05	3043.6	-0.42446	0.78861	0.4716
0.596	136.05	-3.0131e+05	3043.4	-0.42466	0.78812	0.47268
0.598	136.05	-3.0131e+05	3043.2	-0.42485	0.78763	0.47375
0.6	136.05	-3.0131e+05	3043	-0.42505	0.78714	0.47482
0.602	136.05	-3.0131e+05	3042.9	-0.42427	0.78675	0.47492
0.604	136.05	-3.0131e+05	3042.7	-0.42349	0.78636	0.47502
0.606	136.05	-3.0131e+05	3042.5	-0.42271	0.78597	0.47512
0.608	136.05	-3.0131e+05	3042.3	-0.42192	0.78558	0.47521
0.61	136.05	-3.0131e+05	3042.1	-0.42114	0.78519	0.47531
0.612	136.05	-3.0131e+05	3041.9	-0.42153	0.78558	0.47492
0.614	136.05	-3.0131e+05	3041.7	-0.42192	0.78597	0.47453
0.616	136.05	-3.0131e+05	3041.5	-0.42232	0.78636	0.47414
0.618	136.05	-3.0131e+05	3041.3	-0.42271	0.78675	0.47375
0.62	136.05	-3.0131e+05	3041.2	-0.4231	0.78714	0.47336
0.622	136.05	-3.0131e+05	3041	-0.423	0.78685	0.47375
0.624	136.05	-3.0131e+05	3040.9	-0.4229	0.78656	0.47414
0.626	136.04	-3.0132e+05	3040.7	-0.4228	0.78627	0.47453
0.628	136.05	-3.0132e+05	3040.6	-0.42271	0.78597	0.47492
0.63	136.05	-3.0132e+05	3040.5	-0.42261	0.78568	0.47531
0.632	136.05	-3.0131e+05	3040.4	-0.42378	0.78548	0.4757
0.634	136.04	-3.0131e+05	3040.3	-0.42495	0.78529	0.47609
0.636	136.04	-3.0131e+05	3040.3	-0.42612	0.78509	0.47648
0.638	136.04	-3.0131e+05	3040.2	-0.42729	0.7849	0.47687
0.64	136.04	-3.0131e+05	3040.2	-0.42846	0.7847	0.47726
0.642	136.04	-3.0131e+05	3040.2	-0.42846	0.78617	0.47541
0.644	136.04	-3.0131e+05	3040.1	-0.42846	0.78763	0.47356
0.646	136.03	-3.0131e+05	3040.2	-0.42846	0.7891	0.4717
0.648	136.03	-3.0132e+05	3040.2	-0.42846	0.79056	0.46985
0.65	136.03	-3.0132e+05	3040.2	-0.42846	0.79202	0.46799
0.652	136.02	-3.0131e+05	3040.4	-0.42671	0.79056	0.46926
0.654	136.02	-3.0131e+05	3040.5	-0.42495	0.7891	0.47053
0.656	136.02	-3.0131e+05	3040.7	-0.42319	0.78763	0.4718
0.658	136.02	-3.0132e+05	3041	-0.42144	0.78617	0.47307
0.66	136.02	-3.0132e+05	3041.4	-0.41968	0.7847	0.47434
0.662	136.01	-3.0132e+05	3041.9	-0.42036	0.78519	0.47453
0.664	136	-3.0132e+05	3042.4	-0.42105	0.78568	0.47473
0.666	136	-3.0132e+05	3043	-0.42173	0.78617	0.47492
0.668	136	-3.0132e+05	3043.7	-0.42241	0.78666	0.47512
0.67	136	-3.0131e+05	3044.5	-0.4231	0.78714	0.47531
0.672	136	-3.0131e+05	3045.5	-0.42261	0.78627	0.47521
0.674	135.99	-3.0132e+05	3046.5	-0.42212	0.78539	0.47512
0.676	135.98	-3.0132e+05	3047.7	-0.42163	0.78451	0.47502
0.678	135.97	-3.0132e+05	3048.9	-0.42114	0.78363	0.47492
0.68	135.96	-3.0131e+05	3050.2	-0.42066	0.78275	0.47482
0.682	135.96	-3.0132e+05	3051.5	-0.42222	0.78392	0.47482
0.684	135.95	-3.0133e+05	3052.9	-0.42378	0.78509	0.47482
0.686	135.94	-3.0132e+05	3054.3	-0.42534	0.78627	0.47482
0.688	135.94	-3.0132e+05	3055.7	-0.4269	0.78744	0.47482
0.69	135.93	-3.0132e+05	3057.2	-0.42846	0.78861	0.47482
0.692	135.92	-3.0133e+05	3058.6	-0.42866	0.78812	0.47424
0.694	135.91	-3.0133e+05	3060	-0.42885	0.78763	0.47365
0.696	135.91	-3.0133e+05	3061.5	-0.42905	0.78714	0.47307
0.698	135.9	-3.0132e+05	3062.9	-0.42924	0.78666	0.47248
0.7	135.9	-3.0132e+05	3064.4	-0.42944	0.78617	0.4719
0.702	135.89	-3.0132e+05	3065.7	-0.42798	0.78548	0.47229
0.704	135.88	-3.0132e+05	3067.1	-0.42651	0.7848	0.47268
0.706	135.87	-3.0132e+05	3068.4	-0.42505	0.78412	0.47307
0.708	135.87	-3.0132e+05	3069.7	-0.42358	0.78344	0.47346
0.71	135.86	-3.0132e+05	3071	-0.42212	0.78275	0.47385
0.712	135.85	-3.0133e+05	3072.2	-0.42222	0.78373	0.47375
0.714	135.85	-3.0133e+05	3073.4	-0.42232	0.7847	0.47365
0.716	135.85	-3.0132e+05	3074.5	-0.42241	0.78568	0.47356
0.718	135.84	-3.0132e+05	3075.5	-0.42251	0.78666	0.47346
0.72	135.84	-3.0132e+05	3076.6	-0.42261	0.78763	0.47336
0.722	135.83	-3.0133e+05	3077.5	-0.42192	0.78646	0.47297
0.724	135.83	-3.0133e+05	3078.3	-0.42124	0.78529	0.47258
0.726	135.82	-3.0133e+05	3079.1	-0.42056	0.78412	0.47219
0.728	135.82	-3.0132e+05	3079.8	-0.41988	0.78295	0.4718
0.73	135.82	-3.0132e+05	3080.6	-0.41919	0.78178	0.47141
0.732	135.82	-3.0132e+05	3081.2	-0.41997	0.78265	0.47219
0.734	135.81	-3.0132e+05	3081.8	-0.42075	0.78353	0.47297
0.736	135.81	-3.0133e+05	3082.3	-0.42153	0.78441	0.47375
0.738	135.81	-3.0133e+05	3082.7	-0.42232	0.78529	0.47453
0.74	135.81	-3.0133e+05	3083.1	-0.4231	0.78617	0.47531
0.742	135.81	-3.0133e+05	3083.5	-0.42358	0.78627	0.47521
0.744	135.82	-3.0133e+05	3083.8	-0.42407	0.78636	0.47512
0.746	135.82	-3.0132e+05	3084	-0.42456	0.78646	0.47502
0.748	135.82	-3.0131e+05	3084.2	-0.42505	0.78656	0.47492
0.75	135.83	-3.0131e+05	3084.4	-0.42554	0.78666	0.47482
0.752	135.84	-3.0131e+05	3084.5	-0.42524	0.78685	0.47463
0.754	135.85	-3.0132e+05	3084.6	-0.42495	0.78705	0.47443
0.756	135.85	-3.0133e+05	3084.7	-0.42466	0.78724	0.47424
0.758	135.86	-3.0133e+05	3084.7	-0.42436	0.78744	0.47404
0.76	135.86	-3.0134e+05	3084.8	-0.42407	0.78763	0.47385
0.762	135.86	-3.0134e+05	3084.7	-0.42407	0.78802	0.47297
0.764	135.87	-3.0133e+05	3084.7	-0.42407	0.78841	0.47209
0.766	135.88	-3.0133e+05	3084.7	-0.42407	0.7888	0.47121
0.768	135.89	-3.0133e+05	3084.6	-0.42407	0.78919	0.47033
0.77	135.9	-3.0133e+05	3084.5	-0.42407	0.78958	0.46946
0.772	135.91	-3.0133e+05	3084.4	-0.42505	0.7891	0.46946
0.774	135.91	-3.0133e+05	3084.3	-0.42602	0.78861	0.46946
0.776	135.91	-3.0133e+05	3084.2	-0.427	0.78812	0.46946
0.778	135.92	-3.0132e+05	3084.1	-0.42798	0.78763	0.46946
0.78	135.92	-3.0132e+05	3083.9	-0.42895	0.78714	0.46946
0.782	135.93	-3.0132e+05	3083.8	-0.42924	0.78841	0.46946
0.784	135.94	-3.0132e+05	3083.7	-0.42954	0.78968	0.46946
0.786	135.94	-3.0132e+05	3083.5	-0.42983	0.79095	0.46946
0.788	135.94	-3.0132e+05	3083.4	-0.43012	0.79222	0.46946
0.79	135.94	-3.0133e+05	3083.3	-0.43042	0.79349	0.46946
0.792	135.95	-3.0133e+05	3083.2	-0.42866	0.79241	0.46985
0.794	135.95	-3.0132e+05	3083	-0.4269	0.79134	0.47024
0.796	135.95	-3.0131e+05	3082.9	-0.42515	0.79027	0.47063
0.798	135.95	-3.0131e+05	3082.8	-0.42339	0.78919	0.47102
0.8	135.96	-3.0132e+05	3082.6	-0.42163	0.78812	0.47141
0.802	135.96	-3.0132e+05	3082.5	-0.42368	0.78773	0.47112
0.804	135.96	-3.0132e+05	3082.4	-0.42573	0.78734	0.47082
0.806	135.96	-3.0132e+05	3082.3	-0.42778	0.78695	0.47053
0.808	135.97	-3.0133e+05	3082.1	-0.42983	0.78656	0.47024
0.81	135.97	-3.0133e+05	3082	-0.43188	0.78617	0.46994
0.812	135.97	-3.0133e+05	3081.9	-0.42885	0.78597	0.47082
0.814	135.97	-3.0132e+05	3081.8	-0.42583	0.78578	0.4717
0.816	135.97	-3.0132e+05	3081.6	-0.4228	0.78558	0.47258
0.818	135.97	-3.0132e+05	3081.5	-0.41978	0.78539	0.47346
0.82	135.97	-3.0132e+05	3081.3	-0.41675	0.78519	0.47434
0.822	135.97	-3.0132e+05	3081.2	-0.41831	0.78568	0.47463
0.824	135.97	-3.0132e+05	3081	-0.41988	0.78617	0.47492
0.826	135.97	-3.0132e+05	3080.9	-0.42144	0.78666	0.47521
0.828	135.97	-3.0131e+05	3080.7	-0.423	0.78714	0.47551
0.83	135.98	-3.0131e+05	3080.6	-0.42456	0.78763	0.4758
0.832	135.98	-3.0131e+05	3080.4	-0.42456	0.78822	0.47473
0.834	135.98	-3.0131e+05	3080.2	-0.42456	0.7888	0.47365
0.836	135.98	-3.0131e+05	3080	-0.42456	0.78939	0.47258
0.838	135.98	-3.0131e+05	3079.8	-0.42456	0.78997	0.47151
0.84	135.98	-3.0131e+05	3079.7	-0.42456	0.79056	0.47043
0.842	135.98	-3.0131e+05	3079.4	-0.42534	0.79076	0.46965
0.844	135.98	-3.0131e+05	3079.2	-0.42612	0.79095	0.46887
0.846	135.98	-3.0131e+05	3079	-0.4269	0.79115	0.46809
0.848	135.98	-3.0131e+05	3078.8	-0.42768	0.79134	0.46731
0.85	135.99	-3.0131e+05	3078.5	-0.42846	0.79154	0.46653
0.852	135.99	-3.0131e+05	3078.3	-0.42817	0.79124	0.46741
0.854	135.99	-3.0131e+05	3078	-0.42788	0.79095	0.46828
0.856	135.99	-3.0132e+05	3077.7	-0.42759	0.79066	0.46916
0.858	135.99	-3.0132e+05	3077.5	-0.42729	0.79036	0.47004
0.86	135.98	-3.0132e+05	3077.2	-0.427	0.79007	0.47092
0.862	135.99	-3.0131e+05	3076.9	-0.42798	0.78949	0.47014
0.864	135.99	-3.0131e+05	3076.6	-0.42895	0.7889	0.46936
0.866	135.99	-3.0131e+05	3076.3	-0.42993	0.78832	0.46858
0.868	135.99	-3.0131e+05	3075.9	-0.4309	0.78773	0.4678
0.87	135.99	-3.0131e+05	3075.6	-0.43188	0.78714	0.46702
0.872	135.99	-3.0131e+05	3075.2	-0.43149	0.78695	0.4678
0.874	135.99	-3.0131e+05	3074.9	-0.4311	0.78675	0.46858
0.876	135.99	-3.0131e+05	3074.5	-0.43071	0.78656	0.46936
0.878	135.99	-3.0131e+05	3074.1	-0.43032	0.78636	0.47014
0.88	135.99	-3.013e+05	3073.6	-0.42993	0.78617	0.47092
0.882	135.99	-3.013e+05	3073.2	-0.42895	0.78675	0.47053
0.884	136	-3.013e+05	3072.7	-0.42798	0.78734	0.47014
0.886	136	-3.0131e+05	3072.3	-0.427	0.78792	0.46975
0.888	136	-3.0132e+05	3071.8	-0.42602	0.78851	0.46936
0.89	136	-3.0132e+05	3071.3	-0.42505	0.7891	0.46897
0.892	135.99	-3.0131e+05	3070.9	-0.42583	0.78871	0.46946
0.894	135.99	-3.0131e+05	3070.5	-0.42661	0.78832	0.46994
0.896	136	-3.0131e+05	3070	-0.42739	0.78792	0.47043
0.898	136	-3.0131e+05	3069.5	-0.42817	0.78753	0.47092
0.9	136	-3.0131e+05	3069	-0.42895	0.78714	0.47141
0.902	136	-3.0131e+05	3068.6	-0.4272	0.78597	0.47229
0.904	136	-3.0131e+05	3068.2	-0.42544	0.7848	0.47316
0.906	136	-3.0131e+05	3067.8	-0.42368	0.78363	0.47404
0.908	136	-3.0131e+05	3067.3	-0.42192	0.78246	0.47492
0.91	136	-3.0131e+05	3066.9	-0.42017	0.78129	0.4758
0.912	136	-3.0131e+05	3066.6	-0.41958	0.78197	0.47551
0.914	136	-3.0131e+05	3066.3	-0.419	0.78265	0.47521
0.916	136.01	-3.0132e+05	3066	-0.41841	0.78334	0.47492
0.918	136.01	-3.0131e+05	3065.7	-0.41783	0.78402	0.47463
0.92	136.01	-3.0131e+05	3065.4	-0.41724	0.7847	0.47434
0.922	136	-3.0131e+05	3065.2	-0.41861	0.78558	0.47356
0.924	136	-3.0131e+05	3065.1	-0.41997	0.78646	0.47277
0.926	136.01	-3.0131e+05	3064.9	-0.42134	0.78734	0.47199
0.928	136.01	-3.0131e+05	3064.7	-0.42271	0.78822	0.47121
0.93	136.01	-3.0131e+05	3064.5	-0.42407	0.7891	0.47043
0.932	136.01	-3.013e+05	3064.3	-0.42505	0.78861	0.47043
0.934	136.01	-3.013e+05	3064.2	-0.42602	0.78812	0.47043
0.936	136.01	-3.013e+05	3064.1	-0.427	0.78763	0.47043
0.938	136.01	-3.0131e+05	3064	-0.42798	0.78714	0.47043
0.94	136.01	-3.0131e+05	3064	-0.42895	0.78666	0.47043
0.942	136.01	-3.0131e+05	3063.9	-0.42944	0.78578	0.47053
0.944	136.01	-3.0131e+05	3063.8	-0.42993	0.7849	0.47063
0.946	136.01	-3.0131e+05	3063.8	-0.43042	0.78402	0.47072
0.948	136.01	-3.0132e+05	3063.7	-0.4309	0.78314	0.47082
0.95	136.01	-3.0132e+05	3063.6	-0.43139	0.78226	0.47092
0.952	136.01	-3.0132e+05	3063.6	-0.43168	0.78363	0.47033
0.954	136.01	-3.0131e+05	3063.5	-0.43198	0.785	0.46975
0.956	136.01	-3.0131e+05	3063.5	-0.43227	0.78636	0.46916
0.958	136.01	-3.0131e+05	3063.5	-0.43256	0.78773	0.46858
0.96	136.01	-3.013e+05	3063.4	-0.43286	0.7891	0.46799
0.962	136.01	-3.013e+05	3063.4	-0.43032	0.78871	0.46946
0.964	136.01	-3.013e+05	3063.4	-0.42778	0.78832	0.47092
0.966	136.01	-3.0131e+05	3063.3	-0.42524	0.78792	0.47238
0.968	136.02	-3.0131e+05	3063.3	-0.42271	0.78753	0.47385
0.97	136.02	-3.0132e+05	3063.3	-0.42017	0.78714	0.47531
0.972	136.02	-3.0132e+05	3063.3	-0.41988	0.78617	0.47512
0.974	136.02	-3.0132e+05	3063.2	-0.41958	0.78519	0.47492
0.976	136.01	-3.0132e+05	3063.2	-0.41929	0.78422	0.47473
0.978	136.01	-3.0132e+05	3063.2	-0.419	0.78324	0.47453
0.98	136.01	-3.0132e+05	3063.2	-0.4187	0.78226	0.47434
0.982	136.02	-3.0131e+05	3063.2	-0.41968	0.78285	0.47473
0.984	136.02	-3.0131e+05	3063.2	-0.42066	0.78344	0.47512
0.986	136.02	-3.013e+05	3063.1	-0.42163	0.78402	0.47551
0.988	136.02	-3.013e+05	3063.1	-0.42261	0.78461	0.4759
0.99	136.02	-3.013e+05	3063	-0.42358	0.78519	0.47629
0.992	136.02	-3.0131e+05	3063	-0.42241	0.78451	0.47609
0.994	136.02	-3.0131e+05	3062.9	-0.42124	0.78383	0.4759
0.996	136.02	-3.013e+05	3062.8	-0.42007	0.78314	0.4757
0.998	136.02	-3.013e+05	3062.7	-0.4189	0.78246	0.47551
1	136.02	-3.0131e+05	3062.5	-0.41773	0.78178	0.47531
1.002	136.02	-3.0131e+05	3062.4	-0.41812	0.78178	0.4757
1.004	136.02	-3.0131e+05	3062.4	-0.41851	0.78178	0.47609
1.006	136.02	-3.0131e+05	3062.2	-0.4189	0.78178	0.47648
1.008	136.02	-3.0131e+05	3062	-0.41929	0.78178	0.47687
1.01	136.01	-3.0131e+05	3061.9	-0.41968	0.78178	0.47726
1.012	136.01	-3.013e+05	3061.7	-0.41978	0.78187	0.47658
1.014	136.01	-3.013e+05	3061.6	-0.41988	0.78197	0.4759
1.016	136.01	-3.0131e+05	3061.5	-0.41997	0.78207	0.47521
1.018	136.01	-3.0131e+05	3061.3	-0.42007	0.78217	0.47453
1.02	136	-3.0131e+05	3061.2	-0.42017	0.78226	0.47385
1.022	136	-3.0131e+05	3061	-0.42056	0.78285	0.47414
1.024	136	-3.013e+05	3060.8	-0.42095	0.78344	0.47443
1.026	136	-3.0131e+05	3060.7	-0.42134	0.78402	0.47473
1.028	136.01	-3.0131e+05	3060.5	-0.42173	0.78461	0.47502
1.03	136	-3.0131e+05	3060.3	-0.42212	0.78519	0.47531
1.032	136	-3.0131e+05	3060.1	-0.42153	0.78422	0.47512
1.034	136	-3.0131e+05	3059.9	-0.42095	0.78324	0.47492
1.036	135.99	-3.0131e+05	3059.7	-0.42036	0.78226	0.47473
1.038	135.99	-3.0131e+05	3059.4	-0.41978	0.78129	0.47453
1.04	135.99	-3.0131e+05	3059.2	-0.41919	0.78031	0.47434
1.042	135.99	-3.0131e+05	3059	-0.41939	0.7809	0.47443
1.044	135.99	-3.0131e+05	3058.8	-0.41958	0.78148	0.47453
1.046	135.99	-3.0131e+05	3058.6	-0.41978	0.78207	0.47463
1.048	135.98	-3.0131e+05	3058.4	-0.41997	0.78265	0.47473
1.05	135.97	-3.0131e+05	3058.2	-0.42017	0.78324	0.47482
1.052	135.95	-3.0131e+05	3057.9	-0.42017	0.78334	0.47482
1.054	135.95	-3.0131e+05	3057.7	-0.42017	0.78344	0.47482
1.056	135.94	-3.0132e+05	3057.4	-0.42017	0.78353	0.47482
1.058	135.94	-3.0131e+05	3057.2	-0.42017	0.78363	0.47482
1.06	135.94	-3.013e+05	3056.9	-0.42017	0.78373	0.47482
1.062	135.95	-3.0131e+05	3056.7	-0.42066	0.7847	0.47521
1.064	135.96	-3.0131e+05	3056.4	-0.42114	0.78568	0.4756
1.066	135.97	-3.0132e+05	3056.2	-0.42163	0.78666	0.476
1.068	135.97	-3.0132e+05	3055.9	-0.42212	0.78763	0.47639
1.07	135.98	-3.0131e+05	3055.7	-0.42261	0.78861	0.47678
1.072	135.98	-3.013e+05	3055.4	-0.42232	0.78744	0.4758
1.074	135.98	-3.013e+05	3055	-0.42202	0.78627	0.47482
1.076	135.99	-3.013e+05	3054.7	-0.42173	0.78509	0.47385
1.078	136.01	-3.0131e+05	3054.4	-0.42144	0.78392	0.47287
1.08	136.01	-3.0131e+05	3054.1	-0.42114	0.78275	0.4719
1.082	136.03	-3.0132e+05	3053.8	-0.42212	0.78461	0.47112
1.084	136.04	-3.0132e+05	3053.5	-0.4231	0.78646	0.47033
1.086	136.05	-3.0132e+05	3053.1	-0.42407	0.78832	0.46955
1.088	136.05	-3.0131e+05	3052.8	-0.42505	0.79017	0.46877
1.09	136.05	-3.0131e+05	3052.5	-0.42602	0.79202	0.46799
1.092	136.04	-3.0131e+05	3052.1	-0.42729	0.79154	0.4676
1.094	136.04	-3.0131e+05	3051.8	-0.42856	0.79105	0.46721
1.096	136.04	-3.0131e+05	3051.5	-0.42983	0.79056	0.46682
1.098	136.04	-3.0131e+05	3051.2	-0.4311	0.79007	0.46643
1.1	136.05	-3.0132e+05	3050.8	-0.43237	0.78958	0.46604
1.102	136.05	-3.0132e+05	3050.5	-0.43139	0.79036	0.46624
1.104	136.06	-3.0131e+05	3050.1	-0.43042	0.79115	0.46643
1.106	136.06	-3.0132e+05	3049.8	-0.42944	0.79193	0.46663
1.108	136.06	-3.0132e+05	3049.5	-0.42846	0.79271	0.46682
1.11	136.05	-3.0132e+05	3049.2	-0.42749	0.79349	0.46702
1.112	136.05	-3.0132e+05	3048.9	-0.42788	0.79222	0.4678
1.114	136.05	-3.0132e+05	3048.6	-0.42827	0.79095	0.46858
1.116	136.06	-3.0131e+05	3048.3	-0.42866	0.78968	0.46936
1.118	136.06	-3.0132e+05	3047.9	-0.42905	0.78841	0.47014
1.12	136.06	-3.0132e+05	3047.6	-0.42944	0.78714	0.47092
1.122	136.06	-3.0132e+05	3047.3	-0.42934	0.78724	0.47053
1.124	136.06	-3.0132e+05	3047	-0.42924	0.78734	0.47014
1.126	136.06	-3.0131e+05	3046.7	-0.42915	0.78744	0.46975
1.128	136.06	-3.0131e+05	3046.4	-0.42905	0.78753	0.46936
1.13	136.07	-3.0132e+05	3046.1	-0.42895	0.78763	0.46897
1.132	136.07	-3.0133e+05	3045.8	-0.42778	0.78792	0.46877
1.134	136.07	-3.0133e+05	3045.5	-0.42661	0.78822	0.46858
1.136	136.07	-3.0132e+05	3045.2	-0.42544	0.78851	0.46838
1.138	136.07	-3.0132e+05	3044.9	-0.42427	0.7888	0.46819
1.14	136.07	-3.0132e+05	3044.6	-0.4231	0.7891	0.46799
1.142	136.07	-3.0132e+05	3044.4	-0.42319	0.78861	0.46887
1.144	136.07	-3.0132e+05	3044.1	-0.42329	0.78812	0.46975
1.146	136.08	-3.0133e+05	3043.9	-0.42339	0.78763	0.47063
1.148	136.08	-3.0133e+05	3043.6	-0.42349	0.78714	0.47151
1.15	136.08	-3.0133e+05	3043.4	-0.42358	0.78666	0.47238
1.152	136.08	-3.0132e+05	3043.1	-0.42232	0.78597	0.47277
1.154	136.08	-3.0133e+05	3042.9	-0.42105	0.78529	0.47316
1.156	136.08	-3.0133e+05	3042.7	-0.41978	0.78461	0.47356
1.158	136.07	-3.0133e+05	3042.5	-0.41851	0.78392	0.47395
1.16	136.08	-3.0133e+05	3042.3	-0.41724	0.78324	0.47434
1.162	136.08	-3.0132e+05	3042.1	-0.41783	0.78334	0.47414
1.164	136.08	-3.0132e+05	3041.9	-0.41841	0.78344	0.47395
1.166	136.08	-3.0132e+05	3041.7	-0.419	0.78353	0.47375
1.168	136.08	-3.0132e+05	3041.5	-0.41958	0.78363	0.47356
1.17	136.09	-3.0132e+05	3041.4	-0.42017	0.78373	0.47336
1.172	136.09	-3.0132e+05	3041.2	-0.42017	0.78353	0.47365
1.174	136.09	-3.0133e+05	3041	-0.42017	0.78334	0.47395
1.176	136.09	-3.0133e+05	3040.8	-0.42017	0.78314	0.47424
1.178	136.09	-3.0133e+05	3040.6	-0.42017	0.78295	0.47453
1.18	136.09	-3.0133e+05	3040.4	-0.42017	0.78275	0.47482
1.182	136.09	-3.0133e+05	3040.3	-0.42066	0.78412	0.47395
1.184	136.08	-3.0133e+05	3040.1	-0.42114	0.78548	0.47307
1.186	136.07	-3.0133e+05	3040	-0.42163	0.78685	0.47219
1.188	136.05	-3.0133e+05	3039.8	-0.42212	0.78822	0.47131
1.19	136.01	-3.0133e+05	3039.7	-0.42261	0.78958	0.47043
1.192	135.96	-3.0134e+05	3039.5	-0.42407	0.78997	0.46965
1.194	135.9	-3.0134e+05	3039.3	-0.42554	0.79036	0.46887
1.196	135.82	-3.0135e+05	3039.2	-0.427	0.79076	0.46809
1.198	135.71	-3.0134e+05	3039.1	-0.42846	0.79115	0.46731
1.2	135.58	-3.0132e+05	3038.9	-0.42993	0.79154	0.46653
1.202	135.44	-3.0134e+05	3038.8	-0.42973	0.79154	0.46672
1.204	135.33	-3.0135e+05	3038.7	-0.42954	0.79154	0.46692
1.206	135.27	-3.0135e+05	3038.5	-0.42934	0.79154	0.46711
1.208	135.26	-3.0134e+05	3038.3	-0.42915	0.79154	0.46731
1.21	135.33	-3.0134e+05	3038.2	-0.42895	0.79154	0.4675
1.212	135.47	-3.0134e+05	3038	-0.42778	0.79105	0.46828
1.214	135.66	-3.0134e+05	3037.8	-0.42661	0.79056	0.46907
1.216	135.85	-3.0135e+05	3037.7	-0.42544	0.79007	0.46985
1.218	135.97	-3.0135e+05	3037.6	-0.42427	0.78958	0.47063
1.22	136.04	-3.0135e+05	3037.4	-0.4231	0.7891	0.47141
1.222	136.06	-3.0134e+05	3037.3	-0.42456	0.78939	0.47063
1.224	136.07	-3.0134e+05	3037.1	-0.42602	0.78968	0.46985
1.226	136.09	-3.0133e+05	3036.9	-0.42749	0.78997	0.46907
1.228	136.11	-3.0133e+05	3036.8	-0.42895	0.79027	0.46828
1.23	136.12	-3.0133e+05	3036.6	-0.43042	0.79056	0.4675
1.232	136.12	-3.0133e+05	3036.4	-0.43022	0.78958	0.46809
1.234	136.11	-3.0134e+05	3036.2	-0.43003	0.78861	0.46868
1.236	136.11	-3.0134e+05	3036	-0.42983	0.78763	0.46926
1.238	136.11	-3.0134e+05	3035.8	-0.42964	0.78666	0.46985
1.24	136.11	-3.0134e+05	3035.6	-0.42944	0.78568	0.47043
1.242	136.12	-3.0134e+05	3035.4	-0.42798	0.78597	0.47033
1.244	136.12	-3.0134e+05	3035.2	-0.42651	0.78627	0.47024
1.246	136.11	-3.0134e+05	3035.1	-0.42505	0.78656	0.47014
1.248	136.11	-3.0134e+05	3034.9	-0.42358	0.78685	0.47004
1.25	136.1	-3.0134e+05	3034.7	-0.42212	0.78714	0.46994
1.252	136.1	-3.0134e+05	3034.5	-0.42153	0.78646	0.47043
1.254	136.09	-3.0133e+05	3034.3	-0.42095	0.78578	0.47092
1.256	136.09	-3.0133e+05	3034	-0.42036	0.78509	0.47141
1.258	136.09	-3.0133e+05	3033.8	-0.41978	0.78441	0.4719
1.26	136.09	-3.0134e+05	3033.6	-0.41919	0.78373	0.47238
1.262	136.09	-3.0134e+05	3033.4	-0.41939	0.78363	0.47258
1.264	136.09	-3.0135e+05	3033.2	-0.41958	0.78353	0.47277
1.266	136.09	-3.0135e+05	3033	-0.41978	0.78344	0.47297
1.268	136.08	-3.0134e+05	3032.7	-0.41997	0.78334	0.47316
1.27	136.08	-3.0134e+05	3032.5	-0.42017	0.78324	0.47336
1.272	136.09	-3.0134e+05	3032.3	-0.42056	0.78402	0.47326
1.274	136.08	-3.0134e+05	3032.2	-0.42095	0.7848	0.47316
1.276	136.08	-3.0134e+05	3032	-0.42134	0.78558	0.47307
1.278	136.07	-3.0134e+05	3031.9	-0.42173	0.78636	0.47297
1.28	136.08	-3.0134e+05	3031.7	-0.42212	0.78714	0.47287
1.282	136.08	-3.0134e+05	3031.5	-0.42202	0.78734	0.47238
1.284	136.08	-3.0134e+05	3031.4	-0.42192	0.78753	0.4719
1.286	136.08	-3.0135e+05	3031.2	-0.42183	0.78773	0.47141
1.288	136.08	-3.0135e+05	3031	-0.42173	0.78792	0.47092
1.29	136.07	-3.0135e+05	3030.9	-0.42163	0.78812	0.47043
1.292	136.07	-3.0135e+05	3030.7	-0.42349	0.7889	0.46955
1.294	136.08	-3.0135e+05	3030.5	-0.42534	0.78968	0.46868
1.296	136.07	-3.0134e+05	3030.4	-0.4272	0.79046	0.4678
1.298	136.07	-3.0134e+05	3030.2	-0.42905	0.79124	0.46692
1.3	136.07	-3.0134e+05	3030	-0.4309	0.79202	0.46604
1.302	136.08	-3.0135e+05	3029.9	-0.42915	0.79056	0.46731
1.304	136.08	-3.0136e+05	3029.8	-0.42739	0.7891	0.46858
1.306	136.07	-3.0136e+05	3029.6	-0.42563	0.78763	0.46985
1.308	136.07	-3.0137e+05	3029.4	-0.42388	0.78617	0.47112
1.31	136.06	-3.0137e+05	3029.2	-0.42212	0.7847	0.47238
1.312	136.06	-3.0138e+05	3029	-0.4228	0.78461	0.47326
1.314	136.06	-3.0138e+05	3028.8	-0.42349	0.78451	0.47414
1.316	136.06	-3.0137e+05	3028.6	-0.42417	0.78441	0.47502
1.318	136.06	-3.0137e+05	3028.4	-0.42485	0.78431	0.4759
1.32	136.07	-3.0137e+05	3028.2	-0.42554	0.78422	0.47678
1.322	136.07	-3.0137e+05	3028	-0.42661	0.78441	0.47531
1.324	136.06	-3.0137e+05	3027.8	-0.42768	0.78461	0.47385
1.326	136.06	-3.0138e+05	3027.6	-0.42876	0.7848	0.47238
1.328	136.05	-3.0138e+05	3027.4	-0.42983	0.785	0.47092
1.33	136.06	-3.0137e+05	3027.2	-0.4309	0.78519	0.46946
1.332	136.06	-3.0137e+05	3027	-0.42895	0.785	0.47043
1.334	136.06	-3.0137e+05	3026.7	-0.427	0.7848	0.47141
1.336	136.06	-3.0138e+05	3026.5	-0.42505	0.78461	0.47238
1.338	136.06	-3.0138e+05	3026.3	-0.4231	0.78441	0.47336
1.34	136.06	-3.0137e+05	3026.1	-0.42114	0.78422	0.47434
1.342	136.06	-3.0137e+05	3025.9	-0.42183	0.7848	0.47482
1.344	136.05	-3.0137e+05	3025.7	-0.42251	0.78539	0.47531
1.346	136.05	-3.0137e+05	3025.5	-0.42319	0.78597	0.4758
1.348	136.05	-3.0136e+05	3025.4	-0.42388	0.78656	0.47629
1.35	136.05	-3.0136e+05	3025.2	-0.42456	0.78714	0.47678
1.352	136.05	-3.0136e+05	3025.1	-0.42436	0.78705	0.47668
1.354	136.04	-3.0136e+05	3025	-0.42417	0.78695	0.47658
1.356	136.04	-3.0136e+05	3024.8	-0.42397	0.78685	0.47648
1.358	136.04	-3.0137e+05	3024.7	-0.42378	0.78675	0.47639
1.36	136.04	-3.0137e+05	3024.6	-0.42358	0.78666	0.47629
1.362	136.04	-3.0137e+05	3024.5	-0.42446	0.78714	0.47609
1.364	136.04	-3.0137e+05	3024.4	-0.42534	0.78763	0.4759
1.366	136.04	-3.0136e+05	3024.3	-0.42622	0.78812	0.4757
1.368	136.03	-3.0136e+05	3024.2	-0.4271	0.78861	0.47551
1.37	136.03	-3.0137e+05	3024.1	-0.42798	0.7891	0.47531
1.372	136.03	-3.0137e+05	3024.1	-0.42749	0.78939	0.47404
1.374	136.02	-3.0137e+05	3024.1	-0.427	0.78968	0.47277
1.376	136.02	-3.0137e+05	3024.1	-0.42651	0.78997	0.47151
1.378	136.01	-3.0137e+05	3024.1	-0.42602	0.79027	0.47024
1.38	136.01	-3.0137e+05	3024.2	-0.42554	0.79056	0.46897
1.382	136.01	-3.0137e+05	3024.4	-0.42563	0.79007	0.46965
1.384	136.01	-3.0137e+05	3024.6	-0.42573	0.78958	0.47033
1.386	136	-3.0136e+05	3024.9	-0.42583	0.7891	0.47102
1.388	136	-3.0136e+05	3025.3	-0.42593	0.78861	0.4717
1.39	135.99	-3.0137e+05	3025.6	-0.42602	0.78812	0.47238
1.392	135.99	-3.0137e+05	3026.2	-0.42641	0.78871	0.47131
1.394	135.98	-3.0137e+05	3026.8	-0.4268	0.78929	0.47024
1.396	135.98	-3.0137e+05	3027.5	-0.4272	0.78988	0.46916
1.398	135.97	-3.0137e+05	3028.4	-0.42759	0.79046	0.46809
1.4	135.96	-3.0137e+05	3029.2	-0.42798	0.79105	0.46702
1.402	135.96	-3.0137e+05	3030.2	-0.42768	0.79076	0.46799
1.404	135.95	-3.0138e+05	3031.2	-0.42739	0.79046	0.46897
1.406	135.94	-3.0138e+05	3032.3	-0.4271	0.79017	0.46994
1.408	135.93	-3.0138e+05	3033.4	-0.4268	0.78988	0.47092
1.41	135.92	-3.0138e+05	3034.5	-0.42651	0.78958	0.4719
1.412	135.91	-3.0138e+05	3035.7	-0.42729	0.78832	0.47219
1.414	135.91	-3.0138e+05	3036.9	-0.42807	0.78705	0.47248
1.416	135.9	-3.0138e+05	3038.1	-0.42885	0.78578	0.47277
1.418	135.9	-3.0138e+05	3039.3	-0.42964	0.78451	0.47307
1.42	135.89	-3.0138e+05	3040.5	-0.43042	0.78324	0.47336
1.422	135.88	-3.0138e+05	3041.8	-0.42866	0.78304	0.47326
1.424	135.88	-3.0138e+05	3043	-0.4269	0.78285	0.47316
1.426	135.87	-3.0139e+05	3044.2	-0.42515	0.78265	0.47307
1.428	135.86	-3.0139e+05	3045.4	-0.42339	0.78246	0.47297
1.43	135.85	-3.0139e+05	3046.5	-0.42163	0.78226	0.47287
1.432	135.85	-3.0138e+05	3047.7	-0.42153	0.78226	0.47316
1.434	135.85	-3.0138e+05	3048.8	-0.42144	0.78226	0.47346
1.436	135.85	-3.0138e+05	3049.9	-0.42134	0.78226	0.47375
1.438	135.84	-3.0139e+05	3051	-0.42124	0.78226	0.47404
1.44	135.83	-3.014e+05	3052	-0.42114	0.78226	0.47434
1.442	135.83	-3.014e+05	3052.9	-0.42251	0.78422	0.47297
1.444	135.82	-3.0139e+05	3053.8	-0.42388	0.78617	0.4716
1.446	135.82	-3.0139e+05	3054.6	-0.42524	0.78812	0.47024
1.448	135.82	-3.0138e+05	3055.4	-0.42661	0.79007	0.46887
1.45	135.82	-3.0138e+05	3056.2	-0.42798	0.79202	0.4675
1.452	135.82	-3.0138e+05	3056.9	-0.42671	0.79056	0.46926
1.454	135.82	-3.0138e+05	3057.5	-0.42544	0.7891	0.47102
1.456	135.82	-3.0138e+05	3058.1	-0.42417	0.78763	0.47277
1.458	135.82	-3.0139e+05	3058.6	-0.4229	0.78617	0.47453
1.46	135.81	-3.0139e+05	3059.1	-0.42163	0.7847	0.47629
1.462	135.82	-3.0139e+05	3059.4	-0.4228	0.78588	0.47463
1.464	135.82	-3.0139e+05	3059.8	-0.42397	0.78705	0.47297
1.466	135.82	-3.0139e+05	3060.2	-0.42515	0.78822	0.47131
1.468	135.83	-3.0139e+05	3060.5	-0.42632	0.78939	0.46965
1.47	135.84	-3.0139e+05	3060.7	-0.42749	0.79056	0.46799
1.472	135.84	-3.0139e+05	3060.9	-0.42641	0.78968	0.46897
1.474	135.85	-3.0139e+05	3061.1	-0.42534	0.7888	0.46994
1.476	135.86	-3.0139e+05	3061.2	-0.42427	0.78792	0.47092
1.478	135.86	-3.0139e+05	3061.3	-0.42319	0.78705	0.4719
1.48	135.87	-3.0139e+05	3061.3	-0.42212	0.78617	0.47287
1.482	135.87	-3.014e+05	3061.3	-0.42388	0.78646	0.47219
1.484	135.88	-3.014e+05	3061.4	-0.42563	0.78675	0.47151
1.486	135.89	-3.0139e+05	3061.3	-0.42739	0.78705	0.47082
1.488	135.9	-3.0139e+05	3061.2	-0.42915	0.78734	0.47014
1.49	135.9	-3.0139e+05	3061.1	-0.4309	0.78763	0.46946
1.492	135.91	-3.0139e+05	3061	-0.42924	0.78783	0.46985
1.494	135.91	-3.0139e+05	3060.9	-0.42759	0.78802	0.47024
1.496	135.92	-3.0139e+05	3060.8	-0.42593	0.78822	0.47063
1.498	135.93	-3.0139e+05	3060.5	-0.42427	0.78841	0.47102
1.5	135.93	-3.0139e+05	3060.3	-0.42261	0.78861	0.47141
1.502	135.94	-3.014e+05	3060.1	-0.42427	0.789	0.47053
1.504	135.94	-3.014e+05	3059.9	-0.42593	0.78939	0.46965
1.506	135.94	-3.014e+05	3059.7	-0.42759	0.78978	0.46877
1.508	135.95	-3.014e+05	3059.5	-0.42924	0.79017	0.46789
1.51	135.95	-3.014e+05	3059.3	-0.4309	0.79056	0.46702
1.512	135.96	-3.0139e+05	3059	-0.42876	0.79017	0.46789
1.514	135.96	-3.0139e+05	3058.8	-0.42661	0.78978	0.46877
1.516	135.95	-3.0139e+05	3058.5	-0.42446	0.78939	0.46965
1.518	135.95	-3.0139e+05	3058.3	-0.42232	0.789	0.47053
1.52	135.96	-3.0139e+05	3058	-0.42017	0.78861	0.47141
1.522	135.96	-3.0139e+05	3057.7	-0.42027	0.78773	0.47199
1.524	135.97	-3.0138e+05	3057.5	-0.42036	0.78685	0.47258
1.526	135.97	-3.0138e+05	3057.2	-0.42046	0.78597	0.47316
1.528	135.97	-3.0138e+05	3057	-0.42056	0.78509	0.47375
1.53	135.97	-3.0138e+05	3056.8	-0.42066	0.78422	0.47434
1.532	135.97	-3.0139e+05	3056.6	-0.42105	0.78431	0.47385
1.534	135.98	-3.0139e+05	3056.3	-0.42144	0.78441	0.47336
1.536	135.98	-3.0139e+05	3056.1	-0.42183	0.78451	0.47287
1.538	135.98	-3.0139e+05	3055.9	-0.42222	0.78461	0.47238
1.54	135.98	-3.0138e+05	3055.6	-0.42261	0.7847	0.4719
1.542	135.98	-3.0139e+05	3055.4	-0.42232	0.78558	0.47248
1.544	135.98	-3.0139e+05	3055.2	-0.42202	0.78646	0.47307
1.546	135.98	-3.0139e+05	3055	-0.42173	0.78734	0.47365
1.548	135.98	-3.0139e+05	3054.8	-0.42144	0.78822	0.47424
1.55	135.98	-3.0139e+05	3054.5	-0.42114	0.7891	0.47482
1.552	135.98	-3.0139e+05	3054.3	-0.42075	0.78773	0.47453
1.554	135.98	-3.0139e+05	3054.1	-0.42036	0.78636	0.47424
1.556	135.98	-3.0139e+05	3053.8	-0.41997	0.785	0.47395
1.558	135.98	-3.0139e+05	3053.6	-0.41958	0.78363	0.47365
1.56	135.98	-3.0139e+05	3053.3	-0.41919	0.78226	0.47336
1.562	135.98	-3.0139e+05	3053	-0.42027	0.78334	0.47258
1.564	135.98	-3.0139e+05	3052.8	-0.42134	0.78441	0.4718
1.566	135.98	-3.0139e+05	3052.5	-0.42241	0.78548	0.47102
1.568	135.99	-3.0139e+05	3052.2	-0.42349	0.78656	0.47024
1.57	135.99	-3.0139e+05	3051.9	-0.42456	0.78763	0.46946
1.572	135.99	-3.0139e+05	3051.6	-0.42436	0.78724	0.47033
1.574	135.99	-3.0139e+05	3051.4	-0.42417	0.78685	0.47121
1.576	135.99	-3.0139e+05	3051.1	-0.42397	0.78646	0.47209
1.578	135.99	-3.0139e+05	3050.8	-0.42378	0.78607	0.47297
1.58	135.99	-3.0139e+05	3050.5	-0.42358	0.78568	0.47385
1.582	135.99	-3.0139e+05	3050.1	-0.42397	0.78636	0.47316
1.584	135.99	-3.0139e+05	3049.8	-0.42436	0.78705	0.47248
1.586	135.99	-3.0139e+05	3049.4	-0.42476	0.78773	0.4718
1.588	135.99	-3.014e+05	3049.1	-0.42515	0.78841	0.47112
1.59	135.99	-3.0139e+05	3048.8	-0.42554	0.7891	0.47043
1.592	135.99	-3.0138e+05	3048.4	-0.42632	0.7888	0.47024
1.594	135.99	-3.0138e+05	3048	-0.4271	0.78851	0.47004
1.596	135.98	-3.0138e+05	3047.6	-0.42788	0.78822	0.46985
1.598	135.98	-3.0139e+05	3047.2	-0.42866	0.78792	0.46965
1.6	135.99	-3.0139e+05	3046.9	-0.42944	0.78763	0.46946
1.602	135.98	-3.0138e+05	3046.4	-0.42856	0.78792	0.46965
1.604	135.98	-3.0138e+05	3046	-0.42768	0.78822	0.46985
1.606	135.99	-3.0138e+05	3045.6	-0.4268	0.78851	0.47004
1.608	135.99	-3.0137e+05	3045.1	-0.42593	0.7888	0.47024
1.61	135.99	-3.0137e+05	3044.7	-0.42505	0.7891	0.47043
1.612	135.99	-3.0137e+05	3044.3	-0.42534	0.78861	0.47092
1.614	135.98	-3.0138e+05	3043.8	-0.42563	0.78812	0.47141
1.616	135.98	-3.0138e+05	3043.4	-0.42593	0.78763	0.4719
1.618	135.99	-3.0139e+05	3043	-0.42622	0.78714	0.47238
1.62	135.99	-3.0139e+05	3042.6	-0.42651	0.78666	0.47287
1.622	135.99	-3.0139e+05	3042.2	-0.42661	0.78646	0.47297
1.624	135.98	-3.0139e+05	3041.8	-0.42671	0.78627	0.47307
1.626	135.98	-3.0138e+05	3041.4	-0.4268	0.78607	0.47316
1.628	135.99	-3.0138e+05	3041	-0.4269	0.78588	0.47326
1.63	135.99	-3.0139e+05	3040.6	-0.427	0.78568	0.47336
1.632	135.99	-3.014e+05	3040.2	-0.4272	0.78529	0.47297
1.634	135.98	-3.0139e+05	3039.9	-0.42739	0.7849	0.47258
1.636	135.99	-3.0138e+05	3039.6	-0.42759	0.78451	0.47219
1.638	135.99	-3.0138e+05	3039.3	-0.42778	0.78412	0.4718
1.64	135.99	-3.0139e+05	3039	-0.42798	0.78373	0.47141
1.642	135.99	-3.0138e+05	3038.8	-0.4271	0.7847	0.47141
1.644	135.99	-3.0138e+05	3038.6	-0.42622	0.78568	0.47141
1.646	135.99	-3.0139e+05	3038.4	-0.42534	0.78666	0.47141
1.648	135.99	-3.0139e+05	3038.2	-0.42446	0.78763	0.47141
1.65	135.99	-3.0138e+05	3038.1	-0.42358	0.78861	0.47141
1.652	135.99	-3.0137e+05	3038	-0.42368	0.78802	0.4719
1.654	135.99	-3.0137e+05	3038	-0.42378	0.78744	0.47238
1.656	135.99	-3.0137e+05	3037.9	-0.42388	0.78685	0.47287
1.658	135.99	-3.0138e+05	3037.8	-0.42397	0.78627	0.47336
1.66	135.99	-3.0138e+05	3037.8	-0.42407	0.78568	0.47385
1.662	135.99	-3.0139e+05	3037.7	-0.42388	0.78617	0.47375
1.664	135.99	-3.0139e+05	3037.7	-0.42368	0.78666	0.47365
1.666	135.99	-3.0139e+05	3037.7	-0.42349	0.78714	0.47356
1.668	135.99	-3.0138e+05	3037.7	-0.42329	0.78763	0.47346
1.67	135.99	-3.0139e+05	3037.7	-0.4231	0.78812	0.47336
1.672	135.99	-3.0139e+05	3037.7	-0.42388	0.7888	0.47258
1.674	135.99	-3.0139e+05	3037.8	-0.42466	0.78949	0.4718
1.676	135.99	-3.0138e+05	3037.8	-0.42544	0.79017	0.47102
1.678	135.99	-3.0138e+05	3037.9	-0.42622	0.79085	0.47024
1.68	135.99	-3.0138e+05	3038	-0.427	0.79154	0.46946
1.682	135.99	-3.0138e+05	3038	-0.4268	0.79066	0.47024
1.684	135.99	-3.0139e+05	3038.1	-0.42661	0.78978	0.47102
1.686	135.99	-3.0139e+05	3038.1	-0.42641	0.7889	0.4718
1.688	135.99	-3.0139e+05	3038.2	-0.42622	0.78802	0.47258
1.69	135.99	-3.0138e+05	3038.2	-0.42602	0.78714	0.47336
1.692	135.99	-3.0138e+05	3038.3	-0.42554	0.78744	0.47375
1.694	135.99	-3.0138e+05	3038.3	-0.42505	0.78773	0.47414
1.696	135.99	-3.0137e+05	3038.4	-0.42456	0.78802	0.47453
1.698	135.99	-3.0138e+05	3038.4	-0.42407	0.78832	0.47492
1.7	135.99	-3.0139e+05	3038.5	-0.42358	0.78861	0.47531
1.702	135.99	-3.0138e+05	3038.5	-0.42349	0.78773	0.47502
1.704	135.99	-3.0137e+05	3038.5	-0.42339	0.78685	0.47473
1.706	135.99	-3.0137e+05	3038.5	-0.42329	0.78597	0.47443
1.708	135.99	-3.0137e+05	3038.6	-0.42319	0.78509	0.47414
1.71	135.99	-3.0138e+05	3038.6	-0.4231	0.78422	0.47385
1.712	136	-3.0139e+05	3038.6	-0.42476	0.7847	0.47336
1.714	136	-3.0138e+05	3038.6	-0.42641	0.78519	0.47287
1.716	135.99	-3.0138e+05	3038.5	-0.42807	0.78568	0.47238
1.718	136	-3.0138e+05	3038.5	-0.42973	0.78617	0.4719
1.72	136	-3.0137e+05	3038.5	-0.43139	0.78666	0.47141
1.722	135.99	-3.0137e+05	3038.5	-0.43071	0.78734	0.47151
1.724	136	-3.0137e+05	3038.4	-0.43003	0.78802	0.4716
1.726	136	-3.0138e+05	3038.4	-0.42934	0.78871	0.4717
1.728	135.99	-3.0138e+05	3038.4	-0.42866	0.78939	0.4718
1.73	135.99	-3.0138e+05	3038.3	-0.42798	0.79007	0.4719
1.732	135.99	-3.0138e+05	3038.2	-0.42778	0.78861	0.4719
1.734	136	-3.0138e+05	3038.1	-0.42759	0.78714	0.4719
1.736	135.99	-3.0138e+05	3038	-0.42739	0.78568	0.4719
1.738	136	-3.0139e+05	3038	-0.4272	0.78422	0.4719
1.74	136	-3.0139e+05	3037.9	-0.427	0.78275	0.4719
1.742	136	-3.0139e+05	3037.8	-0.42749	0.78344	0.47248
1.744	136	-3.0138e+05	3037.7	-0.42798	0.78412	0.47307
1.746	136	-3.0139e+05	3037.6	-0.42846	0.7848	0.47365
1.748	136	-3.0139e+05	3037.5	-0.42895	0.78548	0.47424
1.75	136	-3.0139e+05	3037.3	-0.42944	0.78617	0.47482
1.752	136	-3.0139e+05	3037.2	-0.42934	0.78578	0.47414
1.754	135.99	-3.0139e+05	3037	-0.42924	0.78539	0.47346
1.756	135.99	-3.0139e+05	3036.9	-0.42915	0.785	0.47277
1.758	135.99	-3.0138e+05	3036.7	-0.42905	0.78461	0.47209
1.76	135.99	-3.0137e+05	3036.6	-0.42895	0.78422	0.47141
1.762	135.99	-3.0138e+05	3036.4	-0.42827	0.78422	0.47141
1.764	135.99	-3.0139e+05	3036.3	-0.42759	0.78422	0.47141
1.766	135.99	-3.0139e+05	3036.2	-0.4269	0.78422	0.47141
1.768	135.99	-3.0139e+05	3036	-0.42622	0.78422	0.47141
1.77	135.99	-3.0139e+05	3035.8	-0.42554	0.78422	0.47141
1.772	135.99	-3.0138e+05	3035.7	-0.42573	0.7849	0.4717
1.774	135.99	-3.0138e+05	3035.5	-0.42593	0.78558	0.47199
1.776	135.98	-3.0137e+05	3035.4	-0.42612	0.78627	0.47229
1.778	135.98	-3.0137e+05	3035.2	-0.42632	0.78695	0.47258
1.78	135.98	-3.0137e+05	3035	-0.42651	0.78763	0.47287
1.782	135.98	-3.0138e+05	3034.9	-0.42651	0.78763	0.47258
1.784	135.98	-3.0139e+05	3034.7	-0.42651	0.78763	0.47229
1.786	135.98	-3.0139e+05	3034.6	-0.42651	0.78763	0.47199
1.788	135.97	-3.0138e+05	3034.4	-0.42651	0.78763	0.4717
1.79	135.97	-3.0138e+05	3034.3	-0.42651	0.78763	0.47141
1.792	135.97	-3.0138e+05	3034.1	-0.42622	0.78675	0.47248
1.794	135.97	-3.0138e+05	3033.9	-0.42593	0.78588	0.47356
1.796	135.96	-3.0139e+05	3033.8	-0.42563	0.785	0.47463
1.798	135.96	-3.0139e+05	3033.6	-0.42534	0.78412	0.4757
1.8	135.96	-3.0139e+05	3033.5	-0.42505	0.78324	0.47678
1.802	135.95	-3.0139e+05	3033.3	-0.42651	0.78285	0.47678
1.804	135.94	-3.0138e+05	3033.1	-0.42798	0.78246	0.47678
1.806	135.93	-3.0138e+05	3033	-0.42944	0.78207	0.47678
1.808	135.92	-3.0138e+05	3032.8	-0.4309	0.78168	0.47678
1.81	135.91	-3.0138e+05	3032.6	-0.43237	0.78129	0.47678
1.812	135.91	-3.0139e+05	3032.4	-0.431	0.78236	0.47619
1.814	135.91	-3.0138e+05	3032.2	-0.42964	0.78344	0.4756
1.816	135.92	-3.0138e+05	3031.9	-0.42827	0.78451	0.47502
1.818	135.93	-3.0138e+05	3031.7	-0.4269	0.78558	0.47443
1.82	135.94	-3.0139e+05	3031.5	-0.42554	0.78666	0.47385
1.822	135.95	-3.0139e+05	3031.3	-0.42515	0.78627	0.47395
1.824	135.95	-3.0138e+05	3031.1	-0.42476	0.78588	0.47404
1.826	135.95	-3.0138e+05	3030.8	-0.42436	0.78548	0.47414
1.828	135.95	-3.0138e+05	3030.6	-0.42397	0.78509	0.47424
1.83	135.96	-3.0138e+05	3030.3	-0.42358	0.7847	0.47434
1.832	135.97	-3.0138e+05	3030	-0.42358	0.78519	0.47404
1.834	135.98	-3.0138e+05	3029.8	-0.42358	0.78568	0.47375
1.836	135.99	-3.0138e+05	3029.5	-0.42358	0.78617	0.47346
1.838	136.01	-3.0138e+05	3029.2	-0.42358	0.78666	0.47316
1.84	136.02	-3.0138e+05	3029	-0.42358	0.78714	0.47287
1.842	136.02	-3.0138e+05	3028.7	-0.42417	0.78734	0.47297
1.844	136.01	-3.0138e+05	3028.5	-0.42476	0.78753	0.47307
1.846	136.01	-3.0138e+05	3028.2	-0.42534	0.78773	0.47316
1.848	136.01	-3.0138e+05	3028	-0.42593	0.78792	0.47326
1.85	136.02	-3.0138e+05	3027.8	-0.42651	0.78812	0.47336
1.852	136.02	-3.0138e+05	3027.6	-0.42612	0.78773	0.47336
1.854	136.03	-3.0138e+05	3027.4	-0.42573	0.78734	0.47336
1.856	136.03	-3.0139e+05	3027.1	-0.42534	0.78695	0.47336
1.858	136.03	-3.0138e+05	3026.9	-0.42495	0.78656	0.47336
1.86	136.03	-3.0137e+05	3026.6	-0.42456	0.78617	0.47336
1.862	136.02	-3.0138e+05	3026.4	-0.42485	0.78646	0.47375
1.864	136.02	-3.0138e+05	3026.2	-0.42515	0.78675	0.47414
1.866	136.03	-3.0138e+05	3026	-0.42544	0.78705	0.47453
1.868	136.03	-3.0139e+05	3025.8	-0.42573	0.78734	0.47492
1.87	136.03	-3.0139e+05	3025.6	-0.42602	0.78763	0.47531
1.872	136.03	-3.0138e+05	3025.3	-0.42622	0.78802	0.47375
1.874	136.03	-3.0139e+05	3025.1	-0.42641	0.78841	0.47219
1.876	136.03	-3.0139e+05	3024.9	-0.42661	0.7888	0.47063
1.878	136.03	-3.0139e+05	3024.8	-0.4268	0.78919	0.46907
1.88	136.03	-3.0139e+05	3024.6	-0.427	0.78958	0.4675
1.882	136.03	-3.0139e+05	3024.4	-0.42846	0.78851	0.4677
1.884	136.04	-3.0139e+05	3024.2	-0.42993	0.78744	0.46789
1.886	136.04	-3.0139e+05	3024.1	-0.43139	0.78636	0.46809
1.888	136.04	-3.0139e+05	3023.9	-0.43286	0.78529	0.46828
1.89	136.05	-3.0139e+05	3023.7	-0.43432	0.78422	0.46848
1.892	136.04	-3.0139e+05	3023.5	-0.43217	0.7849	0.46868
1.894	136.04	-3.0139e+05	3023.4	-0.43003	0.78558	0.46887
1.896	136.04	-3.0138e+05	3023.3	-0.42788	0.78627	0.46907
1.898	136.04	-3.0138e+05	3023.1	-0.42573	0.78695	0.46926
1.9	136.04	-3.0138e+05	3023	-0.42358	0.78763	0.46946
1.902	136.04	-3.0139e+05	3022.8	-0.42436	0.78783	0.46985
1.904	136.04	-3.0139e+05	3022.7	-0.42515	0.78802	0.47024
1.906	136.04	-3.0139e+05	3022.6	-0.42593	0.78822	0.47063
1.908	136.04	-3.0139e+05	3022.5	-0.42671	0.78841	0.47102
1.91	136.04	-3.0139e+05	3022.4	-0.42749	0.78861	0.47141
1.912	136.04	-3.0138e+05	3022.3	-0.4271	0.78832	0.47112
1.914	136.04	-3.0138e+05	3022.2	-0.42671	0.78802	0.47082
1.916	136.04	-3.0138e+05	3022.1	-0.42632	0.78773	0.47053
1.918	136.05	-3.0138e+05	3022	-0.42593	0.78744	0.47024
1.92	136.05	-3.0138e+05	3021.9	-0.42554	0.78714	0.46994
1.922	136.05	-3.0138e+05	3021.8	-0.42524	0.78705	0.47072
1.924	136.06	-3.0138e+05	3021.7	-0.42495	0.78695	0.47151
1.926	136.06	-3.0138e+05	3021.6	-0.42466	0.78685	0.47229
1.928	136.06	-3.0139e+05	3021.6	-0.42436	0.78675	0.47307
1.93	136.06	-3.0139e+05	3021.5	-0.42407	0.78666	0.47385
1.932	136.06	-3.0139e+05	3021.4	-0.42515	0.78617	0.47434
1.934	136.06	-3.0139e+05	3021.3	-0.42622	0.78568	0.47482
1.936	136.05	-3.0139e+05	3021.2	-0.42729	0.78519	0.47531
1.938	136.04	-3.0139e+05	3021.2	-0.42837	0.7847	0.4758
1.94	136.02	-3.0139e+05	3021.2	-0.42944	0.78422	0.47629
1.942	135.98	-3.0139e+05	3021.1	-0.42915	0.78529	0.4757
1.944	135.93	-3.0139e+05	3021.1	-0.42885	0.78636	0.47512
1.946	135.86	-3.0139e+05	3021	-0.42856	0.78744	0.47453
1.948	135.78	-3.0139e+05	3020.9	-0.42827	0.78851	0.47395
1.95	135.67	-3.0139e+05	3020.8	-0.42798	0.78958	0.47336
1.952	135.52	-3.0139e+05	3020.7	-0.42768	0.78812	0.47346
1.954	135.36	-3.0139e+05	3020.6	-0.42739	0.78666	0.47356
1.956	135.24	-3.0139e+05	3020.5	-0.4271	0.78519	0.47365
1.958	135.17	-3.0139e+05	3020.4	-0.4268	0.78373	0.47375
1.96	135.15	-3.0139e+05	3020.3	-0.42651	0.78226	0.47385
1.962	135.2	-3.0139e+05	3020.2	-0.42593	0.78314	0.47365
1.964	135.34	-3.0139e+05	3020.1	-0.42534	0.78402	0.47346
1.966	135.53	-3.014e+05	3020	-0.42476	0.7849	0.47326
1.968	135.73	-3.014e+05	3019.9	-0.42417	0.78578	0.47307
1.97	135.88	-3.014e+05	3019.8	-0.42358	0.78666	0.47287
1.972	135.94	-3.0139e+05	3019.6	-0.42417	0.78675	0.47258
1.974	135.96	-3.0139e+05	3019.5	-0.42476	0.78685	0.47229
1.976	135.97	-3.0139e+05	3019.4	-0.42534	0.78695	0.47199
1.978	135.99	-3.0139e+05	3019.3	-0.42593	0.78705	0.4717
1.98	136.01	-3.0139e+05	3019.2	-0.42651	0.78714	0.47141
1.982	136.02	-3.0139e+05	3019.1	-0.42671	0.78705	0.47219
1.984	136.02	-3.0139e+05	3019	-0.4269	0.78695	0.47297
1.986	136.03	-3.0139e+05	3018.9	-0.4271	0.78685	0.47375
1.988	136.04	-3.0139e+05	3018.8	-0.42729	0.78675	0.47453
1.99	136.05	-3.014e+05	3018.7	-0.42749	0.78666	0.47531
1.992	136.06	-3.014e+05	3018.5	-0.42759	0.78636	0.47521
1.994	136.06	-3.0139e+05	3018.4	-0.42768	0.78607	0.47512
1.996	136.06	-3.0139e+05	3018.3	-0.42778	0.78578	0.47502
1.998	136.06	-3.0139e+05	3018.1	-0.42788	0.78548	0.47492
2	136.06	-3.0139e+05	3018	-0.42798	0.78519	0.47482
2.002	136.06	-3.0139e+05	3017.8	-0.42778	0.78568	0.47443
2.004	136.06	-3.014e+05	3017.7	-0.42759	0.78617	0.47404
2.006	136.05	-3.014e+05	3017.5	-0.42739	0.78666	0.47365
2.008	136.05	-3.014e+05	3017.3	-0.4272	0.78714	0.47326
2.01	136.05	-3.014e+05	3017.2	-0.427	0.78763	0.47287
2.012	136.05	-3.014e+05	3017	-0.42759	0.78714	0.47258
2.014	136.05	-3.014e+05	3016.9	-0.42817	0.78666	0.47229
2.016	136.05	-3.0139e+05	3016.8	-0.42876	0.78617	0.47199
2.018	136.05	-3.014e+05	3016.6	-0.42934	0.78568	0.4717
2.02	136.05	-3.014e+05	3016.4	-0.42993	0.78519	0.47141
2.022	136.05	-3.014e+05	3016.3	-0.42924	0.78558	0.47248
2.024	136.05	-3.0141e+05	3016.2	-0.42856	0.78597	0.47356
2.026	136.05	-3.014e+05	3016.1	-0.42788	0.78636	0.47463
2.028	136.05	-3.014e+05	3015.9	-0.4272	0.78675	0.4757
2.03	136.05	-3.014e+05	3015.8	-0.42651	0.78714	0.47678
2.032	136.05	-3.0141e+05	3015.7	-0.427	0.78705	0.4756
2.034	136.04	-3.0141e+05	3015.5	-0.42749	0.78695	0.47443
2.036	136.04	-3.0141e+05	3015.5	-0.42798	0.78685	0.47326
2.038	136.04	-3.0141e+05	3015.4	-0.42846	0.78675	0.47209
2.04	136.04	-3.0141e+05	3015.4	-0.42895	0.78666	0.47092
2.042	136.04	-3.0141e+05	3015.2	-0.42837	0.78714	0.47102
2.044	136.04	-3.0141e+05	3015.1	-0.42778	0.78763	0.47112
2.046	136.04	-3.014e+05	3015	-0.4272	0.78812	0.47121
2.048	136.04	-3.014e+05	3014.9	-0.42661	0.78861	0.47131
2.05	136.04	-3.0141e+05	3014.8	-0.42602	0.7891	0.47141
2.052	136.04	-3.0141e+05	3014.7	-0.42622	0.7888	0.47112
2.054	136.03	-3.0141e+05	3014.6	-0.42641	0.78851	0.47082
2.056	136.04	-3.0141e+05	3014.5	-0.42661	0.78822	0.47053
2.058	136.03	-3.014e+05	3014.4	-0.4268	0.78792	0.47024
2.06	136.03	-3.014e+05	3014.3	-0.427	0.78763	0.46994
2.062	136.03	-3.014e+05	3014.1	-0.4268	0.78792	0.47033
2.064	136.03	-3.0139e+05	3013.9	-0.42661	0.78822	0.47072
2.066	136.03	-3.0139e+05	3013.8	-0.42641	0.78851	0.47112
2.068	136.03	-3.0139e+05	3013.6	-0.42622	0.7888	0.47151
2.07	136.03	-3.014e+05	3013.4	-0.42602	0.7891	0.4719
2.072	136.03	-3.0141e+05	3013.2	-0.42612	0.78871	0.4717
2.074	136.03	-3.0141e+05	3013	-0.42622	0.78832	0.47151
2.076	136.03	-3.0141e+05	3012.8	-0.42632	0.78792	0.47131
2.078	136.03	-3.0141e+05	3012.6	-0.42641	0.78753	0.47112
2.08	136.03	-3.0141e+05	3012.3	-0.42651	0.78714	0.47092
2.082	136.03	-3.014e+05	3012.1	-0.42622	0.78617	0.47151
2.084	136.03	-3.014e+05	3011.9	-0.42593	0.78519	0.47209
2.086	136.03	-3.014e+05	3011.7	-0.42563	0.78422	0.47268
2.088	136.03	-3.0141e+05	3011.5	-0.42534	0.78324	0.47326
2.09	136.03	-3.0141e+05	3011.3	-0.42505	0.78226	0.47385
2.092	136.03	-3.0141e+05	3011.2	-0.42505	0.78236	0.47443
2.094	136.03	-3.0141e+05	3011.1	-0.42505	0.78246	0.47502
2.096	136.02	-3.0141e+05	3010.9	-0.42505	0.78256	0.4756
2.098	136.02	-3.0141e+05	3010.8	-0.42505	0.78265	0.47619
2.1	136.03	-3.0141e+05	3010.7	-0.42505	0.78275	0.47678
2.102	136.03	-3.0141e+05	3010.6	-0.42524	0.78383	0.47551
2.104	136.03	-3.0141e+05	3010.5	-0.42544	0.7849	0.47424
2.106	136.02	-3.0141e+05	3010.4	-0.42563	0.78597	0.47297
2.108	136.02	-3.0141e+05	3010.3	-0.42583	0.78705	0.4717
2.11	136.02	-3.0141e+05	3010.3	-0.42602	0.78812	0.47043
2.112	136.02	-3.0141e+05	3010.2	-0.42651	0.78851	0.47033
2.114	136.01	-3.0141e+05	3010.2	-0.427	0.7889	0.47024
2.116	136.01	-3.0141e+05	3010.2	-0.42749	0.78929	0.47014
2.118	136.01	-3.0141e+05	3010.2	-0.42798	0.78968	0.47004
2.12	136.01	-3.0141e+05	3010.2	-0.42846	0.79007	0.46994
2.122	136.01	-3.0141e+05	3010.3	-0.42788	0.78929	0.47024
2.124	136	-3.0141e+05	3010.3	-0.42729	0.78851	0.47053
2.126	136	-3.0141e+05	3010.5	-0.42671	0.78773	0.47082
2.128	135.99	-3.0141e+05	3010.7	-0.42612	0.78695	0.47112
2.13	135.99	-3.0141e+05	3011	-0.42554	0.78617	0.47141
2.132	135.99	-3.0141e+05	3011.4	-0.42563	0.78627	0.4719
2.134	135.99	-3.0141e+05	3011.9	-0.42573	0.78636	0.47238
2.136	135.99	-3.0141e+05	3012.5	-0.42583	0.78646	0.47287
2.138	135.99	-3.0141e+05	3013.2	-0.42593	0.78656	0.47336
2.14	135.98	-3.0141e+05	3013.8	-0.42602	0.78666	0.47385
2.142	135.97	-3.0141e+05	3014.8	-0.42651	0.78568	0.47385
2.144	135.97	-3.0142e+05	3015.7	-0.427	0.7847	0.47385
2.146	135.96	-3.0141e+05	3016.8	-0.42749	0.78373	0.47385
2.148	135.96	-3.0141e+05	3017.9	-0.42798	0.78275	0.47385
2.15	135.95	-3.0141e+05	3019.1	-0.42846	0.78178	0.47385
2.152	135.95	-3.0141e+05	3020.4	-0.42846	0.78353	0.47258
2.154	135.94	-3.0141e+05	3021.8	-0.42846	0.78529	0.47131
2.156	135.93	-3.0141e+05	3023.1	-0.42846	0.78705	0.47004
2.158	135.93	-3.0141e+05	3024.5	-0.42846	0.7888	0.46877
2.16	135.92	-3.014e+05	3025.9	-0.42846	0.79056	0.4675
2.162	135.91	-3.0141e+05	3027.4	-0.42856	0.78949	0.46936
2.164	135.9	-3.0141e+05	3028.8	-0.42866	0.78841	0.47121
2.166	135.89	-3.0142e+05	3030.3	-0.42876	0.78734	0.47307
2.168	135.89	-3.0142e+05	3031.7	-0.42885	0.78627	0.47492
2.17	135.88	-3.0142e+05	3033.1	-0.42895	0.78519	0.47678
2.172	135.88	-3.0142e+05	3034.4	-0.42837	0.78529	0.47629
2.174	135.87	-3.0142e+05	3035.8	-0.42778	0.78539	0.4758
2.176	135.86	-3.0142e+05	3037.1	-0.4272	0.78548	0.47531
2.178	135.85	-3.0142e+05	3038.5	-0.42661	0.78558	0.47482
2.18	135.85	-3.0142e+05	3039.8	-0.42602	0.78568	0.47434
2.182	135.85	-3.0142e+05	3041.1	-0.42632	0.78627	0.47346
2.184	135.84	-3.0141e+05	3042.4	-0.42661	0.78685	0.47258
2.186	135.83	-3.0141e+05	3043.6	-0.4269	0.78744	0.4717
2.188	135.83	-3.0141e+05	3044.8	-0.4272	0.78802	0.47082
2.19	135.82	-3.0141e+05	3045.9	-0.42749	0.78861	0.46994
2.192	135.82	-3.0141e+05	3046.9	-0.4272	0.7888	0.47072
2.194	135.81	-3.0141e+05	3047.9	-0.4269	0.789	0.47151
2.196	135.81	-3.0141e+05	3048.9	-0.42661	0.78919	0.47229
2.198	135.81	-3.0142e+05	3049.9	-0.42632	0.78939	0.47307
2.2	135.81	-3.0143e+05	3050.8	-0.42602	0.78958	0.47385
2.202	135.8	-3.0142e+05	3050.9	-0.42798	0.78832	0.47277
2.204	135.79	-3.0141e+05	3051.1	-0.42993	0.78705	0.4717
2.206	135.8	-3.0141e+05	3051.3	-0.43188	0.78578	0.47063
2.208	135.8	-3.0141e+05	3051.8	-0.43383	0.78451	0.46955
2.21	135.79	-3.0142e+05	3052.2	-0.43578	0.78324	0.46848
2.212	135.79	-3.0142e+05	3052.8	-0.43383	0.78383	0.46985
2.214	135.79	-3.0142e+05	3053.4	-0.43188	0.78441	0.47121
2.216	135.8	-3.0142e+05	3053.8	-0.42993	0.785	0.47258
2.218	135.8	-3.0142e+05	3054	-0.42798	0.78558	0.47395
2.22	135.81	-3.0142e+05	3054.3	-0.42602	0.78617	0.47531
2.222	135.81	-3.0141e+05	3054.4	-0.4269	0.78705	0.47375
2.224	135.81	-3.0141e+05	3054.6	-0.42778	0.78792	0.47219
2.226	135.82	-3.0141e+05	3054.7	-0.42866	0.7888	0.47063
2.228	135.83	-3.0141e+05	3054.8	-0.42954	0.78968	0.46907
2.23	135.83	-3.0141e+05	3054.9	-0.43042	0.79056	0.4675
2.232	135.84	-3.0141e+05	3055	-0.43042	0.789	0.46907
2.234	135.84	-3.0141e+05	3055	-0.43042	0.78744	0.47063
2.236	135.85	-3.0142e+05	3055.1	-0.43042	0.78588	0.47219
2.238	135.86	-3.0142e+05	3055.1	-0.43042	0.78431	0.47375
2.24	135.86	-3.0141e+05	3055.2	-0.43042	0.78275	0.47531
2.242	135.87	-3.0141e+05	3055.1	-0.42944	0.78383	0.47443
2.244	135.87	-3.0141e+05	3055	-0.42846	0.7849	0.47356
2.246	135.88	-3.0141e+05	3054.9	-0.42749	0.78597	0.47268
2.248	135.89	-3.0141e+05	3054.8	-0.42651	0.78705	0.4718
2.25	135.89	-3.0141e+05	3054.7	-0.42554	0.78812	0.47092
2.252	135.9	-3.0141e+05	3054.6	-0.42612	0.78822	0.47151
2.254	135.9	-3.0141e+05	3054.5	-0.42671	0.78832	0.47209
2.256	135.91	-3.0142e+05	3054.5	-0.42729	0.78841	0.47268
2.258	135.91	-3.0142e+05	3054.4	-0.42788	0.78851	0.47326
2.26	135.91	-3.0141e+05	3054.3	-0.42846	0.78861	0.47385
2.262	135.91	-3.0141e+05	3054.2	-0.42817	0.7889	0.47326
2.264	135.92	-3.0141e+05	3054.1	-0.42788	0.78919	0.47268
2.266	135.92	-3.0141e+05	3053.9	-0.42759	0.78949	0.47209
2.268	135.93	-3.0141e+05	3053.8	-0.42729	0.78978	0.47151
2.27	135.93	-3.0141e+05	3053.7	-0.427	0.79007	0.47092
2.272	135.93	-3.0141e+05	3053.5	-0.4271	0.78997	0.47063
2.274	135.93	-3.0141e+05	3053.4	-0.4272	0.78988	0.47033
2.276	135.93	-3.0141e+05	3053.2	-0.42729	0.78978	0.47004
2.278	135.93	-3.0141e+05	3053.1	-0.42739	0.78968	0.46975
2.28	135.93	-3.0141e+05	3052.9	-0.42749	0.78958	0.46946
2.282	135.94	-3.0141e+05	3052.8	-0.4271	0.78939	0.46994
2.284	135.94	-3.0141e+05	3052.6	-0.42671	0.78919	0.47043
2.286	135.94	-3.0141e+05	3052.4	-0.42632	0.789	0.47092
2.288	135.94	-3.0142e+05	3052.2	-0.42593	0.7888	0.47141
2.29	135.94	-3.0142e+05	3052.1	-0.42554	0.78861	0.4719
2.292	135.94	-3.0142e+05	3051.9	-0.42524	0.78832	0.47258
2.294	135.94	-3.0141e+05	3051.8	-0.42495	0.78802	0.47326
2.296	135.94	-3.0141e+05	3051.6	-0.42466	0.78773	0.47395
2.298	135.94	-3.0141e+05	3051.4	-0.42436	0.78744	0.47463
2.3	135.95	-3.0141e+05	3051.3	-0.42407	0.78714	0.47531
2.302	135.95	-3.0141e+05	3051.1	-0.42602	0.78666	0.4759
2.304	135.95	-3.0142e+05	3051	-0.42798	0.78617	0.47648
2.306	135.95	-3.0141e+05	3050.8	-0.42993	0.78568	0.47707
2.308	135.94	-3.014e+05	3050.6	-0.43188	0.78519	0.47765
2.31	135.94	-3.014e+05	3050.5	-0.43383	0.7847	0.47824
2.312	135.94	-3.0141e+05	3050.2	-0.43237	0.78422	0.47717
2.314	135.94	-3.014e+05	3050	-0.4309	0.78373	0.47609
2.316	135.94	-3.014e+05	3049.7	-0.42944	0.78324	0.47502
2.318	135.95	-3.014e+05	3049.5	-0.42798	0.78275	0.47395
2.32	135.95	-3.014e+05	3049.3	-0.42651	0.78226	0.47287
2.322	135.96	-3.014e+05	3049.1	-0.4271	0.78265	0.47356
2.324	135.96	-3.014e+05	3048.8	-0.42768	0.78304	0.47424
2.326	135.95	-3.014e+05	3048.6	-0.42827	0.78344	0.47492
2.328	135.95	-3.014e+05	3048.4	-0.42885	0.78383	0.4756
2.33	135.95	-3.0141e+05	3048.3	-0.42944	0.78422	0.47629
2.332	135.95	-3.0141e+05	3048	-0.42934	0.78441	0.47648
2.334	135.95	-3.0141e+05	3047.8	-0.42924	0.78461	0.47668
2.336	135.95	-3.0141e+05	3047.5	-0.42915	0.7848	0.47687
2.338	135.95	-3.0141e+05	3047.4	-0.42905	0.785	0.47707
2.34	135.95	-3.014e+05	3047.2	-0.42895	0.78519	0.47726
2.342	135.95	-3.014e+05	3046.9	-0.43003	0.78363	0.47521
2.344	135.95	-3.014e+05	3046.6	-0.4311	0.78207	0.47316
2.346	135.95	-3.014e+05	3046.3	-0.43217	0.78051	0.47112
2.348	135.96	-3.014e+05	3046.1	-0.43325	0.77895	0.46907
2.35	135.96	-3.014e+05	3045.8	-0.43432	0.77738	0.46702
2.352	135.96	-3.0139e+05	3045.5	-0.43305	0.77836	0.46848
2.354	135.96	-3.014e+05	3045.2	-0.43178	0.77934	0.46994
2.356	135.96	-3.014e+05	3044.8	-0.43051	0.78031	0.47141
2.358	135.96	-3.014e+05	3044.5	-0.42924	0.78129	0.47287
2.36	135.96	-3.014e+05	3044.2	-0.42798	0.78226	0.47434
2.362	135.96	-3.014e+05	3043.9	-0.42817	0.78265	0.47434
2.364	135.96	-3.014e+05	3043.6	-0.42837	0.78304	0.47434
2.366	135.96	-3.014e+05	3043.2	-0.42856	0.78344	0.47434
2.368	135.96	-3.014e+05	3042.9	-0.42876	0.78383	0.47434
2.37	135.96	-3.014e+05	3042.5	-0.42895	0.78422	0.47434
2.372	135.96	-3.014e+05	3042.2	-0.42924	0.78392	0.47482
2.374	135.96	-3.0139e+05	3041.8	-0.42954	0.78363	0.47531
2.376	135.96	-3.0139e+05	3041.5	-0.42983	0.78334	0.4758
2.378	135.97	-3.014e+05	3041.2	-0.43012	0.78304	0.47629
2.38	135.97	-3.0141e+05	3040.8	-0.43042	0.78275	0.47678
2.382	135.97	-3.0141e+05	3040.5	-0.43149	0.78158	0.47453
2.384	135.97	-3.0141e+05	3040.2	-0.43256	0.78041	0.47229
2.386	135.97	-3.014e+05	3039.9	-0.43364	0.77924	0.47004
2.388	135.97	-3.014e+05	3039.7	-0.43471	0.77807	0.4678
2.39	135.97	-3.0139e+05	3039.4	-0.43578	0.7769	0.46555
2.392	135.97	-3.0139e+05	3039.2	-0.4352	0.77631	0.46555
2.394	135.96	-3.0139e+05	3039	-0.43461	0.77572	0.46555
2.396	135.96	-3.014e+05	3038.8	-0.43403	0.77514	0.46555
2.398	135.96	-3.014e+05	3038.7	-0.43344	0.77455	0.46555
2.4	135.97	-3.0139e+05	3038.6	-0.43286	0.77397	0.46555
2.402	135.97	-3.0139e+05	3038.4	-0.43364	0.77524	0.46614
2.404	135.97	-3.0139e+05	3038.2	-0.43442	0.77651	0.46672
2.406	135.97	-3.0139e+05	3038.1	-0.4352	0.77777	0.46731
2.408	135.97	-3.014e+05	3038	-0.43598	0.77904	0.46789
2.41	135.97	-3.014e+05	3038	-0.43676	0.78031	0.46848
2.412	135.97	-3.014e+05	3037.9	-0.43481	0.7809	0.46975
2.414	135.97	-3.014e+05	3037.9	-0.43286	0.78148	0.47102
2.416	135.97	-3.014e+05	3037.9	-0.4309	0.78207	0.47229
2.418	135.97	-3.014e+05	3037.8	-0.42895	0.78265	0.47356
2.42	135.97	-3.0141e+05	3037.8	-0.427	0.78324	0.47482
2.422	135.97	-3.0141e+05	3037.8	-0.4268	0.78353	0.47453
2.424	135.98	-3.014e+05	3037.7	-0.42661	0.78383	0.47424
2.426	135.97	-3.014e+05	3037.7	-0.42641	0.78412	0.47395
2.428	135.97	-3.0139e+05	3037.7	-0.42622	0.78441	0.47365
2.43	135.97	-3.0139e+05	3037.7	-0.42602	0.7847	0.47336
2.432	135.97	-3.0139e+05	3037.7	-0.427	0.78412	0.47326
2.434	135.98	-3.014e+05	3037.7	-0.42798	0.78353	0.47316
2.436	135.98	-3.014e+05	3037.7	-0.42895	0.78295	0.47307
2.438	135.97	-3.014e+05	3037.7	-0.42993	0.78236	0.47297
2.44	135.98	-3.014e+05	3037.8	-0.4309	0.78178	0.47287
2.442	135.98	-3.014e+05	3037.8	-0.43178	0.7809	0.47238
2.444	135.98	-3.014e+05	3037.8	-0.43266	0.78002	0.4719
2.446	135.97	-3.014e+05	3037.8	-0.43354	0.77914	0.47141
2.448	135.98	-3.014e+05	3037.8	-0.43442	0.77826	0.47092
2.45	135.98	-3.014e+05	3037.8	-0.4353	0.77738	0.47043
2.452	135.98	-3.0141e+05	3037.8	-0.4353	0.77807	0.47072
2.454	135.98	-3.0141e+05	3037.9	-0.4353	0.77875	0.47102
2.456	135.98	-3.0141e+05	3037.9	-0.4353	0.77943	0.47131
2.458	135.98	-3.014e+05	3037.9	-0.4353	0.78012	0.4716
2.46	135.98	-3.0139e+05	3037.9	-0.4353	0.7808	0.4719
2.462	135.98	-3.0139e+05	3037.9	-0.43461	0.7807	0.4719
2.464	135.98	-3.0139e+05	3037.8	-0.43393	0.7806	0.4719
2.466	135.98	-3.0139e+05	3037.8	-0.43325	0.78051	0.4719
2.468	135.98	-3.0139e+05	3037.8	-0.43256	0.78041	0.4719
2.47	135.98	-3.0139e+05	3037.8	-0.43188	0.78031	0.4719
2.472	135.98	-3.0139e+05	3037.8	-0.43139	0.7808	0.47209
2.474	135.98	-3.0139e+05	3037.8	-0.4309	0.78129	0.47229
2.476	135.98	-3.0138e+05	3037.7	-0.43042	0.78178	0.47248
2.478	135.98	-3.0138e+05	3037.7	-0.42993	0.78226	0.47268
2.48	135.98	-3.0138e+05	3037.6	-0.42944	0.78275	0.47287
2.482	135.98	-3.0138e+05	3037.5	-0.42964	0.78275	0.47316
2.484	135.98	-3.0138e+05	3037.5	-0.42983	0.78275	0.47346
2.486	135.98	-3.0138e+05	3037.4	-0.43003	0.78275	0.47375
2.488	135.98	-3.0139e+05	3037.4	-0.43022	0.78275	0.47404
2.49	135.98	-3.0139e+05	3037.3	-0.43042	0.78275	0.47434
2.492	135.98	-3.0139e+05	3037.2	-0.42973	0.78353	0.47404
2.494	135.98	-3.0138e+05	3037.1	-0.42905	0.78431	0.47375
2.496	135.98	-3.0138e+05	3037	-0.42837	0.78509	0.47346
2.498	135.98	-3.0138e+05	3037	-0.42768	0.78588	0.47316
2.5	135.98	-3.0138e+05	3036.9	-0.427	0.78666	0.47287
2.502	135.98	-3.0138e+05	3036.7	-0.42778	0.78617	0.47219
2.504	135.99	-3.0138e+05	3036.6	-0.42856	0.78568	0.47151
2.506	135.98	-3.0138e+05	3036.5	-0.42934	0.78519	0.47082
2.508	135.98	-3.0138e+05	3036.4	-0.43012	0.7847	0.47014
2.51	135.98	-3.0139e+05	3036.2	-0.4309	0.78422	0.46946
2.512	135.98	-3.0139e+05	3036.1	-0.43237	0.78314	0.46907
2.514	135.98	-3.0139e+05	3036	-0.43383	0.78207	0.46868
2.516	135.99	-3.0139e+05	3035.8	-0.4353	0.781	0.46828
2.518	135.98	-3.0139e+05	3035.7	-0.43676	0.77992	0.46789
2.52	135.98	-3.0138e+05	3035.6	-0.43822	0.77885	0.4675
2.522	135.98	-3.0138e+05	3035.5	-0.43871	0.77963	0.4676
2.524	135.98	-3.0138e+05	3035.4	-0.4392	0.78041	0.4677
2.526	135.97	-3.0138e+05	3035.3	-0.43969	0.78119	0.4678
2.528	135.97	-3.0138e+05	3035.2	-0.44018	0.78197	0.46789
2.53	135.97	-3.0138e+05	3035.1	-0.44066	0.78275	0.46799
2.532	135.97	-3.0138e+05	3034.9	-0.43979	0.78129	0.4676
2.534	135.97	-3.0138e+05	3034.8	-0.43891	0.77982	0.46721
2.536	135.97	-3.0138e+05	3034.7	-0.43803	0.77836	0.46682
2.538	135.97	-3.0138e+05	3034.5	-0.43715	0.7769	0.46643
2.54	135.97	-3.0138e+05	3034.4	-0.43627	0.77543	0.46604
2.542	135.96	-3.0138e+05	3034.2	-0.43569	0.77582	0.46614
2.544	135.96	-3.0139e+05	3034.1	-0.4351	0.77621	0.46624
2.546	135.95	-3.0139e+05	3033.9	-0.43452	0.7766	0.46633
2.548	135.95	-3.0139e+05	3033.8	-0.43393	0.77699	0.46643
2.55	135.95	-3.014e+05	3033.6	-0.43334	0.77738	0.46653
2.552	135.95	-3.014e+05	3033.4	-0.43393	0.77787	0.46692
2.554	135.95	-3.014e+05	3033.3	-0.43452	0.77836	0.46731
2.556	135.95	-3.014e+05	3033.1	-0.4351	0.77885	0.4677
2.558	135.94	-3.014e+05	3033	-0.43569	0.77934	0.46809
2.56	135.93	-3.014e+05	3032.8	-0.43627	0.77982	0.46848
2.562	135.91	-3.014e+05	3032.6	-0.43432	0.7808	0.46955
2.564	135.9	-3.0141e+05	3032.4	-0.43237	0.78178	0.47063
2.566	135.9	-3.0141e+05	3032.2	-0.43042	0.78275	0.4717
2.568	135.89	-3.0141e+05	3032	-0.42846	0.78373	0.47277
2.57	135.9	-3.014e+05	3031.9	-0.42651	0.7847	0.47385
2.572	135.9	-3.014e+05	3031.6	-0.42759	0.78373	0.47424
2.574	135.91	-3.014e+05	3031.4	-0.42866	0.78275	0.47463
2.576	135.92	-3.014e+05	3031.2	-0.42973	0.78178	0.47502
2.578	135.92	-3.014e+05	3031	-0.43081	0.7808	0.47541
2.58	135.92	-3.014e+05	3030.7	-0.43188	0.77982	0.4758
2.582	135.93	-3.0139e+05	3030.5	-0.4312	0.7808	0.47551
2.584	135.93	-3.0139e+05	3030.3	-0.43051	0.78178	0.47521
2.586	135.94	-3.0139e+05	3030.1	-0.42983	0.78275	0.47492
2.588	135.95	-3.014e+05	3029.8	-0.42915	0.78373	0.47463
2.59	135.96	-3.0139e+05	3029.6	-0.42846	0.7847	0.47434
2.592	135.97	-3.0138e+05	3029.4	-0.42983	0.78383	0.47443
2.594	135.98	-3.0138e+05	3029.1	-0.4312	0.78295	0.47453
2.596	135.99	-3.0138e+05	3028.8	-0.43256	0.78207	0.47463
2.598	135.99	-3.0139e+05	3028.6	-0.43393	0.78119	0.47473
2.6	136	-3.0139e+05	3028.3	-0.4353	0.78031	0.47482
2.602	136	-3.0138e+05	3028.1	-0.43559	0.78031	0.47531
2.604	136	-3.0138e+05	3027.8	-0.43588	0.78031	0.4758
2.606	135.99	-3.0137e+05	3027.6	-0.43617	0.78031	0.47629
2.608	136	-3.0137e+05	3027.3	-0.43647	0.78031	0.47678
2.61	136	-3.0138e+05	3027.1	-0.43676	0.78031	0.47726
2.612	136	-3.0139e+05	3026.8	-0.4352	0.78051	0.47648
2.614	136	-3.0139e+05	3026.5	-0.43364	0.7807	0.4757
2.616	136	-3.0139e+05	3026.3	-0.43208	0.7809	0.47492
2.618	136	-3.014e+05	3026	-0.43051	0.78109	0.47414
2.62	136	-3.014e+05	3025.7	-0.42895	0.78129	0.47336
2.622	136.01	-3.0139e+05	3025.5	-0.42944	0.78139	0.47385
2.624	136.01	-3.0138e+05	3025.2	-0.42993	0.78148	0.47434
2.626	136.01	-3.0138e+05	3025	-0.43042	0.78158	0.47482
2.628	136.01	-3.0138e+05	3024.7	-0.4309	0.78168	0.47531
2.63	136.01	-3.0138e+05	3024.5	-0.43139	0.78178	0.4758
2.632	136.01	-3.0138e+05	3024.3	-0.431	0.78158	0.4756
2.634	136.02	-3.0139e+05	3024	-0.43061	0.78139	0.47541
2.636	136.02	-3.014e+05	3023.8	-0.43022	0.78119	0.47521
2.638	136.02	-3.0139e+05	3023.6	-0.42983	0.781	0.47502
2.64	136.02	-3.0138e+05	3023.3	-0.42944	0.7808	0.47482
2.642	136.02	-3.0138e+05	3023.1	-0.42876	0.78236	0.47463
2.644	136.02	-3.0139e+05	3022.9	-0.42807	0.78392	0.47443
2.646	136.02	-3.0139e+05	3022.7	-0.42739	0.78548	0.47424
2.648	136.02	-3.0139e+05	3022.5	-0.42671	0.78705	0.47404
2.65	136.02	-3.0139e+05	3022.3	-0.42602	0.78861	0.47385
2.652	136.02	-3.0139e+05	3022.1	-0.427	0.78802	0.47404
2.654	136.03	-3.0139e+05	3022	-0.42798	0.78744	0.47424
2.656	136.03	-3.014e+05	3021.8	-0.42895	0.78685	0.47443
2.658	136.03	-3.0139e+05	3021.6	-0.42993	0.78627	0.47463
2.66	136.02	-3.0138e+05	3021.5	-0.4309	0.78568	0.47482
2.662	136.02	-3.0138e+05	3021.3	-0.43012	0.78519	0.47492
2.664	136.03	-3.0138e+05	3021.1	-0.42934	0.7847	0.47502
2.666	136.02	-3.0139e+05	3021	-0.42856	0.78422	0.47512
2.668	136.02	-3.0139e+05	3020.9	-0.42778	0.78373	0.47521
2.67	136.02	-3.0139e+05	3020.8	-0.427	0.78324	0.47531
2.672	136.02	-3.014e+05	3020.8	-0.42749	0.78285	0.47551
2.674	136.02	-3.014e+05	3020.7	-0.42798	0.78246	0.4757
2.676	136.02	-3.014e+05	3020.6	-0.42846	0.78207	0.4759
2.678	136.02	-3.014e+05	3020.5	-0.42895	0.78168	0.47609
2.68	136.03	-3.014e+05	3020.4	-0.42944	0.78129	0.47629
2.682	136.03	-3.0139e+05	3020.3	-0.43042	0.78129	0.47629
2.684	136.03	-3.0139e+05	3020.3	-0.43139	0.78129	0.47629
2.686	136.03	-3.0139e+05	3020.2	-0.43237	0.78129	0.47629
2.688	136.04	-3.0139e+05	3020.2	-0.43334	0.78129	0.47629
2.69	136.03	-3.0138e+05	3020.1	-0.43432	0.78129	0.47629
2.692	136.03	-3.0138e+05	3020.1	-0.43412	0.78041	0.47482
2.694	136.02	-3.0138e+05	3020.1	-0.43393	0.77953	0.47336
2.696	136	-3.0139e+05	3020	-0.43373	0.77865	0.4719
2.698	135.97	-3.0139e+05	3020	-0.43354	0.77777	0.47043
2.7	135.92	-3.0139e+05	3020	-0.43334	0.7769	0.46897
2.702	135.85	-3.0138e+05	3019.9	-0.43295	0.77787	0.46975
2.704	135.77	-3.0138e+05	3019.8	-0.43256	0.77885	0.47053
2.706	135.65	-3.0139e+05	3019.7	-0.43217	0.77982	0.47131
2.708	135.5	-3.014e+05	3019.7	-0.43178	0.7808	0.47209
2.71	135.34	-3.0139e+05	3019.7	-0.43139	0.78178	0.47287
2.712	135.21	-3.0139e+05	3019.6	-0.43061	0.78226	0.47307
2.714	135.13	-3.0139e+05	3019.6	-0.42983	0.78275	0.47326
2.716	135.1	-3.0139e+05	3019.5	-0.42905	0.78324	0.47346
2.718	135.14	-3.0139e+05	3019.5	-0.42827	0.78373	0.47365
2.72	135.27	-3.0139e+05	3019.4	-0.42749	0.78422	0.47385
2.722	135.46	-3.0139e+05	3019.3	-0.42827	0.78334	0.47346
2.724	135.66	-3.0139e+05	3019.3	-0.42905	0.78246	0.47307
2.726	135.81	-3.0139e+05	3019.2	-0.42983	0.78158	0.47268
2.728	135.88	-3.014e+05	3019.1	-0.43061	0.7807	0.47229
2.73	135.9	-3.014e+05	3019	-0.43139	0.77982	0.4719
2.732	135.91	-3.014e+05	3018.9	-0.4309	0.77992	0.47209
2.734	135.93	-3.0139e+05	3018.8	-0.43042	0.78002	0.47229
2.736	135.96	-3.0138e+05	3018.7	-0.42993	0.78012	0.47248
2.738	135.97	-3.0139e+05	3018.6	-0.42944	0.78021	0.47268
2.74	135.97	-3.014e+05	3018.4	-0.42895	0.78031	0.47287
2.742	135.98	-3.014e+05	3018.3	-0.42934	0.78012	0.47346
2.744	135.99	-3.014e+05	3018.2	-0.42973	0.77992	0.47404
2.746	136.01	-3.014e+05	3018.1	-0.43012	0.77973	0.47463
2.748	136.03	-3.0139e+05	3018	-0.43051	0.77953	0.47521
2.75	136.03	-3.0139e+05	3017.8	-0.4309	0.77934	0.4758
2.752	136.03	-3.0139e+05	3017.7	-0.42993	0.78021	0.47551
2.754	136.03	-3.0139e+05	3017.6	-0.42895	0.78109	0.47521
2.756	136.03	-3.0139e+05	3017.4	-0.42798	0.78197	0.47492
2.758	136.03	-3.0139e+05	3017.3	-0.427	0.78285	0.47463
2.76	136.03	-3.0139e+05	3017.1	-0.42602	0.78373	0.47434
2.762	136.03	-3.0139e+05	3016.9	-0.4268	0.78275	0.47326
2.764	136.02	-3.014e+05	3016.8	-0.42759	0.78178	0.47219
2.766	136.02	-3.014e+05	3016.7	-0.42837	0.7808	0.47112
2.768	136.02	-3.0139e+05	3016.5	-0.42915	0.77982	0.47004
2.77	136.02	-3.0139e+05	3016.4	-0.42993	0.77885	0.46897
2.772	136.02	-3.0139e+05	3016.3	-0.43168	0.77904	0.46887
2.774	136.02	-3.0139e+05	3016.2	-0.43344	0.77924	0.46877
2.776	136.02	-3.0139e+05	3016.1	-0.4352	0.77943	0.46868
2.778	136.01	-3.0139e+05	3015.9	-0.43696	0.77963	0.46858
2.78	136.01	-3.014e+05	3015.8	-0.43871	0.77982	0.46848
2.782	136.01	-3.014e+05	3015.7	-0.43705	0.7807	0.46926
2.784	136.02	-3.0139e+05	3015.6	-0.43539	0.78158	0.47004
2.786	136.02	-3.0139e+05	3015.5	-0.43373	0.78246	0.47082
2.788	136.02	-3.0139e+05	3015.4	-0.43208	0.78334	0.4716
2.79	136.02	-3.0139e+05	3015.3	-0.43042	0.78422	0.47238
2.792	136.01	-3.0139e+05	3015.3	-0.42954	0.78383	0.47277
2.794	136.01	-3.0139e+05	3015.2	-0.42866	0.78344	0.47316
2.796	136.01	-3.0139e+05	3015.1	-0.42778	0.78304	0.47356
2.798	136.01	-3.0139e+05	3015	-0.4269	0.78265	0.47395
2.8	136.01	-3.0139e+05	3015	-0.42602	0.78226	0.47434
2.802	136.01	-3.0139e+05	3014.9	-0.42759	0.78217	0.47453
2.804	136.01	-3.0139e+05	3014.9	-0.42915	0.78207	0.47473
2.806	136.01	-3.0139e+05	3014.8	-0.43071	0.78197	0.47492
2.808	136.01	-3.0138e+05	3014.8	-0.43227	0.78187	0.47512
2.81	136	-3.0138e+05	3014.7	-0.43383	0.78178	0.47531
2.812	136	-3.0138e+05	3014.6	-0.43295	0.78207	0.47531
2.814	136	-3.0139e+05	3014.5	-0.43208	0.78236	0.47531
2.816	136	-3.0139e+05	3014.3	-0.4312	0.78265	0.47531
2.818	136	-3.0139e+05	3014.1	-0.43032	0.78295	0.47531
2.82	136	-3.0139e+05	3013.9	-0.42944	0.78324	0.47531
2.822	136	-3.014e+05	3013.7	-0.42993	0.78256	0.47521
2.824	136	-3.014e+05	3013.5	-0.43042	0.78187	0.47512
2.826	136	-3.014e+05	3013.3	-0.4309	0.78119	0.47502
2.828	136	-3.0139e+05	3013.2	-0.43139	0.78051	0.47492
2.83	136	-3.0139e+05	3013	-0.43188	0.77982	0.47482
2.832	136	-3.014e+05	3012.8	-0.43373	0.78002	0.47346
2.834	136	-3.014e+05	3012.6	-0.43559	0.78021	0.47209
2.836	136	-3.014e+05	3012.4	-0.43744	0.78041	0.47072
2.838	136	-3.0141e+05	3012.1	-0.4393	0.7806	0.46936
2.84	136	-3.0141e+05	3011.9	-0.44115	0.7808	0.46799
2.842	136	-3.0141e+05	3011.7	-0.44037	0.77992	0.46721
2.844	136	-3.014e+05	3011.5	-0.43959	0.77904	0.46643
2.846	136	-3.014e+05	3011.3	-0.43881	0.77816	0.46565
2.848	136	-3.014e+05	3011.1	-0.43803	0.77729	0.46487
2.85	136	-3.014e+05	3010.9	-0.43725	0.77641	0.46409
2.852	136	-3.014e+05	3010.8	-0.43637	0.77699	0.46516
2.854	136	-3.014e+05	3010.6	-0.43549	0.77758	0.46624
2.856	136	-3.014e+05	3010.4	-0.43461	0.77816	0.46731
2.858	136	-3.014e+05	3010.3	-0.43373	0.77875	0.46838
2.86	136	-3.0141e+05	3010.2	-0.43286	0.77934	0.46946
2.862	135.99	-3.0141e+05	3010.1	-0.43325	0.77885	0.46907
2.864	135.99	-3.014e+05	3009.9	-0.43364	0.77836	0.46868
2.866	135.99	-3.014e+05	3009.8	-0.43403	0.77787	0.46828
2.868	135.99	-3.014e+05	3009.7	-0.43442	0.77738	0.46789
2.87	135.99	-3.014e+05	3009.6	-0.43481	0.7769	0.4675
2.872	135.99	-3.0139e+05	3009.5	-0.43481	0.77719	0.46731
2.874	135.99	-3.0139e+05	3009.5	-0.43481	0.77748	0.46711
2.876	135.98	-3.0139e+05	3009.5	-0.43481	0.77777	0.46692
2.878	135.98	-3.014e+05	3009.5	-0.43481	0.77807	0.46672
2.88	135.98	-3.014e+05	3009.5	-0.43481	0.77836	0.46653
2.882	135.98	-3.014e+05	3009.6	-0.43334	0.77934	0.46858
2.884	135.98	-3.0139e+05	3009.7	-0.43188	0.78031	0.47063
2.886	135.97	-3.0139e+05	3009.9	-0.43042	0.78129	0.47268
2.888	135.97	-3.0139e+05	3010.2	-0.42895	0.78226	0.47473
2.89	135.97	-3.0139e+05	3010.5	-0.42749	0.78324	0.47678
2.892	135.97	-3.014e+05	3011.1	-0.42749	0.78334	0.47639
2.894	135.97	-3.014e+05	3011.6	-0.42749	0.78344	0.476
2.896	135.96	-3.014e+05	3012.3	-0.42749	0.78353	0.4756
2.898	135.96	-3.014e+05	3013.1	-0.42749	0.78363	0.47521
2.9	135.95	-3.0141e+05	3013.9	-0.42749	0.78373	0.47482
2.902	135.94	-3.0141e+05	3015	-0.42729	0.78431	0.47453
2.904	135.94	-3.0141e+05	3016.1	-0.4271	0.7849	0.47424
2.906	135.93	-3.014e+05	3017.3	-0.4269	0.78548	0.47395
2.908	135.92	-3.014e+05	3018.5	-0.42671	0.78607	0.47365
2.91	135.92	-3.014e+05	3019.8	-0.42651	0.78666	0.47336
2.912	135.91	-3.014e+05	3021.2	-0.42671	0.78656	0.47375
2.914	135.9	-3.014e+05	3022.6	-0.4269	0.78646	0.47414
2.916	135.89	-3.014e+05	3024	-0.4271	0.78636	0.47453
2.918	135.89	-3.014e+05	3025.4	-0.42729	0.78627	0.47492
2.92	135.89	-3.014e+05	3026.9	-0.42749	0.78617	0.47531
2.922	135.89	-3.014e+05	3028.3	-0.42885	0.78441	0.47395
2.924	135.88	-3.014e+05	3029.7	-0.43022	0.78265	0.47258
2.926	135.87	-3.014e+05	3031.1	-0.43159	0.7809	0.47121
2.928	135.86	-3.014e+05	3032.5	-0.43295	0.77914	0.46985
2.93	135.85	-3.0141e+05	3033.9	-0.43432	0.77738	0.46848
2.932	135.84	-3.0141e+05	3035.3	-0.43442	0.77768	0.46868
2.934	135.84	-3.0141e+05	3036.6	-0.43452	0.77797	0.46887
2.936	135.84	-3.014e+05	3037.8	-0.43461	0.77826	0.46907
2.938	135.83	-3.014e+05	3039	-0.43471	0.77856	0.46926
2.94	135.83	-3.014e+05	3040.2	-0.43481	0.77885	0.46946
2.942	135.82	-3.0141e+05	3041.4	-0.43393	0.77934	0.47004
2.944	135.81	-3.0141e+05	3042.6	-0.43305	0.77982	0.47063
2.946	135.8	-3.0141e+05	3043.7	-0.43217	0.78031	0.47121
2.948	135.8	-3.0141e+05	3044.6	-0.43129	0.7808	0.4718
2.95	135.79	-3.0141e+05	3045.6	-0.43042	0.78129	0.47238
2.952	135.79	-3.0141e+05	3046.4	-0.43003	0.78178	0.47346
2.954	135.79	-3.0141e+05	3047.1	-0.42964	0.78226	0.47453
2.956	135.79	-3.0141e+05	3047.8	-0.42924	0.78275	0.4756
2.958	135.79	-3.014e+05	3048.4	-0.42885	0.78324	0.47668
2.96	135.79	-3.014e+05	3049	-0.42846	0.78373	0.47775
2.962	135.78	-3.0141e+05	3049.6	-0.43042	0.78383	0.47639
2.964	135.78	-3.0141e+05	3050.1	-0.43237	0.78392	0.47502
2.966	135.78	-3.0141e+05	3050.5	-0.43432	0.78402	0.47365
2.968	135.78	-3.0141e+05	3050.8	-0.43627	0.78412	0.47229
2.97	135.78	-3.0141e+05	3051.2	-0.43822	0.78422	0.47092
2.972	135.79	-3.014e+05	3051.4	-0.43647	0.78402	0.4719
2.974	135.79	-3.014e+05	3051.6	-0.43471	0.78383	0.47287
2.976	135.78	-3.0141e+05	3051.8	-0.43295	0.78363	0.47385
2.978	135.79	-3.0141e+05	3051.9	-0.4312	0.78344	0.47482
2.98	135.79	-3.0142e+05	3052	-0.42944	0.78324	0.4758
2.982	135.8	-3.0141e+05	3052.1	-0.42954	0.78431	0.47502
2.984	135.8	-3.0141e+05	3052.2	-0.42964	0.78539	0.47424
2.986	135.81	-3.0141e+05	3052.2	-0.42973	0.78646	0.47346
2.988	135.81	-3.0141e+05	3052.2	-0.42983	0.78753	0.47268
2.99	135.82	-3.0141e+05	3052.2	-0.42993	0.78861	0.4719
2.992	135.82	-3.0141e+05	3052.1	-0.43022	0.78773	0.47268
2.994	135.83	-3.0141e+05	3052	-0.43051	0.78685	0.47346
2.996	135.83	-3.0141e+05	3051.9	-0.43081	0.78597	0.47424
2.998	135.84	-3.0141e+05	3051.8	-0.4311	0.78509	0.47502
3	135.85	-3.0141e+05	3051.6	-0.43139	0.78422	0.4758
3.002	135.86	-3.0141e+05	3051.5	-0.4312	0.78392	0.47551
3.004	135.86	-3.0141e+05	3051.3	-0.431	0.78363	0.47521
3.006	135.87	-3.0141e+05	3051.2	-0.43081	0.78334	0.47492
3.008	135.87	-3.0141e+05	3051.1	-0.43061	0.78304	0.47463
3.01	135.88	-3.0141e+05	3050.9	-0.43042	0.78275	0.47434
3.012	135.88	-3.014e+05	3050.8	-0.43071	0.78246	0.47443
3.014	135.89	-3.014e+05	3050.7	-0.431	0.78217	0.47453
3.016	135.89	-3.014e+05	3050.6	-0.43129	0.78187	0.47463
3.018	135.89	-3.0141e+05	3050.4	-0.43159	0.78158	0.47473
3.02	135.9	-3.0141e+05	3050.3	-0.43188	0.78129	0.47482
3.022	135.91	-3.0141e+05	3050.1	-0.43149	0.78246	0.47414
3.024	135.91	-3.0141e+05	3050	-0.4311	0.78363	0.47346
3.026	135.91	-3.0141e+05	3049.9	-0.43071	0.7848	0.47277
3.028	135.91	-3.014e+05	3049.9	-0.43032	0.78597	0.47209
3.03	135.91	-3.014e+05	3049.8	-0.42993	0.78714	0.47141
3.032	135.92	-3.014e+05	3049.7	-0.42885	0.78724	0.4718
3.034	135.92	-3.0141e+05	3049.5	-0.42778	0.78734	0.47219
3.036	135.92	-3.0141e+05	3049.4	-0.42671	0.78744	0.47258
3.038	135.92	-3.0141e+05	3049.3	-0.42563	0.78753	0.47297
3.04	135.92	-3.0141e+05	3049.1	-0.42456	0.78763	0.47336
3.042	135.92	-3.0141e+05	3049.1	-0.42544	0.78753	0.47385
3.044	135.92	-3.0141e+05	3049	-0.42632	0.78744	0.47434
3.046	135.92	-3.0141e+05	3048.8	-0.4272	0.78734	0.47482
3.048	135.92	-3.0141e+05	3048.7	-0.42807	0.78724	0.47531
3.05	135.92	-3.0141e+05	3048.6	-0.42895	0.78714	0.4758
3.052	135.92	-3.014e+05	3048.5	-0.42944	0.78714	0.47482
3.054	135.92	-3.014e+05	3048.3	-0.42993	0.78714	0.47385
3.056	135.93	-3.014e+05	3048.2	-0.43042	0.78714	0.47287
3.058	135.93	-3.014e+05	3048.1	-0.4309	0.78714	0.4719
3.06	135.93	-3.014e+05	3047.9	-0.43139	0.78714	0.47092
3.062	135.92	-3.014e+05	3047.8	-0.431	0.78763	0.47043
3.064	135.92	-3.014e+05	3047.6	-0.43061	0.78812	0.46994
3.066	135.93	-3.014e+05	3047.4	-0.43022	0.78861	0.46946
3.068	135.93	-3.014e+05	3047.3	-0.42983	0.7891	0.46897
3.07	135.93	-3.014e+05	3047.1	-0.42944	0.78958	0.46848
3.072	135.93	-3.014e+05	3046.9	-0.42934	0.78832	0.46985
3.074	135.93	-3.014e+05	3046.8	-0.42924	0.78705	0.47121
3.076	135.93	-3.014e+05	3046.6	-0.42915	0.78578	0.47258
3.078	135.93	-3.014e+05	3046.4	-0.42905	0.78451	0.47395
3.08	135.93	-3.0139e+05	3046.2	-0.42895	0.78324	0.47531
3.082	135.93	-3.014e+05	3045.9	-0.42788	0.78402	0.47502
3.084	135.93	-3.0141e+05	3045.7	-0.4268	0.7848	0.47473
3.086	135.93	-3.014e+05	3045.5	-0.42573	0.78558	0.47443
3.088	135.94	-3.014e+05	3045.4	-0.42466	0.78636	0.47414
3.09	135.94	-3.014e+05	3045.2	-0.42358	0.78714	0.47385
3.092	135.94	-3.0139e+05	3044.9	-0.42436	0.78695	0.47365
3.094	135.93	-3.014e+05	3044.7	-0.42515	0.78675	0.47346
3.096	135.94	-3.014e+05	3044.4	-0.42593	0.78656	0.47326
3.098	135.94	-3.014e+05	3044.2	-0.42671	0.78636	0.47307
3.1	135.94	-3.014e+05	3043.9	-0.42749	0.78617	0.47287
3.102	135.93	-3.014e+05	3043.6	-0.42729	0.78636	0.47268
3.104	135.93	-3.014e+05	3043.3	-0.4271	0.78656	0.47248
3.106	135.93	-3.014e+05	3043	-0.4269	0.78675	0.47229
3.108	135.94	-3.0141e+05	3042.7	-0.42671	0.78695	0.47209
3.11	135.94	-3.014e+05	3042.3	-0.42651	0.78714	0.4719
3.112	135.93	-3.014e+05	3042	-0.427	0.78666	0.47199
3.114	135.93	-3.0139e+05	3041.6	-0.42749	0.78617	0.47209
3.116	135.94	-3.0139e+05	3041.3	-0.42798	0.78568	0.47219
3.118	135.94	-3.0139e+05	3041	-0.42846	0.78519	0.47229
3.12	135.94	-3.0139e+05	3040.6	-0.42895	0.7847	0.47238
3.122	135.94	-3.0138e+05	3040.3	-0.42915	0.78431	0.47307
3.124	135.94	-3.0138e+05	3039.9	-0.42934	0.78392	0.47375
3.126	135.94	-3.0139e+05	3039.5	-0.42954	0.78353	0.47443
3.128	135.94	-3.0139e+05	3039.2	-0.42973	0.78314	0.47512
3.13	135.95	-3.0139e+05	3038.8	-0.42993	0.78275	0.4758
3.132	135.94	-3.0139e+05	3038.4	-0.42964	0.78314	0.47541
3.134	135.94	-3.0139e+05	3038.1	-0.42934	0.78353	0.47502
3.136	135.94	-3.0139e+05	3037.7	-0.42905	0.78392	0.47463
3.138	135.94	-3.0139e+05	3037.4	-0.42876	0.78431	0.47424
3.14	135.95	-3.0139e+05	3037.1	-0.42846	0.7847	0.47385
3.142	135.95	-3.0139e+05	3036.8	-0.42788	0.78422	0.47385
3.144	135.95	-3.0139e+05	3036.6	-0.42729	0.78373	0.47385
3.146	135.95	-3.0139e+05	3036.3	-0.42671	0.78324	0.47385
3.148	135.94	-3.0139e+05	3036.1	-0.42612	0.78275	0.47385
3.15	135.95	-3.0139e+05	3035.8	-0.42554	0.78226	0.47385
3.152	135.95	-3.0138e+05	3035.7	-0.42632	0.78236	0.47375
3.154	135.95	-3.0138e+05	3035.5	-0.4271	0.78246	0.47365
3.156	135.94	-3.0138e+05	3035.4	-0.42788	0.78256	0.47356
3.158	135.94	-3.0139e+05	3035.3	-0.42866	0.78265	0.47346
3.16	135.94	-3.014e+05	3035.2	-0.42944	0.78275	0.47336
3.162	135.95	-3.0139e+05	3035.1	-0.42895	0.78373	0.47316
3.164	135.95	-3.0139e+05	3035	-0.42846	0.7847	0.47297
3.166	135.95	-3.0139e+05	3034.9	-0.42798	0.78568	0.47277
3.168	135.95	-3.0139e+05	3034.9	-0.42749	0.78666	0.47258
3.17	135.95	-3.0138e+05	3034.8	-0.427	0.78763	0.47238
3.172	135.95	-3.0138e+05	3034.8	-0.42768	0.78617	0.47229
3.174	135.95	-3.0138e+05	3034.8	-0.42837	0.7847	0.47219
3.176	135.95	-3.0139e+05	3034.8	-0.42905	0.78324	0.47209
3.178	135.94	-3.0139e+05	3034.7	-0.42973	0.78178	0.47199
3.18	135.95	-3.0138e+05	3034.7	-0.43042	0.78031	0.4719
3.182	135.95	-3.0138e+05	3034.7	-0.43032	0.7809	0.47297
3.184	135.95	-3.0138e+05	3034.7	-0.43022	0.78148	0.47404
3.186	135.95	-3.0138e+05	3034.6	-0.43012	0.78207	0.47512
3.188	135.95	-3.0139e+05	3034.7	-0.43003	0.78265	0.47619
3.19	135.95	-3.0139e+05	3034.7	-0.42993	0.78324	0.47726
3.192	135.95	-3.0139e+05	3034.7	-0.42993	0.78226	0.47629
3.194	135.95	-3.0138e+05	3034.8	-0.42993	0.78129	0.47531
3.196	135.94	-3.0138e+05	3034.8	-0.42993	0.78031	0.47434
3.198	135.95	-3.0138e+05	3034.8	-0.42993	0.77934	0.47336
3.2	135.95	-3.0138e+05	3034.8	-0.42993	0.77836	0.47238
3.202	135.95	-3.0139e+05	3034.9	-0.42944	0.7806	0.4717
3.204	135.95	-3.0139e+05	3035	-0.42895	0.78285	0.47102
3.206	135.96	-3.0139e+05	3035	-0.42846	0.78509	0.47033
3.208	135.95	-3.0138e+05	3035.1	-0.42798	0.78734	0.46965
3.21	135.95	-3.0139e+05	3035.1	-0.42749	0.78958	0.46897
3.212	135.95	-3.0139e+05	3035.1	-0.42866	0.78802	0.47043
3.214	135.95	-3.0139e+05	3035.1	-0.42983	0.78646	0.4719
3.216	135.96	-3.0138e+05	3035.2	-0.431	0.7849	0.47336
3.218	135.96	-3.0138e+05	3035.2	-0.43217	0.78334	0.47482
3.22	135.95	-3.0139e+05	3035.2	-0.43334	0.78178	0.47629
3.222	135.95	-3.0138e+05	3035.2	-0.43315	0.78187	0.47639
3.224	135.96	-3.0137e+05	3035.2	-0.43295	0.78197	0.47648
3.226	135.95	-3.0138e+05	3035.2	-0.43276	0.78207	0.47658
3.228	135.95	-3.0139e+05	3035.1	-0.43256	0.78217	0.47668
3.23	135.96	-3.014e+05	3035.1	-0.43237	0.78226	0.47678
3.232	135.96	-3.014e+05	3035.1	-0.43149	0.78295	0.47629
3.234	135.95	-3.0139e+05	3035.1	-0.43061	0.78363	0.4758
3.236	135.95	-3.0139e+05	3035	-0.42973	0.78431	0.47531
3.238	135.96	-3.0138e+05	3035	-0.42885	0.785	0.47482
3.24	135.96	-3.0138e+05	3034.9	-0.42798	0.78568	0.47434
3.242	135.95	-3.0138e+05	3034.9	-0.42749	0.78519	0.47424
3.244	135.95	-3.0138e+05	3034.8	-0.427	0.7847	0.47414
3.246	135.95	-3.0138e+05	3034.8	-0.42651	0.78422	0.47404
3.248	135.96	-3.0138e+05	3034.7	-0.42602	0.78373	0.47395
3.25	135.96	-3.0138e+05	3034.6	-0.42554	0.78324	0.47385
3.252	135.96	-3.0138e+05	3034.6	-0.42632	0.78344	0.47346
3.254	135.96	-3.0138e+05	3034.5	-0.4271	0.78363	0.47307
3.256	135.96	-3.0138e+05	3034.5	-0.42788	0.78383	0.47268
3.258	135.96	-3.0138e+05	3034.4	-0.42866	0.78402	0.47229
3.26	135.96	-3.0138e+05	3034.3	-0.42944	0.78422	0.4719
3.262	135.96	-3.0139e+05	3034.2	-0.42905	0.78539	0.47121
3.264	135.96	-3.0139e+05	3034	-0.42866	0.78656	0.47053
3.266	135.97	-3.0139e+05	3033.9	-0.42827	0.78773	0.46985
3.268	135.97	-3.0139e+05	3033.8	-0.42788	0.7889	0.46916
3.27	135.96	-3.0139e+05	3033.7	-0.42749	0.79007	0.46848
3.272	135.96	-3.0138e+05	3033.6	-0.42768	0.78939	0.46946
3.274	135.95	-3.0139e+05	3033.5	-0.42788	0.78871	0.47043
3.276	135.95	-3.0139e+05	3033.4	-0.42807	0.78802	0.47141
3.278	135.94	-3.0139e+05	3033.3	-0.42827	0.78734	0.47238
3.28	135.94	-3.0139e+05	3033.2	-0.42846	0.78666	0.47336
3.282	135.94	-3.0138e+05	3033	-0.42846	0.78617	0.47395
3.284	135.95	-3.0138e+05	3032.9	-0.42846	0.78568	0.47453
3.286	135.95	-3.0138e+05	3032.8	-0.42846	0.78519	0.47512
3.288	135.95	-3.0139e+05	3032.6	-0.42846	0.7847	0.4757
3.29	135.94	-3.0138e+05	3032.5	-0.42846	0.78422	0.47629
3.292	135.93	-3.0138e+05	3032.4	-0.42827	0.785	0.47502
3.294	135.92	-3.0139e+05	3032.2	-0.42807	0.78578	0.47375
3.296	135.92	-3.0139e+05	3032.1	-0.42788	0.78656	0.47248
3.298	135.92	-3.0139e+05	3032	-0.42768	0.78734	0.47121
3.3	135.93	-3.0139e+05	3031.9	-0.42749	0.78812	0.46994
3.302	135.93	-3.0138e+05	3031.7	-0.42729	0.78783	0.47072
3.304	135.92	-3.0138e+05	3031.5	-0.4271	0.78753	0.47151
3.306	135.92	-3.0138e+05	3031.4	-0.4269	0.78724	0.47229
3.308	135.91	-3.0138e+05	3031.2	-0.42671	0.78695	0.47307
3.31	135.89	-3.0138e+05	3031.1	-0.42651	0.78666	0.47385
3.312	135.88	-3.0138e+05	3030.9	-0.42641	0.78675	0.47424
3.314	135.87	-3.0138e+05	3030.7	-0.42632	0.78685	0.47463
3.316	135.87	-3.0138e+05	3030.6	-0.42622	0.78695	0.47502
3.318	135.86	-3.0139e+05	3030.4	-0.42612	0.78705	0.47541
3.32	135.87	-3.0139e+05	3030.3	-0.42602	0.78714	0.4758
3.322	135.88	-3.0139e+05	3030.1	-0.4268	0.78636	0.4758
3.324	135.89	-3.0139e+05	3029.9	-0.42759	0.78558	0.4758
3.326	135.9	-3.0139e+05	3029.7	-0.42837	0.7848	0.4758
3.328	135.9	-3.0139e+05	3029.5	-0.42915	0.78402	0.4758
3.33	135.9	-3.0139e+05	3029.3	-0.42993	0.78324	0.4758
3.332	135.91	-3.0138e+05	3029.1	-0.42944	0.78412	0.47531
3.334	135.92	-3.0138e+05	3028.9	-0.42895	0.785	0.47482
3.336	135.93	-3.0138e+05	3028.7	-0.42846	0.78588	0.47434
3.338	135.94	-3.0138e+05	3028.5	-0.42798	0.78675	0.47385
3.34	135.95	-3.0139e+05	3028.3	-0.42749	0.78763	0.47336
3.342	135.96	-3.0139e+05	3028.1	-0.42798	0.78724	0.47404
3.344	135.97	-3.0139e+05	3027.9	-0.42846	0.78685	0.47473
3.346	135.98	-3.0139e+05	3027.7	-0.42895	0.78646	0.47541
3.348	135.98	-3.0139e+05	3027.5	-0.42944	0.78607	0.47609
3.35	135.98	-3.0139e+05	3027.3	-0.42993	0.78568	0.47678
3.352	135.98	-3.0138e+05	3027.1	-0.43042	0.78529	0.47697
3.354	135.97	-3.0139e+05	3026.9	-0.4309	0.7849	0.47717
3.356	135.97	-3.014e+05	3026.7	-0.43139	0.78451	0.47736
3.358	135.98	-3.0139e+05	3026.5	-0.43188	0.78412	0.47756
3.36	135.98	-3.0138e+05	3026.3	-0.43237	0.78373	0.47775
3.362	135.98	-3.0138e+05	3026.1	-0.43178	0.78402	0.47756
3.364	135.98	-3.0138e+05	3025.9	-0.4312	0.78431	0.47736
3.366	135.98	-3.0138e+05	3025.7	-0.43061	0.78461	0.47717
3.368	135.98	-3.0139e+05	3025.6	-0.43003	0.7849	0.47697
3.37	135.99	-3.0139e+05	3025.4	-0.42944	0.78519	0.47678
3.372	135.99	-3.0139e+05	3025.2	-0.42924	0.785	0.47619
3.374	135.99	-3.0139e+05	3025	-0.42905	0.7848	0.4756
3.376	135.99	-3.014e+05	3024.8	-0.42885	0.78461	0.47502
3.378	135.99	-3.0139e+05	3024.7	-0.42866	0.78441	0.47443
3.38	135.99	-3.0138e+05	3024.5	-0.42846	0.78422	0.47385
3.382	135.99	-3.0138e+05	3024.4	-0.42817	0.78519	0.47316
3.384	135.99	-3.0137e+05	3024.2	-0.42788	0.78617	0.47248
3.386	136	-3.0138e+05	3024	-0.42759	0.78714	0.4718
3.388	136	-3.0139e+05	3023.9	-0.42729	0.78812	0.47112
3.39	136	-3.0139e+05	3023.8	-0.427	0.7891	0.47043
3.392	136	-3.0138e+05	3023.7	-0.4271	0.78822	0.47092
3.394	136	-3.0138e+05	3023.6	-0.4272	0.78734	0.47141
3.396	136	-3.0138e+05	3023.4	-0.42729	0.78646	0.4719
3.398	136	-3.0139e+05	3023.3	-0.42739	0.78558	0.47238
3.4	136	-3.0139e+05	3023.2	-0.42749	0.7847	0.47287
3.402	136	-3.0138e+05	3023.1	-0.42778	0.78548	0.47258
3.404	136	-3.0138e+05	3023	-0.42807	0.78627	0.47229
3.406	136	-3.0138e+05	3022.9	-0.42837	0.78705	0.47199
3.408	136	-3.0138e+05	3022.9	-0.42866	0.78783	0.4717
3.41	136	-3.0138e+05	3022.8	-0.42895	0.78861	0.47141
3.412	136	-3.0138e+05	3022.7	-0.42905	0.78792	0.47102
3.414	136.01	-3.0138e+05	3022.6	-0.42915	0.78724	0.47063
3.416	136.01	-3.0138e+05	3022.6	-0.42924	0.78656	0.47024
3.418	136.01	-3.0138e+05	3022.6	-0.42934	0.78588	0.46985
3.42	136	-3.0139e+05	3022.5	-0.42944	0.78519	0.46946
3.422	136	-3.0139e+05	3022.5	-0.42895	0.78461	0.47033
3.424	136	-3.0139e+05	3022.4	-0.42846	0.78402	0.47121
3.426	136.01	-3.0138e+05	3022.3	-0.42798	0.78344	0.47209
3.428	136.02	-3.0138e+05	3022.3	-0.42749	0.78285	0.47297
3.43	136.02	-3.0138e+05	3022.2	-0.427	0.78226	0.47385
3.432	136.02	-3.0139e+05	3022.2	-0.42651	0.78353	0.47297
3.434	136.02	-3.0138e+05	3022.2	-0.42602	0.7848	0.47209
3.436	136.02	-3.0138e+05	3022.2	-0.42554	0.78607	0.47121
3.438	136.02	-3.0138e+05	3022.1	-0.42505	0.78734	0.47033
3.44	136.02	-3.0138e+05	3022	-0.42456	0.78861	0.46946
3.442	136	-3.0138e+05	3022	-0.42417	0.78812	0.47014
3.444	135.99	-3.0139e+05	3021.9	-0.42378	0.78763	0.47082
3.446	135.95	-3.0139e+05	3021.9	-0.42339	0.78714	0.47151
3.448	135.91	-3.0138e+05	3021.9	-0.423	0.78666	0.47219
3.45	135.86	-3.0138e+05	3021.9	-0.42261	0.78617	0.47287
3.452	135.79	-3.0139e+05	3021.8	-0.4228	0.78588	0.47326
3.454	135.68	-3.0139e+05	3021.7	-0.423	0.78558	0.47365
3.456	135.54	-3.0138e+05	3021.7	-0.42319	0.78529	0.47404
3.458	135.37	-3.0138e+05	3021.6	-0.42339	0.785	0.47443
3.46	135.23	-3.0138e+05	3021.6	-0.42358	0.7847	0.47482
3.462	135.14	-3.0139e+05	3021.5	-0.42368	0.78509	0.47453
3.464	135.09	-3.0139e+05	3021.5	-0.42378	0.78548	0.47424
3.466	135.12	-3.0139e+05	3021.4	-0.42388	0.78588	0.47395
3.468	135.22	-3.0138e+05	3021.3	-0.42397	0.78627	0.47365
3.47	135.4	-3.0139e+05	3021.2	-0.42407	0.78666	0.47336
3.472	135.6	-3.0139e+05	3021.1	-0.42466	0.78656	0.47404
3.474	135.77	-3.0139e+05	3021.1	-0.42524	0.78646	0.47473
3.476	135.87	-3.0138e+05	3021	-0.42583	0.78636	0.47541
3.478	135.9	-3.0138e+05	3021	-0.42641	0.78627	0.47609
3.48	135.91	-3.0138e+05	3020.9	-0.427	0.78617	0.47678
3.482	135.93	-3.0138e+05	3020.8	-0.427	0.78646	0.47639
3.484	135.95	-3.0138e+05	3020.7	-0.427	0.78675	0.476
3.486	135.97	-3.0139e+05	3020.6	-0.427	0.78705	0.4756
3.488	135.98	-3.0139e+05	3020.4	-0.427	0.78734	0.47521
3.49	135.99	-3.0139e+05	3020.3	-0.427	0.78763	0.47482
3.492	135.99	-3.0139e+05	3020.2	-0.42788	0.78588	0.47443
3.494	136	-3.0139e+05	3020	-0.42876	0.78412	0.47404
3.496	136.02	-3.0139e+05	3019.9	-0.42964	0.78236	0.47365
3.498	136.03	-3.0139e+05	3019.8	-0.43051	0.7806	0.47326
3.5	136.03	-3.0139e+05	3019.7	-0.43139	0.77885	0.47287
3.502	136.03	-3.0139e+05	3019.5	-0.43022	0.7808	0.47258
3.504	136.02	-3.014e+05	3019.4	-0.42905	0.78275	0.47229
3.506	136.02	-3.0139e+05	3019.3	-0.42788	0.7847	0.47199
3.508	136.02	-3.0139e+05	3019.2	-0.42671	0.78666	0.4717
3.51	136.02	-3.0139e+05	3019.1	-0.42554	0.78861	0.47141
3.512	136.02	-3.0139e+05	3018.9	-0.42554	0.78802	0.4716
3.514	136.01	-3.0139e+05	3018.8	-0.42554	0.78744	0.4718
3.516	136.01	-3.0139e+05	3018.7	-0.42554	0.78685	0.47199
3.518	136.01	-3.0139e+05	3018.5	-0.42554	0.78627	0.47219
3.52	136.01	-3.0139e+05	3018.4	-0.42554	0.78568	0.47238
3.522	136.01	-3.0139e+05	3018.3	-0.42544	0.78607	0.4719
3.524	136.01	-3.0139e+05	3018.2	-0.42534	0.78646	0.47141
3.526	136.01	-3.0139e+05	3018	-0.42524	0.78685	0.47092
3.528	136.01	-3.0139e+05	3017.9	-0.42515	0.78724	0.47043
3.53	136.01	-3.014e+05	3017.8	-0.42505	0.78763	0.46994
3.532	136.01	-3.014e+05	3017.7	-0.42524	0.78822	0.47072
3.534	136.01	-3.014e+05	3017.7	-0.42544	0.7888	0.47151
3.536	136.01	-3.0139e+05	3017.6	-0.42563	0.78939	0.47229
3.538	136.01	-3.0139e+05	3017.6	-0.42583	0.78997	0.47307
3.54	136.01	-3.0139e+05	3017.5	-0.42602	0.79056	0.47385
3.542	136.01	-3.0139e+05	3017.4	-0.42622	0.79017	0.47356
3.544	136.01	-3.014e+05	3017.4	-0.42641	0.78978	0.47326
3.546	136.01	-3.0139e+05	3017.3	-0.42661	0.78939	0.47297
3.548	136.01	-3.0139e+05	3017.2	-0.4268	0.789	0.47268
3.55	136.01	-3.0139e+05	3017.1	-0.427	0.78861	0.47238
3.552	136.01	-3.0139e+05	3017.1	-0.4269	0.78841	0.4718
3.554	136	-3.0139e+05	3017.1	-0.4268	0.78822	0.47121
3.556	136	-3.0139e+05	3017	-0.42671	0.78802	0.47063
3.558	136	-3.0139e+05	3017	-0.42661	0.78783	0.47004
3.56	136	-3.0139e+05	3016.9	-0.42651	0.78763	0.46946
3.562	136	-3.0139e+05	3016.8	-0.42661	0.78753	0.46985
3.564	136	-3.014e+05	3016.7	-0.42671	0.78744	0.47024
3.566	136	-3.014e+05	3016.6	-0.4268	0.78734	0.47063
3.568	135.99	-3.0139e+05	3016.5	-0.4269	0.78724	0.47102
3.57	136	-3.0139e+05	3016.3	-0.427	0.78714	0.47141
3.572	136	-3.0139e+05	3016.1	-0.42739	0.78705	0.47112
3.574	136	-3.0139e+05	3015.9	-0.42778	0.78695	0.47082
3.576	136	-3.0139e+05	3015.7	-0.42817	0.78685	0.47053
3.578	136	-3.0139e+05	3015.5	-0.42856	0.78675	0.47024
3.58	135.99	-3.0139e+05	3015.3	-0.42895	0.78666	0.46994
3.582	135.99	-3.0139e+05	3015.1	-0.42798	0.78636	0.47112
3.584	135.99	-3.014e+05	3015	-0.427	0.78607	0.47229
3.586	135.99	-3.0139e+05	3014.7	-0.42602	0.78578	0.47346
3.588	135.99	-3.0139e+05	3014.5	-0.42505	0.78548	0.47463
3.59	136	-3.0139e+05	3014.3	-0.42407	0.78519	0.4758
3.592	136	-3.0139e+05	3014.1	-0.42417	0.78548	0.47531
3.594	135.99	-3.0139e+05	3013.9	-0.42427	0.78578	0.47482
3.596	135.99	-3.0139e+05	3013.8	-0.42436	0.78607	0.47434
3.598	135.99	-3.014e+05	3013.6	-0.42446	0.78636	0.47385
3.6	135.99	-3.0141e+05	3013.5	-0.42456	0.78666	0.47336
3.602	135.99	-3.0141e+05	3013.3	-0.42505	0.78675	0.47385
3.604	135.99	-3.014e+05	3013.2	-0.42554	0.78685	0.47434
3.606	135.99	-3.014e+05	3013.1	-0.42602	0.78695	0.47482
3.608	135.99	-3.014e+05	3013	-0.42651	0.78705	0.47531
3.61	135.98	-3.014e+05	3013	-0.427	0.78714	0.4758
3.612	135.98	-3.014e+05	3012.9	-0.42602	0.78666	0.4759
3.614	135.97	-3.014e+05	3012.8	-0.42505	0.78617	0.476
3.616	135.97	-3.014e+05	3012.7	-0.42407	0.78568	0.47609
3.618	135.97	-3.014e+05	3012.7	-0.4231	0.78519	0.47619
3.62	135.97	-3.014e+05	3012.6	-0.42212	0.7847	0.47629
3.622	135.97	-3.014e+05	3012.7	-0.423	0.785	0.47648
3.624	135.97	-3.014e+05	3012.7	-0.42388	0.78529	0.47668
3.626	135.97	-3.014e+05	3012.8	-0.42476	0.78558	0.47687
3.628	135.96	-3.0139e+05	3012.8	-0.42563	0.78588	0.47707
3.63	135.96	-3.0139e+05	3012.8	-0.42651	0.78617	0.47726
3.632	135.96	-3.0139e+05	3013	-0.4269	0.78714	0.47541
3.634	135.96	-3.0139e+05	3013.2	-0.42729	0.78812	0.47356
3.636	135.95	-3.014e+05	3013.5	-0.42768	0.7891	0.4717
3.638	135.95	-3.0139e+05	3013.9	-0.42807	0.79007	0.46985
3.64	135.95	-3.0139e+05	3014.2	-0.42846	0.79105	0.46799
3.642	135.94	-3.0139e+05	3014.8	-0.42846	0.79046	0.46858
3.644	135.94	-3.0139e+05	3015.5	-0.42846	0.78988	0.46916
3.646	135.93	-3.014e+05	3016.2	-0.42846	0.78929	0.46975
3.648	135.93	-3.014e+05	3017	-0.42846	0.78871	0.47033
3.65	135.93	-3.014e+05	3017.8	-0.42846	0.78812	0.47092
3.652	135.92	-3.014e+05	3018.9	-0.42807	0.78792	0.47112
3.654	135.92	-3.014e+05	3020	-0.42768	0.78773	0.47131
3.656	135.91	-3.014e+05	3021.2	-0.42729	0.78753	0.47151
3.658	135.9	-3.0141e+05	3022.4	-0.4269	0.78734	0.4717
3.66	135.89	-3.0141e+05	3023.7	-0.42651	0.78714	0.4719
3.662	135.89	-3.0141e+05	3025	-0.42671	0.78714	0.47219
3.664	135.88	-3.0141e+05	3026.4	-0.4269	0.78714	0.47248
3.666	135.88	-3.0141e+05	3027.7	-0.4271	0.78714	0.47277
3.668	135.87	-3.014e+05	3029.1	-0.42729	0.78714	0.47307
3.67	135.86	-3.014e+05	3030.5	-0.42749	0.78714	0.47336
3.672	135.86	-3.014e+05	3031.9	-0.42876	0.78666	0.47287
3.674	135.85	-3.0141e+05	3033.3	-0.43003	0.78617	0.47238
3.676	135.84	-3.0141e+05	3034.7	-0.43129	0.78568	0.4719
3.678	135.83	-3.0141e+05	3036	-0.43256	0.78519	0.47141
3.68	135.82	-3.0141e+05	3037.4	-0.43383	0.7847	0.47092
3.682	135.82	-3.0141e+05	3038.7	-0.43256	0.7848	0.4716
3.684	135.81	-3.0141e+05	3040	-0.43129	0.7849	0.47229
3.686	135.8	-3.0141e+05	3041.3	-0.43003	0.785	0.47297
3.688	135.8	-3.0141e+05	3042.5	-0.42876	0.78509	0.47365
3.69	135.8	-3.0141e+05	3043.7	-0.42749	0.78519	0.47434
3.692	135.79	-3.0141e+05	3044.8	-0.42788	0.78548	0.47365
3.694	135.79	-3.0141e+05	3045.8	-0.42827	0.78578	0.47297
3.696	135.78	-3.014e+05	3046.9	-0.42866	0.78607	0.47229
3.698	135.77	-3.0141e+05	3047.8	-0.42905	0.78636	0.4716
3.7	135.77	-3.0141e+05	3048.8	-0.42944	0.78666	0.47092
3.702	135.77	-3.014e+05	3049.5	-0.42915	0.78607	0.4716
3.704	135.77	-3.014e+05	3050.3	-0.42885	0.78548	0.47229
3.706	135.76	-3.0139e+05	3051	-0.42856	0.7849	0.47297
3.708	135.76	-3.0139e+05	3051.6	-0.42827	0.78431	0.47365
3.71	135.76	-3.0139e+05	3052.2	-0.42798	0.78373	0.47434
3.712	135.76	-3.014e+05	3052.7	-0.42856	0.78422	0.47356
3.714	135.76	-3.014e+05	3053.2	-0.42915	0.7847	0.47277
3.716	135.75	-3.0141e+05	3053.7	-0.42973	0.78519	0.47199
3.718	135.75	-3.0141e+05	3054	-0.43032	0.78568	0.47121
3.72	135.76	-3.0141e+05	3054.4	-0.4309	0.78617	0.47043
3.722	135.76	-3.0141e+05	3054.7	-0.43071	0.78675	0.46985
3.724	135.77	-3.014e+05	3054.9	-0.43051	0.78734	0.46926
3.726	135.77	-3.014e+05	3055.2	-0.43032	0.78792	0.46868
3.728	135.77	-3.014e+05	3055.3	-0.43012	0.78851	0.46809
3.73	135.77	-3.014e+05	3055.5	-0.42993	0.7891	0.4675
3.732	135.78	-3.014e+05	3055.5	-0.42964	0.78832	0.46887
3.734	135.79	-3.014e+05	3055.6	-0.42934	0.78753	0.47024
3.736	135.8	-3.014e+05	3055.6	-0.42905	0.78675	0.4716
3.738	135.8	-3.014e+05	3055.6	-0.42876	0.78597	0.47297
3.74	135.81	-3.014e+05	3055.7	-0.42846	0.78519	0.47434
3.742	135.81	-3.014e+05	3055.6	-0.42934	0.7848	0.47346
3.744	135.82	-3.0139e+05	3055.5	-0.43022	0.78441	0.47258
3.746	135.83	-3.014e+05	3055.5	-0.4311	0.78402	0.4717
3.748	135.84	-3.014e+05	3055.4	-0.43198	0.78363	0.47082
3.75	135.84	-3.014e+05	3055.3	-0.43286	0.78324	0.46994
3.752	135.84	-3.014e+05	3055.1	-0.43364	0.78431	0.46955
3.754	135.85	-3.014e+05	3055	-0.43442	0.78539	0.46916
3.756	135.85	-3.0139e+05	3054.9	-0.4352	0.78646	0.46877
3.758	135.86	-3.0139e+05	3054.7	-0.43598	0.78753	0.46838
3.76	135.87	-3.0139e+05	3054.6	-0.43676	0.78861	0.46799
3.762	135.88	-3.014e+05	3054.4	-0.43481	0.78919	0.46799
3.764	135.88	-3.014e+05	3054.3	-0.43286	0.78978	0.46799
3.766	135.88	-3.014e+05	3054.1	-0.4309	0.79036	0.46799
3.768	135.89	-3.014e+05	3054	-0.42895	0.79095	0.46799
3.77	135.89	-3.014e+05	3053.9	-0.427	0.79154	0.46799
3.772	135.89	-3.014e+05	3053.7	-0.4272	0.79115	0.46819
3.774	135.89	-3.014e+05	3053.6	-0.42739	0.79076	0.46838
3.776	135.9	-3.014e+05	3053.5	-0.42759	0.79036	0.46858
3.778	135.9	-3.0141e+05	3053.4	-0.42778	0.78997	0.46877
3.78	135.9	-3.0142e+05	3053.2	-0.42798	0.78958	0.46897
3.782	135.9	-3.0142e+05	3053.1	-0.4272	0.78929	0.46975
3.784	135.9	-3.0142e+05	3053	-0.42641	0.789	0.47053
3.786	135.91	-3.0142e+05	3052.9	-0.42563	0.78871	0.47131
3.788	135.91	-3.0142e+05	3052.8	-0.42485	0.78841	0.47209
3.79	135.91	-3.0141e+05	3052.8	-0.42407	0.78812	0.47287
3.792	135.91	-3.0141e+05	3052.6	-0.42583	0.78734	0.47229
3.794	135.91	-3.014e+05	3052.5	-0.42759	0.78656	0.4717
3.796	135.91	-3.014e+05	3052.3	-0.42934	0.78578	0.47112
3.798	135.9	-3.0141e+05	3052.2	-0.4311	0.785	0.47053
3.8	135.91	-3.0141e+05	3052.1	-0.43286	0.78422	0.46994
3.802	135.91	-3.0141e+05	3052	-0.4312	0.78519	0.46994
3.804	135.91	-3.0141e+05	3051.9	-0.42954	0.78617	0.46994
3.806	135.92	-3.0141e+05	3051.8	-0.42788	0.78714	0.46994
3.808	135.92	-3.0142e+05	3051.6	-0.42622	0.78812	0.46994
3.81	135.91	-3.0142e+05	3051.4	-0.42456	0.7891	0.46994
3.812	135.91	-3.0142e+05	3051.3	-0.42495	0.7889	0.47053
3.814	135.92	-3.0142e+05	3051.2	-0.42534	0.78871	0.47112
3.816	135.92	-3.0141e+05	3051	-0.42573	0.78851	0.4717
3.818	135.92	-3.014e+05	3050.9	-0.42612	0.78832	0.47229
3.82	135.92	-3.0139e+05	3050.7	-0.42651	0.78812	0.47287
3.822	135.92	-3.0139e+05	3050.5	-0.42729	0.78724	0.47248
3.824	135.92	-3.0139e+05	3050.3	-0.42807	0.78636	0.47209
3.826	135.91	-3.0139e+05	3050.1	-0.42885	0.78548	0.4717
3.828	135.91	-3.0139e+05	3049.9	-0.42964	0.78461	0.47131
3.83	135.92	-3.0139e+05	3049.7	-0.43042	0.78373	0.47092
3.832	135.92	-3.0139e+05	3049.4	-0.42885	0.78383	0.4718
3.834	135.91	-3.0139e+05	3049.2	-0.42729	0.78392	0.47268
3.836	135.92	-3.0139e+05	3049	-0.42573	0.78402	0.47356
3.838	135.92	-3.0139e+05	3048.8	-0.42417	0.78412	0.47443
3.84	135.92	-3.014e+05	3048.6	-0.42261	0.78422	0.47531
3.842	135.92	-3.0139e+05	3048.3	-0.42241	0.78402	0.47443
3.844	135.92	-3.0138e+05	3048.1	-0.42222	0.78383	0.47356
3.846	135.92	-3.0138e+05	3047.8	-0.42202	0.78363	0.47268
3.848	135.92	-3.0139e+05	3047.6	-0.42183	0.78344	0.4718
3.85	135.92	-3.0139e+05	3047.3	-0.42163	0.78324	0.47092
3.852	135.93	-3.0139e+05	3046.9	-0.423	0.78431	0.47033
3.854	135.93	-3.0139e+05	3046.6	-0.42436	0.78539	0.46975
3.856	135.93	-3.0138e+05	3046.3	-0.42573	0.78646	0.46916
3.858	135.93	-3.0139e+05	3046	-0.4271	0.78753	0.46858
3.86	135.92	-3.014e+05	3045.7	-0.42846	0.78861	0.46799
3.862	135.92	-3.014e+05	3045.3	-0.42827	0.78871	0.46868
3.864	135.92	-3.0139e+05	3045	-0.42807	0.7888	0.46936
3.866	135.93	-3.0139e+05	3044.6	-0.42788	0.7889	0.47004
3.868	135.93	-3.0139e+05	3044.2	-0.42768	0.789	0.47072
3.87	135.93	-3.0138e+05	3043.8	-0.42749	0.7891	0.47141
3.872	135.93	-3.0138e+05	3043.5	-0.42759	0.78832	0.4718
3.874	135.92	-3.0138e+05	3043.1	-0.42768	0.78753	0.47219
3.876	135.92	-3.0138e+05	3042.8	-0.42778	0.78675	0.47258
3.878	135.92	-3.0138e+05	3042.4	-0.42788	0.78597	0.47297
3.88	135.92	-3.0138e+05	3042.1	-0.42798	0.78519	0.47336
3.882	135.92	-3.0138e+05	3041.8	-0.42895	0.785	0.47287
3.884	135.93	-3.0138e+05	3041.4	-0.42993	0.7848	0.47238
3.886	135.93	-3.0139e+05	3041.1	-0.4309	0.78461	0.4719
3.888	135.93	-3.014e+05	3040.8	-0.43188	0.78441	0.47141
3.89	135.93	-3.0139e+05	3040.6	-0.43286	0.78422	0.47092
3.892	135.93	-3.0139e+05	3040.3	-0.431	0.78461	0.47112
3.894	135.93	-3.0139e+05	3040.1	-0.42915	0.785	0.47131
3.896	135.93	-3.0139e+05	3039.8	-0.42729	0.78539	0.47151
3.898	135.93	-3.014e+05	3039.7	-0.42544	0.78578	0.4717
3.9	135.93	-3.014e+05	3039.5	-0.42358	0.78617	0.4719
3.902	135.94	-3.0139e+05	3039.4	-0.42368	0.78597	0.47248
3.904	135.94	-3.0137e+05	3039.2	-0.42378	0.78578	0.47307
3.906	135.93	-3.0138e+05	3039.1	-0.42388	0.78558	0.47365
3.908	135.93	-3.0138e+05	3039.1	-0.42397	0.78539	0.47424
3.91	135.93	-3.0138e+05	3039	-0.42407	0.78519	0.47482
3.912	135.93	-3.0138e+05	3039	-0.42485	0.78509	0.47512
3.914	135.93	-3.0138e+05	3039	-0.42563	0.785	0.47541
3.916	135.93	-3.0138e+05	3039	-0.42641	0.7849	0.4757
3.918	135.93	-3.0138e+05	3039	-0.4272	0.7848	0.476
3.92	135.94	-3.0137e+05	3039	-0.42798	0.7847	0.47629
3.922	135.94	-3.0137e+05	3039	-0.42837	0.78529	0.47482
3.924	135.93	-3.0137e+05	3039	-0.42876	0.78588	0.47336
3.926	135.93	-3.0138e+05	3039.1	-0.42915	0.78646	0.4719
3.928	135.93	-3.0138e+05	3039.1	-0.42954	0.78705	0.47043
3.93	135.93	-3.0138e+05	3039.2	-0.42993	0.78763	0.46897
3.932	135.93	-3.0138e+05	3039.3	-0.42973	0.78822	0.46897
3.934	135.93	-3.0138e+05	3039.4	-0.42954	0.7888	0.46897
3.936	135.94	-3.0139e+05	3039.6	-0.42934	0.78939	0.46897
3.938	135.94	-3.0139e+05	3039.7	-0.42915	0.78997	0.46897
3.94	135.94	-3.0139e+05	3039.9	-0.42895	0.79056	0.46897
3.942	135.94	-3.0139e+05	3040	-0.43012	0.78997	0.46868
3.944	135.94	-3.0138e+05	3040.1	-0.43129	0.78939	0.46838
3.946	135.94	-3.0138e+05	3040.3	-0.43247	0.7888	0.46809
3.948	135.94	-3.0138e+05	3040.4	-0.43364	0.78822	0.4678
3.95	135.94	-3.0139e+05	3040.5	-0.43481	0.78763	0.4675
3.952	135.94	-3.0139e+05	3040.6	-0.43344	0.78861	0.4677
3.954	135.94	-3.0139e+05	3040.7	-0.43208	0.78958	0.46789
3.956	135.94	-3.014e+05	3040.8	-0.43071	0.79056	0.46809
3.958	135.94	-3.0139e+05	3040.9	-0.42934	0.79154	0.46828
3.96	135.94	-3.0138e+05	3041	-0.42798	0.79251	0.46848
3.962	135.94	-3.0138e+05	3041	-0.42759	0.79173	0.46897
3.964	135.94	-3.0137e+05	3041.1	-0.4272	0.79095	0.46946
3.966	135.94	-3.0137e+05	3041.1	-0.4268	0.79017	0.46994
3.968	135.94	-3.0138e+05	3041.2	-0.42641	0.78939	0.47043
3.97	135.94	-3.0138e+05	3041.2	-0.42602	0.78861	0.47092
3.972	135.94	-3.0139e+05	3041.2	-0.42515	0.78714	0.47141
3.974	135.94	-3.0138e+05	3041.2	-0.42427	0.78568	0.4719
3.976	135.93	-3.0138e+05	3041.2	-0.42339	0.78422	0.47238
3.978	135.93	-3.0138e+05	3041.1	-0.42251	0.78275	0.47287
3.98	135.93	-3.0138e+05	3041	-0.42163	0.78129	0.47336
3.982	135.92	-3.0137e+05	3041	-0.42349	0.78285	0.4719
3.984	135.92	-3.0137e+05	3040.9	-0.42534	0.78441	0.47043
3.986	135.92	-3.0137e+05	3040.9	-0.4272	0.78597	0.46897
3.988	135.92	-3.0138e+05	3040.7	-0.42905	0.78753	0.4675
3.99	135.93	-3.0138e+05	3040.6	-0.4309	0.7891	0.46604
3.992	135.93	-3.0137e+05	3040.5	-0.42964	0.78851	0.4676
3.994	135.93	-3.0138e+05	3040.4	-0.42837	0.78792	0.46916
3.996	135.93	-3.0138e+05	3040.3	-0.4271	0.78734	0.47072
3.998	135.93	-3.0138e+05	3040.1	-0.42583	0.78675	0.47229
4	135.92	-3.0138e+05	3040	-0.42456	0.78617	0.47385
4.002	135.92	-3.0138e+05	3039.9	-0.42407	0.78597	0.47356
4.004	135.92	-3.0139e+05	3039.8	-0.42358	0.78578	0.47326
4.006	135.91	-3.0138e+05	3039.6	-0.4231	0.78558	0.47297
4.008	135.91	-3.0138e+05	3039.5	-0.42261	0.78539	0.47268
4.01	135.9	-3.0138e+05	3039.4	-0.42212	0.78519	0.47238
4.012	135.9	-3.0138e+05	3039.2	-0.42183	0.78422	0.47219
4.014	135.89	-3.0138e+05	3039.1	-0.42153	0.78324	0.47199
4.016	135.88	-3.0138e+05	3039	-0.42124	0.78226	0.4718
4.018	135.88	-3.0138e+05	3038.8	-0.42095	0.78129	0.4716
4.02	135.86	-3.0138e+05	3038.7	-0.42066	0.78031	0.47141
4.022	135.86	-3.0138e+05	3038.6	-0.42105	0.78168	0.47141
4.024	135.87	-3.0138e+05	3038.4	-0.42144	0.78304	0.47141
4.026	135.87	-3.0138e+05	3038.3	-0.42183	0.78441	0.47141
4.028	135.88	-3.0138e+05	3038.2	-0.42222	0.78578	0.47141
4.03	135.89	-3.0138e+05	3038.1	-0.42261	0.78714	0.47141
4.032	135.89	-3.0138e+05	3038	-0.42251	0.78695	0.4717
4.034	135.89	-3.0138e+05	3037.9	-0.42241	0.78675	0.47199
4.036	135.9	-3.0138e+05	3037.8	-0.42232	0.78656	0.47229
4.038	135.9	-3.0137e+05	3037.7	-0.42222	0.78636	0.47258
4.04	135.91	-3.0137e+05	3037.6	-0.42212	0.78617	0.47287
4.042	135.92	-3.0137e+05	3037.4	-0.42202	0.78617	0.47316
4.044	135.92	-3.0137e+05	3037.3	-0.42192	0.78617	0.47346
4.046	135.93	-3.0138e+05	3037.2	-0.42183	0.78617	0.47375
4.048	135.95	-3.0138e+05	3037	-0.42173	0.78617	0.47404
4.05	135.96	-3.0138e+05	3036.9	-0.42163	0.78617	0.47434
4.052	135.96	-3.0138e+05	3036.8	-0.42232	0.78646	0.47395
4.054	135.96	-3.0138e+05	3036.6	-0.423	0.78675	0.47356
4.056	135.96	-3.0138e+05	3036.4	-0.42368	0.78705	0.47316
4.058	135.96	-3.0137e+05	3036.3	-0.42436	0.78734	0.47277
4.06	135.96	-3.0137e+05	3036.1	-0.42505	0.78763	0.47238
4.062	135.96	-3.0137e+05	3035.9	-0.42583	0.78753	0.4717
4.064	135.97	-3.0138e+05	3035.7	-0.42661	0.78744	0.47102
4.066	135.97	-3.0138e+05	3035.5	-0.42739	0.78734	0.47033
4.068	135.97	-3.0137e+05	3035.3	-0.42817	0.78724	0.46965
4.07	135.98	-3.0138e+05	3035.1	-0.42895	0.78714	0.46897
4.072	135.98	-3.0139e+05	3034.9	-0.42807	0.78773	0.46887
4.074	135.97	-3.0138e+05	3034.7	-0.4272	0.78832	0.46877
4.076	135.97	-3.0137e+05	3034.5	-0.42632	0.7889	0.46868
4.078	135.97	-3.0138e+05	3034.2	-0.42544	0.78949	0.46858
4.08	135.97	-3.0138e+05	3034	-0.42456	0.79007	0.46848
4.082	135.98	-3.0138e+05	3033.8	-0.42466	0.78949	0.46936
4.084	135.98	-3.0138e+05	3033.6	-0.42476	0.7889	0.47024
4.086	135.99	-3.0138e+05	3033.3	-0.42485	0.78832	0.47112
4.088	135.99	-3.0137e+05	3033.1	-0.42495	0.78773	0.47199
4.09	135.99	-3.0137e+05	3032.8	-0.42505	0.78714	0.47287
4.092	135.99	-3.0137e+05	3032.5	-0.42593	0.78783	0.4716
4.094	135.99	-3.0138e+05	3032.3	-0.4268	0.78851	0.47033
4.096	135.99	-3.0138e+05	3032	-0.42768	0.78919	0.46907
4.098	135.99	-3.0138e+05	3031.8	-0.42856	0.78988	0.4678
4.1	135.99	-3.0138e+05	3031.5	-0.42944	0.79056	0.46653
4.102	135.99	-3.0137e+05	3031.2	-0.42885	0.79046	0.46682
4.104	136	-3.0137e+05	3031	-0.42827	0.79036	0.46711
4.106	136	-3.0137e+05	3030.7	-0.42768	0.79027	0.46741
4.108	136	-3.0137e+05	3030.5	-0.4271	0.79017	0.4677
4.11	136	-3.0137e+05	3030.2	-0.42651	0.79007	0.46799
4.112	136	-3.0137e+05	3030	-0.4268	0.79017	0.46789
4.114	136	-3.0138e+05	3029.8	-0.4271	0.79027	0.4678
4.116	136	-3.0139e+05	3029.6	-0.42739	0.79036	0.4677
4.118	136	-3.0138e+05	3029.3	-0.42768	0.79046	0.4676
4.12	136	-3.0138e+05	3029.1	-0.42798	0.79056	0.4675
4.122	136	-3.0137e+05	3028.9	-0.42768	0.78997	0.46887
4.124	136	-3.0137e+05	3028.7	-0.42739	0.78939	0.47024
4.126	136	-3.0137e+05	3028.6	-0.4271	0.7888	0.4716
4.128	136	-3.0137e+05	3028.4	-0.4268	0.78822	0.47297
4.13	136	-3.0137e+05	3028.3	-0.42651	0.78763	0.47434
4.132	136	-3.0137e+05	3028.1	-0.42778	0.78705	0.47375
4.134	136.01	-3.0137e+05	3028	-0.42905	0.78646	0.47316
4.136	136.01	-3.0138e+05	3027.8	-0.43032	0.78588	0.47258
4.138	136.02	-3.0138e+05	3027.7	-0.43159	0.78529	0.47199
4.14	136.01	-3.0138e+05	3027.6	-0.43286	0.7847	0.47141
4.142	136.02	-3.0138e+05	3027.5	-0.43266	0.78461	0.47053
4.144	136.02	-3.0138e+05	3027.4	-0.43247	0.78451	0.46965
4.146	136.02	-3.0138e+05	3027.3	-0.43227	0.78441	0.46877
4.148	136.01	-3.0138e+05	3027.2	-0.43208	0.78431	0.46789
4.15	136	-3.0138e+05	3027.1	-0.43188	0.78422	0.46702
4.152	135.98	-3.0138e+05	3027	-0.43032	0.7847	0.4677
4.154	135.93	-3.0139e+05	3026.9	-0.42876	0.78519	0.46838
4.156	135.89	-3.0139e+05	3026.8	-0.4272	0.78568	0.46907
4.158	135.83	-3.0139e+05	3026.7	-0.42563	0.78617	0.46975
4.16	135.75	-3.0139e+05	3026.6	-0.42407	0.78666	0.47043
4.162	135.64	-3.0139e+05	3026.5	-0.42495	0.78734	0.46994
4.164	135.5	-3.0139e+05	3026.4	-0.42583	0.78802	0.46946
4.166	135.37	-3.0138e+05	3026.3	-0.42671	0.78871	0.46897
4.168	135.26	-3.0138e+05	3026.1	-0.42759	0.78939	0.46848
4.17	135.19	-3.0138e+05	3026	-0.42846	0.79007	0.46799
4.172	135.19	-3.0138e+05	3025.9	-0.42788	0.79007	0.46809
4.174	135.24	-3.0138e+05	3025.8	-0.42729	0.79007	0.46819
4.176	135.37	-3.0138e+05	3025.6	-0.42671	0.79007	0.46828
4.178	135.56	-3.0138e+05	3025.5	-0.42612	0.79007	0.46838
4.18	135.76	-3.0137e+05	3025.3	-0.42554	0.79007	0.46848
4.182	135.89	-3.0137e+05	3025.2	-0.4268	0.789	0.46887
4.184	135.95	-3.0137e+05	3025	-0.42807	0.78792	0.46926
4.186	135.98	-3.0138e+05	3024.9	-0.42934	0.78685	0.46965
4.188	135.99	-3.0138e+05	3024.7	-0.43061	0.78578	0.47004
4.19	136.01	-3.0138e+05	3024.5	-0.43188	0.7847	0.47043
4.192	136.03	-3.0138e+05	3024.3	-0.43081	0.78558	0.47043
4.194	136.04	-3.0138e+05	3024	-0.42973	0.78646	0.47043
4.196	136.03	-3.0138e+05	3023.8	-0.42866	0.78734	0.47043
4.198	136.03	-3.0138e+05	3023.6	-0.42759	0.78822	0.47043
4.2	136.03	-3.0138e+05	3023.4	-0.42651	0.7891	0.47043
4.202	136.03	-3.0138e+05	3023.2	-0.42593	0.78871	0.47112
4.204	136.04	-3.0138e+05	3023	-0.42534	0.78832	0.4718
4.206	136.04	-3.0138e+05	3022.7	-0.42476	0.78792	0.47248
4.208	136.04	-3.0138e+05	3022.5	-0.42417	0.78753	0.47316
4.21	136.04	-3.0138e+05	3022.3	-0.42358	0.78714	0.47385
4.212	136.03	-3.0139e+05	3022	-0.42407	0.78744	0.47307
4.214	136.03	-3.0138e+05	3021.7	-0.42456	0.78773	0.47229
4.216	136.02	-3.0138e+05	3021.5	-0.42505	0.78802	0.47151
4.218	136.02	-3.0138e+05	3021.3	-0.42554	0.78832	0.47072
4.22	136.01	-3.0138e+05	3021	-0.42602	0.78861	0.46994
4.222	136.01	-3.0138e+05	3020.7	-0.42651	0.78724	0.47053
4.224	136.01	-3.0137e+05	3020.4	-0.427	0.78588	0.47112
4.226	136.01	-3.0138e+05	3020.1	-0.42749	0.78451	0.4717
4.228	136.01	-3.0138e+05	3019.9	-0.42798	0.78314	0.47229
4.23	136	-3.0139e+05	3019.6	-0.42846	0.78178	0.47287
4.232	136	-3.0139e+05	3019.4	-0.42739	0.78197	0.47326
4.234	136	-3.0139e+05	3019.2	-0.42632	0.78217	0.47365
4.236	136.01	-3.0139e+05	3019	-0.42524	0.78236	0.47404
4.238	136.01	-3.0139e+05	3018.7	-0.42417	0.78256	0.47443
4.24	136.01	-3.014e+05	3018.5	-0.4231	0.78275	0.47482
4.242	136	-3.014e+05	3018.3	-0.42476	0.78353	0.47356
4.244	136	-3.014e+05	3018	-0.42641	0.78431	0.47229
4.246	136	-3.0139e+05	3017.8	-0.42807	0.78509	0.47102
4.248	136	-3.0139e+05	3017.6	-0.42973	0.78588	0.46975
4.25	136	-3.0139e+05	3017.4	-0.43139	0.78666	0.46848
4.252	136	-3.0139e+05	3017.1	-0.42934	0.78656	0.46946
4.254	136	-3.0139e+05	3016.9	-0.42729	0.78646	0.47043
4.256	136	-3.0139e+05	3016.7	-0.42524	0.78636	0.47141
4.258	136	-3.0139e+05	3016.5	-0.42319	0.78627	0.47238
4.26	136	-3.0138e+05	3016.3	-0.42114	0.78617	0.47336
4.262	136	-3.0139e+05	3016.1	-0.42173	0.78627	0.47268
4.264	136	-3.0139e+05	3015.9	-0.42232	0.78636	0.47199
4.266	135.99	-3.0139e+05	3015.7	-0.4229	0.78646	0.47131
4.268	135.99	-3.0139e+05	3015.5	-0.42349	0.78656	0.47063
4.27	136	-3.0139e+05	3015.3	-0.42407	0.78666	0.46994
4.272	136	-3.0139e+05	3015.1	-0.42476	0.78714	0.46985
4.274	136	-3.0139e+05	3014.9	-0.42544	0.78763	0.46975
4.276	135.99	-3.0139e+05	3014.7	-0.42612	0.78812	0.46965
4.278	135.99	-3.0139e+05	3014.5	-0.4268	0.78861	0.46955
4.28	135.99	-3.014e+05	3014.4	-0.42749	0.7891	0.46946
4.282	135.99	-3.014e+05	3014.2	-0.427	0.78929	0.46965
4.284	135.99	-3.014e+05	3014	-0.42651	0.78949	0.46985
4.286	135.99	-3.014e+05	3013.8	-0.42602	0.78968	0.47004
4.288	136	-3.014e+05	3013.6	-0.42554	0.78988	0.47024
4.29	136	-3.014e+05	3013.3	-0.42505	0.79007	0.47043
4.292	135.99	-3.0139e+05	3013.1	-0.42456	0.78978	0.47043
4.294	135.99	-3.014e+05	3012.9	-0.42407	0.78949	0.47043
4.296	135.99	-3.014e+05	3012.7	-0.42358	0.78919	0.47043
4.298	135.99	-3.014e+05	3012.5	-0.4231	0.7889	0.47043
4.3	135.99	-3.014e+05	3012.3	-0.42261	0.78861	0.47043
4.302	135.99	-3.014e+05	3012.1	-0.42349	0.78841	0.46994
4.304	135.99	-3.0139e+05	3011.9	-0.42436	0.78822	0.46946
