t	ekg	optical	pressure	accel_x	accel_y	accel_z
0	92.188	-3.1218e+05	3118.3	0.070272	-0.17666	0.99894
0.002	92.167	-3.1218e+05	3122.2	0.069979	-0.17666	0.99855
0.004	92.115	-3.1219e+05	3126.1	0.069686	-0.17666	0.99816
0.006	92.073	-3.122e+05	3130.1	0.069394	-0.17666	0.99776
0.008	92.095	-3.122e+05	3134.1	0.069101	-0.17666	0.99737
0.01	92.119	-3.122e+05	3138.1	0.068808	-0.17666	0.99698
0.012	92.148	-3.122e+05	3141.9	0.069882	-0.17646	0.99718
0.014	92.193	-3.122e+05	3145.8	0.070955	-0.17627	0.99737
0.016	92.175	-3.1221e+05	3149.4	0.072029	-0.17607	0.99757
0.018	92.099	-3.122e+05	3152.9	0.073102	-0.17588	0.99776
0.02	92.047	-3.122e+05	3156.4	0.074176	-0.17568	0.99796
0.022	92.048	-3.122e+05	3159.4	0.073883	-0.17539	0.99825
0.024	92.073	-3.1219e+05	3162.4	0.07359	-0.17509	0.99855
0.026	92.11	-3.1219e+05	3165.2	0.073298	-0.1748	0.99884
0.028	92.149	-3.1219e+05	3167.8	0.073005	-0.17451	0.99913
0.03	92.14	-3.1219e+05	3170.3	0.072712	-0.17422	0.99942
0.032	92.074	-3.1219e+05	3172.6	0.071931	-0.17578	0.99952
0.034	92.009	-3.1219e+05	3174.9	0.07115	-0.17734	0.99962
0.036	92.008	-3.1218e+05	3177	0.07037	-0.1789	0.99972
0.038	92.035	-3.1217e+05	3178.9	0.069589	-0.18046	0.99981
0.04	92.025	-3.1217e+05	3180.9	0.068808	-0.18202	0.99991
0.042	92.033	-3.1216e+05	3182.5	0.069686	-0.18095	0.99933
0.044	92.045	-3.1215e+05	3184.2	0.070565	-0.17988	0.99874
0.046	92.07	-3.1215e+05	3185.8	0.071443	-0.1788	0.99816
0.048	92.051	-3.1215e+05	3187.2	0.072322	-0.17773	0.99757
0.05	91.982	-3.1215e+05	3188.6	0.0732	-0.17666	0.99698
0.052	92.014	-3.1215e+05	3189.8	0.073883	-0.17705	0.99835
0.054	92.008	-3.1214e+05	3191	0.074566	-0.17744	0.99972
0.056	91.972	-3.1213e+05	3192	0.07525	-0.17783	1.0011
0.058	91.963	-3.1213e+05	3193	0.075933	-0.17822	1.0024
0.06	91.999	-3.1212e+05	3193.9	0.076616	-0.17861	1.0038
0.062	92.066	-3.1212e+05	3194.7	0.077202	-0.17968	1.0033
0.064	92.078	-3.1211e+05	3195.4	0.077787	-0.18076	1.0028
0.066	92.088	-3.121e+05	3196.1	0.078373	-0.18183	1.0024
0.068	92.057	-3.1209e+05	3196.7	0.078958	-0.1829	1.0019
0.07	91.98	-3.1208e+05	3197.2	0.079544	-0.18398	1.0014
0.072	91.963	-3.1208e+05	3197.7	0.077104	-0.18339	1
0.074	92.066	-3.1208e+05	3198.1	0.074664	-0.1828	0.99864
0.076	92.137	-3.1207e+05	3198.4	0.072224	-0.18222	0.99728
0.078	92.114	-3.1207e+05	3198.7	0.069784	-0.18163	0.99591
0.08	92.073	-3.1206e+05	3199	0.067344	-0.18105	0.99454
0.082	92.059	-3.1206e+05	3199.2	0.067246	-0.18144	0.99572
0.084	92.077	-3.1205e+05	3199.3	0.067149	-0.18183	0.99689
0.086	92.074	-3.1204e+05	3199.5	0.067051	-0.18222	0.99806
0.088	92.098	-3.1203e+05	3199.6	0.066954	-0.18261	0.99923
0.09	92.131	-3.1203e+05	3199.8	0.066856	-0.183	1.0004
0.092	92.085	-3.1202e+05	3199.9	0.067246	-0.18368	1.0002
0.094	92.042	-3.1201e+05	3200	0.067637	-0.18437	1
0.096	92.076	-3.12e+05	3200	0.068027	-0.18505	0.99981
0.098	92.164	-3.1198e+05	3200	0.068418	-0.18573	0.99962
0.1	92.22	-3.1197e+05	3200.1	0.068808	-0.18642	0.99942
0.102	92.221	-3.1196e+05	3200	0.067832	-0.18495	0.99903
0.104	92.183	-3.1195e+05	3200	0.066856	-0.18349	0.99864
0.106	92.154	-3.1195e+05	3200	0.06588	-0.18202	0.99825
0.108	92.153	-3.1194e+05	3200	0.064904	-0.18056	0.99786
0.11	92.145	-3.1193e+05	3200	0.063928	-0.1791	0.99747
0.112	92.15	-3.1191e+05	3199.9	0.064709	-0.17997	0.99825
0.114	92.181	-3.119e+05	3199.8	0.06549	-0.18085	0.99903
0.116	92.181	-3.1189e+05	3199.7	0.06627	-0.18173	0.99981
0.118	92.134	-3.119e+05	3199.7	0.067051	-0.18261	1.0006
0.12	92.082	-3.119e+05	3199.6	0.067832	-0.18349	1.0014
0.122	92.096	-3.1188e+05	3199.5	0.068125	-0.1832	1.0013
0.124	92.157	-3.1187e+05	3199.4	0.068418	-0.1829	1.0012
0.126	92.175	-3.1186e+05	3199.3	0.06871	-0.18261	1.0011
0.128	92.189	-3.1185e+05	3199.1	0.069003	-0.18232	1.001
0.13	92.159	-3.1185e+05	3199	0.069296	-0.18202	1.0009
0.132	92.148	-3.1185e+05	3198.8	0.069003	-0.18232	1.0006
0.134	92.173	-3.1184e+05	3198.6	0.06871	-0.18261	1.0003
0.136	92.238	-3.1183e+05	3198.4	0.068418	-0.1829	1
0.138	92.273	-3.1182e+05	3198.3	0.068125	-0.1832	0.99972
0.14	92.226	-3.1181e+05	3198.1	0.067832	-0.18349	0.99942
0.142	92.209	-3.118e+05	3197.8	0.069101	-0.18251	1
0.144	92.172	-3.118e+05	3197.6	0.07037	-0.18154	1.0006
0.146	92.098	-3.1179e+05	3197.3	0.071638	-0.18056	1.0012
0.148	92.013	-3.1178e+05	3197.1	0.072907	-0.17958	1.0018
0.15	92.114	-3.1178e+05	3196.9	0.074176	-0.17861	1.0024
0.152	92.284	-3.1177e+05	3196.5	0.073102	-0.17949	1.0026
0.154	92.288	-3.1176e+05	3196.2	0.072029	-0.18036	1.0029
0.156	92.236	-3.1175e+05	3195.9	0.070955	-0.18124	1.0032
0.158	92.2	-3.1175e+05	3195.6	0.069882	-0.18212	1.0035
0.16	92.184	-3.1175e+05	3195.3	0.068808	-0.183	1.0038
0.162	92.21	-3.1174e+05	3194.9	0.069979	-0.1828	1.0047
0.164	92.196	-3.1174e+05	3194.6	0.07115	-0.18261	1.0056
0.166	92.17	-3.1173e+05	3194.2	0.072322	-0.18241	1.0065
0.168	92.148	-3.1172e+05	3193.8	0.073493	-0.18222	1.0073
0.17	92.182	-3.117e+05	3193.3	0.074664	-0.18202	1.0082
0.172	92.231	-3.1169e+05	3192.9	0.074566	-0.18124	1.0074
0.174	92.242	-3.1169e+05	3192.4	0.074469	-0.18046	1.0066
0.176	92.271	-3.1169e+05	3192	0.074371	-0.17968	1.0059
0.178	92.261	-3.1168e+05	3191.5	0.074274	-0.1789	1.0051
0.18	92.244	-3.1168e+05	3191	0.074176	-0.17812	1.0043
0.182	92.238	-3.1167e+05	3190.4	0.074371	-0.17792	1.0042
0.184	92.215	-3.1167e+05	3189.8	0.074566	-0.17773	1.0041
0.186	92.193	-3.1167e+05	3189.2	0.074762	-0.17753	1.004
0.188	92.196	-3.1167e+05	3188.5	0.074957	-0.17734	1.0039
0.19	92.195	-3.1166e+05	3187.9	0.075152	-0.17714	1.0038
0.192	92.181	-3.1165e+05	3187.2	0.074957	-0.17705	1.0033
0.194	92.193	-3.1164e+05	3186.4	0.074762	-0.17695	1.0028
0.196	92.237	-3.1163e+05	3185.7	0.074566	-0.17685	1.0024
0.198	92.259	-3.1163e+05	3184.9	0.074371	-0.17675	1.0019
0.2	92.231	-3.1163e+05	3184.1	0.074176	-0.17666	1.0014
0.202	92.195	-3.1163e+05	3183.3	0.074176	-0.17724	1.0017
0.204	92.172	-3.1163e+05	3182.4	0.074176	-0.17783	1.002
0.206	92.16	-3.1162e+05	3181.5	0.074176	-0.17841	1.0023
0.208	92.164	-3.1161e+05	3180.6	0.074176	-0.179	1.0025
0.21	92.214	-3.1161e+05	3179.7	0.074176	-0.17958	1.0028
0.212	92.249	-3.1161e+05	3178.8	0.074078	-0.17919	1.0027
0.214	92.263	-3.1161e+05	3177.9	0.073981	-0.1788	1.0026
0.216	92.282	-3.116e+05	3177.1	0.073883	-0.17841	1.0025
0.218	92.318	-3.116e+05	3176.2	0.073786	-0.17802	1.0024
0.22	92.308	-3.116e+05	3175.4	0.073688	-0.17763	1.0024
0.222	92.211	-3.116e+05	3174.6	0.074274	-0.17685	1.0025
0.224	92.177	-3.116e+05	3173.8	0.074859	-0.17607	1.0027
0.226	92.194	-3.116e+05	3173	0.075445	-0.17529	1.0029
0.228	92.222	-3.116e+05	3172.2	0.07603	-0.17451	1.0031
0.23	92.203	-3.1159e+05	3171.5	0.076616	-0.17373	1.0033
0.232	92.143	-3.1159e+05	3170.7	0.07603	-0.17441	1.0036
0.234	92.161	-3.1159e+05	3170	0.075445	-0.17509	1.0039
0.236	92.262	-3.1158e+05	3169.3	0.074859	-0.17578	1.0042
0.238	92.32	-3.1158e+05	3168.6	0.074274	-0.17646	1.0045
0.24	92.3	-3.1158e+05	3167.9	0.073688	-0.17714	1.0048
0.242	92.294	-3.1159e+05	3167.3	0.073395	-0.17695	1.0047
0.244	92.317	-3.1159e+05	3166.6	0.073102	-0.17675	1.0046
0.246	92.329	-3.1158e+05	3166	0.07281	-0.17656	1.0045
0.248	92.241	-3.1157e+05	3165.5	0.072517	-0.17636	1.0044
0.25	92.147	-3.1158e+05	3165	0.072224	-0.17617	1.0043
0.252	92.184	-3.1159e+05	3164.5	0.072029	-0.17597	1.0037
0.254	92.245	-3.1159e+05	3163.9	0.071834	-0.17578	1.0031
0.256	92.244	-3.1159e+05	3163.5	0.071638	-0.17558	1.0025
0.258	92.274	-3.1159e+05	3163.1	0.071443	-0.17539	1.002
0.26	92.275	-3.1159e+05	3162.6	0.071248	-0.17519	1.0014
0.262	92.276	-3.116e+05	3162.2	0.071931	-0.17607	1.0023
0.264	92.285	-3.116e+05	3161.8	0.072614	-0.17695	1.0031
0.266	92.267	-3.116e+05	3161.5	0.073298	-0.17783	1.004
0.268	92.242	-3.116e+05	3161.2	0.073981	-0.17871	1.0049
0.27	92.236	-3.116e+05	3160.9	0.074664	-0.17958	1.0058
0.272	92.226	-3.1161e+05	3160.6	0.074176	-0.17871	1.0049
0.274	92.217	-3.116e+05	3160.4	0.073688	-0.17783	1.004
0.276	92.246	-3.116e+05	3160.1	0.0732	-0.17695	1.0031
0.278	92.266	-3.1161e+05	3159.9	0.072712	-0.17607	1.0023
0.28	92.287	-3.1161e+05	3159.6	0.072224	-0.17519	1.0014
0.282	92.325	-3.116e+05	3159.4	0.071736	-0.17646	1.0022
0.284	92.308	-3.116e+05	3159.2	0.071248	-0.17773	1.0029
0.286	92.269	-3.116e+05	3158.9	0.07076	-0.179	1.0037
0.288	92.239	-3.1161e+05	3158.7	0.070272	-0.18027	1.0045
0.29	92.19	-3.1161e+05	3158.4	0.069784	-0.18154	1.0053
0.292	92.19	-3.1162e+05	3158.2	0.071248	-0.18085	1.0048
0.294	92.247	-3.1161e+05	3157.9	0.072712	-0.18017	1.0043
0.296	92.301	-3.1161e+05	3157.7	0.074176	-0.17949	1.0038
0.298	92.289	-3.1161e+05	3157.4	0.07564	-0.1788	1.0033
0.3	92.236	-3.1161e+05	3157.2	0.077104	-0.17812	1.0028
0.302	92.239	-3.1161e+05	3157	0.076226	-0.17753	1.0024
0.304	92.261	-3.1161e+05	3156.8	0.075347	-0.17695	1.0021
0.306	92.255	-3.1161e+05	3156.5	0.074469	-0.17636	1.0017
0.308	92.255	-3.1161e+05	3156.3	0.07359	-0.17578	1.0013
0.31	92.28	-3.1161e+05	3156	0.072712	-0.17519	1.0009
0.312	92.237	-3.1161e+05	3155.7	0.072907	-0.17568	1.0006
0.314	92.238	-3.1162e+05	3155.5	0.073102	-0.17617	1.0003
0.316	92.296	-3.1163e+05	3155.3	0.073298	-0.17666	1
0.318	92.347	-3.1163e+05	3155.1	0.073493	-0.17714	0.99972
0.32	92.312	-3.1163e+05	3154.8	0.073688	-0.17763	0.99942
0.322	92.294	-3.1163e+05	3154.6	0.073786	-0.17832	1.0003
0.324	92.285	-3.1164e+05	3154.4	0.073883	-0.179	1.0012
0.326	92.232	-3.1164e+05	3154.1	0.073981	-0.17968	1.0021
0.328	92.229	-3.1164e+05	3153.9	0.074078	-0.18036	1.0029
0.33	92.228	-3.1164e+05	3153.7	0.074176	-0.18105	1.0038
0.332	92.228	-3.1165e+05	3153.4	0.074078	-0.18046	1.0032
0.334	92.249	-3.1165e+05	3153.1	0.073981	-0.17988	1.0026
0.336	92.254	-3.1166e+05	3152.8	0.073883	-0.17929	1.0021
0.338	92.235	-3.1165e+05	3152.5	0.073786	-0.17871	1.0015
0.34	92.272	-3.1165e+05	3152.3	0.073688	-0.17812	1.0009
0.342	92.281	-3.1166e+05	3151.9	0.073786	-0.17792	1.0012
0.344	92.271	-3.1166e+05	3151.6	0.073883	-0.17773	1.0015
0.346	92.246	-3.1167e+05	3151.3	0.073981	-0.17753	1.0018
0.348	92.271	-3.1167e+05	3151	0.074078	-0.17734	1.0021
0.35	92.29	-3.1166e+05	3150.7	0.074176	-0.17714	1.0024
0.352	92.268	-3.1166e+05	3150.3	0.071931	-0.17744	1.0009
0.354	92.303	-3.1167e+05	3150	0.069686	-0.17773	0.99942
0.356	92.301	-3.1167e+05	3149.7	0.067442	-0.17802	0.99796
0.358	92.252	-3.1167e+05	3149.4	0.065197	-0.17832	0.9965
0.36	92.252	-3.1167e+05	3149.1	0.062952	-0.17861	0.99503
0.362	92.312	-3.1167e+05	3148.7	0.062171	-0.17792	0.99552
0.364	92.355	-3.1168e+05	3148.3	0.06139	-0.17724	0.99601
0.366	92.322	-3.1168e+05	3148	0.06061	-0.17656	0.9965
0.368	92.253	-3.1169e+05	3147.6	0.059829	-0.17588	0.99698
0.37	92.224	-3.1168e+05	3147.3	0.059048	-0.17519	0.99747
0.372	92.254	-3.1168e+05	3146.9	0.059146	-0.1749	0.99786
0.374	92.281	-3.1168e+05	3146.6	0.059243	-0.17461	0.99825
0.376	92.268	-3.1169e+05	3146.2	0.059341	-0.17431	0.99864
0.378	92.25	-3.117e+05	3145.9	0.059438	-0.17402	0.99903
0.38	92.248	-3.1171e+05	3145.5	0.059536	-0.17373	0.99942
0.382	92.293	-3.117e+05	3145.1	0.059341	-0.17383	0.99903
0.384	92.274	-3.117e+05	3144.6	0.059146	-0.17392	0.99864
0.386	92.225	-3.117e+05	3144.2	0.05895	-0.17402	0.99825
0.388	92.206	-3.117e+05	3143.8	0.058755	-0.17412	0.99786
0.39	92.246	-3.1171e+05	3143.4	0.05856	-0.17422	0.99747
0.392	92.275	-3.1171e+05	3143	0.059048	-0.17353	0.99835
0.394	92.23	-3.1172e+05	3142.6	0.059536	-0.17285	0.99923
0.396	92.179	-3.1172e+05	3142.1	0.060024	-0.17217	1.0001
0.398	92.178	-3.1172e+05	3141.7	0.060512	-0.17148	1.001
0.4	92.228	-3.1172e+05	3141.2	0.061	-0.1708	1.0019
0.402	92.222	-3.1172e+05	3140.7	0.06139	-0.17285	1.002
0.404	92.252	-3.1172e+05	3140.3	0.061781	-0.1749	1.0021
0.406	92.21	-3.1173e+05	3139.8	0.062171	-0.17695	1.0022
0.408	92.122	-3.1174e+05	3139.3	0.062562	-0.179	1.0023
0.41	92.114	-3.1174e+05	3138.8	0.062952	-0.18105	1.0024
0.412	92.171	-3.1174e+05	3138.3	0.064514	-0.18085	1.0024
0.414	92.255	-3.1175e+05	3137.8	0.066075	-0.18066	1.0024
0.416	92.3	-3.1175e+05	3137.3	0.067637	-0.18046	1.0024
0.418	92.274	-3.1176e+05	3136.9	0.069198	-0.18027	1.0024
0.42	92.231	-3.1176e+05	3136.4	0.07076	-0.18007	1.0024
0.422	92.186	-3.1176e+05	3135.9	0.070174	-0.17997	1.0018
0.424	92.228	-3.1175e+05	3135.4	0.069589	-0.17988	1.0012
0.426	92.249	-3.1176e+05	3135	0.069003	-0.17978	1.0006
0.428	92.266	-3.1177e+05	3134.5	0.068418	-0.17968	1
0.43	92.269	-3.1177e+05	3134.1	0.067832	-0.17958	0.99942
0.432	92.291	-3.1177e+05	3133.7	0.068906	-0.1791	1.0002
0.434	92.282	-3.1177e+05	3133.2	0.069979	-0.17861	1.001
0.436	92.242	-3.1177e+05	3132.8	0.071053	-0.17812	1.0018
0.438	92.23	-3.1177e+05	3132.3	0.072126	-0.17763	1.0025
0.44	92.263	-3.1177e+05	3131.9	0.0732	-0.17714	1.0033
0.442	92.267	-3.1178e+05	3131.4	0.072517	-0.17734	1.0028
0.444	92.252	-3.1178e+05	3130.9	0.071834	-0.17753	1.0024
0.446	92.272	-3.1178e+05	3130.5	0.07115	-0.17773	1.0019
0.448	92.294	-3.1178e+05	3130	0.070467	-0.17792	1.0014
0.45	92.303	-3.1179e+05	3129.5	0.069784	-0.17812	1.0009
0.452	92.34	-3.1179e+05	3129	0.070077	-0.17714	1.0014
0.454	92.375	-3.118e+05	3128.6	0.07037	-0.17617	1.0019
0.456	92.373	-3.1181e+05	3128.1	0.070662	-0.17519	1.0024
0.458	92.356	-3.1181e+05	3127.6	0.070955	-0.17422	1.0028
0.46	92.307	-3.1182e+05	3127.1	0.071248	-0.17324	1.0033
0.462	92.269	-3.1181e+05	3126.6	0.071346	-0.17304	1.0038
0.464	92.301	-3.1181e+05	3126.2	0.071443	-0.17285	1.0043
0.466	92.32	-3.1181e+05	3125.8	0.071541	-0.17265	1.0048
0.468	92.284	-3.1182e+05	3125.3	0.071638	-0.17246	1.0053
0.47	92.232	-3.1182e+05	3124.8	0.071736	-0.17226	1.0058
0.472	92.245	-3.1182e+05	3124.3	0.071638	-0.17285	1.0057
0.474	92.402	-3.1183e+05	3123.8	0.071541	-0.17344	1.0056
0.476	92.467	-3.1183e+05	3123.3	0.071443	-0.17402	1.0055
0.478	92.37	-3.1184e+05	3122.8	0.071346	-0.17461	1.0054
0.48	92.32	-3.1185e+05	3122.4	0.071248	-0.17519	1.0053
0.482	92.331	-3.1185e+05	3121.9	0.070955	-0.17509	1.0057
0.484	92.319	-3.1185e+05	3121.4	0.070662	-0.175	1.0061
0.486	92.298	-3.1185e+05	3121	0.07037	-0.1749	1.0065
0.488	92.35	-3.1185e+05	3120.6	0.070077	-0.1748	1.0068
0.49	92.376	-3.1186e+05	3120.2	0.069784	-0.1747	1.0072
0.492	92.346	-3.1187e+05	3119.7	0.070077	-0.17519	1.0058
0.494	92.353	-3.1187e+05	3119.3	0.07037	-0.17568	1.0043
0.496	92.364	-3.1187e+05	3118.9	0.070662	-0.17617	1.0028
0.498	92.298	-3.1187e+05	3118.5	0.070955	-0.17666	1.0014
0.5	92.282	-3.1187e+05	3118.1	0.071248	-0.17714	0.99991
0.502	92.278	-3.1187e+05	3117.6	0.07076	-0.17861	1.0011
0.504	92.292	-3.1187e+05	3117.2	0.070272	-0.18007	1.0023
0.506	92.324	-3.1187e+05	3116.8	0.069784	-0.18154	1.0034
0.508	92.358	-3.1188e+05	3116.4	0.069296	-0.183	1.0046
0.51	92.362	-3.1188e+05	3116	0.068808	-0.18446	1.0058
0.512	92.321	-3.1189e+05	3115.6	0.069491	-0.1831	1.0043
0.514	92.359	-3.1189e+05	3115.2	0.070174	-0.18173	1.0028
0.516	92.375	-3.119e+05	3114.8	0.070858	-0.18036	1.0014
0.518	92.337	-3.119e+05	3114.4	0.071541	-0.179	0.99991
0.52	92.318	-3.119e+05	3113.9	0.072224	-0.17763	0.99845
0.522	92.295	-3.1191e+05	3113.5	0.07115	-0.1791	1.0003
0.524	92.296	-3.1191e+05	3113.1	0.070077	-0.18056	1.0022
0.526	92.342	-3.1191e+05	3112.7	0.069003	-0.18202	1.004
0.528	92.416	-3.1191e+05	3112.4	0.06793	-0.18349	1.0059
0.53	92.464	-3.1192e+05	3112	0.066856	-0.18495	1.0077
0.532	92.44	-3.1192e+05	3111.6	0.066368	-0.18515	1.0078
0.534	92.365	-3.1193e+05	3111.2	0.06588	-0.18534	1.0079
0.536	92.27	-3.1194e+05	3110.8	0.065392	-0.18554	1.008
0.538	92.197	-3.1194e+05	3110.5	0.064904	-0.18573	1.0081
0.54	92.16	-3.1194e+05	3110.1	0.064416	-0.18593	1.0082
0.542	92.073	-3.1194e+05	3109.7	0.063733	-0.18495	1.0079
0.544	91.906	-3.1194e+05	3109.3	0.06305	-0.18398	1.0076
0.546	91.69	-3.1195e+05	3109	0.062366	-0.183	1.0073
0.548	91.468	-3.1195e+05	3108.7	0.061683	-0.18202	1.007
0.55	91.32	-3.1195e+05	3108.4	0.061	-0.18105	1.0067
0.552	91.261	-3.1195e+05	3108	0.061586	-0.18095	1.0066
0.554	91.327	-3.1196e+05	3107.7	0.062171	-0.18085	1.0065
0.556	91.459	-3.1196e+05	3107.4	0.062757	-0.18076	1.0065
0.558	91.66	-3.1197e+05	3107	0.063342	-0.18066	1.0064
0.56	91.877	-3.1197e+05	3106.7	0.063928	-0.18056	1.0063
0.562	92.068	-3.1197e+05	3106.4	0.064904	-0.18183	1.0062
0.564	92.179	-3.1197e+05	3106	0.06588	-0.1831	1.0061
0.566	92.203	-3.1197e+05	3105.7	0.066856	-0.18437	1.006
0.568	92.232	-3.1198e+05	3105.3	0.067832	-0.18564	1.0059
0.57	92.295	-3.1198e+05	3104.9	0.068808	-0.1869	1.0058
0.572	92.283	-3.1199e+05	3104.6	0.067539	-0.18642	1.0063
0.574	92.261	-3.1199e+05	3104.2	0.06627	-0.18593	1.0067
0.576	92.254	-3.1199e+05	3103.9	0.065002	-0.18544	1.0072
0.578	92.32	-3.1199e+05	3103.5	0.063733	-0.18495	1.0077
0.58	92.374	-3.1199e+05	3103.1	0.062464	-0.18446	1.0082
0.582	92.361	-3.12e+05	3102.7	0.062074	-0.18427	1.0089
0.584	92.322	-3.1201e+05	3102.3	0.061683	-0.18407	1.0096
0.586	92.283	-3.1202e+05	3101.8	0.061293	-0.18388	1.0103
0.588	92.359	-3.1202e+05	3101.4	0.060902	-0.18368	1.0109
0.59	92.465	-3.1202e+05	3101	0.060512	-0.18349	1.0116
0.592	92.414	-3.1202e+05	3100.5	0.061781	-0.18398	1.0104
0.594	92.338	-3.1202e+05	3100	0.06305	-0.18446	1.0091
0.596	92.334	-3.1203e+05	3099.6	0.064318	-0.18495	1.0078
0.598	92.339	-3.1203e+05	3099.2	0.065587	-0.18544	1.0065
0.6	92.322	-3.1203e+05	3098.7	0.066856	-0.18593	1.0053
0.602	92.316	-3.1203e+05	3098.3	0.067246	-0.18642	1.0051
0.604	92.309	-3.1204e+05	3097.8	0.067637	-0.1869	1.0049
0.606	92.313	-3.1204e+05	3097.4	0.068027	-0.18739	1.0047
0.608	92.349	-3.1205e+05	3096.9	0.068418	-0.18788	1.0045
0.61	92.353	-3.1205e+05	3096.4	0.068808	-0.18837	1.0043
0.612	92.38	-3.1205e+05	3095.8	0.067832	-0.18739	1.0041
0.614	92.423	-3.1206e+05	3095.3	0.066856	-0.18642	1.0039
0.616	92.41	-3.1207e+05	3094.8	0.06588	-0.18544	1.0037
0.618	92.368	-3.1207e+05	3094.3	0.064904	-0.18446	1.0035
0.62	92.365	-3.1208e+05	3093.8	0.063928	-0.18349	1.0033
0.622	92.378	-3.1208e+05	3093.2	0.063245	-0.1832	1.0041
0.624	92.384	-3.1208e+05	3092.7	0.062562	-0.1829	1.0049
0.626	92.389	-3.1208e+05	3092.1	0.061878	-0.18261	1.0057
0.628	92.363	-3.1208e+05	3091.5	0.061195	-0.18232	1.0065
0.63	92.335	-3.1209e+05	3090.9	0.060512	-0.18202	1.0072
0.632	92.344	-3.121e+05	3090.3	0.061781	-0.1829	1.0074
0.634	92.378	-3.121e+05	3089.7	0.06305	-0.18378	1.0076
0.636	92.397	-3.121e+05	3089.1	0.064318	-0.18466	1.0078
0.638	92.392	-3.1211e+05	3088.5	0.065587	-0.18554	1.008
0.64	92.333	-3.1211e+05	3087.9	0.066856	-0.18642	1.0082
0.642	92.255	-3.1212e+05	3087.3	0.066758	-0.18671	1.0072
0.644	92.202	-3.1213e+05	3086.7	0.066661	-0.187	1.0063
0.646	92.215	-3.1213e+05	3086.2	0.066563	-0.18729	1.0053
0.648	92.28	-3.1213e+05	3085.6	0.066466	-0.18759	1.0043
0.65	92.353	-3.1213e+05	3085	0.066368	-0.18788	1.0033
0.652	92.41	-3.1214e+05	3084.5	0.06627	-0.18749	1.0045
0.654	92.501	-3.1214e+05	3083.9	0.066173	-0.1871	1.0057
0.656	92.505	-3.1213e+05	3083.3	0.066075	-0.18671	1.0068
0.658	92.405	-3.1213e+05	3082.7	0.065978	-0.18632	1.008
0.66	92.345	-3.1213e+05	3082	0.06588	-0.18593	1.0092
0.662	92.372	-3.1214e+05	3081.5	0.065978	-0.18476	1.0083
0.664	92.393	-3.1215e+05	3080.9	0.066075	-0.18359	1.0074
0.666	92.432	-3.1216e+05	3080.3	0.066173	-0.18241	1.0065
0.668	92.42	-3.1217e+05	3079.8	0.06627	-0.18124	1.0057
0.67	92.36	-3.1217e+05	3079.2	0.066368	-0.18007	1.0048
0.672	92.289	-3.1218e+05	3078.7	0.066856	-0.17978	1.0044
0.674	92.289	-3.1218e+05	3078.2	0.067344	-0.17949	1.004
0.676	92.345	-3.1218e+05	3077.7	0.067832	-0.17919	1.0036
0.678	92.331	-3.1218e+05	3077.3	0.06832	-0.1789	1.0032
0.68	92.272	-3.1218e+05	3076.9	0.068808	-0.17861	1.0028
0.682	92.313	-3.1218e+05	3076.6	0.065978	-0.17812	1.0011
0.684	92.367	-3.1218e+05	3076.2	0.063147	-0.17763	0.99933
0.686	92.441	-3.122e+05	3075.9	0.060317	-0.17714	0.99757
0.688	92.482	-3.1221e+05	3075.6	0.057486	-0.17666	0.99581
0.69	92.438	-3.1221e+05	3075.3	0.054656	-0.17617	0.99406
0.692	92.374	-3.1221e+05	3075	0.054754	-0.17539	0.99415
0.694	92.34	-3.1222e+05	3074.7	0.054851	-0.17461	0.99425
0.696	92.352	-3.1222e+05	3074.5	0.054949	-0.17383	0.99435
0.698	92.382	-3.1223e+05	3074.2	0.055046	-0.17304	0.99445
0.7	92.359	-3.1223e+05	3073.9	0.055144	-0.17226	0.99454
0.702	92.331	-3.1223e+05	3073.7	0.055339	-0.17373	0.99532
0.704	92.359	-3.1224e+05	3073.4	0.055534	-0.17519	0.99611
0.706	92.377	-3.1224e+05	3073.2	0.05573	-0.17666	0.99689
0.708	92.343	-3.1224e+05	3073.1	0.055925	-0.17812	0.99767
0.71	92.331	-3.1224e+05	3072.9	0.05612	-0.17958	0.99845
0.712	92.361	-3.1224e+05	3072.9	0.056901	-0.17802	0.99933
0.714	92.363	-3.1225e+05	3072.9	0.057682	-0.17646	1.0002
0.716	92.341	-3.1226e+05	3072.9	0.058462	-0.1749	1.0011
0.718	92.34	-3.1226e+05	3073.1	0.059243	-0.17334	1.002
0.72	92.329	-3.1225e+05	3073.3	0.060024	-0.17178	1.0028
0.722	92.283	-3.1226e+05	3073.9	0.061098	-0.17344	1.003
0.724	92.243	-3.1227e+05	3074.5	0.062171	-0.17509	1.0032
0.726	92.246	-3.1228e+05	3075.4	0.063245	-0.17675	1.0034
0.728	92.26	-3.1228e+05	3076.7	0.064318	-0.17841	1.0036
0.73	92.314	-3.1229e+05	3077.9	0.065392	-0.18007	1.0038
0.732	92.333	-3.1229e+05	3079.9	0.06588	-0.18036	1.004
0.734	92.333	-3.1229e+05	3081.8	0.066368	-0.18066	1.0042
0.736	92.333	-3.123e+05	3084.1	0.066856	-0.18095	1.0044
0.738	92.297	-3.1231e+05	3086.7	0.067344	-0.18124	1.0046
0.74	92.292	-3.1231e+05	3089.3	0.067832	-0.18154	1.0048
0.742	92.292	-3.1231e+05	3092.4	0.066661	-0.18212	1.0047
0.744	92.316	-3.1232e+05	3095.6	0.06549	-0.18271	1.0046
0.746	92.301	-3.1231e+05	3099	0.064318	-0.18329	1.0045
0.748	92.268	-3.1231e+05	3102.8	0.063147	-0.18388	1.0044
0.75	92.229	-3.1231e+05	3106.6	0.061976	-0.18446	1.0043
0.752	92.196	-3.1231e+05	3110.7	0.062562	-0.18495	1.0044
0.754	92.203	-3.1232e+05	3114.8	0.063147	-0.18544	1.0045
0.756	92.173	-3.1233e+05	3118.9	0.063733	-0.18593	1.0046
0.758	92.129	-3.1233e+05	3122.9	0.064318	-0.18642	1.0047
0.76	92.156	-3.1233e+05	3126.9	0.064904	-0.1869	1.0048
0.762	92.217	-3.1233e+05	3130.7	0.06549	-0.18632	1.005
0.764	92.251	-3.1233e+05	3134.5	0.066075	-0.18573	1.0052
0.766	92.161	-3.1233e+05	3138	0.066661	-0.18515	1.0054
0.768	92.087	-3.1233e+05	3141.4	0.067246	-0.18456	1.0056
0.77	92.114	-3.1233e+05	3144.7	0.067832	-0.18398	1.0058
0.772	92.169	-3.1232e+05	3147.6	0.067734	-0.18417	1.0053
0.774	92.192	-3.1232e+05	3150.5	0.067637	-0.18437	1.0048
0.776	92.187	-3.1232e+05	3153.1	0.067539	-0.18456	1.0043
0.778	92.183	-3.1231e+05	3155.5	0.067442	-0.18476	1.0038
0.78	92.172	-3.1231e+05	3157.9	0.067344	-0.18495	1.0033
0.782	92.142	-3.1231e+05	3159.9	0.065587	-0.18466	1.0043
0.784	92.095	-3.1232e+05	3161.9	0.06383	-0.18437	1.0053
0.786	92.048	-3.1231e+05	3163.8	0.062074	-0.18407	1.0063
0.788	92.016	-3.123e+05	3165.6	0.060317	-0.18378	1.0072
0.79	92.029	-3.123e+05	3167.4	0.05856	-0.18349	1.0082
0.792	92.102	-3.123e+05	3169.1	0.060219	-0.18456	1.0071
0.794	92.162	-3.1229e+05	3170.7	0.061878	-0.18564	1.0061
0.796	92.164	-3.1228e+05	3172.2	0.063538	-0.18671	1.005
0.798	92.16	-3.1228e+05	3173.5	0.065197	-0.18778	1.0039
0.8	92.152	-3.1227e+05	3174.8	0.066856	-0.18886	1.0028
0.802	92.116	-3.1227e+05	3175.9	0.066661	-0.18973	1.0031
0.804	92.084	-3.1227e+05	3176.9	0.066466	-0.19061	1.0034
0.806	92.07	-3.1226e+05	3177.9	0.06627	-0.19149	1.0037
0.808	92.02	-3.1225e+05	3178.7	0.066075	-0.19237	1.004
0.81	92	-3.1224e+05	3179.5	0.06588	-0.19325	1.0043
0.812	92.019	-3.1224e+05	3180.2	0.065294	-0.19266	1.0046
0.814	92.075	-3.1223e+05	3180.8	0.064709	-0.19208	1.0049
0.816	92.084	-3.1223e+05	3181.5	0.064123	-0.19149	1.0052
0.818	92.083	-3.1222e+05	3182	0.063538	-0.19091	1.0055
0.82	92.133	-3.1221e+05	3182.6	0.062952	-0.19032	1.0058
0.822	92.14	-3.1221e+05	3183	0.060707	-0.18964	1.0075
0.824	92.095	-3.122e+05	3183.5	0.058462	-0.18895	1.0093
0.826	92.179	-3.1219e+05	3183.8	0.056218	-0.18827	1.011
0.828	92.247	-3.1219e+05	3184.1	0.053973	-0.18759	1.0128
0.83	92.193	-3.1218e+05	3184.4	0.051728	-0.1869	1.0146
0.832	92.158	-3.1217e+05	3184.6	0.052606	-0.18583	1.014
0.834	92.165	-3.1217e+05	3184.8	0.053485	-0.18476	1.0134
0.836	92.13	-3.1217e+05	3185	0.054363	-0.18368	1.0128
0.838	92.113	-3.1216e+05	3185.2	0.055242	-0.18261	1.0122
0.84	92.099	-3.1215e+05	3185.4	0.05612	-0.18154	1.0116
0.842	92.102	-3.1214e+05	3185.6	0.056413	-0.18212	1.0106
0.844	92.119	-3.1214e+05	3185.7	0.056706	-0.18271	1.0097
0.846	92.186	-3.1213e+05	3185.8	0.056998	-0.18329	1.0087
0.848	92.224	-3.1212e+05	3185.8	0.057291	-0.18388	1.0077
0.85	92.286	-3.1212e+05	3185.8	0.057584	-0.18446	1.0067
0.852	92.303	-3.1211e+05	3185.9	0.056022	-0.18515	1.0073
0.854	92.246	-3.121e+05	3185.9	0.054461	-0.18583	1.0079
0.856	92.198	-3.1208e+05	3186	0.052899	-0.18651	1.0085
0.858	92.2	-3.1208e+05	3186	0.051338	-0.1872	1.0091
0.86	92.201	-3.1208e+05	3186	0.049776	-0.18788	1.0097
0.862	92.205	-3.1207e+05	3185.9	0.05085	-0.1871	1.0102
0.864	92.246	-3.1205e+05	3185.9	0.051923	-0.18632	1.0106
0.866	92.265	-3.1204e+05	3185.8	0.052997	-0.18554	1.0111
0.868	92.235	-3.1203e+05	3185.7	0.05407	-0.18476	1.0116
0.87	92.185	-3.1203e+05	3185.6	0.055144	-0.18398	1.0121
0.872	92.155	-3.1202e+05	3185.5	0.055632	-0.18446	1.0105
0.874	92.203	-3.1201e+05	3185.4	0.05612	-0.18495	1.0088
0.876	92.256	-3.1201e+05	3185.2	0.056608	-0.18544	1.0071
0.878	92.266	-3.12e+05	3185.1	0.057096	-0.18593	1.0055
0.88	92.263	-3.12e+05	3184.9	0.057584	-0.18642	1.0038
0.882	92.229	-3.1199e+05	3184.7	0.05895	-0.18729	1.0033
0.884	92.205	-3.1198e+05	3184.4	0.060317	-0.18817	1.0028
0.886	92.221	-3.1197e+05	3184.2	0.061683	-0.18905	1.0024
0.888	92.228	-3.1197e+05	3183.9	0.06305	-0.18993	1.0019
0.89	92.234	-3.1197e+05	3183.6	0.064416	-0.19081	1.0014
0.892	92.273	-3.1197e+05	3183.3	0.064806	-0.19032	1.0019
0.894	92.326	-3.1196e+05	3183	0.065197	-0.18983	1.0024
0.896	92.307	-3.1195e+05	3182.7	0.065587	-0.18934	1.0028
0.898	92.258	-3.1194e+05	3182.4	0.065978	-0.18886	1.0033
0.9	92.251	-3.1193e+05	3182	0.066368	-0.18837	1.0038
0.902	92.29	-3.1192e+05	3181.7	0.066954	-0.18788	1.0039
0.904	92.28	-3.1191e+05	3181.4	0.067539	-0.18739	1.004
0.906	92.239	-3.1191e+05	3181.1	0.068125	-0.1869	1.0041
0.908	92.224	-3.119e+05	3180.8	0.06871	-0.18642	1.0042
0.91	92.288	-3.1189e+05	3180.5	0.069296	-0.18593	1.0043
0.912	92.291	-3.1188e+05	3180.1	0.069491	-0.18534	1.0043
0.914	92.288	-3.1188e+05	3179.8	0.069686	-0.18476	1.0043
0.916	92.314	-3.1189e+05	3179.4	0.069882	-0.18417	1.0043
0.918	92.313	-3.1188e+05	3179	0.070077	-0.18359	1.0043
0.92	92.29	-3.1187e+05	3178.7	0.070272	-0.183	1.0043
0.922	92.282	-3.1186e+05	3178.1	0.068222	-0.18398	1.0031
0.924	92.308	-3.1185e+05	3177.6	0.066173	-0.18495	1.002
0.926	92.297	-3.1185e+05	3177	0.064123	-0.18593	1.0008
0.928	92.249	-3.1185e+05	3176.4	0.062074	-0.1869	0.99962
0.93	92.223	-3.1184e+05	3175.8	0.060024	-0.18788	0.99845
0.932	92.266	-3.1184e+05	3175.2	0.059829	-0.18798	0.99855
0.934	92.254	-3.1183e+05	3174.5	0.059634	-0.18808	0.99864
0.936	92.215	-3.1183e+05	3173.9	0.059438	-0.18817	0.99874
0.938	92.202	-3.1182e+05	3173.1	0.059243	-0.18827	0.99884
0.94	92.246	-3.1182e+05	3172.4	0.059048	-0.18837	0.99894
0.942	92.286	-3.1182e+05	3171.7	0.061683	-0.18798	0.99991
0.944	92.26	-3.1182e+05	3170.9	0.064318	-0.18759	1.0009
0.946	92.295	-3.1182e+05	3170.1	0.066954	-0.1872	1.0019
0.948	92.318	-3.1181e+05	3169.2	0.069589	-0.18681	1.0028
0.95	92.293	-3.1181e+05	3168.3	0.072224	-0.18642	1.0038
0.952	92.312	-3.1181e+05	3167.5	0.071053	-0.187	1.0042
0.954	92.376	-3.1181e+05	3166.6	0.069882	-0.18759	1.0046
0.956	92.372	-3.118e+05	3165.7	0.06871	-0.18817	1.005
0.958	92.315	-3.118e+05	3164.9	0.067539	-0.18876	1.0054
0.96	92.294	-3.1179e+05	3164.1	0.066368	-0.18934	1.0058
0.962	92.299	-3.1179e+05	3163.2	0.064806	-0.18895	1.0042
0.964	92.282	-3.1179e+05	3162.4	0.063245	-0.18856	1.0026
0.966	92.28	-3.1179e+05	3161.5	0.061683	-0.18817	1.0011
0.968	92.326	-3.1179e+05	3160.7	0.060122	-0.18778	0.99952
0.97	92.359	-3.1178e+05	3159.8	0.05856	-0.18739	0.99796
0.972	92.341	-3.1178e+05	3159	0.060317	-0.18749	0.99903
0.974	92.304	-3.1178e+05	3158.1	0.062074	-0.18759	1.0001
0.976	92.281	-3.1178e+05	3157.3	0.06383	-0.18768	1.0012
0.978	92.282	-3.1178e+05	3156.5	0.065587	-0.18778	1.0023
0.98	92.268	-3.1179e+05	3155.7	0.067344	-0.18788	1.0033
0.982	92.22	-3.1179e+05	3154.9	0.066954	-0.18827	1.0029
0.984	92.234	-3.118e+05	3154.2	0.066563	-0.18866	1.0025
0.986	92.319	-3.118e+05	3153.5	0.066173	-0.18905	1.0022
0.988	92.356	-3.1179e+05	3152.8	0.065782	-0.18944	1.0018
0.99	92.351	-3.1179e+05	3152.2	0.065392	-0.18983	1.0014
0.992	92.323	-3.1178e+05	3151.5	0.065099	-0.18954	1.0015
0.994	92.353	-3.1178e+05	3150.8	0.064806	-0.18925	1.0016
0.996	92.301	-3.1178e+05	3150.2	0.064514	-0.18895	1.0017
0.998	92.259	-3.1178e+05	3149.6	0.064221	-0.18866	1.0018
1	92.363	-3.1178e+05	3149.1	0.063928	-0.18837	1.0019
1.002	92.414	-3.1178e+05	3148.5	0.064026	-0.18827	1.002
1.004	92.416	-3.1178e+05	3148	0.064123	-0.18817	1.0021
1.006	92.303	-3.1178e+05	3147.5	0.064221	-0.18808	1.0022
1.008	92.283	-3.1178e+05	3147.1	0.064318	-0.18798	1.0023
1.01	92.346	-3.1178e+05	3146.7	0.064416	-0.18788	1.0024
1.012	92.313	-3.1177e+05	3146.3	0.064318	-0.18749	1.0025
1.014	92.298	-3.1178e+05	3145.9	0.064221	-0.1871	1.0027
1.016	92.343	-3.1179e+05	3145.5	0.064123	-0.18671	1.0029
1.018	92.313	-3.1179e+05	3145.2	0.064026	-0.18632	1.0031
1.02	92.286	-3.1179e+05	3144.8	0.063928	-0.18593	1.0033
1.022	92.295	-3.1179e+05	3144.6	0.062464	-0.18564	1.0046
1.024	92.325	-3.1179e+05	3144.3	0.061	-0.18534	1.0059
1.026	92.35	-3.1178e+05	3144	0.059536	-0.18505	1.0071
1.028	92.386	-3.1178e+05	3143.7	0.058072	-0.18476	1.0084
1.03	92.365	-3.1178e+05	3143.4	0.056608	-0.18446	1.0097
1.032	92.332	-3.1179e+05	3143.2	0.054656	-0.18515	1.0094
1.034	92.291	-3.1179e+05	3143	0.052704	-0.18583	1.0091
1.036	92.234	-3.118e+05	3142.8	0.050752	-0.18651	1.0088
1.038	92.278	-3.118e+05	3142.7	0.0488	-0.1872	1.0085
1.04	92.358	-3.118e+05	3142.5	0.046848	-0.18788	1.0082
1.042	92.377	-3.118e+05	3142.4	0.049288	-0.18661	1.0074
1.044	92.375	-3.118e+05	3142.2	0.051728	-0.18534	1.0066
1.046	92.398	-3.118e+05	3142.1	0.054168	-0.18407	1.0059
1.048	92.41	-3.1181e+05	3141.9	0.056608	-0.1828	1.0051
1.05	92.389	-3.1181e+05	3141.8	0.059048	-0.18154	1.0043
1.052	92.355	-3.1181e+05	3141.6	0.057486	-0.1832	1.0041
1.054	92.325	-3.1181e+05	3141.4	0.055925	-0.18485	1.0039
1.056	92.324	-3.1181e+05	3141.2	0.054363	-0.18651	1.0037
1.058	92.334	-3.1181e+05	3141	0.052802	-0.18817	1.0035
1.06	92.304	-3.1181e+05	3140.9	0.05124	-0.18983	1.0033
1.062	92.265	-3.1181e+05	3140.6	0.05124	-0.18905	1.0055
1.064	92.338	-3.1182e+05	3140.4	0.05124	-0.18827	1.0076
1.066	92.424	-3.1182e+05	3140.2	0.05124	-0.18749	1.0098
1.068	92.399	-3.1181e+05	3139.9	0.05124	-0.18671	1.0119
1.07	92.364	-3.1181e+05	3139.7	0.05124	-0.18593	1.0141
1.072	92.341	-3.1181e+05	3139.5	0.052802	-0.18476	1.0144
1.074	92.319	-3.1182e+05	3139.3	0.054363	-0.18359	1.0146
1.076	92.298	-3.1183e+05	3139.2	0.055925	-0.18241	1.0149
1.078	92.303	-3.1183e+05	3139	0.057486	-0.18124	1.0152
1.08	92.319	-3.1183e+05	3138.9	0.059048	-0.18007	1.0155
1.082	92.301	-3.1183e+05	3138.6	0.059048	-0.18017	1.0156
1.084	92.304	-3.1183e+05	3138.4	0.059048	-0.18027	1.0157
1.086	92.292	-3.1184e+05	3138.2	0.059048	-0.18036	1.0158
1.088	92.294	-3.1185e+05	3138	0.059048	-0.18046	1.0159
1.09	92.37	-3.1186e+05	3137.9	0.059048	-0.18056	1.016
1.092	92.419	-3.1186e+05	3137.7	0.057584	-0.18193	1.0155
1.094	92.366	-3.1186e+05	3137.5	0.05612	-0.18329	1.015
1.096	92.322	-3.1186e+05	3137.3	0.054656	-0.18466	1.0146
1.098	92.271	-3.1186e+05	3137.1	0.053192	-0.18603	1.0141
1.1	92.243	-3.1186e+05	3136.9	0.051728	-0.18739	1.0136
1.102	92.31	-3.1186e+05	3136.5	0.053094	-0.187	1.0123
1.104	92.425	-3.1187e+05	3136.2	0.054461	-0.18661	1.011
1.106	92.391	-3.1187e+05	3135.9	0.055827	-0.18622	1.0098
1.108	92.327	-3.1188e+05	3135.5	0.057194	-0.18583	1.0085
1.11	92.341	-3.1188e+05	3135.1	0.05856	-0.18544	1.0072
1.112	92.369	-3.1188e+05	3134.8	0.057291	-0.18573	1.0083
1.114	92.347	-3.1188e+05	3134.5	0.056022	-0.18603	1.0094
1.116	92.32	-3.1188e+05	3134.2	0.054754	-0.18632	1.0105
1.118	92.298	-3.1188e+05	3133.9	0.053485	-0.18661	1.0115
1.12	92.281	-3.1188e+05	3133.6	0.052216	-0.1869	1.0126
1.122	92.261	-3.1188e+05	3133.2	0.053582	-0.18583	1.0116
1.124	92.238	-3.1188e+05	3132.9	0.054949	-0.18476	1.0106
1.126	92.221	-3.1188e+05	3132.6	0.056315	-0.18368	1.0097
1.128	92.228	-3.1188e+05	3132.2	0.057682	-0.18261	1.0087
1.13	92.261	-3.1188e+05	3131.9	0.059048	-0.18154	1.0077
1.132	92.276	-3.1188e+05	3131.5	0.058365	-0.18124	1.0082
1.134	92.273	-3.1188e+05	3131.1	0.057682	-0.18095	1.0087
1.136	92.28	-3.1189e+05	3130.8	0.056998	-0.18066	1.0092
1.138	92.311	-3.1189e+05	3130.4	0.056315	-0.18036	1.0097
1.14	92.353	-3.119e+05	3130.1	0.055632	-0.18007	1.0102
1.142	92.356	-3.119e+05	3129.7	0.056315	-0.18066	1.0101
1.144	92.332	-3.119e+05	3129.3	0.056998	-0.18124	1.01
1.146	92.347	-3.1191e+05	3128.9	0.057682	-0.18183	1.0099
1.148	92.366	-3.1192e+05	3128.6	0.058365	-0.18241	1.0098
1.15	92.305	-3.1191e+05	3128.2	0.059048	-0.183	1.0097
1.152	92.242	-3.1191e+05	3127.8	0.059829	-0.18446	1.0075
1.154	92.228	-3.1191e+05	3127.4	0.06061	-0.18593	1.0054
1.156	92.253	-3.1191e+05	3127	0.06139	-0.18739	1.0032
1.158	92.338	-3.1192e+05	3126.6	0.062171	-0.18886	1.0011
1.16	92.437	-3.1193e+05	3126.1	0.062952	-0.19032	0.99894
1.162	92.467	-3.1193e+05	3125.8	0.062854	-0.18993	0.99933
1.164	92.454	-3.1193e+05	3125.4	0.062757	-0.18954	0.99972
1.166	92.363	-3.1192e+05	3125	0.062659	-0.18915	1.0001
1.168	92.252	-3.1191e+05	3124.7	0.062562	-0.18876	1.0005
1.17	92.206	-3.1193e+05	3124.3	0.062464	-0.18837	1.0009
1.172	92.281	-3.1194e+05	3123.9	0.062952	-0.18817	1.001
1.174	92.347	-3.1194e+05	3123.5	0.06344	-0.18798	1.0011
1.176	92.407	-3.1194e+05	3123	0.063928	-0.18778	1.0012
1.178	92.382	-3.1195e+05	3122.5	0.064416	-0.18759	1.0013
1.18	92.414	-3.1195e+05	3122	0.064904	-0.18739	1.0014
1.182	92.521	-3.1195e+05	3121.5	0.061781	-0.1872	1.0006
1.184	92.526	-3.1196e+05	3121.1	0.058658	-0.187	0.99981
1.186	92.472	-3.1196e+05	3120.6	0.055534	-0.18681	0.99903
1.188	92.402	-3.1197e+05	3120.1	0.052411	-0.18661	0.99825
1.19	92.327	-3.1197e+05	3119.6	0.049288	-0.18642	0.99747
1.192	92.327	-3.1197e+05	3119.1	0.04919	-0.18642	0.99737
1.194	92.383	-3.1197e+05	3118.6	0.049093	-0.18642	0.99728
1.196	92.465	-3.1197e+05	3118.1	0.048995	-0.18642	0.99718
1.198	92.466	-3.1197e+05	3117.5	0.048898	-0.18642	0.99708
1.2	92.432	-3.1198e+05	3117	0.0488	-0.18642	0.99698
1.202	92.419	-3.1198e+05	3116.5	0.050362	-0.18446	0.99718
1.204	92.406	-3.1199e+05	3116	0.051923	-0.18251	0.99737
1.206	92.375	-3.1199e+05	3115.5	0.053485	-0.18056	0.99757
1.208	92.37	-3.1199e+05	3115.1	0.055046	-0.17861	0.99776
1.21	92.371	-3.1198e+05	3114.6	0.056608	-0.17666	0.99796
1.212	92.346	-3.1198e+05	3114.2	0.056413	-0.17812	0.99864
1.214	92.378	-3.1199e+05	3113.8	0.056218	-0.17958	0.99933
1.216	92.439	-3.12e+05	3113.4	0.056022	-0.18105	1
1.218	92.445	-3.12e+05	3113	0.055827	-0.18251	1.0007
1.22	92.448	-3.1201e+05	3112.6	0.055632	-0.18398	1.0014
1.222	92.453	-3.1201e+05	3112.2	0.054558	-0.18407	1.0009
1.224	92.418	-3.1201e+05	3111.8	0.053485	-0.18417	1.0004
1.226	92.383	-3.1201e+05	3111.3	0.052411	-0.18427	0.99991
1.228	92.384	-3.1201e+05	3110.8	0.051338	-0.18437	0.99942
1.23	92.402	-3.1201e+05	3110.4	0.050264	-0.18446	0.99894
1.232	92.392	-3.1201e+05	3109.9	0.051728	-0.18349	0.99903
1.234	92.359	-3.1202e+05	3109.5	0.053192	-0.18251	0.99913
1.236	92.38	-3.1202e+05	3109	0.054656	-0.18154	0.99923
1.238	92.432	-3.1202e+05	3108.6	0.05612	-0.18056	0.99933
1.24	92.419	-3.1202e+05	3108.1	0.057584	-0.17958	0.99942
1.242	92.391	-3.1203e+05	3107.7	0.057584	-0.17978	0.99991
1.244	92.407	-3.1204e+05	3107.3	0.057584	-0.17997	1.0004
1.246	92.432	-3.1204e+05	3106.9	0.057584	-0.18017	1.0009
1.248	92.48	-3.1204e+05	3106.5	0.057584	-0.18036	1.0014
1.25	92.488	-3.1204e+05	3106.1	0.057584	-0.18056	1.0019
1.252	92.485	-3.1204e+05	3105.7	0.057194	-0.18085	1.0018
1.254	92.45	-3.1205e+05	3105.3	0.056803	-0.18115	1.0017
1.256	92.368	-3.1206e+05	3104.9	0.056413	-0.18144	1.0016
1.258	92.32	-3.1206e+05	3104.4	0.056022	-0.18173	1.0015
1.26	92.306	-3.1206e+05	3104	0.055632	-0.18202	1.0014
1.262	92.192	-3.1206e+05	3103.6	0.05612	-0.18173	1.0018
1.264	92.081	-3.1207e+05	3103.3	0.056608	-0.18144	1.0022
1.266	91.918	-3.1207e+05	3102.9	0.057096	-0.18115	1.0025
1.268	91.769	-3.1207e+05	3102.6	0.057584	-0.18085	1.0029
1.27	91.613	-3.1207e+05	3102.2	0.058072	-0.18056	1.0033
1.272	91.525	-3.1207e+05	3101.8	0.057682	-0.18076	1.0031
1.274	91.542	-3.1208e+05	3101.5	0.057291	-0.18095	1.0029
1.276	91.549	-3.1209e+05	3101.1	0.056901	-0.18115	1.0027
1.278	91.631	-3.1209e+05	3100.8	0.05651	-0.18134	1.0025
1.28	91.754	-3.121e+05	3100.5	0.05612	-0.18154	1.0024
1.282	91.977	-3.121e+05	3100.2	0.055534	-0.18241	1.0023
1.284	92.168	-3.121e+05	3099.8	0.054949	-0.18329	1.0022
1.286	92.26	-3.121e+05	3099.5	0.054363	-0.18417	1.0021
1.288	92.309	-3.121e+05	3099.1	0.053778	-0.18505	1.002
1.29	92.358	-3.121e+05	3098.8	0.053192	-0.18593	1.0019
1.292	92.348	-3.1211e+05	3098.3	0.052704	-0.18681	1.0024
1.294	92.352	-3.121e+05	3097.9	0.052216	-0.18768	1.0028
1.296	92.417	-3.1209e+05	3097.5	0.051728	-0.18856	1.0033
1.298	92.456	-3.121e+05	3097.2	0.05124	-0.18944	1.0038
1.3	92.47	-3.1211e+05	3096.8	0.050752	-0.19032	1.0043
1.302	92.462	-3.1212e+05	3096.5	0.050947	-0.19022	1.0062
1.304	92.454	-3.1213e+05	3096.1	0.051142	-0.19012	1.008
1.306	92.467	-3.1213e+05	3095.7	0.051338	-0.19003	1.0099
1.308	92.457	-3.1213e+05	3095.4	0.051533	-0.18993	1.0117
1.31	92.397	-3.1213e+05	3095	0.051728	-0.18983	1.0136
1.312	92.323	-3.1213e+05	3094.7	0.052216	-0.18983	1.0127
1.314	92.356	-3.1214e+05	3094.3	0.052704	-0.18983	1.0118
1.316	92.479	-3.1215e+05	3093.9	0.053192	-0.18983	1.0109
1.318	92.507	-3.1215e+05	3093.6	0.05368	-0.18983	1.0101
1.32	92.484	-3.1215e+05	3093.2	0.054168	-0.18983	1.0092
1.322	92.489	-3.1215e+05	3092.8	0.054266	-0.18993	1.0089
1.324	92.437	-3.1215e+05	3092.4	0.054363	-0.19003	1.0086
1.326	92.398	-3.1216e+05	3092	0.054461	-0.19012	1.0083
1.328	92.419	-3.1217e+05	3091.6	0.054558	-0.19022	1.008
1.33	92.462	-3.1217e+05	3091.2	0.054656	-0.19032	1.0077
1.332	92.456	-3.1217e+05	3090.8	0.054656	-0.18934	1.0095
1.334	92.45	-3.1217e+05	3090.5	0.054656	-0.18837	1.0112
1.336	92.425	-3.1217e+05	3090.1	0.054656	-0.18739	1.013
1.338	92.387	-3.1218e+05	3089.7	0.054656	-0.18642	1.0147
1.34	92.398	-3.1219e+05	3089.2	0.054656	-0.18544	1.0165
1.342	92.418	-3.1219e+05	3088.8	0.054168	-0.18573	1.0161
1.344	92.449	-3.1219e+05	3088.3	0.05368	-0.18603	1.0157
1.346	92.388	-3.1219e+05	3087.8	0.053192	-0.18632	1.0153
1.348	92.397	-3.122e+05	3087.4	0.052704	-0.18661	1.0149
1.35	92.407	-3.122e+05	3086.9	0.052216	-0.1869	1.0146
1.352	92.346	-3.1221e+05	3086.5	0.052021	-0.18788	1.013
1.354	92.318	-3.1221e+05	3086	0.051826	-0.18886	1.0114
1.356	92.386	-3.1221e+05	3085.6	0.05163	-0.18983	1.0099
1.358	92.553	-3.1221e+05	3085.1	0.051435	-0.19081	1.0083
1.36	92.594	-3.1221e+05	3084.7	0.05124	-0.19178	1.0067
1.362	92.527	-3.1221e+05	3084.2	0.052021	-0.19061	1.0068
1.364	92.48	-3.1222e+05	3083.6	0.052802	-0.18944	1.0069
1.366	92.463	-3.1223e+05	3083.1	0.053582	-0.18827	1.007
1.368	92.431	-3.1224e+05	3082.5	0.054363	-0.1871	1.0071
1.37	92.418	-3.1224e+05	3081.9	0.055144	-0.18593	1.0072
1.372	92.408	-3.1223e+05	3081.4	0.054754	-0.18651	1.0071
1.374	92.366	-3.1224e+05	3080.8	0.054363	-0.1871	1.007
1.376	92.32	-3.1224e+05	3080.3	0.053973	-0.18768	1.0069
1.378	92.38	-3.1225e+05	3079.7	0.053582	-0.18827	1.0068
1.38	92.447	-3.1226e+05	3079.1	0.053192	-0.18886	1.0067
1.382	92.428	-3.1226e+05	3078.4	0.054363	-0.187	1.0064
1.384	92.408	-3.1226e+05	3077.8	0.055534	-0.18515	1.006
1.386	92.448	-3.1226e+05	3077.2	0.056706	-0.18329	1.0056
1.388	92.511	-3.1227e+05	3076.5	0.057877	-0.18144	1.0052
1.39	92.501	-3.1226e+05	3075.9	0.059048	-0.17958	1.0048
1.392	92.439	-3.1226e+05	3075.3	0.058853	-0.17978	1.005
1.394	92.404	-3.1227e+05	3074.7	0.058658	-0.17997	1.0052
1.396	92.376	-3.1228e+05	3074.2	0.058462	-0.18017	1.0054
1.398	92.326	-3.1228e+05	3073.6	0.058267	-0.18036	1.0056
1.4	92.295	-3.1229e+05	3073.1	0.058072	-0.18056	1.0058
1.402	92.383	-3.1229e+05	3072.7	0.05817	-0.18017	1.0053
1.404	92.517	-3.1229e+05	3072.2	0.058267	-0.17978	1.0048
1.406	92.54	-3.123e+05	3071.8	0.058365	-0.17939	1.0043
1.408	92.503	-3.123e+05	3071.4	0.058462	-0.179	1.0038
1.41	92.47	-3.123e+05	3071	0.05856	-0.17861	1.0033
1.412	92.438	-3.123e+05	3070.6	0.058658	-0.17919	1.0039
1.414	92.421	-3.123e+05	3070.2	0.058755	-0.17978	1.0045
1.416	92.392	-3.123e+05	3069.9	0.058853	-0.18036	1.0051
1.418	92.412	-3.1232e+05	3069.6	0.05895	-0.18095	1.0057
1.42	92.497	-3.1233e+05	3069.3	0.059048	-0.18154	1.0063
1.422	92.463	-3.1233e+05	3069	0.059829	-0.18163	1.0065
1.424	92.392	-3.1233e+05	3068.7	0.06061	-0.18173	1.0066
1.426	92.375	-3.1234e+05	3068.5	0.06139	-0.18183	1.0068
1.428	92.367	-3.1234e+05	3068.2	0.062171	-0.18193	1.007
1.43	92.352	-3.1234e+05	3068	0.062952	-0.18202	1.0072
1.432	92.376	-3.1233e+05	3067.9	0.06139	-0.18212	1.0075
1.434	92.437	-3.1234e+05	3067.7	0.059829	-0.18222	1.0078
1.436	92.447	-3.1235e+05	3067.6	0.058267	-0.18232	1.0081
1.438	92.445	-3.1235e+05	3067.6	0.056706	-0.18241	1.0084
1.44	92.405	-3.1235e+05	3067.6	0.055144	-0.18251	1.0087
1.442	92.355	-3.1236e+05	3067.8	0.055144	-0.1831	1.0087
1.444	92.358	-3.1238e+05	3068.1	0.055144	-0.18368	1.0087
1.446	92.366	-3.1238e+05	3068.5	0.055144	-0.18427	1.0087
1.448	92.394	-3.1239e+05	3069.1	0.055144	-0.18485	1.0087
1.45	92.358	-3.1238e+05	3069.6	0.055144	-0.18544	1.0087
1.452	92.323	-3.1237e+05	3070.8	0.056022	-0.18349	1.0075
1.454	92.325	-3.1238e+05	3072	0.056901	-0.18154	1.0064
1.456	92.342	-3.1238e+05	3073.6	0.057779	-0.17958	1.0052
1.458	92.336	-3.1239e+05	3075.4	0.058658	-0.17763	1.004
1.46	92.4	-3.124e+05	3077.2	0.059536	-0.17568	1.0028
1.462	92.433	-3.124e+05	3079.8	0.060512	-0.17714	1.0032
1.464	92.418	-3.1241e+05	3082.4	0.061488	-0.17861	1.0036
1.466	92.381	-3.1241e+05	3085.3	0.062464	-0.18007	1.004
1.468	92.312	-3.1241e+05	3088.5	0.06344	-0.18154	1.0044
1.47	92.271	-3.1241e+05	3091.7	0.064416	-0.183	1.0048
1.472	92.294	-3.1242e+05	3095.5	0.063635	-0.18212	1.0047
1.474	92.315	-3.1241e+05	3099.2	0.062854	-0.18124	1.0046
1.476	92.278	-3.1241e+05	3103.1	0.062074	-0.18036	1.0045
1.478	92.239	-3.1242e+05	3107.2	0.061293	-0.17949	1.0044
1.48	92.269	-3.1242e+05	3111.3	0.060512	-0.17861	1.0043
1.482	92.29	-3.1242e+05	3115.3	0.061293	-0.17997	1.0048
1.484	92.257	-3.1242e+05	3119.4	0.062074	-0.18134	1.0053
1.486	92.25	-3.1243e+05	3123.3	0.062854	-0.18271	1.0058
1.488	92.25	-3.1244e+05	3127.2	0.063635	-0.18407	1.0063
1.49	92.24	-3.1244e+05	3131	0.064416	-0.18544	1.0067
1.492	92.192	-3.1243e+05	3134.4	0.064318	-0.18515	1.0065
1.494	92.178	-3.1243e+05	3137.8	0.064221	-0.18485	1.0062
1.496	92.19	-3.1242e+05	3140.9	0.064123	-0.18456	1.0059
1.498	92.159	-3.1242e+05	3143.7	0.064026	-0.18427	1.0056
1.5	92.104	-3.1242e+05	3146.5	0.063928	-0.18398	1.0053
1.502	92.117	-3.1242e+05	3148.9	0.064123	-0.18437	1.0057
1.504	92.17	-3.1242e+05	3151.3	0.064318	-0.18476	1.0061
1.506	92.23	-3.1241e+05	3153.5	0.064514	-0.18515	1.0065
1.508	92.222	-3.1241e+05	3155.5	0.064709	-0.18554	1.0068
1.51	92.189	-3.124e+05	3157.6	0.064904	-0.18593	1.0072
1.512	92.187	-3.124e+05	3159.3	0.064026	-0.18593	1.0076
1.514	92.162	-3.124e+05	3161.1	0.063147	-0.18593	1.008
1.516	92.108	-3.1239e+05	3162.7	0.062269	-0.18593	1.0084
1.518	92.109	-3.1239e+05	3164.1	0.06139	-0.18593	1.0088
1.52	92.197	-3.1238e+05	3165.6	0.060512	-0.18593	1.0092
1.522	92.207	-3.1237e+05	3167	0.060805	-0.18593	1.0079
1.524	92.119	-3.1237e+05	3168.5	0.061098	-0.18593	1.0066
1.526	92.138	-3.1237e+05	3169.8	0.06139	-0.18593	1.0054
1.528	92.174	-3.1237e+05	3170.8	0.061683	-0.18593	1.0041
1.53	92.14	-3.1236e+05	3171.9	0.061976	-0.18593	1.0028
1.532	92.117	-3.1236e+05	3172.8	0.061781	-0.18524	1.0032
1.534	92.149	-3.1234e+05	3173.6	0.061586	-0.18456	1.0036
1.536	92.163	-3.1233e+05	3174.4	0.06139	-0.18388	1.004
1.538	92.148	-3.1233e+05	3175	0.061195	-0.1832	1.0044
1.54	92.185	-3.1232e+05	3175.7	0.061	-0.18251	1.0048
1.542	92.214	-3.1232e+05	3176.2	0.060512	-0.18261	1.0042
1.544	92.21	-3.1232e+05	3176.7	0.060024	-0.18271	1.0036
1.546	92.185	-3.1231e+05	3177.1	0.059536	-0.1828	1.003
1.548	92.192	-3.1231e+05	3177.4	0.059048	-0.1829	1.0024
1.55	92.247	-3.123e+05	3177.7	0.05856	-0.183	1.0019
1.552	92.273	-3.123e+05	3177.9	0.059048	-0.183	1.0029
1.554	92.257	-3.1228e+05	3178.2	0.059536	-0.183	1.004
1.556	92.235	-3.1226e+05	3178.4	0.060024	-0.183	1.0051
1.558	92.211	-3.1226e+05	3178.6	0.060512	-0.183	1.0062
1.56	92.208	-3.1226e+05	3178.7	0.061	-0.183	1.0072
1.562	92.24	-3.1225e+05	3178.8	0.060414	-0.18349	1.0059
1.564	92.271	-3.1224e+05	3178.9	0.059829	-0.18398	1.0045
1.566	92.264	-3.1224e+05	3179	0.059243	-0.18446	1.0031
1.568	92.25	-3.1224e+05	3179.1	0.058658	-0.18495	1.0018
1.57	92.242	-3.1222e+05	3179.2	0.058072	-0.18544	1.0004
1.572	92.211	-3.1221e+05	3179.2	0.058853	-0.18573	1.0014
1.574	92.217	-3.122e+05	3179.2	0.059634	-0.18603	1.0024
1.576	92.251	-3.122e+05	3179.2	0.060414	-0.18632	1.0033
1.578	92.282	-3.122e+05	3179.3	0.061195	-0.18661	1.0043
1.58	92.262	-3.1219e+05	3179.3	0.061976	-0.1869	1.0053
1.582	92.258	-3.1218e+05	3179.3	0.061098	-0.187	1.0039
1.584	92.332	-3.1217e+05	3179.3	0.060219	-0.1871	1.0025
1.586	92.386	-3.1217e+05	3179.2	0.059341	-0.1872	1.0012
1.588	92.325	-3.1216e+05	3179.2	0.058462	-0.18729	0.99981
1.59	92.318	-3.1215e+05	3179.1	0.057584	-0.18739	0.99845
1.592	92.323	-3.1215e+05	3179	0.057389	-0.18603	0.99903
1.594	92.303	-3.1214e+05	3178.8	0.057194	-0.18466	0.99962
1.596	92.261	-3.1213e+05	3178.6	0.056998	-0.18329	1.0002
1.598	92.178	-3.1213e+05	3178.5	0.056803	-0.18193	1.0008
1.6	92.204	-3.1212e+05	3178.4	0.056608	-0.18056	1.0014
1.602	92.322	-3.1211e+05	3178.2	0.056998	-0.18066	1.0013
1.604	92.397	-3.1209e+05	3178.1	0.057389	-0.18076	1.0012
1.606	92.411	-3.1209e+05	3177.9	0.057779	-0.18085	1.0011
1.608	92.396	-3.1208e+05	3177.8	0.05817	-0.18095	1.001
1.61	92.333	-3.1208e+05	3177.7	0.05856	-0.18105	1.0009
1.612	92.265	-3.1207e+05	3177.5	0.059341	-0.1829	1.0009
1.614	92.213	-3.1207e+05	3177.4	0.060122	-0.18476	1.0009
1.616	92.248	-3.1207e+05	3177.2	0.060902	-0.18661	1.0009
1.618	92.273	-3.1206e+05	3177.1	0.061683	-0.18847	1.0009
1.62	92.3	-3.1205e+05	3177	0.062464	-0.19032	1.0009
1.622	92.369	-3.1204e+05	3176.8	0.062562	-0.18944	1.0019
1.624	92.402	-3.1204e+05	3176.6	0.062659	-0.18856	1.0028
1.626	92.416	-3.1203e+05	3176.4	0.062757	-0.18768	1.0038
1.628	92.36	-3.1202e+05	3176.2	0.062854	-0.18681	1.0048
1.63	92.326	-3.1201e+05	3175.9	0.062952	-0.18593	1.0058
1.632	92.321	-3.1201e+05	3175.6	0.062952	-0.18661	1.0048
1.634	92.301	-3.12e+05	3175.3	0.062952	-0.18729	1.0038
1.636	92.296	-3.12e+05	3175	0.062952	-0.18798	1.0028
1.638	92.325	-3.1199e+05	3174.6	0.062952	-0.18866	1.0019
1.64	92.377	-3.1198e+05	3174.3	0.062952	-0.18934	1.0009
1.642	92.38	-3.1197e+05	3173.8	0.063928	-0.18973	1.0017
1.644	92.336	-3.1196e+05	3173.4	0.064904	-0.19012	1.0024
1.646	92.303	-3.1196e+05	3173	0.06588	-0.19052	1.0032
1.648	92.316	-3.1196e+05	3172.5	0.066856	-0.19091	1.004
1.65	92.37	-3.1195e+05	3171.9	0.067832	-0.1913	1.0048
1.652	92.395	-3.1195e+05	3171.3	0.067442	-0.19139	1.004
1.654	92.356	-3.1194e+05	3170.7	0.067051	-0.19149	1.0032
1.656	92.312	-3.1194e+05	3170.1	0.066661	-0.19159	1.0024
1.658	92.312	-3.1194e+05	3169.5	0.06627	-0.19169	1.0017
1.66	92.34	-3.1194e+05	3168.9	0.06588	-0.19178	1.0009
1.662	92.355	-3.1193e+05	3168.1	0.065685	-0.19159	1.0007
1.664	92.356	-3.1192e+05	3167.4	0.06549	-0.19139	1.0005
1.666	92.346	-3.1192e+05	3166.6	0.065294	-0.1912	1.0003
1.668	92.314	-3.1192e+05	3165.8	0.065099	-0.191	1.0001
1.67	92.285	-3.1192e+05	3165	0.064904	-0.19081	0.99991
1.672	92.368	-3.1192e+05	3164	0.065392	-0.19071	1.0007
1.674	92.399	-3.1191e+05	3163.1	0.06588	-0.19061	1.0015
1.676	92.343	-3.119e+05	3162.1	0.066368	-0.19052	1.0023
1.678	92.341	-3.119e+05	3161.2	0.066856	-0.19042	1.003
1.68	92.35	-3.119e+05	3160.2	0.067344	-0.19032	1.0038
1.682	92.298	-3.119e+05	3159.3	0.065685	-0.18866	1.0056
1.684	92.342	-3.119e+05	3158.3	0.064026	-0.187	1.0073
1.686	92.435	-3.119e+05	3157.4	0.062366	-0.18534	1.0091
1.688	92.371	-3.119e+05	3156.3	0.060707	-0.18368	1.0108
1.69	92.341	-3.119e+05	3155.3	0.059048	-0.18202	1.0126
1.692	92.335	-3.119e+05	3154.4	0.059146	-0.18241	1.0126
1.694	92.309	-3.119e+05	3153.5	0.059243	-0.1828	1.0126
1.696	92.343	-3.1189e+05	3152.6	0.059341	-0.1832	1.0126
1.698	92.46	-3.1189e+05	3151.7	0.059438	-0.18359	1.0126
1.7	92.436	-3.1189e+05	3150.8	0.059536	-0.18398	1.0126
1.702	92.355	-3.1189e+05	3150	0.059243	-0.1832	1.012
1.704	92.352	-3.1189e+05	3149.1	0.05895	-0.18241	1.0114
1.706	92.36	-3.1188e+05	3148.4	0.058658	-0.18163	1.0108
1.708	92.344	-3.1188e+05	3147.6	0.058365	-0.18085	1.0103
1.71	92.298	-3.1189e+05	3146.8	0.058072	-0.18007	1.0097
1.712	92.261	-3.1189e+05	3146.1	0.059829	-0.18202	1.0088
1.714	92.304	-3.1189e+05	3145.4	0.061586	-0.18398	1.0079
1.716	92.392	-3.1189e+05	3144.7	0.063342	-0.18593	1.007
1.718	92.425	-3.1189e+05	3144	0.065099	-0.18788	1.0062
1.72	92.391	-3.1189e+05	3143.4	0.066856	-0.18983	1.0053
1.722	92.369	-3.1189e+05	3142.8	0.067344	-0.18876	1.0059
1.724	92.363	-3.1189e+05	3142.2	0.067832	-0.18768	1.0065
1.726	92.357	-3.1189e+05	3141.7	0.06832	-0.18661	1.007
1.728	92.39	-3.1189e+05	3141.2	0.068808	-0.18554	1.0076
1.73	92.432	-3.1189e+05	3140.7	0.069296	-0.18446	1.0082
1.732	92.439	-3.1189e+05	3140.3	0.069198	-0.18564	1.0067
1.734	92.421	-3.1189e+05	3139.9	0.069101	-0.18681	1.0053
1.736	92.392	-3.1189e+05	3139.6	0.069003	-0.18798	1.0038
1.738	92.345	-3.1189e+05	3139.3	0.068906	-0.18915	1.0024
1.74	92.304	-3.1189e+05	3138.9	0.068808	-0.19032	1.0009
1.742	92.321	-3.1189e+05	3138.7	0.067149	-0.18925	1.001
1.744	92.374	-3.119e+05	3138.5	0.06549	-0.18817	1.0011
1.746	92.395	-3.119e+05	3138.3	0.06383	-0.1871	1.0012
1.748	92.405	-3.1191e+05	3138.1	0.062171	-0.18603	1.0013
1.75	92.384	-3.1191e+05	3137.9	0.060512	-0.18495	1.0014
1.752	92.315	-3.1191e+05	3137.7	0.060512	-0.18544	1.0019
1.754	92.301	-3.1191e+05	3137.5	0.060512	-0.18593	1.0024
1.756	92.367	-3.1191e+05	3137.3	0.060512	-0.18642	1.0028
1.758	92.508	-3.1191e+05	3137.2	0.060512	-0.1869	1.0033
1.76	92.515	-3.1191e+05	3137	0.060512	-0.18739	1.0038
1.762	92.447	-3.1191e+05	3136.9	0.060122	-0.18759	1.0024
1.764	92.407	-3.1192e+05	3136.7	0.059731	-0.18778	1.0011
1.766	92.377	-3.1191e+05	3136.6	0.059341	-0.18798	0.99972
1.768	92.357	-3.119e+05	3136.5	0.05895	-0.18817	0.99835
1.77	92.328	-3.1191e+05	3136.4	0.05856	-0.18837	0.99698
1.772	92.308	-3.1192e+05	3136.3	0.058462	-0.18856	0.99718
1.774	92.355	-3.1192e+05	3136.2	0.058365	-0.18876	0.99737
1.776	92.388	-3.1192e+05	3136	0.058267	-0.18895	0.99757
1.778	92.387	-3.1192e+05	3135.9	0.05817	-0.18915	0.99776
1.78	92.409	-3.1192e+05	3135.7	0.058072	-0.18934	0.99796
1.782	92.506	-3.1193e+05	3135.6	0.059536	-0.19042	0.99874
1.784	92.509	-3.1193e+05	3135.4	0.061	-0.19149	0.99952
1.786	92.443	-3.1193e+05	3135.2	0.062464	-0.19256	1.0003
1.788	92.385	-3.1193e+05	3135	0.063928	-0.19364	1.0011
1.79	92.35	-3.1193e+05	3134.9	0.065392	-0.19471	1.0019
1.792	92.326	-3.1193e+05	3134.6	0.065294	-0.1952	1.0024
1.794	92.329	-3.1193e+05	3134.4	0.065197	-0.19569	1.0028
1.796	92.392	-3.1193e+05	3134.1	0.065099	-0.19618	1.0033
1.798	92.412	-3.1193e+05	3133.9	0.065002	-0.19666	1.0038
1.8	92.357	-3.1193e+05	3133.7	0.064904	-0.19715	1.0043
1.802	92.356	-3.1193e+05	3133.4	0.064709	-0.19784	1.0039
1.804	92.374	-3.1193e+05	3133.1	0.064514	-0.19852	1.0035
1.806	92.367	-3.1193e+05	3132.8	0.064318	-0.1992	1.0031
1.808	92.33	-3.1194e+05	3132.6	0.064123	-0.19988	1.0027
1.81	92.315	-3.1194e+05	3132.3	0.063928	-0.20057	1.0024
1.812	92.322	-3.1193e+05	3132	0.064318	-0.20018	1.0023
1.814	92.373	-3.1194e+05	3131.7	0.064709	-0.19979	1.0022
1.816	92.435	-3.1195e+05	3131.4	0.065099	-0.1994	1.0021
1.818	92.418	-3.1195e+05	3131.1	0.06549	-0.19901	1.002
1.82	92.355	-3.1195e+05	3130.8	0.06588	-0.19862	1.0019
1.822	92.35	-3.1195e+05	3130.4	0.065587	-0.1994	1.002
1.824	92.404	-3.1195e+05	3130.1	0.065294	-0.20018	1.0021
1.826	92.412	-3.1195e+05	3129.7	0.065002	-0.20096	1.0022
1.828	92.36	-3.1196e+05	3129.4	0.064709	-0.20174	1.0023
1.83	92.308	-3.1196e+05	3129	0.064416	-0.20252	1.0024
1.832	92.275	-3.1196e+05	3128.6	0.065197	-0.20193	1.0027
1.834	92.258	-3.1196e+05	3128.1	0.065978	-0.20135	1.0031
1.836	92.231	-3.1196e+05	3127.6	0.066758	-0.20076	1.0035
1.838	92.242	-3.1196e+05	3127.2	0.067539	-0.20018	1.0039
1.84	92.311	-3.1197e+05	3126.7	0.06832	-0.19959	1.0043
1.842	92.319	-3.1197e+05	3126.2	0.067344	-0.20008	1.0051
1.844	92.347	-3.1197e+05	3125.8	0.066368	-0.20057	1.0059
1.846	92.462	-3.1197e+05	3125.3	0.065392	-0.20106	1.0066
1.848	92.469	-3.1197e+05	3124.8	0.064416	-0.20154	1.0074
1.85	92.369	-3.1197e+05	3124.4	0.06344	-0.20203	1.0082
1.852	92.352	-3.1198e+05	3123.9	0.062757	-0.20135	1.0084
1.854	92.33	-3.1197e+05	3123.5	0.062074	-0.20067	1.0086
1.856	92.356	-3.1197e+05	3123	0.06139	-0.19998	1.0088
1.858	92.381	-3.1197e+05	3122.5	0.060707	-0.1993	1.009
1.86	92.356	-3.1197e+05	3122	0.060024	-0.19862	1.0092
1.862	92.407	-3.1198e+05	3121.5	0.060512	-0.19891	1.0101
1.864	92.533	-3.1199e+05	3121.1	0.061	-0.1992	1.0109
1.866	92.534	-3.1199e+05	3120.6	0.061488	-0.19949	1.0118
1.868	92.42	-3.1199e+05	3120.2	0.061976	-0.19979	1.0127
1.87	92.335	-3.1199e+05	3119.7	0.062464	-0.20008	1.0136
1.872	92.301	-3.1199e+05	3119.2	0.06061	-0.19988	1.0136
1.874	92.346	-3.1199e+05	3118.7	0.058755	-0.19969	1.0136
1.876	92.399	-3.1199e+05	3118.2	0.056901	-0.19949	1.0136
1.878	92.486	-3.12e+05	3117.7	0.055046	-0.1993	1.0136
1.88	92.526	-3.1201e+05	3117.2	0.053192	-0.1991	1.0136
1.882	92.49	-3.12e+05	3116.8	0.054949	-0.19813	1.0125
1.884	92.418	-3.12e+05	3116.5	0.056706	-0.19715	1.0114
1.886	92.366	-3.1201e+05	3116	0.058462	-0.19618	1.0104
1.888	92.376	-3.1201e+05	3115.6	0.060219	-0.1952	1.0093
1.89	92.412	-3.1201e+05	3115.1	0.061976	-0.19422	1.0082
1.892	92.478	-3.1201e+05	3114.7	0.061976	-0.19413	1.0081
1.894	92.484	-3.1202e+05	3114.2	0.061976	-0.19403	1.008
1.896	92.454	-3.1203e+05	3113.8	0.061976	-0.19393	1.0079
1.898	92.449	-3.1202e+05	3113.3	0.061976	-0.19383	1.0078
1.9	92.428	-3.1201e+05	3112.9	0.061976	-0.19374	1.0077
1.902	92.405	-3.1202e+05	3112.5	0.062074	-0.19461	1.0083
1.904	92.409	-3.1202e+05	3112.1	0.062171	-0.19549	1.0089
1.906	92.423	-3.1203e+05	3111.7	0.062269	-0.19637	1.0095
1.908	92.437	-3.1204e+05	3111.2	0.062366	-0.19725	1.0101
1.91	92.439	-3.1203e+05	3110.8	0.062464	-0.19813	1.0106
1.912	92.417	-3.1202e+05	3110.4	0.064123	-0.19705	1.0096
1.914	92.403	-3.1203e+05	3110	0.065782	-0.19598	1.0085
1.916	92.447	-3.1203e+05	3109.5	0.067442	-0.19491	1.0074
1.918	92.467	-3.1204e+05	3109.1	0.069101	-0.19383	1.0064
1.92	92.447	-3.1205e+05	3108.7	0.07076	-0.19276	1.0053
1.922	92.433	-3.1205e+05	3108.4	0.07115	-0.19266	1.005
1.924	92.407	-3.1205e+05	3108	0.071541	-0.19256	1.0047
1.926	92.344	-3.1205e+05	3107.6	0.071931	-0.19247	1.0044
1.928	92.345	-3.1206e+05	3107.3	0.072322	-0.19237	1.0041
1.93	92.465	-3.1206e+05	3106.9	0.072712	-0.19227	1.0038
1.932	92.56	-3.1206e+05	3106.5	0.073493	-0.19188	1.0035
1.934	92.508	-3.1206e+05	3106.2	0.074274	-0.19149	1.0032
1.936	92.482	-3.1207e+05	3105.9	0.075054	-0.1911	1.0029
1.938	92.487	-3.1206e+05	3105.6	0.075835	-0.19071	1.0026
1.94	92.448	-3.1206e+05	3105.2	0.076616	-0.19032	1.0024
1.942	92.402	-3.1207e+05	3105	0.076421	-0.18964	1.0031
1.944	92.404	-3.1207e+05	3104.7	0.076226	-0.18895	1.0039
1.946	92.446	-3.1208e+05	3104.3	0.07603	-0.18827	1.0047
1.948	92.508	-3.1209e+05	3104	0.075835	-0.18759	1.0055
1.95	92.532	-3.1208e+05	3103.6	0.07564	-0.1869	1.0063
1.952	92.501	-3.1208e+05	3103.4	0.076421	-0.18817	1.0054
1.954	92.465	-3.121e+05	3103.2	0.077202	-0.18944	1.0045
1.956	92.406	-3.1211e+05	3102.9	0.077982	-0.19071	1.0036
1.958	92.36	-3.121e+05	3102.7	0.078763	-0.19198	1.0027
1.96	92.342	-3.1209e+05	3102.4	0.079544	-0.19325	1.0019
1.962	92.344	-3.1209e+05	3102.1	0.07808	-0.19247	1.0021
1.964	92.359	-3.121e+05	3101.7	0.076616	-0.19169	1.0023
1.966	92.288	-3.121e+05	3101.4	0.075152	-0.19091	1.0024
1.968	92.154	-3.1211e+05	3101.2	0.073688	-0.19012	1.0026
1.97	92.032	-3.1211e+05	3100.9	0.072224	-0.18934	1.0028
1.972	91.899	-3.1211e+05	3100.6	0.072419	-0.18915	1.0018
1.974	91.742	-3.1211e+05	3100.4	0.072614	-0.18895	1.0007
1.976	91.617	-3.1211e+05	3100.1	0.07281	-0.18876	0.99962
1.978	91.599	-3.1212e+05	3099.8	0.073005	-0.18856	0.99855
1.98	91.636	-3.1213e+05	3099.6	0.0732	-0.18837	0.99747
1.982	91.695	-3.1212e+05	3099.3	0.073786	-0.18817	0.99884
1.984	91.836	-3.1212e+05	3099.1	0.074371	-0.18798	1.0002
1.986	92.063	-3.1212e+05	3098.8	0.074957	-0.18778	1.0016
1.988	92.244	-3.1213e+05	3098.6	0.075542	-0.18759	1.0029
1.99	92.345	-3.1213e+05	3098.3	0.076128	-0.18739	1.0043
1.992	92.41	-3.1213e+05	3098	0.074469	-0.18837	1.0031
1.994	92.404	-3.1213e+05	3097.7	0.07281	-0.18934	1.002
1.996	92.379	-3.1214e+05	3097.4	0.07115	-0.19032	1.0008
1.998	92.425	-3.1214e+05	3097.1	0.069491	-0.1913	0.99962
2	92.532	-3.1215e+05	3096.7	0.067832	-0.19227	0.99845
2.002	92.573	-3.1216e+05	3096.4	0.068418	-0.19237	0.99679
2.004	92.538	-3.1217e+05	3096.1	0.069003	-0.19247	0.99513
2.006	92.496	-3.1217e+05	3095.8	0.069589	-0.19256	0.99347
2.008	92.475	-3.1217e+05	3095.4	0.070174	-0.19266	0.99181
2.01	92.474	-3.1217e+05	3095.1	0.07076	-0.19276	0.99015
2.012	92.468	-3.1217e+05	3094.7	0.071053	-0.19227	0.99015
2.014	92.46	-3.1217e+05	3094.4	0.071346	-0.19178	0.99015
2.016	92.464	-3.1217e+05	3094	0.071638	-0.1913	0.99015
2.018	92.464	-3.1217e+05	3093.6	0.071931	-0.19081	0.99015
2.02	92.416	-3.1218e+05	3093.2	0.072224	-0.19032	0.99015
2.022	92.423	-3.1218e+05	3092.8	0.070077	-0.1913	0.99103
2.024	92.487	-3.1219e+05	3092.4	0.06793	-0.19227	0.99191
2.026	92.509	-3.1219e+05	3091.9	0.065782	-0.19325	0.99279
2.028	92.474	-3.122e+05	3091.5	0.063635	-0.19422	0.99367
2.03	92.438	-3.122e+05	3091	0.061488	-0.1952	0.99454
2.032	92.439	-3.1221e+05	3090.5	0.062952	-0.195	0.99376
2.034	92.495	-3.1221e+05	3090.1	0.064416	-0.19481	0.99298
2.036	92.417	-3.1221e+05	3089.6	0.06588	-0.19461	0.9922
2.038	92.427	-3.1221e+05	3089	0.067344	-0.19442	0.99142
2.04	92.471	-3.1221e+05	3088.5	0.068808	-0.19422	0.99064
2.042	92.436	-3.1221e+05	3088	0.068125	-0.19432	0.98947
2.044	92.408	-3.1221e+05	3087.5	0.067442	-0.19442	0.9883
2.046	92.431	-3.1221e+05	3086.9	0.066758	-0.19452	0.98713
2.048	92.507	-3.1221e+05	3086.3	0.066075	-0.19461	0.98596
2.05	92.54	-3.1222e+05	3085.7	0.065392	-0.19471	0.98478
2.052	92.509	-3.1223e+05	3085.1	0.066563	-0.19491	0.98547
2.054	92.516	-3.1223e+05	3084.4	0.067734	-0.1951	0.98615
2.056	92.507	-3.1223e+05	3083.8	0.068906	-0.1953	0.98683
2.058	92.474	-3.1223e+05	3083.1	0.070077	-0.19549	0.98752
2.06	92.478	-3.1222e+05	3082.5	0.071248	-0.19569	0.9882
2.062	92.482	-3.1223e+05	3081.8	0.071053	-0.19569	0.98771
2.064	92.449	-3.1225e+05	3081.2	0.070858	-0.19569	0.98722
2.066	92.427	-3.1224e+05	3080.6	0.070662	-0.19569	0.98674
2.068	92.427	-3.1224e+05	3080	0.070467	-0.19569	0.98625
2.07	92.423	-3.1224e+05	3079.4	0.070272	-0.19569	0.98576
2.072	92.415	-3.1224e+05	3078.7	0.069784	-0.19637	0.98635
2.074	92.434	-3.1225e+05	3078	0.069296	-0.19705	0.98693
2.076	92.495	-3.1226e+05	3077.3	0.068808	-0.19774	0.98752
2.078	92.542	-3.1226e+05	3076.6	0.06832	-0.19842	0.9881
2.08	92.508	-3.1227e+05	3075.9	0.067832	-0.1991	0.98869
2.082	92.444	-3.1227e+05	3075.2	0.066856	-0.19881	0.9881
2.084	92.458	-3.1227e+05	3074.6	0.06588	-0.19852	0.98752
2.086	92.508	-3.1227e+05	3074	0.064904	-0.19823	0.98693
2.088	92.483	-3.1226e+05	3073.3	0.063928	-0.19793	0.98635
2.09	92.423	-3.1227e+05	3072.7	0.062952	-0.19764	0.98576
2.092	92.404	-3.1227e+05	3072.1	0.064318	-0.19676	0.98517
2.094	92.394	-3.1228e+05	3071.5	0.065685	-0.19588	0.98459
2.096	92.395	-3.1229e+05	3071	0.067051	-0.195	0.984
2.098	92.449	-3.1229e+05	3070.4	0.068418	-0.19413	0.98342
2.1	92.484	-3.1229e+05	3069.8	0.069784	-0.19325	0.98283
2.102	92.542	-3.1229e+05	3069.2	0.070272	-0.19305	0.98361
2.104	92.536	-3.1229e+05	3068.7	0.07076	-0.19286	0.98439
2.106	92.477	-3.123e+05	3068.2	0.071248	-0.19266	0.98517
2.108	92.505	-3.1231e+05	3067.8	0.071736	-0.19247	0.98596
2.11	92.5	-3.1231e+05	3067.3	0.072224	-0.19227	0.98674
2.112	92.427	-3.1231e+05	3066.9	0.072322	-0.19237	0.98722
2.114	92.419	-3.1231e+05	3066.5	0.072419	-0.19247	0.98771
2.116	92.401	-3.1231e+05	3066.2	0.072517	-0.19256	0.9882
2.118	92.419	-3.1231e+05	3065.8	0.072614	-0.19266	0.98869
2.12	92.48	-3.1232e+05	3065.4	0.072712	-0.19276	0.98918
2.122	92.464	-3.1233e+05	3065.1	0.07281	-0.19296	0.98908
2.124	92.451	-3.1234e+05	3064.7	0.072907	-0.19315	0.98898
2.126	92.434	-3.1234e+05	3064.4	0.073005	-0.19335	0.98888
2.128	92.462	-3.1234e+05	3064.1	0.073102	-0.19354	0.98879
2.13	92.478	-3.1235e+05	3063.8	0.0732	-0.19374	0.98869
2.132	92.483	-3.1235e+05	3063.5	0.074078	-0.19422	0.98918
2.134	92.436	-3.1235e+05	3063.3	0.074957	-0.19471	0.98966
2.136	92.372	-3.1235e+05	3063.1	0.075835	-0.1952	0.99015
2.138	92.354	-3.1235e+05	3062.9	0.076714	-0.19569	0.99064
2.14	92.33	-3.1235e+05	3062.8	0.077592	-0.19618	0.99113
2.142	92.331	-3.1236e+05	3062.8	0.075835	-0.19696	0.99328
2.144	92.386	-3.1236e+05	3062.9	0.074078	-0.19774	0.99542
2.146	92.498	-3.1237e+05	3063.1	0.072322	-0.19852	0.99757
2.148	92.529	-3.1237e+05	3063.4	0.070565	-0.1993	0.99972
2.15	92.481	-3.1238e+05	3063.8	0.068808	-0.20008	1.0019
2.152	92.435	-3.1238e+05	3064.6	0.068613	-0.19901	1.0006
2.154	92.426	-3.1239e+05	3065.4	0.068418	-0.19793	0.99933
2.156	92.428	-3.1239e+05	3066.5	0.068222	-0.19686	0.99806
2.158	92.384	-3.1239e+05	3067.9	0.068027	-0.19579	0.99679
2.16	92.332	-3.124e+05	3069.3	0.067832	-0.19471	0.99552
2.162	92.353	-3.124e+05	3071.5	0.069686	-0.19559	0.99679
2.164	92.407	-3.124e+05	3073.6	0.071541	-0.19647	0.99806
2.166	92.404	-3.124e+05	3076.1	0.073395	-0.19735	0.99933
2.168	92.368	-3.124e+05	3078.9	0.07525	-0.19823	1.0006
2.17	92.368	-3.1241e+05	3081.7	0.077104	-0.1991	1.0019
2.172	92.367	-3.1241e+05	3085.2	0.076128	-0.19764	1.0013
2.174	92.367	-3.1241e+05	3088.6	0.075152	-0.19618	1.0007
2.176	92.376	-3.1242e+05	3092.2	0.074176	-0.19471	1.0001
2.178	92.344	-3.1242e+05	3096.1	0.0732	-0.19325	0.99952
2.18	92.296	-3.1242e+05	3099.9	0.072224	-0.19178	0.99894
2.182	92.286	-3.1242e+05	3103.9	0.071541	-0.19276	0.99952
2.184	92.258	-3.1242e+05	3107.8	0.070858	-0.19374	1.0001
2.186	92.158	-3.1242e+05	3111.7	0.070174	-0.19471	1.0007
2.188	92.124	-3.1242e+05	3115.5	0.069491	-0.19569	1.0013
2.19	92.239	-3.1242e+05	3119.3	0.068808	-0.19666	1.0019
2.192	92.331	-3.1242e+05	3122.7	0.07037	-0.19666	1.0022
2.194	92.251	-3.1242e+05	3126.1	0.071931	-0.19666	1.0024
2.196	92.214	-3.1242e+05	3129.3	0.073493	-0.19666	1.0027
2.198	92.271	-3.1242e+05	3132.3	0.075054	-0.19666	1.003
2.2	92.256	-3.1242e+05	3135.2	0.076616	-0.19666	1.0033
2.202	92.248	-3.1242e+05	3137.7	0.07603	-0.19657	1.0029
2.204	92.184	-3.1242e+05	3140.3	0.075445	-0.19647	1.0025
2.206	92.152	-3.1242e+05	3142.7	0.074859	-0.19637	1.0022
2.208	92.214	-3.1242e+05	3144.9	0.074274	-0.19627	1.0018
2.21	92.26	-3.1241e+05	3147.2	0.073688	-0.19618	1.0014
2.212	92.239	-3.1241e+05	3149.2	0.073005	-0.19608	1.0011
2.214	92.198	-3.124e+05	3151.1	0.072322	-0.19598	1.0008
2.216	92.171	-3.1239e+05	3152.9	0.071638	-0.19588	1.0005
2.218	92.149	-3.1239e+05	3154.6	0.070955	-0.19579	1.0002
2.22	92.217	-3.1238e+05	3156.3	0.070272	-0.19569	0.99991
2.222	92.303	-3.1238e+05	3157.7	0.07037	-0.1951	0.99991
2.224	92.285	-3.1237e+05	3159.2	0.070467	-0.19452	0.99991
2.226	92.229	-3.1237e+05	3160.5	0.070565	-0.19393	0.99991
2.228	92.182	-3.1236e+05	3161.7	0.070662	-0.19335	0.99991
2.23	92.126	-3.1236e+05	3162.9	0.07076	-0.19276	0.99991
2.232	92.101	-3.1235e+05	3163.9	0.07076	-0.19374	1.0002
2.234	92.159	-3.1234e+05	3164.9	0.07076	-0.19471	1.0005
2.236	92.214	-3.1233e+05	3165.8	0.07076	-0.19569	1.0008
2.238	92.234	-3.1232e+05	3166.5	0.07076	-0.19666	1.0011
2.24	92.236	-3.1232e+05	3167.3	0.07076	-0.19764	1.0014
2.242	92.216	-3.1231e+05	3167.9	0.069589	-0.19793	1.0017
2.244	92.196	-3.123e+05	3168.6	0.068418	-0.19823	1.002
2.246	92.201	-3.123e+05	3169.1	0.067246	-0.19852	1.0023
2.248	92.225	-3.123e+05	3169.6	0.066075	-0.19881	1.0025
2.25	92.212	-3.123e+05	3170.1	0.064904	-0.1991	1.0028
2.252	92.184	-3.123e+05	3170.5	0.066173	-0.19862	1.0023
2.254	92.214	-3.1229e+05	3170.9	0.067442	-0.19813	1.0017
2.256	92.224	-3.1229e+05	3171.2	0.06871	-0.19764	1.0011
2.258	92.191	-3.1227e+05	3171.4	0.069979	-0.19715	1.0005
2.26	92.154	-3.1225e+05	3171.7	0.071248	-0.19666	0.99991
2.262	92.217	-3.1224e+05	3171.9	0.07037	-0.19803	0.99991
2.264	92.315	-3.1224e+05	3172.1	0.069491	-0.1994	0.99991
2.266	92.385	-3.1223e+05	3172.3	0.068613	-0.20076	0.99991
2.268	92.407	-3.1223e+05	3172.4	0.067734	-0.20213	0.99991
2.27	92.379	-3.1221e+05	3172.5	0.066856	-0.2035	0.99991
2.272	92.297	-3.122e+05	3172.6	0.065782	-0.20262	0.99962
2.274	92.234	-3.1219e+05	3172.8	0.064709	-0.20174	0.99933
2.276	92.223	-3.1219e+05	3172.8	0.063635	-0.20086	0.99903
2.278	92.257	-3.1218e+05	3172.9	0.062562	-0.19998	0.99874
2.28	92.286	-3.1217e+05	3172.9	0.061488	-0.1991	0.99845
2.282	92.325	-3.1216e+05	3173	0.06305	-0.20008	0.99903
2.284	92.395	-3.1215e+05	3173	0.064611	-0.20106	0.99962
2.286	92.364	-3.1214e+05	3173	0.066173	-0.20203	1.0002
2.288	92.321	-3.1214e+05	3173	0.067734	-0.20301	1.0008
2.29	92.36	-3.1213e+05	3173	0.069296	-0.20398	1.0014
2.292	92.407	-3.1213e+05	3173	0.069491	-0.20232	1.0011
2.294	92.374	-3.1211e+05	3173	0.069686	-0.20067	1.0008
2.296	92.3	-3.1209e+05	3173	0.069882	-0.19901	1.0005
2.298	92.263	-3.1209e+05	3173	0.070077	-0.19735	1.0002
2.3	92.301	-3.1208e+05	3173	0.070272	-0.19569	0.99991
2.302	92.333	-3.1209e+05	3173	0.069101	-0.19627	1.0007
2.304	92.308	-3.1209e+05	3173	0.06793	-0.19686	1.0015
2.306	92.293	-3.1208e+05	3172.9	0.066758	-0.19744	1.0023
2.308	92.347	-3.1207e+05	3172.9	0.065587	-0.19803	1.003
2.31	92.425	-3.1206e+05	3172.8	0.064416	-0.19862	1.0038
2.312	92.42	-3.1205e+05	3172.8	0.066856	-0.19871	1.0035
2.314	92.377	-3.1204e+05	3172.7	0.069296	-0.19881	1.0032
2.316	92.359	-3.1203e+05	3172.6	0.071736	-0.19891	1.0029
2.318	92.333	-3.1203e+05	3172.6	0.074176	-0.19901	1.0026
2.32	92.298	-3.1202e+05	3172.5	0.076616	-0.1991	1.0024
2.322	92.329	-3.1202e+05	3172.4	0.075933	-0.1993	1.0022
2.324	92.415	-3.1201e+05	3172.3	0.07525	-0.19949	1.002
2.326	92.424	-3.12e+05	3172.2	0.074566	-0.19969	1.0018
2.328	92.377	-3.12e+05	3172.1	0.073883	-0.19988	1.0016
2.33	92.382	-3.1199e+05	3171.9	0.0732	-0.20008	1.0014
2.332	92.407	-3.1198e+05	3171.8	0.072029	-0.19979	1.0011
2.334	92.378	-3.1197e+05	3171.6	0.070858	-0.19949	1.0008
2.336	92.3	-3.1196e+05	3171.4	0.069686	-0.1992	1.0005
2.338	92.255	-3.1195e+05	3171.3	0.068515	-0.19891	1.0002
2.34	92.316	-3.1194e+05	3171.1	0.067344	-0.19862	0.99991
2.342	92.408	-3.1193e+05	3170.8	0.067832	-0.19813	0.99952
2.344	92.417	-3.1192e+05	3170.5	0.06832	-0.19764	0.99913
2.346	92.4	-3.1191e+05	3170.2	0.068808	-0.19715	0.99874
2.348	92.357	-3.1191e+05	3169.9	0.069296	-0.19666	0.99835
2.35	92.335	-3.1191e+05	3169.5	0.069784	-0.19618	0.99796
2.352	92.355	-3.1191e+05	3169.1	0.070565	-0.19666	0.99903
2.354	92.408	-3.1189e+05	3168.6	0.071346	-0.19715	1.0001
2.356	92.442	-3.1187e+05	3168.1	0.072126	-0.19764	1.0012
2.358	92.407	-3.1186e+05	3167.7	0.072907	-0.19813	1.0023
2.36	92.348	-3.1185e+05	3167.2	0.073688	-0.19862	1.0033
2.362	92.274	-3.1185e+05	3166.6	0.07359	-0.19871	1.0029
2.364	92.215	-3.1185e+05	3166	0.073493	-0.19881	1.0025
2.366	92.232	-3.1185e+05	3165.3	0.073395	-0.19891	1.0022
2.368	92.294	-3.1185e+05	3164.6	0.073298	-0.19901	1.0018
2.37	92.377	-3.1185e+05	3164	0.0732	-0.1991	1.0014
2.372	92.495	-3.1184e+05	3163.2	0.073395	-0.19891	1.0024
2.374	92.545	-3.1184e+05	3162.4	0.07359	-0.19871	1.0033
2.376	92.478	-3.1183e+05	3161.6	0.073786	-0.19852	1.0043
2.378	92.41	-3.1182e+05	3160.8	0.073981	-0.19832	1.0053
2.38	92.366	-3.1182e+05	3160	0.074176	-0.19813	1.0063
2.382	92.366	-3.1182e+05	3159.2	0.075347	-0.19891	1.0058
2.384	92.387	-3.1182e+05	3158.4	0.076518	-0.19969	1.0053
2.386	92.439	-3.1181e+05	3157.5	0.07769	-0.20047	1.0048
2.388	92.447	-3.118e+05	3156.6	0.078861	-0.20125	1.0043
2.39	92.385	-3.1181e+05	3155.8	0.080032	-0.20203	1.0038
2.392	92.258	-3.1181e+05	3154.9	0.079739	-0.20203	1.0034
2.394	92.249	-3.1181e+05	3154.1	0.079446	-0.20203	1.003
2.396	92.386	-3.118e+05	3153.2	0.079154	-0.20203	1.0026
2.398	92.468	-3.118e+05	3152.3	0.078861	-0.20203	1.0023
2.4	92.441	-3.1179e+05	3151.4	0.078568	-0.20203	1.0019
2.402	92.383	-3.1179e+05	3150.6	0.077592	-0.20067	1.0024
2.404	92.366	-3.118e+05	3149.7	0.076616	-0.1993	1.0028
2.406	92.391	-3.118e+05	3148.9	0.07564	-0.19793	1.0033
2.408	92.425	-3.118e+05	3148.2	0.074664	-0.19657	1.0038
2.41	92.402	-3.1179e+05	3147.4	0.073688	-0.1952	1.0043
2.412	92.359	-3.1178e+05	3146.7	0.074762	-0.19647	1.0039
2.414	92.371	-3.1179e+05	3145.9	0.075835	-0.19774	1.0035
2.416	92.395	-3.1179e+05	3145.2	0.076909	-0.19901	1.0031
2.418	92.4	-3.1179e+05	3144.6	0.077982	-0.20028	1.0027
2.42	92.384	-3.1178e+05	3143.9	0.079056	-0.20154	1.0024
2.422	92.311	-3.1179e+05	3143.3	0.079739	-0.20174	1.0024
2.424	92.29	-3.1179e+05	3142.8	0.080422	-0.20193	1.0025
2.426	92.386	-3.1179e+05	3142.2	0.081106	-0.20213	1.0026
2.428	92.447	-3.1178e+05	3141.8	0.081789	-0.20232	1.0027
2.43	92.426	-3.1178e+05	3141.3	0.082472	-0.20252	1.0028
2.432	92.401	-3.1178e+05	3140.9	0.080325	-0.20232	1.0019
2.434	92.41	-3.1178e+05	3140.5	0.078178	-0.20213	1.0009
2.436	92.423	-3.1178e+05	3140.1	0.07603	-0.20193	0.99991
2.438	92.375	-3.1178e+05	3139.9	0.073883	-0.20174	0.99894
2.44	92.362	-3.1178e+05	3139.6	0.071736	-0.20154	0.99796
2.442	92.397	-3.1178e+05	3139.3	0.070565	-0.20125	0.99816
2.444	92.43	-3.1177e+05	3139.1	0.069394	-0.20096	0.99835
2.446	92.426	-3.1178e+05	3138.8	0.068222	-0.20067	0.99855
2.448	92.421	-3.1178e+05	3138.7	0.067051	-0.20037	0.99874
2.45	92.395	-3.1177e+05	3138.5	0.06588	-0.20008	0.99894
2.452	92.393	-3.1177e+05	3138.3	0.065294	-0.20028	0.99835
2.454	92.349	-3.1177e+05	3138.1	0.064709	-0.20047	0.99776
2.456	92.373	-3.1177e+05	3138	0.064123	-0.20067	0.99718
2.458	92.424	-3.1177e+05	3137.9	0.063538	-0.20086	0.99659
2.46	92.432	-3.1177e+05	3137.8	0.062952	-0.20106	0.99601
2.462	92.466	-3.1177e+05	3137.6	0.063538	-0.20203	0.9964
2.464	92.442	-3.1178e+05	3137.5	0.064123	-0.20301	0.99679
2.466	92.359	-3.1178e+05	3137.4	0.064709	-0.20398	0.99718
2.468	92.338	-3.1178e+05	3137.3	0.065294	-0.20496	0.99757
2.47	92.384	-3.1178e+05	3137.2	0.06588	-0.20594	0.99796
2.472	92.43	-3.1178e+05	3137.1	0.06549	-0.20564	0.99796
2.474	92.408	-3.1178e+05	3137	0.065099	-0.20535	0.99796
2.476	92.343	-3.1178e+05	3136.8	0.064709	-0.20506	0.99796
2.478	92.35	-3.1179e+05	3136.7	0.064318	-0.20476	0.99796
2.48	92.386	-3.1179e+05	3136.6	0.063928	-0.20447	0.99796
2.482	92.397	-3.1179e+05	3136.5	0.063342	-0.20379	0.99767
2.484	92.4	-3.1179e+05	3136.3	0.062757	-0.20311	0.99737
2.486	92.444	-3.1178e+05	3136.2	0.062171	-0.20242	0.99708
2.488	92.477	-3.1178e+05	3136	0.061586	-0.20174	0.99679
2.49	92.441	-3.1179e+05	3135.9	0.061	-0.20106	0.9965
2.492	92.394	-3.118e+05	3135.8	0.060902	-0.19998	0.9964
2.494	92.372	-3.118e+05	3135.6	0.060805	-0.19891	0.9963
2.496	92.362	-3.1179e+05	3135.5	0.060707	-0.19784	0.9962
2.498	92.351	-3.1179e+05	3135.3	0.06061	-0.19676	0.99611
2.5	92.336	-3.118e+05	3135.1	0.060512	-0.19569	0.99601
2.502	92.337	-3.118e+05	3135	0.061098	-0.19764	0.99562
2.504	92.326	-3.1179e+05	3134.8	0.061683	-0.19959	0.99523
2.506	92.302	-3.118e+05	3134.6	0.062269	-0.20154	0.99484
2.508	92.313	-3.118e+05	3134.3	0.062854	-0.2035	0.99445
2.51	92.367	-3.118e+05	3134.1	0.06344	-0.20545	0.99406
2.512	92.44	-3.118e+05	3133.9	0.064221	-0.20506	0.99425
2.514	92.462	-3.1179e+05	3133.6	0.065002	-0.20467	0.99445
2.516	92.468	-3.1179e+05	3133.4	0.065782	-0.20428	0.99464
2.518	92.437	-3.118e+05	3133.1	0.066563	-0.20389	0.99484
2.52	92.383	-3.1181e+05	3132.9	0.067344	-0.2035	0.99503
2.522	92.327	-3.1181e+05	3132.6	0.066758	-0.2034	0.99503
2.524	92.27	-3.1181e+05	3132.3	0.066173	-0.2033	0.99503
2.526	92.258	-3.1181e+05	3132	0.065587	-0.2032	0.99503
2.528	92.339	-3.1181e+05	3131.7	0.065002	-0.20311	0.99503
2.53	92.451	-3.1181e+05	3131.4	0.064416	-0.20301	0.99503
2.532	92.42	-3.1181e+05	3131.1	0.065294	-0.20281	0.99493
2.534	92.32	-3.1182e+05	3130.8	0.066173	-0.20262	0.99484
2.536	92.334	-3.1182e+05	3130.4	0.067051	-0.20242	0.99474
2.538	92.362	-3.1182e+05	3130	0.06793	-0.20223	0.99464
2.54	92.357	-3.1182e+05	3129.7	0.068808	-0.20203	0.99454
2.542	92.32	-3.1182e+05	3129.3	0.068808	-0.20242	0.99396
2.544	92.332	-3.1182e+05	3129	0.068808	-0.20281	0.99337
2.546	92.396	-3.1182e+05	3128.6	0.068808	-0.2032	0.99279
2.548	92.428	-3.1182e+05	3128.2	0.068808	-0.20359	0.9922
2.55	92.468	-3.1183e+05	3127.9	0.068808	-0.20398	0.99162
2.552	92.434	-3.1183e+05	3127.5	0.069198	-0.20272	0.99259
2.554	92.387	-3.1183e+05	3127.1	0.069589	-0.20145	0.99357
2.556	92.387	-3.1183e+05	3126.7	0.069979	-0.20018	0.99454
2.558	92.403	-3.1183e+05	3126.4	0.07037	-0.19891	0.99552
2.56	92.347	-3.1183e+05	3126	0.07076	-0.19764	0.9965
2.562	92.359	-3.1183e+05	3125.6	0.069296	-0.1992	0.99659
2.564	92.449	-3.1183e+05	3125.1	0.067832	-0.20076	0.99669
2.566	92.478	-3.1183e+05	3124.7	0.066368	-0.20232	0.99679
2.568	92.45	-3.1183e+05	3124.3	0.064904	-0.20389	0.99689
2.57	92.449	-3.1184e+05	3123.9	0.06344	-0.20545	0.99698
2.572	92.457	-3.1184e+05	3123.5	0.063928	-0.20525	0.99679
2.574	92.408	-3.1185e+05	3123.1	0.064416	-0.20506	0.99659
2.576	92.371	-3.1185e+05	3122.7	0.064904	-0.20486	0.9964
2.578	92.377	-3.1185e+05	3122.3	0.065392	-0.20467	0.9962
2.58	92.471	-3.1186e+05	3121.9	0.06588	-0.20447	0.99601
2.582	92.562	-3.1185e+05	3121.5	0.065978	-0.20496	0.99532
2.584	92.504	-3.1185e+05	3121.1	0.066075	-0.20545	0.99464
2.586	92.396	-3.1186e+05	3120.7	0.066173	-0.20594	0.99396
2.588	92.373	-3.1186e+05	3120.3	0.06627	-0.20642	0.99328
2.59	92.434	-3.1187e+05	3119.9	0.066368	-0.20691	0.99259
2.592	92.489	-3.1188e+05	3119.5	0.069784	-0.20584	0.99484
2.594	92.436	-3.1187e+05	3119.1	0.0732	-0.20476	0.99708
2.596	92.378	-3.1187e+05	3118.7	0.076616	-0.20369	0.99933
2.598	92.439	-3.1187e+05	3118.2	0.080032	-0.20262	1.0016
2.6	92.522	-3.1188e+05	3117.8	0.083448	-0.20154	1.0038
2.602	92.499	-3.1188e+05	3117.4	0.082374	-0.20262	1.0029
2.604	92.459	-3.1188e+05	3117	0.081301	-0.20369	1.0021
2.606	92.442	-3.1188e+05	3116.6	0.080227	-0.20476	1.0012
2.608	92.419	-3.1188e+05	3116.2	0.079154	-0.20584	1.0003
2.61	92.442	-3.1188e+05	3115.8	0.07808	-0.20691	0.99942
2.612	92.446	-3.1188e+05	3115.5	0.078666	-0.20662	1.0004
2.614	92.442	-3.1189e+05	3115.1	0.079251	-0.20633	1.0014
2.616	92.442	-3.119e+05	3114.7	0.079837	-0.20603	1.0024
2.618	92.461	-3.1189e+05	3114.4	0.080422	-0.20574	1.0033
2.62	92.478	-3.1189e+05	3114.1	0.081008	-0.20545	1.0043
2.622	92.48	-3.119e+05	3113.7	0.079934	-0.20525	1.0043
2.624	92.471	-3.1191e+05	3113.3	0.078861	-0.20506	1.0043
2.626	92.438	-3.1191e+05	3112.9	0.077787	-0.20486	1.0043
2.628	92.444	-3.1191e+05	3112.6	0.076714	-0.20467	1.0043
2.63	92.467	-3.1191e+05	3112.2	0.07564	-0.20447	1.0043
2.632	92.459	-3.1191e+05	3111.8	0.076128	-0.20476	1.0043
2.634	92.448	-3.1191e+05	3111.4	0.076616	-0.20506	1.0043
2.636	92.461	-3.1192e+05	3111.1	0.077104	-0.20535	1.0043
2.638	92.5	-3.1191e+05	3110.7	0.077592	-0.20564	1.0043
2.64	92.46	-3.1191e+05	3110.4	0.07808	-0.20594	1.0043
2.642	92.457	-3.1192e+05	3110.1	0.077885	-0.20467	1.0041
2.644	92.466	-3.1192e+05	3109.7	0.07769	-0.2034	1.0039
2.646	92.456	-3.1192e+05	3109.4	0.077494	-0.20213	1.0037
2.648	92.424	-3.1193e+05	3109.1	0.077299	-0.20086	1.0035
2.65	92.39	-3.1193e+05	3108.8	0.077104	-0.19959	1.0033
2.652	92.377	-3.1194e+05	3108.6	0.076226	-0.19979	1.0026
2.654	92.332	-3.1194e+05	3108.3	0.075347	-0.19998	1.002
2.656	92.229	-3.1194e+05	3108	0.074469	-0.20018	1.0013
2.658	92.097	-3.1194e+05	3107.7	0.07359	-0.20037	1.0006
2.66	92.034	-3.1194e+05	3107.4	0.072712	-0.20057	0.99991
2.662	91.968	-3.1195e+05	3107.2	0.072517	-0.20076	1.0017
2.664	91.834	-3.1196e+05	3106.9	0.072322	-0.20096	1.0034
2.666	91.704	-3.1196e+05	3106.7	0.072126	-0.20115	1.0052
2.668	91.65	-3.1196e+05	3106.4	0.071931	-0.20135	1.0069
2.67	91.655	-3.1197e+05	3106.2	0.071736	-0.20154	1.0087
2.672	91.682	-3.1197e+05	3105.9	0.071931	-0.20135	1.0083
2.674	91.779	-3.1196e+05	3105.7	0.072126	-0.20115	1.0079
2.676	91.985	-3.1196e+05	3105.4	0.072322	-0.20096	1.0075
2.678	92.214	-3.1196e+05	3105.2	0.072517	-0.20076	1.0071
2.68	92.361	-3.1196e+05	3104.9	0.072712	-0.20057	1.0067
2.682	92.423	-3.1197e+05	3104.6	0.072126	-0.20164	1.0065
2.684	92.456	-3.1198e+05	3104.4	0.071541	-0.20272	1.0064
2.686	92.496	-3.1198e+05	3104.1	0.070955	-0.20379	1.0062
2.688	92.501	-3.1198e+05	3103.8	0.07037	-0.20486	1.006
2.69	92.494	-3.1198e+05	3103.5	0.069784	-0.20594	1.0058
2.692	92.486	-3.1198e+05	3103.1	0.069589	-0.20486	1.0065
2.694	92.466	-3.1199e+05	3102.8	0.069394	-0.20379	1.0071
2.696	92.452	-3.1199e+05	3102.5	0.069198	-0.20272	1.0078
2.698	92.42	-3.1199e+05	3102.2	0.069003	-0.20164	1.0085
2.7	92.368	-3.1199e+05	3101.9	0.068808	-0.20057	1.0092
2.702	92.424	-3.12e+05	3101.6	0.069589	-0.20047	1.0089
2.704	92.543	-3.12e+05	3101.3	0.07037	-0.20037	1.0086
2.706	92.562	-3.1201e+05	3100.9	0.07115	-0.20028	1.0083
2.708	92.474	-3.1201e+05	3100.6	0.071931	-0.20018	1.008
2.71	92.432	-3.1202e+05	3100.3	0.072712	-0.20008	1.0077
2.712	92.452	-3.1202e+05	3099.9	0.072419	-0.20096	1.0066
2.714	92.487	-3.1202e+05	3099.5	0.072126	-0.20184	1.0056
2.716	92.532	-3.1202e+05	3099.1	0.071834	-0.20272	1.0045
2.718	92.492	-3.1203e+05	3098.7	0.071541	-0.20359	1.0034
2.72	92.486	-3.1203e+05	3098.3	0.071248	-0.20447	1.0024
2.722	92.486	-3.1203e+05	3097.8	0.071053	-0.20389	1.0036
2.724	92.453	-3.1204e+05	3097.4	0.070858	-0.2033	1.0049
2.726	92.449	-3.1204e+05	3096.9	0.070662	-0.20272	1.0062
2.728	92.448	-3.1204e+05	3096.4	0.070467	-0.20213	1.0074
2.73	92.449	-3.1203e+05	3096	0.070272	-0.20154	1.0087
2.732	92.462	-3.1203e+05	3095.5	0.070467	-0.20203	1.0074
2.734	92.491	-3.1203e+05	3095.1	0.070662	-0.20252	1.0062
2.736	92.467	-3.1204e+05	3094.6	0.070858	-0.20301	1.0049
2.738	92.44	-3.1204e+05	3094.2	0.071053	-0.2035	1.0036
2.74	92.403	-3.1205e+05	3093.8	0.071248	-0.20398	1.0024
2.742	92.372	-3.1205e+05	3093.2	0.072712	-0.20457	1.002
2.744	92.397	-3.1205e+05	3092.7	0.074176	-0.20516	1.0016
2.746	92.502	-3.1206e+05	3092.1	0.07564	-0.20574	1.0012
2.748	92.546	-3.1207e+05	3091.6	0.077104	-0.20633	1.0008
2.75	92.499	-3.1207e+05	3091	0.078568	-0.20691	1.0004
2.752	92.479	-3.1207e+05	3090.5	0.078568	-0.20574	1.0013
2.754	92.482	-3.1207e+05	3090	0.078568	-0.20457	1.0022
2.756	92.471	-3.1207e+05	3089.5	0.078568	-0.2034	1.003
2.758	92.466	-3.1207e+05	3089.1	0.078568	-0.20223	1.0039
2.76	92.458	-3.1208e+05	3088.6	0.078568	-0.20106	1.0048
2.762	92.439	-3.1208e+05	3088.1	0.078568	-0.20135	1.0043
2.764	92.454	-3.1209e+05	3087.6	0.078568	-0.20164	1.0038
2.766	92.502	-3.1209e+05	3087.1	0.078568	-0.20193	1.0033
2.768	92.49	-3.1209e+05	3086.6	0.078568	-0.20223	1.0028
2.77	92.468	-3.1209e+05	3086.2	0.078568	-0.20252	1.0024
2.772	92.463	-3.1209e+05	3085.7	0.077592	-0.20252	1.0021
2.774	92.449	-3.121e+05	3085.2	0.076616	-0.20252	1.0018
2.776	92.464	-3.121e+05	3084.8	0.07564	-0.20252	1.0015
2.778	92.494	-3.1211e+05	3084.3	0.074664	-0.20252	1.0012
2.78	92.523	-3.1212e+05	3083.8	0.073688	-0.20252	1.0009
2.782	92.496	-3.1211e+05	3083.4	0.071736	-0.20408	0.99923
2.784	92.423	-3.1211e+05	3082.9	0.069784	-0.20564	0.99757
2.786	92.394	-3.1211e+05	3082.4	0.067832	-0.2072	0.99591
2.788	92.367	-3.1211e+05	3082	0.06588	-0.20877	0.99425
2.79	92.385	-3.1212e+05	3081.6	0.063928	-0.21033	0.99259
2.792	92.402	-3.1213e+05	3081.2	0.066173	-0.20867	0.99249
2.794	92.393	-3.1213e+05	3080.8	0.068418	-0.20701	0.9924
2.796	92.424	-3.1213e+05	3080.4	0.070662	-0.20535	0.9923
2.798	92.488	-3.1214e+05	3080	0.072907	-0.20369	0.9922
2.8	92.511	-3.1214e+05	3079.6	0.075152	-0.20203	0.9921
2.802	92.516	-3.1214e+05	3079.3	0.073981	-0.20252	0.99249
2.804	92.491	-3.1215e+05	3078.9	0.07281	-0.20301	0.99288
2.806	92.469	-3.1215e+05	3078.6	0.071638	-0.2035	0.99328
2.808	92.452	-3.1215e+05	3078.3	0.070467	-0.20398	0.99367
2.81	92.452	-3.1215e+05	3078	0.069296	-0.20447	0.99406
2.812	92.435	-3.1215e+05	3077.8	0.071248	-0.20486	0.99328
2.814	92.432	-3.1216e+05	3077.5	0.0732	-0.20525	0.99249
2.816	92.471	-3.1217e+05	3077.3	0.075152	-0.20564	0.99171
2.818	92.434	-3.1217e+05	3077.1	0.077104	-0.20603	0.99093
2.82	92.4	-3.1218e+05	3076.9	0.079056	-0.20642	0.99015
2.822	92.385	-3.1218e+05	3076.8	0.079251	-0.2073	0.98976
2.824	92.377	-3.1219e+05	3076.7	0.079446	-0.20818	0.98937
2.826	92.387	-3.1219e+05	3076.6	0.079642	-0.20906	0.98898
2.828	92.383	-3.1219e+05	3076.5	0.079837	-0.20994	0.98859
2.83	92.409	-3.1219e+05	3076.5	0.080032	-0.21082	0.9882
2.832	92.464	-3.1219e+05	3076.7	0.080618	-0.21013	0.988
2.834	92.469	-3.1219e+05	3076.9	0.081203	-0.20945	0.98781
2.836	92.423	-3.1219e+05	3077.3	0.081789	-0.20877	0.98761
2.838	92.415	-3.122e+05	3077.9	0.082374	-0.20808	0.98742
2.84	92.44	-3.1221e+05	3078.4	0.08296	-0.2074	0.98722
2.842	92.429	-3.1221e+05	3079.4	0.082082	-0.2073	0.98732
2.844	92.389	-3.1221e+05	3080.5	0.081203	-0.2072	0.98742
2.846	92.373	-3.1221e+05	3081.8	0.080325	-0.20711	0.98752
2.848	92.409	-3.1221e+05	3083.5	0.079446	-0.20701	0.98761
2.85	92.391	-3.1222e+05	3085.1	0.078568	-0.20691	0.98771
2.852	92.263	-3.1223e+05	3087.4	0.078666	-0.20691	0.98722
2.854	92.259	-3.1222e+05	3089.6	0.078763	-0.20691	0.98674
2.856	92.408	-3.1222e+05	3092.1	0.078861	-0.20691	0.98625
2.858	92.452	-3.1223e+05	3095	0.078958	-0.20691	0.98576
2.86	92.409	-3.1224e+05	3097.8	0.079056	-0.20691	0.98527
2.862	92.384	-3.1224e+05	3101	0.077982	-0.20603	0.98654
2.864	92.365	-3.1224e+05	3104.2	0.076909	-0.20516	0.98781
2.866	92.363	-3.1225e+05	3107.4	0.075835	-0.20428	0.98908
2.868	92.316	-3.1225e+05	3110.8	0.074762	-0.2034	0.99035
2.87	92.293	-3.1225e+05	3114.1	0.073688	-0.20252	0.99162
2.872	92.284	-3.1224e+05	3117.3	0.072712	-0.20272	0.99201
2.874	92.282	-3.1224e+05	3120.5	0.071736	-0.20291	0.9924
2.876	92.276	-3.1224e+05	3123.6	0.07076	-0.20311	0.99279
2.878	92.265	-3.1224e+05	3126.5	0.069784	-0.2033	0.99318
2.88	92.334	-3.1224e+05	3129.4	0.068808	-0.2035	0.99357
2.882	92.334	-3.1224e+05	3132	0.069589	-0.2035	0.99308
2.884	92.265	-3.1223e+05	3134.6	0.07037	-0.2035	0.99259
2.886	92.186	-3.1223e+05	3137	0.07115	-0.2035	0.9921
2.888	92.202	-3.1222e+05	3139.3	0.071931	-0.2035	0.99162
2.89	92.188	-3.1223e+05	3141.6	0.072712	-0.2035	0.99113
2.892	92.232	-3.1223e+05	3143.7	0.071443	-0.20516	0.9922
2.894	92.288	-3.1223e+05	3145.7	0.070174	-0.20681	0.99328
2.896	92.261	-3.1223e+05	3147.6	0.068906	-0.20847	0.99435
2.898	92.266	-3.1222e+05	3149.5	0.067637	-0.21013	0.99542
2.9	92.227	-3.1221e+05	3151.3	0.066368	-0.21179	0.9965
2.902	92.215	-3.122e+05	3152.9	0.066075	-0.2115	0.9965
2.904	92.202	-3.122e+05	3154.4	0.065782	-0.21121	0.9965
2.906	92.159	-3.122e+05	3155.9	0.06549	-0.21091	0.9965
2.908	92.13	-3.1219e+05	3157.2	0.065197	-0.21062	0.9965
2.91	92.172	-3.1218e+05	3158.5	0.064904	-0.21033	0.9965
2.912	92.232	-3.1217e+05	3159.5	0.06549	-0.21033	0.99718
2.914	92.259	-3.1217e+05	3160.6	0.066075	-0.21033	0.99786
2.916	92.26	-3.1217e+05	3161.6	0.066661	-0.21033	0.99855
2.918	92.241	-3.1216e+05	3162.5	0.067246	-0.21033	0.99923
2.92	92.199	-3.1215e+05	3163.5	0.067832	-0.21033	0.99991
2.922	92.173	-3.1214e+05	3164.3	0.068027	-0.20955	0.99962
2.924	92.188	-3.1213e+05	3165	0.068222	-0.20877	0.99933
2.926	92.194	-3.1212e+05	3165.7	0.068418	-0.20799	0.99903
2.928	92.174	-3.1211e+05	3166.4	0.068613	-0.2072	0.99874
2.93	92.181	-3.1211e+05	3167	0.068808	-0.20642	0.99845
2.932	92.22	-3.121e+05	3167.6	0.06871	-0.20691	0.99923
2.934	92.238	-3.121e+05	3168.1	0.068613	-0.2074	1
2.936	92.216	-3.1209e+05	3168.6	0.068515	-0.20789	1.0008
2.938	92.206	-3.1208e+05	3169	0.068418	-0.20838	1.0016
2.94	92.273	-3.1207e+05	3169.4	0.06832	-0.20886	1.0024
2.942	92.338	-3.1206e+05	3169.7	0.067246	-0.20886	1.0016
2.944	92.311	-3.1205e+05	3170	0.066173	-0.20886	1.0008
2.946	92.267	-3.1205e+05	3170.3	0.065099	-0.20886	1
2.948	92.254	-3.1205e+05	3170.6	0.064026	-0.20886	0.99923
2.95	92.266	-3.1204e+05	3170.8	0.062952	-0.20886	0.99845
2.952	92.279	-3.1203e+05	3171	0.064611	-0.20867	0.99913
2.954	92.234	-3.1202e+05	3171.2	0.06627	-0.20847	0.99981
2.956	92.219	-3.12e+05	3171.4	0.06793	-0.20828	1.0005
2.958	92.286	-3.12e+05	3171.6	0.069589	-0.20808	1.0012
2.96	92.388	-3.1199e+05	3171.8	0.071248	-0.20789	1.0019
2.962	92.334	-3.1198e+05	3171.9	0.070272	-0.20789	1.0012
2.964	92.304	-3.1197e+05	3172.1	0.069296	-0.20789	1.0005
2.966	92.319	-3.1196e+05	3172.2	0.06832	-0.20789	0.99981
2.968	92.347	-3.1195e+05	3172.4	0.067344	-0.20789	0.99913
2.97	92.345	-3.1195e+05	3172.6	0.066368	-0.20789	0.99845
2.972	92.325	-3.1195e+05	3172.7	0.067442	-0.2076	0.99903
2.974	92.282	-3.1193e+05	3172.7	0.068515	-0.2073	0.99962
2.976	92.236	-3.1192e+05	3172.8	0.069589	-0.20701	1.0002
2.978	92.208	-3.1191e+05	3172.8	0.070662	-0.20672	1.0008
2.98	92.243	-3.1189e+05	3172.9	0.071736	-0.20642	1.0014
2.982	92.377	-3.1189e+05	3173	0.071443	-0.20535	1.0028
2.984	92.442	-3.1188e+05	3173.1	0.07115	-0.20428	1.0043
2.986	92.37	-3.1187e+05	3173.1	0.070858	-0.2032	1.0058
2.988	92.305	-3.1187e+05	3173.1	0.070565	-0.20213	1.0072
2.99	92.315	-3.1186e+05	3173.2	0.070272	-0.20106	1.0087
2.992	92.36	-3.1184e+05	3173.1	0.070858	-0.20135	1.0081
2.994	92.307	-3.1183e+05	3173.1	0.071443	-0.20164	1.0075
2.996	92.247	-3.1182e+05	3173.1	0.072029	-0.20193	1.0069
2.998	92.294	-3.1181e+05	3173	0.072614	-0.20223	1.0064
3	92.369	-3.118e+05	3173	0.0732	-0.20252	1.0058
3.002	92.397	-3.1179e+05	3172.9	0.07281	-0.20242	1.0068
3.004	92.361	-3.1179e+05	3172.9	0.072419	-0.20232	1.0079
3.006	92.342	-3.1178e+05	3172.8	0.072029	-0.20223	1.009
3.008	92.372	-3.1177e+05	3172.7	0.071638	-0.20213	1.0101
3.01	92.369	-3.1176e+05	3172.6	0.071248	-0.20203	1.0111
3.012	92.335	-3.1176e+05	3172.6	0.071736	-0.20281	1.0094
3.014	92.309	-3.1175e+05	3172.5	0.072224	-0.20359	1.0076
3.016	92.282	-3.1174e+05	3172.4	0.072712	-0.20437	1.0059
3.018	92.28	-3.1173e+05	3172.3	0.0732	-0.20516	1.0041
3.02	92.33	-3.1172e+05	3172.2	0.073688	-0.20594	1.0024
3.022	92.415	-3.1171e+05	3172.1	0.074274	-0.20545	1.0025
3.024	92.449	-3.117e+05	3171.9	0.074859	-0.20496	1.0027
3.026	92.386	-3.1169e+05	3171.8	0.075445	-0.20447	1.0029
3.028	92.311	-3.1168e+05	3171.7	0.07603	-0.20398	1.0031
3.03	92.331	-3.1167e+05	3171.5	0.076616	-0.2035	1.0033
3.032	92.387	-3.1167e+05	3171.3	0.074957	-0.20486	1.0025
3.034	92.405	-3.1166e+05	3171.1	0.073298	-0.20623	1.0018
3.036	92.381	-3.1165e+05	3170.9	0.071638	-0.2076	1.001
3.038	92.352	-3.1164e+05	3170.6	0.069979	-0.20896	1.0002
3.04	92.312	-3.1164e+05	3170.3	0.06832	-0.21033	0.99942
3.042	92.275	-3.1163e+05	3169.9	0.068906	-0.20964	0.99942
3.044	92.308	-3.1162e+05	3169.6	0.069491	-0.20896	0.99942
3.046	92.426	-3.1162e+05	3169.2	0.070077	-0.20828	0.99942
3.048	92.418	-3.1161e+05	3168.8	0.070662	-0.2076	0.99942
3.05	92.374	-3.116e+05	3168.3	0.071248	-0.20691	0.99942
3.052	92.399	-3.1159e+05	3167.8	0.071443	-0.20603	0.99972
3.054	92.368	-3.1158e+05	3167.2	0.071638	-0.20516	1
3.056	92.314	-3.1158e+05	3166.7	0.071834	-0.20428	1.0003
3.058	92.295	-3.1158e+05	3166.1	0.072029	-0.2034	1.0006
3.06	92.287	-3.1158e+05	3165.4	0.072224	-0.20252	1.0009
3.062	92.292	-3.1157e+05	3164.7	0.071248	-0.20428	1.0009
3.064	92.387	-3.1156e+05	3164	0.070272	-0.20603	1.0009
3.066	92.428	-3.1156e+05	3163.3	0.069296	-0.20779	1.0009
3.068	92.417	-3.1156e+05	3162.5	0.06832	-0.20955	1.0009
3.07	92.361	-3.1156e+05	3161.8	0.067344	-0.2113	1.0009
3.072	92.367	-3.1156e+05	3161	0.067539	-0.21023	1.0006
3.074	92.321	-3.1155e+05	3160.2	0.067734	-0.20916	1.0003
3.076	92.295	-3.1155e+05	3159.4	0.06793	-0.20808	1
3.078	92.281	-3.1154e+05	3158.6	0.068125	-0.20701	0.99972
3.08	92.334	-3.1153e+05	3157.8	0.06832	-0.20594	0.99942
3.082	92.371	-3.1154e+05	3157	0.068027	-0.20652	0.99942
3.084	92.372	-3.1154e+05	3156.2	0.067734	-0.20711	0.99942
3.086	92.374	-3.1153e+05	3155.4	0.067442	-0.20769	0.99942
3.088	92.364	-3.1153e+05	3154.6	0.067149	-0.20828	0.99942
3.09	92.374	-3.1153e+05	3153.8	0.066856	-0.20886	0.99942
3.092	92.438	-3.1153e+05	3153.1	0.067637	-0.20847	0.99942
3.094	92.446	-3.1152e+05	3152.4	0.068418	-0.20808	0.99942
3.096	92.38	-3.1152e+05	3151.7	0.069198	-0.20769	0.99942
3.098	92.359	-3.1152e+05	3151	0.069979	-0.2073	0.99942
3.1	92.39	-3.1152e+05	3150.3	0.07076	-0.20691	0.99942
3.102	92.383	-3.1152e+05	3149.6	0.07037	-0.20779	1.0005
3.104	92.338	-3.1151e+05	3148.9	0.069979	-0.20867	1.0016
3.106	92.36	-3.1151e+05	3148.3	0.069589	-0.20955	1.0026
3.108	92.435	-3.1151e+05	3147.8	0.069198	-0.21043	1.0037
3.11	92.45	-3.1151e+05	3147.2	0.068808	-0.2113	1.0048
3.112	92.412	-3.115e+05	3146.7	0.07037	-0.20974	1.0045
3.114	92.394	-3.1151e+05	3146.2	0.071931	-0.20818	1.0042
3.116	92.391	-3.1151e+05	3145.7	0.073493	-0.20662	1.0039
3.118	92.325	-3.1151e+05	3145.3	0.075054	-0.20506	1.0036
3.12	92.309	-3.1151e+05	3144.9	0.076616	-0.2035	1.0033
3.122	92.339	-3.1151e+05	3144.5	0.075542	-0.20359	1.0024
3.124	92.369	-3.1151e+05	3144.1	0.074469	-0.20369	1.0014
3.126	92.383	-3.1151e+05	3143.7	0.073395	-0.20379	1.0004
3.128	92.314	-3.1151e+05	3143.5	0.072322	-0.20389	0.99942
3.13	92.194	-3.1151e+05	3143.2	0.071248	-0.20398	0.99845
3.132	92.217	-3.1152e+05	3142.9	0.068906	-0.20389	0.99816
3.134	92.52	-3.1151e+05	3142.6	0.066563	-0.20379	0.99786
3.136	92.631	-3.1151e+05	3142.3	0.064221	-0.20369	0.99757
3.138	92.448	-3.115e+05	3142.1	0.061878	-0.20359	0.99728
3.14	92.393	-3.115e+05	3141.8	0.059536	-0.2035	0.99698
3.142	92.405	-3.115e+05	3141.6	0.061195	-0.20408	0.99737
3.144	92.393	-3.115e+05	3141.3	0.062854	-0.20467	0.99776
3.146	92.382	-3.115e+05	3141.2	0.064514	-0.20525	0.99816
3.148	92.355	-3.115e+05	3141	0.066173	-0.20584	0.99855
3.15	92.385	-3.1151e+05	3140.9	0.067832	-0.20642	0.99894
3.152	92.383	-3.1151e+05	3140.8	0.069003	-0.20574	0.99991
3.154	92.401	-3.1151e+05	3140.6	0.070174	-0.20506	1.0009
3.156	92.426	-3.1151e+05	3140.5	0.071346	-0.20437	1.0019
3.158	92.423	-3.1151e+05	3140.4	0.072517	-0.20369	1.0028
3.16	92.373	-3.1151e+05	3140.2	0.073688	-0.20301	1.0038
3.162	92.299	-3.1151e+05	3140.1	0.073981	-0.20311	1.0031
3.164	92.286	-3.1151e+05	3140	0.074274	-0.2032	1.0024
3.166	92.307	-3.1151e+05	3139.9	0.074566	-0.2033	1.0018
3.168	92.351	-3.1151e+05	3139.8	0.074859	-0.2034	1.0011
3.17	92.411	-3.1151e+05	3139.8	0.075152	-0.2035	1.0004
3.172	92.462	-3.1152e+05	3139.6	0.07525	-0.2034	1.0012
3.174	92.464	-3.1152e+05	3139.5	0.075347	-0.2033	1.002
3.176	92.418	-3.1152e+05	3139.3	0.075445	-0.2032	1.0027
3.178	92.373	-3.1152e+05	3139.2	0.075542	-0.20311	1.0035
3.18	92.372	-3.1153e+05	3139	0.07564	-0.20301	1.0043
3.182	92.403	-3.1153e+05	3138.9	0.074664	-0.20252	1.0038
3.184	92.388	-3.1152e+05	3138.7	0.073688	-0.20203	1.0033
3.186	92.324	-3.1153e+05	3138.6	0.072712	-0.20154	1.0028
3.188	92.258	-3.1153e+05	3138.5	0.071736	-0.20106	1.0024
3.19	92.222	-3.1153e+05	3138.3	0.07076	-0.20057	1.0019
3.192	92.311	-3.1152e+05	3138.2	0.07115	-0.19998	1.0016
3.194	92.458	-3.1153e+05	3138.1	0.071541	-0.1994	1.0013
3.196	92.475	-3.1153e+05	3138	0.071931	-0.19881	1.001
3.198	92.449	-3.1153e+05	3137.8	0.072322	-0.19823	1.0007
3.2	92.43	-3.1152e+05	3137.7	0.072712	-0.19764	1.0004
3.202	92.383	-3.1153e+05	3137.5	0.072907	-0.19793	1.0003
3.204	92.344	-3.1153e+05	3137.3	0.073102	-0.19823	1.0002
3.206	92.353	-3.1153e+05	3137.1	0.073298	-0.19852	1.0001
3.208	92.393	-3.1153e+05	3136.9	0.073493	-0.19881	1
3.21	92.366	-3.1154e+05	3136.7	0.073688	-0.1991	0.99991
3.212	92.346	-3.1154e+05	3136.5	0.071931	-0.20047	0.99913
3.214	92.359	-3.1154e+05	3136.3	0.070174	-0.20184	0.99835
3.216	92.366	-3.1154e+05	3136	0.068418	-0.2032	0.99757
3.218	92.341	-3.1154e+05	3135.8	0.066661	-0.20457	0.99679
3.22	92.31	-3.1154e+05	3135.5	0.064904	-0.20594	0.99601
3.222	92.303	-3.1155e+05	3135.2	0.06588	-0.20535	0.99562
3.224	92.343	-3.1155e+05	3134.9	0.066856	-0.20476	0.99523
3.226	92.356	-3.1155e+05	3134.6	0.067832	-0.20418	0.99484
3.228	92.332	-3.1155e+05	3134.3	0.068808	-0.20359	0.99445
3.23	92.291	-3.1155e+05	3134	0.069784	-0.20301	0.99406
3.232	92.287	-3.1155e+05	3133.7	0.069296	-0.2035	0.99425
3.234	92.319	-3.1155e+05	3133.4	0.068808	-0.20398	0.99445
3.236	92.362	-3.1155e+05	3133	0.06832	-0.20447	0.99464
3.238	92.342	-3.1156e+05	3132.7	0.067832	-0.20496	0.99484
3.24	92.27	-3.1156e+05	3132.4	0.067344	-0.20545	0.99503
3.242	92.223	-3.1157e+05	3132.1	0.067734	-0.20467	0.99513
3.244	92.274	-3.1157e+05	3131.8	0.068125	-0.20389	0.99523
3.246	92.384	-3.1157e+05	3131.4	0.068515	-0.20311	0.99532
3.248	92.441	-3.1156e+05	3131.1	0.068906	-0.20232	0.99542
3.25	92.452	-3.1156e+05	3130.7	0.069296	-0.20154	0.99552
3.252	92.452	-3.1157e+05	3130.4	0.070565	-0.20057	0.99679
3.254	92.441	-3.1157e+05	3130	0.071834	-0.19959	0.99806
3.256	92.416	-3.1158e+05	3129.6	0.073102	-0.19862	0.99933
3.258	92.362	-3.1158e+05	3129.3	0.074371	-0.19764	1.0006
3.26	92.332	-3.1158e+05	3129	0.07564	-0.19666	1.0019
3.262	92.35	-3.1159e+05	3128.7	0.07525	-0.19686	1.0021
3.264	92.402	-3.1159e+05	3128.4	0.074859	-0.19705	1.0023
3.266	92.463	-3.1159e+05	3128.1	0.074469	-0.19725	1.0024
3.268	92.464	-3.1159e+05	3127.7	0.074078	-0.19744	1.0026
3.27	92.405	-3.1159e+05	3127.3	0.073688	-0.19764	1.0028
3.272	92.374	-3.1159e+05	3126.9	0.074078	-0.19852	1.0021
3.274	92.4	-3.1159e+05	3126.6	0.074469	-0.1994	1.0013
3.276	92.43	-3.1159e+05	3126.2	0.074859	-0.20028	1.0005
3.278	92.403	-3.1159e+05	3125.8	0.07525	-0.20115	0.99972
3.28	92.378	-3.1159e+05	3125.5	0.07564	-0.20203	0.99894
3.282	92.411	-3.1159e+05	3125.1	0.073786	-0.20106	0.99845
3.284	92.416	-3.116e+05	3124.7	0.071931	-0.20008	0.99796
3.286	92.388	-3.116e+05	3124.3	0.070077	-0.1991	0.99747
3.288	92.377	-3.1161e+05	3123.9	0.068222	-0.19813	0.99698
3.29	92.411	-3.1161e+05	3123.4	0.066368	-0.19715	0.9965
3.292	92.465	-3.1162e+05	3123	0.067442	-0.19637	0.99669
3.294	92.508	-3.1162e+05	3122.5	0.068515	-0.19559	0.99689
3.296	92.439	-3.1162e+05	3122.1	0.069589	-0.19481	0.99708
3.298	92.37	-3.1162e+05	3121.7	0.070662	-0.19403	0.99728
3.3	92.421	-3.1162e+05	3121.2	0.071736	-0.19325	0.99747
3.302	92.493	-3.1162e+05	3120.8	0.071248	-0.19354	0.99718
3.304	92.479	-3.1162e+05	3120.4	0.07076	-0.19383	0.99689
3.306	92.467	-3.1162e+05	3119.9	0.070272	-0.19413	0.99659
3.308	92.462	-3.1163e+05	3119.5	0.069784	-0.19442	0.9963
3.31	92.388	-3.1163e+05	3119	0.069296	-0.19471	0.99601
3.312	92.33	-3.1164e+05	3118.6	0.069784	-0.195	0.99708
3.314	92.347	-3.1164e+05	3118.2	0.070272	-0.1953	0.99816
3.316	92.365	-3.1164e+05	3117.8	0.07076	-0.19559	0.99923
3.318	92.408	-3.1164e+05	3117.3	0.071248	-0.19588	1.0003
3.32	92.407	-3.1164e+05	3116.8	0.071736	-0.19618	1.0014
3.322	92.462	-3.1165e+05	3116.5	0.071638	-0.19657	1.0009
3.324	92.528	-3.1165e+05	3116.1	0.071541	-0.19696	1.0004
3.326	92.533	-3.1165e+05	3115.7	0.071443	-0.19735	0.99991
3.328	92.461	-3.1165e+05	3115.3	0.071346	-0.19774	0.99942
3.33	92.443	-3.1165e+05	3114.9	0.071248	-0.19813	0.99894
3.332	92.447	-3.1166e+05	3114.4	0.072224	-0.19735	0.99903
3.334	92.446	-3.1166e+05	3113.9	0.0732	-0.19657	0.99913
3.336	92.422	-3.1166e+05	3113.5	0.074176	-0.19579	0.99923
3.338	92.352	-3.1167e+05	3113.1	0.075152	-0.195	0.99933
3.34	92.334	-3.1167e+05	3112.8	0.076128	-0.19422	0.99942
3.342	92.454	-3.1167e+05	3112.4	0.076518	-0.19579	1.0014
3.344	92.549	-3.1167e+05	3112	0.076909	-0.19735	1.0033
3.346	92.528	-3.1168e+05	3111.6	0.077299	-0.19891	1.0053
3.348	92.494	-3.1168e+05	3111.2	0.07769	-0.20047	1.0072
3.35	92.472	-3.1168e+05	3110.8	0.07808	-0.20203	1.0092
3.352	92.45	-3.1169e+05	3110.5	0.077787	-0.20135	1.009
3.354	92.382	-3.1169e+05	3110.2	0.077494	-0.20067	1.0088
3.356	92.288	-3.1169e+05	3109.9	0.077202	-0.19998	1.0086
3.358	92.236	-3.1169e+05	3109.6	0.076909	-0.1993	1.0084
3.36	92.176	-3.1169e+05	3109.3	0.076616	-0.19862	1.0082
3.362	92.108	-3.117e+05	3109	0.076616	-0.19881	1.0075
3.364	92.034	-3.117e+05	3108.8	0.076616	-0.19901	1.0068
3.366	91.895	-3.117e+05	3108.5	0.076616	-0.1992	1.0062
3.368	91.69	-3.117e+05	3108.3	0.076616	-0.1994	1.0055
3.37	91.561	-3.1171e+05	3108	0.076616	-0.19959	1.0048
3.372	91.471	-3.1171e+05	3107.7	0.075542	-0.19988	1.0059
3.374	91.398	-3.1172e+05	3107.5	0.074469	-0.20018	1.0069
3.376	91.495	-3.1172e+05	3107.2	0.073395	-0.20047	1.008
3.378	91.813	-3.1173e+05	3107	0.072322	-0.20076	1.0091
3.38	92.128	-3.1173e+05	3106.7	0.071248	-0.20106	1.0102
3.382	92.385	-3.1172e+05	3106.4	0.070077	-0.20203	1.0097
3.384	92.471	-3.1172e+05	3106.1	0.068906	-0.20301	1.0092
3.386	92.437	-3.1173e+05	3105.9	0.067734	-0.20398	1.0087
3.388	92.402	-3.1174e+05	3105.5	0.066563	-0.20496	1.0082
3.39	92.379	-3.1174e+05	3105.2	0.065392	-0.20594	1.0077
3.392	92.353	-3.1173e+05	3104.9	0.066661	-0.20476	1.0081
3.394	92.334	-3.1174e+05	3104.6	0.06793	-0.20359	1.0085
3.396	92.327	-3.1175e+05	3104.2	0.069198	-0.20242	1.0089
3.398	92.425	-3.1175e+05	3103.9	0.070467	-0.20125	1.0093
3.4	92.457	-3.1175e+05	3103.5	0.071736	-0.20008	1.0097
3.402	92.432	-3.1175e+05	3103.1	0.071736	-0.1992	1.0101
3.404	92.353	-3.1176e+05	3102.7	0.071736	-0.19832	1.0105
3.406	92.459	-3.1176e+05	3102.3	0.071736	-0.19744	1.0108
3.408	92.496	-3.1177e+05	3101.9	0.071736	-0.19657	1.0112
3.41	92.448	-3.1177e+05	3101.5	0.071736	-0.19569	1.0116
3.412	92.478	-3.1176e+05	3101.1	0.071443	-0.19705	1.0112
3.414	92.509	-3.1177e+05	3100.8	0.07115	-0.19842	1.0108
3.416	92.478	-3.1178e+05	3100.4	0.070858	-0.19979	1.0105
3.418	92.464	-3.1178e+05	3100	0.070565	-0.20115	1.0101
3.42	92.448	-3.1178e+05	3099.7	0.070272	-0.20252	1.0097
3.422	92.469	-3.1178e+05	3099.2	0.071346	-0.20232	1.0094
3.424	92.469	-3.1178e+05	3098.8	0.072419	-0.20213	1.0091
3.426	92.418	-3.1179e+05	3098.4	0.073493	-0.20193	1.0088
3.428	92.408	-3.1181e+05	3098	0.074566	-0.20174	1.0085
3.43	92.425	-3.1181e+05	3097.6	0.07564	-0.20154	1.0082
3.432	92.45	-3.1181e+05	3097.2	0.075542	-0.20135	1.0082
3.434	92.472	-3.1181e+05	3096.8	0.075445	-0.20115	1.0082
3.436	92.458	-3.1181e+05	3096.3	0.075347	-0.20096	1.0082
3.438	92.437	-3.1181e+05	3095.8	0.07525	-0.20076	1.0082
3.44	92.41	-3.1182e+05	3095.4	0.075152	-0.20057	1.0082
3.442	92.39	-3.1183e+05	3094.9	0.07564	-0.20057	1.0073
3.444	92.439	-3.1183e+05	3094.5	0.076128	-0.20057	1.0065
3.446	92.515	-3.1183e+05	3094	0.076616	-0.20057	1.0056
3.448	92.537	-3.1182e+05	3093.5	0.077104	-0.20057	1.0047
3.45	92.489	-3.1183e+05	3093	0.077592	-0.20057	1.0038
3.452	92.413	-3.1184e+05	3092.6	0.077006	-0.20125	1.0029
3.454	92.369	-3.1184e+05	3092.2	0.076421	-0.20193	1.0021
3.456	92.36	-3.1184e+05	3091.7	0.075835	-0.20262	1.0012
3.458	92.389	-3.1184e+05	3091.3	0.07525	-0.2033	1.0003
3.46	92.472	-3.1183e+05	3090.8	0.074664	-0.20398	0.99942
3.462	92.478	-3.1184e+05	3090.4	0.073298	-0.20291	1
3.464	92.463	-3.1185e+05	3090	0.071931	-0.20184	1.0006
3.466	92.475	-3.1185e+05	3089.6	0.070565	-0.20076	1.0012
3.468	92.45	-3.1185e+05	3089.1	0.069198	-0.19969	1.0018
3.47	92.461	-3.1185e+05	3088.7	0.067832	-0.19862	1.0024
3.472	92.518	-3.1185e+05	3088.3	0.066954	-0.19881	1.0014
3.474	92.485	-3.1186e+05	3087.9	0.066075	-0.19901	1.0004
3.476	92.451	-3.1186e+05	3087.5	0.065197	-0.1992	0.99942
3.478	92.35	-3.1187e+05	3087	0.064318	-0.1994	0.99845
3.48	92.256	-3.1187e+05	3086.6	0.06344	-0.19959	0.99747
3.482	92.39	-3.1188e+05	3086.2	0.063342	-0.19988	0.99728
3.484	92.442	-3.1188e+05	3085.7	0.063245	-0.20018	0.99708
3.486	92.437	-3.1188e+05	3085.3	0.063147	-0.20047	0.99689
3.488	92.459	-3.1188e+05	3084.9	0.06305	-0.20076	0.99669
3.49	92.433	-3.1189e+05	3084.5	0.062952	-0.20106	0.9965
3.492	92.477	-3.119e+05	3084.2	0.063928	-0.20037	0.9962
3.494	92.521	-3.1189e+05	3083.8	0.064904	-0.19969	0.99591
3.496	92.494	-3.1188e+05	3083.5	0.06588	-0.19901	0.99562
3.498	92.474	-3.1189e+05	3083.1	0.066856	-0.19832	0.99532
3.5	92.466	-3.119e+05	3082.7	0.067832	-0.19764	0.99503
3.502	92.435	-3.119e+05	3082.4	0.066661	-0.19813	0.99552
3.504	92.359	-3.1191e+05	3082.1	0.06549	-0.19862	0.99601
3.506	92.342	-3.1192e+05	3081.8	0.064318	-0.1991	0.9965
3.508	92.416	-3.1192e+05	3081.5	0.063147	-0.19959	0.99698
3.51	92.489	-3.1192e+05	3081.2	0.061976	-0.20008	0.99747
3.512	92.486	-3.1191e+05	3080.9	0.062659	-0.19969	0.99796
3.514	92.443	-3.1192e+05	3080.6	0.063342	-0.1993	0.99845
3.516	92.426	-3.1192e+05	3080.4	0.064026	-0.19891	0.99894
3.518	92.435	-3.1193e+05	3080.3	0.064709	-0.19852	0.99942
3.52	92.462	-3.1194e+05	3080.1	0.065392	-0.19813	0.99991
3.522	92.459	-3.1194e+05	3080	0.06588	-0.19774	0.99923
3.524	92.414	-3.1194e+05	3079.9	0.066368	-0.19735	0.99855
3.526	92.39	-3.1194e+05	3079.8	0.066856	-0.19696	0.99786
3.528	92.412	-3.1194e+05	3079.8	0.067344	-0.19657	0.99718
3.53	92.428	-3.1196e+05	3079.7	0.067832	-0.19618	0.9965
3.532	92.388	-3.1197e+05	3079.9	0.067637	-0.19676	0.99669
3.534	92.37	-3.1198e+05	3080.1	0.067442	-0.19735	0.99689
3.536	92.431	-3.1199e+05	3080.5	0.067246	-0.19793	0.99708
3.538	92.5	-3.1199e+05	3081.1	0.067051	-0.19852	0.99728
3.54	92.46	-3.1199e+05	3081.7	0.066856	-0.1991	0.99747
3.542	92.402	-3.1199e+05	3082.8	0.067539	-0.19764	0.9965
3.544	92.389	-3.12e+05	3083.8	0.068222	-0.19618	0.99552
3.546	92.365	-3.12e+05	3085.2	0.068906	-0.19471	0.99454
3.548	92.36	-3.1201e+05	3086.8	0.069589	-0.19325	0.99357
3.55	92.38	-3.1201e+05	3088.4	0.070272	-0.19178	0.99259
3.552	92.373	-3.1201e+05	3090.5	0.071736	-0.19247	0.99113
3.554	92.371	-3.1201e+05	3092.7	0.0732	-0.19315	0.98966
3.556	92.356	-3.1201e+05	3095.1	0.074664	-0.19383	0.9882
3.558	92.342	-3.1202e+05	3097.9	0.076128	-0.19452	0.98674
3.56	92.296	-3.1202e+05	3100.6	0.077592	-0.1952	0.98527
3.562	92.269	-3.1202e+05	3103.6	0.079251	-0.1953	0.98596
3.564	92.346	-3.1202e+05	3106.7	0.08091	-0.1954	0.98664
3.566	92.33	-3.1202e+05	3109.8	0.08257	-0.19549	0.98732
3.568	92.25	-3.1202e+05	3112.8	0.084229	-0.19559	0.988
3.57	92.313	-3.1202e+05	3115.9	0.085888	-0.19569	0.98869
3.572	92.378	-3.1202e+05	3118.8	0.085693	-0.19627	0.98879
3.574	92.372	-3.1202e+05	3121.7	0.085498	-0.19686	0.98888
3.576	92.303	-3.1202e+05	3124.5	0.085302	-0.19744	0.98898
3.578	92.298	-3.1201e+05	3127.1	0.085107	-0.19803	0.98908
3.58	92.275	-3.12e+05	3129.8	0.084912	-0.19862	0.98918
3.582	92.248	-3.12e+05	3132.2	0.085595	-0.19744	0.98908
3.584	92.23	-3.12e+05	3134.6	0.086278	-0.19627	0.98898
3.586	92.199	-3.1201e+05	3136.9	0.086962	-0.1951	0.98888
3.588	92.24	-3.1201e+05	3139.1	0.087645	-0.19393	0.98879
3.59	92.244	-3.1201e+05	3141.2	0.088328	-0.19276	0.98869
3.592	92.211	-3.12e+05	3143.2	0.086278	-0.19471	0.99025
3.594	92.17	-3.12e+05	3145.2	0.084229	-0.19666	0.99181
3.596	92.16	-3.1201e+05	3147.1	0.082179	-0.19862	0.99337
3.598	92.213	-3.12e+05	3148.8	0.08013	-0.20057	0.99493
3.6	92.263	-3.12e+05	3150.6	0.07808	-0.20252	0.9965
3.602	92.279	-3.1198e+05	3152.2	0.077982	-0.20242	0.9965
3.604	92.248	-3.1197e+05	3153.7	0.077885	-0.20232	0.9965
3.606	92.183	-3.1196e+05	3155.1	0.077787	-0.20223	0.9965
3.608	92.148	-3.1196e+05	3156.4	0.07769	-0.20213	0.9965
3.61	92.179	-3.1196e+05	3157.7	0.077592	-0.20203	0.9965
3.612	92.237	-3.1196e+05	3158.9	0.07808	-0.20223	0.99689
3.614	92.255	-3.1194e+05	3160	0.078568	-0.20242	0.99728
3.616	92.212	-3.1193e+05	3161	0.079056	-0.20262	0.99767
3.618	92.176	-3.1193e+05	3161.9	0.079544	-0.20281	0.99806
3.62	92.194	-3.1193e+05	3162.7	0.080032	-0.20301	0.99845
3.622	92.186	-3.1192e+05	3163.5	0.079056	-0.20203	0.99864
3.624	92.153	-3.1191e+05	3164.3	0.07808	-0.20106	0.99884
3.626	92.138	-3.1191e+05	3165.1	0.077104	-0.20008	0.99903
3.628	92.134	-3.119e+05	3165.7	0.076128	-0.1991	0.99923
3.63	92.185	-3.1189e+05	3166.4	0.075152	-0.19813	0.99942
3.632	92.186	-3.1188e+05	3167	0.074762	-0.19774	0.99933
3.634	92.158	-3.1187e+05	3167.6	0.074371	-0.19735	0.99923
3.636	92.063	-3.1186e+05	3168.1	0.073981	-0.19696	0.99913
3.638	92.101	-3.1186e+05	3168.6	0.07359	-0.19657	0.99903
3.64	92.248	-3.1186e+05	3169.2	0.0732	-0.19618	0.99894
3.642	92.237	-3.1185e+05	3169.6	0.072517	-0.19579	0.99776
3.644	92.189	-3.1183e+05	3170	0.071834	-0.1954	0.99659
3.646	92.211	-3.1182e+05	3170.3	0.07115	-0.195	0.99542
3.648	92.371	-3.1181e+05	3170.6	0.070467	-0.19461	0.99425
3.65	92.365	-3.1181e+05	3170.9	0.069784	-0.19422	0.99308
3.652	92.276	-3.118e+05	3171.1	0.07037	-0.19403	0.99279
3.654	92.284	-3.1179e+05	3171.4	0.070955	-0.19383	0.99249
3.656	92.266	-3.1178e+05	3171.6	0.071541	-0.19364	0.9922
3.658	92.235	-3.1177e+05	3171.7	0.072126	-0.19344	0.99191
3.66	92.221	-3.1176e+05	3171.9	0.072712	-0.19325	0.99162
3.662	92.244	-3.1175e+05	3172.1	0.072712	-0.19344	0.99181
3.664	92.303	-3.1174e+05	3172.2	0.072712	-0.19364	0.99201
3.666	92.322	-3.1173e+05	3172.4	0.072712	-0.19383	0.9922
3.668	92.31	-3.1172e+05	3172.6	0.072712	-0.19403	0.9924
3.67	92.297	-3.1172e+05	3172.8	0.072712	-0.19422	0.99259
3.672	92.298	-3.1171e+05	3173	0.072126	-0.19432	0.99318
3.674	92.284	-3.117e+05	3173.2	0.071541	-0.19442	0.99376
3.676	92.26	-3.1169e+05	3173.3	0.070955	-0.19452	0.99435
3.678	92.286	-3.1168e+05	3173.5	0.07037	-0.19461	0.99493
3.68	92.351	-3.1167e+05	3173.6	0.069784	-0.19471	0.99552
3.682	92.352	-3.1165e+05	3173.7	0.071443	-0.1954	0.99669
3.684	92.297	-3.1164e+05	3173.8	0.073102	-0.19608	0.99786
3.686	92.277	-3.1164e+05	3173.9	0.074762	-0.19676	0.99903
3.688	92.302	-3.1163e+05	3173.9	0.076421	-0.19744	1.0002
3.69	92.314	-3.1162e+05	3173.9	0.07808	-0.19813	1.0014
3.692	92.299	-3.1161e+05	3174	0.077885	-0.1992	1.0008
3.694	92.291	-3.116e+05	3174	0.07769	-0.20028	1.0002
3.696	92.278	-3.116e+05	3174.1	0.077494	-0.20135	0.99962
3.698	92.246	-3.1159e+05	3174.1	0.077299	-0.20242	0.99903
3.7	92.256	-3.1158e+05	3174.1	0.077104	-0.2035	0.99845
3.702	92.323	-3.1157e+05	3174.1	0.07808	-0.2033	0.99933
3.704	92.377	-3.1156e+05	3174.1	0.079056	-0.20311	1.0002
3.706	92.352	-3.1155e+05	3174.1	0.080032	-0.20291	1.0011
3.708	92.281	-3.1154e+05	3174	0.081008	-0.20272	1.002
3.71	92.286	-3.1153e+05	3174	0.081984	-0.20252	1.0028
3.712	92.319	-3.1152e+05	3173.8	0.081886	-0.2033	1.0023
3.714	92.33	-3.1152e+05	3173.7	0.081789	-0.20408	1.0017
3.716	92.276	-3.1151e+05	3173.5	0.081691	-0.20486	1.0011
3.718	92.252	-3.115e+05	3173.4	0.081594	-0.20564	1.0005
3.72	92.301	-3.1149e+05	3173.2	0.081496	-0.20642	0.99991
3.722	92.357	-3.1148e+05	3173.1	0.081691	-0.20555	1.0006
3.724	92.343	-3.1148e+05	3172.9	0.081886	-0.20467	1.0013
3.726	92.281	-3.1147e+05	3172.7	0.082082	-0.20379	1.002
3.728	92.273	-3.1147e+05	3172.5	0.082277	-0.20291	1.0026
3.73	92.299	-3.1145e+05	3172.3	0.082472	-0.20203	1.0033
3.732	92.304	-3.1144e+05	3172.1	0.083253	-0.20154	1.0034
3.734	92.323	-3.1144e+05	3171.8	0.084034	-0.20106	1.0035
3.736	92.332	-3.1143e+05	3171.6	0.084814	-0.20057	1.0036
3.738	92.32	-3.1142e+05	3171.3	0.085595	-0.20008	1.0037
3.74	92.325	-3.1142e+05	3171.1	0.086376	-0.19959	1.0038
3.742	92.366	-3.1141e+05	3170.8	0.086864	-0.19881	1.0032
3.744	92.386	-3.114e+05	3170.4	0.087352	-0.19803	1.0026
3.746	92.347	-3.1139e+05	3170	0.08784	-0.19725	1.0021
3.748	92.303	-3.1139e+05	3169.6	0.088328	-0.19647	1.0015
3.75	92.313	-3.1138e+05	3169.1	0.088816	-0.19569	1.0009
3.752	92.325	-3.1137e+05	3168.6	0.08989	-0.19676	1.0017
3.754	92.344	-3.1136e+05	3168.2	0.090963	-0.19784	1.0024
3.756	92.34	-3.1135e+05	3167.6	0.092037	-0.19891	1.0032
3.758	92.321	-3.1135e+05	3167	0.09311	-0.19998	1.004
3.76	92.315	-3.1135e+05	3166.4	0.094184	-0.20106	1.0048
3.762	92.349	-3.1135e+05	3165.7	0.093989	-0.20067	1.0048
3.764	92.393	-3.1135e+05	3165	0.093794	-0.20028	1.0048
3.766	92.386	-3.1133e+05	3164.3	0.093598	-0.19988	1.0048
3.768	92.338	-3.1132e+05	3163.6	0.093403	-0.19949	1.0048
3.77	92.321	-3.1132e+05	3162.9	0.093208	-0.1991	1.0048
3.772	92.334	-3.1132e+05	3162.2	0.092427	-0.19852	1.0042
3.774	92.333	-3.1131e+05	3161.5	0.091646	-0.19793	1.0036
3.776	92.316	-3.1131e+05	3160.8	0.090866	-0.19735	1.003
3.778	92.292	-3.113e+05	3160.1	0.090085	-0.19676	1.0024
3.78	92.26	-3.113e+05	3159.4	0.089304	-0.19618	1.0019
3.782	92.258	-3.113e+05	3158.6	0.088035	-0.19618	1.0012
3.784	92.321	-3.113e+05	3157.9	0.086766	-0.19618	1.0005
3.786	92.39	-3.113e+05	3157.1	0.085498	-0.19618	0.99981
3.788	92.416	-3.1129e+05	3156.3	0.084229	-0.19618	0.99913
3.79	92.415	-3.1129e+05	3155.6	0.08296	-0.19618	0.99845
3.792	92.365	-3.1129e+05	3154.8	0.082472	-0.19715	0.99913
3.794	92.317	-3.1129e+05	3154.1	0.081984	-0.19813	0.99981
3.796	92.304	-3.1129e+05	3153.4	0.081496	-0.1991	1.0005
3.798	92.335	-3.1128e+05	3152.7	0.081008	-0.20008	1.0012
3.8	92.395	-3.1128e+05	3152.1	0.08052	-0.20106	1.0019
3.802	92.442	-3.1127e+05	3151.4	0.081594	-0.20018	1.0022
3.804	92.425	-3.1126e+05	3150.7	0.082667	-0.1993	1.0024
3.806	92.38	-3.1126e+05	3150	0.083741	-0.19842	1.0027
3.808	92.344	-3.1126e+05	3149.4	0.084814	-0.19754	1.003
3.81	92.314	-3.1127e+05	3148.7	0.085888	-0.19666	1.0033
3.812	92.305	-3.1127e+05	3148.2	0.085498	-0.19647	1.0033
3.814	92.364	-3.1127e+05	3147.7	0.085107	-0.19627	1.0033
3.816	92.375	-3.1127e+05	3147.2	0.084717	-0.19608	1.0033
3.818	92.342	-3.1127e+05	3146.7	0.084326	-0.19588	1.0033
3.82	92.288	-3.1127e+05	3146.2	0.083936	-0.19569	1.0033
3.822	92.332	-3.1126e+05	3145.8	0.082472	-0.1953	1.0042
3.824	92.42	-3.1126e+05	3145.3	0.081008	-0.19491	1.0051
3.826	92.402	-3.1126e+05	3144.9	0.079544	-0.19452	1.006
3.828	92.36	-3.1126e+05	3144.5	0.07808	-0.19413	1.0068
3.83	92.363	-3.1127e+05	3144.1	0.076616	-0.19374	1.0077
3.832	92.311	-3.1127e+05	3143.8	0.077006	-0.195	1.0078
3.834	92.327	-3.1127e+05	3143.4	0.077397	-0.19627	1.0079
3.836	92.389	-3.1127e+05	3143.1	0.077787	-0.19754	1.008
3.838	92.386	-3.1127e+05	3142.8	0.078178	-0.19881	1.0081
3.84	92.315	-3.1127e+05	3142.5	0.078568	-0.20008	1.0082
3.842	92.296	-3.1127e+05	3142.2	0.078958	-0.19979	1.0079
3.844	92.385	-3.1126e+05	3141.9	0.079349	-0.19949	1.0076
3.846	92.452	-3.1126e+05	3141.7	0.079739	-0.1992	1.0073
3.848	92.423	-3.1126e+05	3141.5	0.08013	-0.19891	1.007
3.85	92.371	-3.1126e+05	3141.3	0.08052	-0.19862	1.0067
3.852	92.334	-3.1126e+05	3141.1	0.079934	-0.1994	1.0052
3.854	92.3	-3.1126e+05	3140.9	0.079349	-0.20018	1.0036
3.856	92.292	-3.1127e+05	3140.8	0.078763	-0.20096	1.0021
3.858	92.318	-3.1127e+05	3140.6	0.078178	-0.20174	1.0005
3.86	92.358	-3.1128e+05	3140.4	0.077592	-0.20252	0.99894
3.862	92.414	-3.1128e+05	3140.3	0.075738	-0.20115	0.99796
3.864	92.47	-3.1129e+05	3140.1	0.073883	-0.19979	0.99698
3.866	92.461	-3.1129e+05	3140	0.072029	-0.19842	0.99601
3.868	92.402	-3.1129e+05	3139.8	0.070174	-0.19705	0.99503
3.87	92.35	-3.1128e+05	3139.7	0.06832	-0.19569	0.99406
3.872	92.291	-3.1127e+05	3139.5	0.069394	-0.19696	0.99406
3.874	92.249	-3.1128e+05	3139.3	0.070467	-0.19823	0.99406
3.876	92.273	-3.1128e+05	3139.2	0.071541	-0.19949	0.99406
3.878	92.36	-3.1129e+05	3139	0.072614	-0.20076	0.99406
3.88	92.407	-3.1129e+05	3138.8	0.073688	-0.20203	0.99406
3.882	92.369	-3.1129e+05	3138.6	0.073102	-0.20242	0.99415
3.884	92.306	-3.113e+05	3138.3	0.072517	-0.20281	0.99425
3.886	92.261	-3.1129e+05	3138.1	0.071931	-0.2032	0.99435
3.888	92.327	-3.1129e+05	3137.9	0.071346	-0.20359	0.99445
3.89	92.414	-3.1129e+05	3137.6	0.07076	-0.20398	0.99454
3.892	92.458	-3.1128e+05	3137.4	0.070565	-0.20437	0.99484
3.894	92.509	-3.1129e+05	3137.1	0.07037	-0.20476	0.99513
3.896	92.398	-3.113e+05	3136.9	0.070174	-0.20516	0.99542
3.898	92.304	-3.113e+05	3136.6	0.069979	-0.20555	0.99572
3.9	92.324	-3.113e+05	3136.4	0.069784	-0.20594	0.99601
3.902	92.396	-3.113e+05	3136.1	0.070174	-0.20555	0.99552
3.904	92.399	-3.113e+05	3135.8	0.070565	-0.20516	0.99503
3.906	92.33	-3.1131e+05	3135.6	0.070955	-0.20476	0.99454
3.908	92.32	-3.1131e+05	3135.3	0.071346	-0.20437	0.99406
3.91	92.345	-3.1131e+05	3135	0.071736	-0.20398	0.99357
3.912	92.359	-3.1131e+05	3134.7	0.071541	-0.20447	0.99328
3.914	92.316	-3.1131e+05	3134.4	0.071346	-0.20496	0.99298
3.916	92.363	-3.1131e+05	3134.1	0.07115	-0.20545	0.99269
3.918	92.38	-3.1131e+05	3133.8	0.070955	-0.20594	0.9924
3.92	92.37	-3.1132e+05	3133.5	0.07076	-0.20642	0.9921
3.922	92.353	-3.1132e+05	3133.2	0.07037	-0.20603	0.99318
3.924	92.324	-3.1132e+05	3132.8	0.069979	-0.20564	0.99425
3.926	92.306	-3.1132e+05	3132.5	0.069589	-0.20525	0.99532
3.928	92.327	-3.1132e+05	3132.2	0.069198	-0.20486	0.9964
3.93	92.358	-3.1132e+05	3131.8	0.068808	-0.20447	0.99747
3.932	92.313	-3.1133e+05	3131.4	0.068222	-0.20613	0.99776
3.934	92.3	-3.1133e+05	3131	0.067637	-0.20779	0.99806
3.936	92.271	-3.1133e+05	3130.7	0.067051	-0.20945	0.99835
3.938	92.224	-3.1133e+05	3130.4	0.066466	-0.21111	0.99864
3.94	92.226	-3.1133e+05	3130	0.06588	-0.21277	0.99894
3.942	92.31	-3.1133e+05	3129.7	0.066758	-0.21121	0.99825
3.944	92.36	-3.1134e+05	3129.3	0.067637	-0.20964	0.99757
3.946	92.323	-3.1134e+05	3129	0.068515	-0.20808	0.99689
3.948	92.268	-3.1134e+05	3128.6	0.069394	-0.20652	0.9962
3.95	92.243	-3.1133e+05	3128.2	0.070272	-0.20496	0.99552
3.952	92.278	-3.1132e+05	3127.8	0.069686	-0.20662	0.99572
3.954	92.31	-3.1133e+05	3127.4	0.069101	-0.20828	0.99591
3.956	92.26	-3.1134e+05	3127.1	0.068515	-0.20994	0.99611
3.958	92.178	-3.1134e+05	3126.7	0.06793	-0.2116	0.9963
3.96	92.157	-3.1134e+05	3126.3	0.067344	-0.21326	0.9965
3.962	92.268	-3.1134e+05	3125.9	0.067734	-0.21208	0.9962
3.964	92.437	-3.1135e+05	3125.5	0.068125	-0.21091	0.99591
3.966	92.486	-3.1135e+05	3125.1	0.068515	-0.20974	0.99562
3.968	92.41	-3.1135e+05	3124.7	0.068906	-0.20857	0.99532
3.97	92.32	-3.1135e+05	3124.2	0.069296	-0.2074	0.99503
3.972	92.305	-3.1134e+05	3123.9	0.068808	-0.20779	0.99601
3.974	92.375	-3.1136e+05	3123.5	0.06832	-0.20818	0.99698
3.976	92.399	-3.1137e+05	3123.1	0.067832	-0.20857	0.99796
3.978	92.38	-3.1137e+05	3122.7	0.067344	-0.20896	0.99894
3.98	92.389	-3.1136e+05	3122.4	0.066856	-0.20935	0.99991
3.982	92.412	-3.1137e+05	3121.9	0.06871	-0.20818	1.0003
3.984	92.435	-3.1137e+05	3121.5	0.070565	-0.20701	1.0007
3.986	92.485	-3.1138e+05	3121.1	0.072419	-0.20584	1.0011
3.988	92.471	-3.1138e+05	3120.8	0.074274	-0.20467	1.0015
3.99	92.388	-3.1139e+05	3120.4	0.076128	-0.2035	1.0019
3.992	92.302	-3.1139e+05	3120	0.077104	-0.20447	1.0022
3.994	92.291	-3.1138e+05	3119.7	0.07808	-0.20545	1.0024
3.996	92.312	-3.1138e+05	3119.3	0.079056	-0.20642	1.0027
3.998	92.358	-3.1139e+05	3118.9	0.080032	-0.2074	1.003
4	92.422	-3.1139e+05	3118.5	0.081008	-0.20838	1.0033
4.002	92.437	-3.1139e+05	3118.1	0.081984	-0.20779	1.0031
4.004	92.419	-3.114e+05	3117.8	0.08296	-0.2072	1.0029
4.006	92.383	-3.1139e+05	3117.4	0.083936	-0.20662	1.0027
4.008	92.391	-3.1139e+05	3117	0.084912	-0.20603	1.0025
4.01	92.368	-3.114e+05	3116.6	0.085888	-0.20545	1.0024
4.012	92.328	-3.1141e+05	3116.2	0.085693	-0.20594	1.0024
4.014	92.336	-3.1141e+05	3115.8	0.085498	-0.20642	1.0024
4.016	92.373	-3.1141e+05	3115.5	0.085302	-0.20691	1.0024
4.018	92.417	-3.1141e+05	3115.2	0.085107	-0.2074	1.0024
4.02	92.43	-3.1141e+05	3114.8	0.084912	-0.20789	1.0024
4.022	92.369	-3.1142e+05	3114.5	0.085595	-0.20633	1.0031
4.024	92.335	-3.1142e+05	3114.1	0.086278	-0.20476	1.0039
4.026	92.391	-3.1142e+05	3113.7	0.086962	-0.2032	1.0047
4.028	92.46	-3.1142e+05	3113.4	0.087645	-0.20164	1.0055
4.03	92.445	-3.1142e+05	3113.1	0.088328	-0.20008	1.0063
4.032	92.384	-3.1142e+05	3112.8	0.087742	-0.20047	1.0063
4.034	92.333	-3.1142e+05	3112.4	0.087157	-0.20086	1.0063
4.036	92.322	-3.1142e+05	3112.1	0.086571	-0.20125	1.0063
4.038	92.363	-3.1143e+05	3111.8	0.085986	-0.20164	1.0063
4.04	92.41	-3.1145e+05	3111.5	0.0854	-0.20203	1.0063
4.042	92.439	-3.1145e+05	3111.1	0.086083	-0.20125	1.006
4.044	92.435	-3.1145e+05	3110.8	0.086766	-0.20047	1.0057
4.046	92.416	-3.1146e+05	3110.4	0.08745	-0.19969	1.0054
4.048	92.451	-3.1146e+05	3110.1	0.088133	-0.19891	1.0051
4.05	92.443	-3.1146e+05	3109.7	0.088816	-0.19813	1.0048
4.052	92.341	-3.1146e+05	3109.4	0.089304	-0.19852	1.0049
4.054	92.294	-3.1145e+05	3109.1	0.089792	-0.19891	1.005
4.056	92.363	-3.1145e+05	3108.8	0.09028	-0.1993	1.0051
4.058	92.428	-3.1146e+05	3108.6	0.090768	-0.19969	1.0052
4.06	92.446	-3.1147e+05	3108.3	0.091256	-0.20008	1.0053
4.062	92.509	-3.1147e+05	3108	0.090378	-0.20028	1.004
4.064	92.515	-3.1147e+05	3107.7	0.089499	-0.20047	1.0027
4.066	92.464	-3.1147e+05	3107.5	0.088621	-0.20067	1.0015
4.068	92.427	-3.1148e+05	3107.2	0.087742	-0.20086	1.0002
4.07	92.412	-3.1148e+05	3106.9	0.086864	-0.20106	0.99894
4.072	92.335	-3.1149e+05	3106.7	0.086181	-0.20203	0.99767
4.074	92.241	-3.1149e+05	3106.5	0.085498	-0.20301	0.9964
4.076	92.212	-3.1149e+05	3106.3	0.084814	-0.20398	0.99513
4.078	92.117	-3.115e+05	3106.1	0.084131	-0.20496	0.99386
4.08	91.932	-3.115e+05	3105.9	0.083448	-0.20594	0.99259
4.082	91.79	-3.1151e+05	3105.6	0.083448	-0.20545	0.99357
4.084	91.779	-3.1151e+05	3105.2	0.083448	-0.20496	0.99454
4.086	91.617	-3.1151e+05	3104.9	0.083448	-0.20447	0.99552
4.088	91.473	-3.1151e+05	3104.5	0.083448	-0.20398	0.9965
4.09	91.444	-3.1151e+05	3104.1	0.083448	-0.2035	0.99747
4.092	91.456	-3.1151e+05	3104	0.084326	-0.20193	0.99591
4.094	91.529	-3.1151e+05	3103.8	0.085205	-0.20037	0.99435
4.096	91.713	-3.1151e+05	3103.6	0.086083	-0.19881	0.99279
4.098	91.939	-3.1152e+05	3103.4	0.086962	-0.19725	0.99123
4.1	92.123	-3.1153e+05	3103.2	0.08784	-0.19569	0.98966
4.102	92.242	-3.1153e+05	3103	0.08784	-0.19588	0.98888
4.104	92.248	-3.1152e+05	3102.7	0.08784	-0.19608	0.9881
4.106	92.259	-3.1153e+05	3102.5	0.08784	-0.19627	0.98732
4.108	92.328	-3.1153e+05	3102.2	0.08784	-0.19647	0.98654
4.11	92.367	-3.1154e+05	3101.9	0.08784	-0.19666	0.98576
4.112	92.365	-3.1154e+05	3101.6	0.086571	-0.19705	0.98527
4.114	92.362	-3.1154e+05	3101.3	0.085302	-0.19744	0.98478
4.116	92.359	-3.1155e+05	3101	0.084034	-0.19784	0.9843
4.118	92.358	-3.1155e+05	3100.7	0.082765	-0.19823	0.98381
4.12	92.381	-3.1155e+05	3100.4	0.081496	-0.19862	0.98332
4.122	92.389	-3.1155e+05	3100	0.083155	-0.19813	0.9841
4.124	92.362	-3.1155e+05	3099.7	0.084814	-0.19764	0.98488
4.126	92.373	-3.1155e+05	3099.3	0.086474	-0.19715	0.98566
4.128	92.413	-3.1156e+05	3098.9	0.088133	-0.19666	0.98644
4.13	92.406	-3.1156e+05	3098.5	0.089792	-0.19618	0.98722
4.132	92.376	-3.1157e+05	3098.1	0.089792	-0.19676	0.98771
4.134	92.363	-3.1157e+05	3097.8	0.089792	-0.19735	0.9882
4.136	92.389	-3.1157e+05	3097.4	0.089792	-0.19793	0.98869
4.138	92.437	-3.1157e+05	3097	0.089792	-0.19852	0.98918
4.14	92.414	-3.1156e+05	3096.6	0.089792	-0.1991	0.98966
4.142	92.344	-3.1157e+05	3096.1	0.089011	-0.1992	0.99025
4.144	92.351	-3.1159e+05	3095.7	0.08823	-0.1993	0.99084
4.146	92.425	-3.1159e+05	3095.2	0.08745	-0.1994	0.99142
4.148	92.477	-3.1159e+05	3094.7	0.086669	-0.19949	0.99201
4.15	92.42	-3.1159e+05	3094.2	0.085888	-0.19959	0.99259
4.152	92.421	-3.116e+05	3093.7	0.084229	-0.20125	0.99064
4.154	92.444	-3.116e+05	3093.3	0.08257	-0.20291	0.98869
4.156	92.4	-3.1159e+05	3092.8	0.08091	-0.20457	0.98674
4.158	92.347	-3.116e+05	3092.3	0.079251	-0.20623	0.98478
4.16	92.317	-3.116e+05	3091.8	0.077592	-0.20789	0.98283
4.162	92.345	-3.116e+05	3091.3	0.076909	-0.20711	0.98283
4.164	92.435	-3.1161e+05	3090.8	0.076226	-0.20633	0.98283
4.166	92.463	-3.1162e+05	3090.3	0.075542	-0.20555	0.98283
4.168	92.462	-3.1162e+05	3089.8	0.074859	-0.20476	0.98283
4.17	92.448	-3.1163e+05	3089.2	0.074176	-0.20398	0.98283
4.172	92.408	-3.1163e+05	3088.7	0.075347	-0.20467	0.98293
4.174	92.379	-3.1163e+05	3088.1	0.076518	-0.20535	0.98303
4.176	92.412	-3.1163e+05	3087.6	0.07769	-0.20603	0.98312
4.178	92.435	-3.1163e+05	3087.1	0.078861	-0.20672	0.98322
4.18	92.423	-3.1164e+05	3086.6	0.080032	-0.2074	0.98332
4.182	92.397	-3.1164e+05	3086	0.08052	-0.20691	0.98488
4.184	92.37	-3.1164e+05	3085.5	0.081008	-0.20642	0.98644
4.186	92.396	-3.1165e+05	3085	0.081496	-0.20594	0.988
4.188	92.453	-3.1166e+05	3084.5	0.081984	-0.20545	0.98957
4.19	92.439	-3.1166e+05	3084	0.082472	-0.20496	0.99113
4.192	92.4	-3.1166e+05	3083.5	0.08257	-0.20574	0.99064
4.194	92.399	-3.1166e+05	3082.9	0.082667	-0.20652	0.99015
4.196	92.383	-3.1166e+05	3082.4	0.082765	-0.2073	0.98966
4.198	92.353	-3.1166e+05	3081.9	0.082862	-0.20808	0.98918
4.2	92.38	-3.1167e+05	3081.4	0.08296	-0.20886	0.98869
4.202	92.429	-3.1167e+05	3080.9	0.081398	-0.2072	0.99113
4.204	92.436	-3.1167e+05	3080.4	0.079837	-0.20555	0.99357
4.206	92.416	-3.1168e+05	3080	0.078275	-0.20389	0.99601
4.208	92.386	-3.1169e+05	3079.5	0.076714	-0.20223	0.99845
4.21	92.371	-3.1169e+05	3079	0.075152	-0.20057	1.0009
4.212	92.429	-3.1169e+05	3078.6	0.076323	-0.20154	1.0011
4.214	92.492	-3.117e+05	3078.2	0.077494	-0.20252	1.0013
4.216	92.446	-3.1171e+05	3077.8	0.078666	-0.2035	1.0015
4.218	92.381	-3.1171e+05	3077.4	0.079837	-0.20447	1.0017
4.22	92.374	-3.1171e+05	3077.1	0.081008	-0.20545	1.0019
4.222	92.399	-3.1171e+05	3076.7	0.080325	-0.20496	1.0025
4.224	92.394	-3.1171e+05	3076.4	0.079642	-0.20447	1.0032
4.226	92.361	-3.1171e+05	3076.1	0.078958	-0.20398	1.0039
4.228	92.373	-3.1171e+05	3075.8	0.078275	-0.2035	1.0046
4.23	92.392	-3.1172e+05	3075.5	0.077592	-0.20301	1.0053
4.232	92.38	-3.1172e+05	3075.3	0.077592	-0.20389	1.0055
4.234	92.431	-3.1172e+05	3075.1	0.077592	-0.20476	1.0057
4.236	92.405	-3.1172e+05	3074.9	0.077592	-0.20564	1.0059
4.238	92.339	-3.1173e+05	3074.7	0.077592	-0.20652	1.0061
4.24	92.297	-3.1174e+05	3074.6	0.077592	-0.2074	1.0063
4.242	92.316	-3.1174e+05	3074.5	0.075542	-0.20691	1.0078
4.244	92.341	-3.1174e+05	3074.4	0.073493	-0.20642	1.0094
4.246	92.356	-3.1174e+05	3074.4	0.071443	-0.20594	1.0109
4.248	92.407	-3.1175e+05	3074.4	0.069394	-0.20545	1.0125
4.25	92.435	-3.1176e+05	3074.5	0.067344	-0.20496	1.0141
4.252	92.461	-3.1177e+05	3074.8	0.067832	-0.20545	1.0126
4.254	92.439	-3.1177e+05	3075.1	0.06832	-0.20594	1.0111
4.256	92.358	-3.1177e+05	3075.6	0.068808	-0.20642	1.0097
