t	ekg	optical	pressure	accel_x	accel_y	accel_z
0	127	-3.1488e+05	2971.8	0.083936	-0.31427	0.97942
0.002	126.99	-3.1489e+05	2971.6	0.085205	-0.31427	0.97903
0.004	126.95	-3.1489e+05	2971.4	0.086474	-0.31427	0.97864
0.006	126.89	-3.1489e+05	2971.1	0.087742	-0.31427	0.97824
0.008	126.91	-3.1489e+05	2970.9	0.089011	-0.31427	0.97785
0.01	126.98	-3.1489e+05	2970.7	0.09028	-0.31427	0.97746
0.012	127	-3.1489e+05	2970.6	0.091354	-0.31593	0.97737
0.014	126.91	-3.1489e+05	2970.5	0.092427	-0.31759	0.97727
0.016	126.88	-3.1489e+05	2970.5	0.093501	-0.31925	0.97717
0.018	126.91	-3.1489e+05	2970.4	0.094574	-0.32091	0.97707
0.02	126.92	-3.1489e+05	2970.4	0.095648	-0.32257	0.97698
0.022	126.9	-3.1489e+05	2970.3	0.09477	-0.3211	0.97698
0.024	126.9	-3.1489e+05	2970.3	0.093891	-0.31964	0.97698
0.026	126.95	-3.1489e+05	2970.2	0.093013	-0.31818	0.97698
0.028	126.95	-3.1489e+05	2970.2	0.092134	-0.31671	0.97698
0.03	126.99	-3.1489e+05	2970.1	0.091256	-0.31525	0.97698
0.032	127	-3.1488e+05	2970.1	0.091354	-0.31496	0.97668
0.034	126.97	-3.1488e+05	2970.1	0.091451	-0.31466	0.97639
0.036	126.91	-3.1488e+05	2970	0.091549	-0.31437	0.9761
0.038	126.88	-3.1488e+05	2970	0.091646	-0.31408	0.9758
0.04	126.91	-3.1487e+05	2969.9	0.091744	-0.31378	0.97551
0.042	126.95	-3.1488e+05	2969.9	0.092818	-0.31486	0.97473
0.044	126.93	-3.1488e+05	2969.8	0.093891	-0.31593	0.97395
0.046	126.93	-3.1488e+05	2969.8	0.094965	-0.317	0.97317
0.048	126.97	-3.1488e+05	2969.8	0.096038	-0.31808	0.97239
0.05	126.96	-3.1488e+05	2969.7	0.097112	-0.31915	0.97161
0.052	126.98	-3.1488e+05	2969.6	0.097795	-0.31808	0.9718
0.054	126.98	-3.1488e+05	2969.5	0.098478	-0.317	0.972
0.056	126.99	-3.1488e+05	2969.4	0.099162	-0.31593	0.97219
0.058	127.01	-3.1488e+05	2969.3	0.099845	-0.31486	0.97239
0.06	126.97	-3.1488e+05	2969.2	0.10053	-0.31378	0.97258
0.062	126.91	-3.1488e+05	2969	0.10072	-0.31447	0.97288
0.064	126.87	-3.1488e+05	2968.8	0.10092	-0.31515	0.97317
0.066	126.87	-3.1488e+05	2968.6	0.10111	-0.31583	0.97346
0.068	126.91	-3.1487e+05	2968.4	0.10131	-0.31652	0.97376
0.07	126.93	-3.1488e+05	2968.1	0.1015	-0.3172	0.97405
0.072	126.95	-3.1489e+05	2967.9	0.099259	-0.317	0.97297
0.074	126.96	-3.1489e+05	2967.6	0.097014	-0.31681	0.9719
0.076	126.95	-3.1489e+05	2967.3	0.09477	-0.31661	0.97083
0.078	126.92	-3.1489e+05	2967.1	0.092525	-0.31642	0.96975
0.08	126.9	-3.1488e+05	2966.8	0.09028	-0.31622	0.96868
0.082	126.88	-3.1488e+05	2966.5	0.090768	-0.31613	0.96848
0.084	126.87	-3.1488e+05	2966.3	0.091256	-0.31603	0.96829
0.086	126.88	-3.1488e+05	2966	0.091744	-0.31593	0.96809
0.088	126.92	-3.1488e+05	2965.7	0.092232	-0.31583	0.9679
0.09	126.94	-3.1488e+05	2965.3	0.09272	-0.31574	0.9677
0.092	126.94	-3.1489e+05	2965	0.092037	-0.31447	0.9677
0.094	126.93	-3.149e+05	2964.7	0.091354	-0.3132	0.9677
0.096	126.86	-3.149e+05	2964.4	0.09067	-0.31193	0.9677
0.098	126.85	-3.149e+05	2964	0.089987	-0.31066	0.9677
0.1	126.91	-3.1489e+05	2963.7	0.089304	-0.30939	0.9677
0.102	126.9	-3.1489e+05	2963.3	0.090085	-0.31037	0.96614
0.104	126.85	-3.1489e+05	2962.9	0.090866	-0.31134	0.96458
0.106	126.82	-3.149e+05	2962.5	0.091646	-0.31232	0.96302
0.108	126.84	-3.1491e+05	2962.1	0.092427	-0.3133	0.96146
0.11	126.88	-3.149e+05	2961.7	0.093208	-0.31427	0.9599
0.112	126.89	-3.1489e+05	2961.3	0.093989	-0.31456	0.95882
0.114	126.83	-3.1491e+05	2960.8	0.09477	-0.31486	0.95775
0.116	126.84	-3.1492e+05	2960.3	0.09555	-0.31515	0.95668
0.118	126.98	-3.1492e+05	2959.9	0.096331	-0.31544	0.9556
0.12	126.92	-3.1492e+05	2959.5	0.097112	-0.31574	0.95453
0.122	126.89	-3.1491e+05	2959	0.095746	-0.31525	0.95453
0.124	126.95	-3.149e+05	2958.5	0.094379	-0.31476	0.95453
0.126	126.93	-3.1491e+05	2958	0.093013	-0.31427	0.95453
0.128	126.87	-3.1491e+05	2957.6	0.091646	-0.31378	0.95453
0.13	126.9	-3.1491e+05	2957.2	0.09028	-0.3133	0.95453
0.132	126.97	-3.1492e+05	2956.7	0.088621	-0.3131	0.95638
0.134	126.98	-3.1491e+05	2956.3	0.086962	-0.31291	0.95824
0.136	126.94	-3.149e+05	2955.8	0.085302	-0.31271	0.96009
0.138	126.93	-3.1491e+05	2955.3	0.083643	-0.31252	0.96195
0.14	126.96	-3.1491e+05	2954.8	0.081984	-0.31232	0.9638
0.142	126.95	-3.1492e+05	2954.3	0.082667	-0.31193	0.9637
0.144	126.92	-3.1492e+05	2953.8	0.08335	-0.31154	0.9636
0.146	126.94	-3.1492e+05	2953.3	0.084034	-0.31115	0.96351
0.148	126.95	-3.1492e+05	2952.9	0.084717	-0.31076	0.96341
0.15	126.94	-3.1492e+05	2952.4	0.0854	-0.31037	0.96331
0.152	126.94	-3.1492e+05	2951.9	0.084424	-0.31105	0.96351
0.154	126.94	-3.1491e+05	2951.5	0.083448	-0.31173	0.9637
0.156	126.93	-3.1491e+05	2951	0.082472	-0.31242	0.9639
0.158	126.94	-3.149e+05	2950.6	0.081496	-0.3131	0.96409
0.16	126.97	-3.149e+05	2950.2	0.08052	-0.31378	0.96429
0.162	127	-3.1491e+05	2949.7	0.081496	-0.31242	0.96448
0.164	127	-3.1492e+05	2949.2	0.082472	-0.31105	0.96468
0.166	126.97	-3.1492e+05	2948.7	0.083448	-0.30968	0.96487
0.168	126.93	-3.1491e+05	2948.2	0.084424	-0.30832	0.96507
0.17	126.89	-3.1491e+05	2947.7	0.0854	-0.30695	0.96526
0.172	126.87	-3.1491e+05	2947.2	0.084034	-0.30812	0.96478
0.174	126.94	-3.1491e+05	2946.7	0.082667	-0.30929	0.96429
0.176	127	-3.149e+05	2946.2	0.081301	-0.31047	0.9638
0.178	126.97	-3.1491e+05	2945.7	0.079934	-0.31164	0.96331
0.18	126.95	-3.1492e+05	2945.3	0.078568	-0.31281	0.96282
0.182	126.99	-3.1492e+05	2944.8	0.080422	-0.31173	0.96487
0.184	126.99	-3.1492e+05	2944.3	0.082277	-0.31066	0.96692
0.186	126.95	-3.1492e+05	2943.8	0.084131	-0.30959	0.96897
0.188	126.94	-3.1493e+05	2943.3	0.085986	-0.30851	0.97102
0.19	126.95	-3.1493e+05	2942.8	0.08784	-0.30744	0.97307
0.192	126.95	-3.1493e+05	2942.4	0.08823	-0.30656	0.972
0.194	126.96	-3.1493e+05	2942	0.088621	-0.30568	0.97092
0.196	126.94	-3.1493e+05	2941.6	0.089011	-0.3048	0.96985
0.198	126.94	-3.1493e+05	2941.2	0.089402	-0.30393	0.96878
0.2	126.96	-3.1493e+05	2940.8	0.089792	-0.30305	0.9677
0.202	126.93	-3.1493e+05	2940.5	0.089597	-0.30354	0.96848
0.204	126.98	-3.1493e+05	2940.1	0.089402	-0.30402	0.96927
0.206	126.98	-3.1493e+05	2939.8	0.089206	-0.30451	0.97005
0.208	126.93	-3.1494e+05	2939.4	0.089011	-0.305	0.97083
0.21	126.99	-3.1494e+05	2939.1	0.088816	-0.30549	0.97161
0.212	127	-3.1494e+05	2938.7	0.089109	-0.30607	0.97268
0.214	126.9	-3.1494e+05	2938.2	0.089402	-0.30666	0.97376
0.216	126.91	-3.1494e+05	2937.8	0.089694	-0.30724	0.97483
0.218	126.96	-3.1494e+05	2937.4	0.089987	-0.30783	0.9759
0.22	126.97	-3.1493e+05	2937	0.09028	-0.30842	0.97698
0.222	126.97	-3.1493e+05	2936.6	0.090768	-0.30871	0.97727
0.224	126.89	-3.1493e+05	2936.2	0.091256	-0.309	0.97756
0.226	126.89	-3.1494e+05	2935.8	0.091744	-0.30929	0.97785
0.228	126.94	-3.1495e+05	2935.4	0.092232	-0.30959	0.97815
0.23	126.99	-3.1495e+05	2935	0.09272	-0.30988	0.97844
0.232	127.05	-3.1495e+05	2934.6	0.092427	-0.3089	0.97932
0.234	127.01	-3.1495e+05	2934.3	0.092134	-0.30793	0.9802
0.236	126.91	-3.1495e+05	2933.9	0.091842	-0.30695	0.98108
0.238	126.82	-3.1495e+05	2933.6	0.091549	-0.30598	0.98195
0.24	126.74	-3.1496e+05	2933.2	0.091256	-0.305	0.98283
0.242	126.66	-3.1495e+05	2933	0.090963	-0.3049	0.98264
0.244	126.54	-3.1495e+05	2932.7	0.09067	-0.3048	0.98244
0.246	126.37	-3.1495e+05	2932.5	0.090378	-0.30471	0.98225
0.248	126.26	-3.1495e+05	2932.2	0.090085	-0.30461	0.98205
0.25	126.18	-3.1495e+05	2931.9	0.089792	-0.30451	0.98186
0.252	126.12	-3.1495e+05	2931.7	0.090085	-0.30412	0.98049
0.254	126.11	-3.1496e+05	2931.4	0.090378	-0.30373	0.97912
0.256	126.17	-3.1497e+05	2931.1	0.09067	-0.30334	0.97776
0.258	126.32	-3.1497e+05	2930.8	0.090963	-0.30295	0.97639
0.26	126.49	-3.1497e+05	2930.6	0.091256	-0.30256	0.97502
0.262	126.66	-3.1497e+05	2930.3	0.091256	-0.30236	0.97512
0.264	126.8	-3.1497e+05	2930.1	0.091256	-0.30217	0.97522
0.266	126.83	-3.1498e+05	2929.9	0.091256	-0.30197	0.97532
0.268	126.81	-3.1498e+05	2929.7	0.091256	-0.30178	0.97541
0.27	126.75	-3.1498e+05	2929.4	0.091256	-0.30158	0.97551
0.272	126.74	-3.1498e+05	2929.2	0.090768	-0.30256	0.97649
0.274	126.89	-3.1498e+05	2929	0.09028	-0.30354	0.97746
0.276	127.03	-3.1498e+05	2928.7	0.089792	-0.30451	0.97844
0.278	126.98	-3.1498e+05	2928.5	0.089304	-0.30549	0.97942
0.28	126.96	-3.1498e+05	2928.3	0.088816	-0.30646	0.98039
0.282	126.99	-3.1498e+05	2927.9	0.088914	-0.30568	0.97981
0.284	126.97	-3.1498e+05	2927.6	0.089011	-0.3049	0.97922
0.286	126.96	-3.1498e+05	2927.3	0.089109	-0.30412	0.97864
0.288	126.95	-3.1498e+05	2927	0.089206	-0.30334	0.97805
0.29	126.95	-3.1498e+05	2926.8	0.089304	-0.30256	0.97746
0.292	126.98	-3.1498e+05	2926.4	0.089987	-0.30276	0.97678
0.294	126.93	-3.1499e+05	2926.1	0.09067	-0.30295	0.9761
0.296	126.93	-3.1499e+05	2925.8	0.091354	-0.30315	0.97541
0.298	126.96	-3.1499e+05	2925.4	0.092037	-0.30334	0.97473
0.3	126.95	-3.15e+05	2925	0.09272	-0.30354	0.97405
0.302	126.93	-3.15e+05	2924.8	0.09233	-0.30373	0.97473
0.304	127.03	-3.15e+05	2924.5	0.091939	-0.30393	0.97541
0.306	127.03	-3.1499e+05	2924.2	0.091549	-0.30412	0.9761
0.308	126.95	-3.1499e+05	2923.8	0.091158	-0.30432	0.97678
0.31	126.97	-3.1499e+05	2923.5	0.090768	-0.30451	0.97746
0.312	126.98	-3.15e+05	2923.1	0.092915	-0.30549	0.97668
0.314	126.92	-3.15e+05	2922.7	0.095062	-0.30646	0.9759
0.316	126.88	-3.15e+05	2922.4	0.09721	-0.30744	0.97512
0.318	126.88	-3.15e+05	2922.1	0.099357	-0.30842	0.97434
0.32	126.88	-3.1501e+05	2921.7	0.1015	-0.30939	0.97356
0.322	126.94	-3.15e+05	2921.4	0.099747	-0.30842	0.97229
0.324	126.97	-3.15e+05	2921	0.09799	-0.30744	0.97102
0.326	126.98	-3.1501e+05	2920.7	0.096234	-0.30646	0.96975
0.328	126.97	-3.1501e+05	2920.4	0.094477	-0.30549	0.96848
0.33	126.95	-3.1501e+05	2920.1	0.09272	-0.30451	0.96722
0.332	126.91	-3.1502e+05	2919.8	0.092134	-0.3051	0.968
0.334	126.91	-3.1502e+05	2919.4	0.091549	-0.30568	0.96878
0.336	126.94	-3.1502e+05	2919	0.090963	-0.30627	0.96956
0.338	126.96	-3.1502e+05	2918.7	0.090378	-0.30685	0.97034
0.34	126.93	-3.1502e+05	2918.3	0.089792	-0.30744	0.97112
0.342	126.9	-3.1502e+05	2917.8	0.089597	-0.30598	0.96888
0.344	126.93	-3.1502e+05	2917.4	0.089402	-0.30451	0.96663
0.346	126.97	-3.1502e+05	2917	0.089206	-0.30305	0.96439
0.348	126.98	-3.1502e+05	2916.5	0.089011	-0.30158	0.96214
0.35	126.95	-3.1502e+05	2916.1	0.088816	-0.30012	0.9599
0.352	126.96	-3.1502e+05	2915.6	0.089304	-0.30188	0.96087
0.354	126.96	-3.1503e+05	2915.1	0.089792	-0.30363	0.96185
0.356	126.92	-3.1503e+05	2914.6	0.09028	-0.30539	0.96282
0.358	126.92	-3.1503e+05	2914.1	0.090768	-0.30715	0.9638
0.36	126.92	-3.1503e+05	2913.6	0.091256	-0.3089	0.96478
0.362	126.9	-3.1503e+05	2913.1	0.090085	-0.30773	0.96409
0.364	126.84	-3.1503e+05	2912.7	0.088914	-0.30656	0.96341
0.366	126.81	-3.1504e+05	2912.2	0.087742	-0.30539	0.96273
0.368	126.89	-3.1504e+05	2911.8	0.086571	-0.30422	0.96204
0.37	127.01	-3.1504e+05	2911.5	0.0854	-0.30305	0.96136
0.372	127.04	-3.1504e+05	2911.1	0.086376	-0.30334	0.96126
0.374	126.97	-3.1504e+05	2910.7	0.087352	-0.30363	0.96116
0.376	126.93	-3.1504e+05	2910.3	0.088328	-0.30393	0.96107
0.378	126.92	-3.1504e+05	2910	0.089304	-0.30422	0.96097
0.38	126.92	-3.1505e+05	2909.7	0.09028	-0.30451	0.96087
0.382	126.93	-3.1505e+05	2909.4	0.090182	-0.30393	0.96029
0.384	126.95	-3.1505e+05	2909	0.090085	-0.30334	0.9597
0.386	126.88	-3.1505e+05	2908.7	0.089987	-0.30276	0.95912
0.388	126.87	-3.1505e+05	2908.5	0.08989	-0.30217	0.95853
0.39	126.89	-3.1506e+05	2908.3	0.089792	-0.30158	0.95794
0.392	126.93	-3.1506e+05	2908	0.090573	-0.30305	0.95863
0.394	126.93	-3.1506e+05	2907.8	0.091354	-0.30451	0.95931
0.396	126.94	-3.1506e+05	2907.6	0.092134	-0.30598	0.95999
0.398	126.95	-3.1506e+05	2907.4	0.092915	-0.30744	0.96068
0.4	126.94	-3.1506e+05	2907.2	0.093696	-0.3089	0.96136
0.402	126.91	-3.1506e+05	2907	0.093989	-0.30861	0.96087
0.404	126.86	-3.1506e+05	2906.8	0.094282	-0.30832	0.96038
0.406	126.83	-3.1506e+05	2906.7	0.094574	-0.30803	0.9599
0.408	126.88	-3.1506e+05	2906.5	0.094867	-0.30773	0.95941
0.41	126.95	-3.1507e+05	2906.4	0.09516	-0.30744	0.95892
0.412	126.93	-3.1507e+05	2906.4	0.093891	-0.30588	0.95872
0.414	126.9	-3.1507e+05	2906.4	0.092622	-0.30432	0.95853
0.416	126.91	-3.1507e+05	2906.5	0.091354	-0.30276	0.95833
0.418	126.92	-3.1507e+05	2906.7	0.090085	-0.30119	0.95814
0.42	126.92	-3.1507e+05	2907	0.088816	-0.29963	0.95794
0.422	126.89	-3.1507e+05	2907.7	0.089304	-0.30071	0.95882
0.424	126.85	-3.1507e+05	2908.4	0.089792	-0.30178	0.9597
0.426	126.8	-3.1508e+05	2909.4	0.09028	-0.30285	0.96058
0.428	126.8	-3.1508e+05	2910.7	0.090768	-0.30393	0.96146
0.43	126.91	-3.1508e+05	2912	0.091256	-0.305	0.96234
0.432	127	-3.1509e+05	2914.1	0.090182	-0.30549	0.96341
0.434	126.94	-3.1509e+05	2916.1	0.089109	-0.30598	0.96448
0.436	126.86	-3.1509e+05	2918.5	0.088035	-0.30646	0.96556
0.438	126.84	-3.1509e+05	2921.3	0.086962	-0.30695	0.96663
0.44	126.83	-3.1509e+05	2924	0.085888	-0.30744	0.9677
0.442	126.82	-3.1509e+05	2927.5	0.086669	-0.30685	0.96712
0.444	126.78	-3.1509e+05	2931	0.08745	-0.30627	0.96653
0.446	126.75	-3.1509e+05	2934.7	0.08823	-0.30568	0.96595
0.448	126.72	-3.151e+05	2938.7	0.089011	-0.3051	0.96536
0.45	126.74	-3.151e+05	2942.6	0.089792	-0.30451	0.96478
0.452	126.75	-3.151e+05	2946.8	0.088426	-0.30598	0.96487
0.454	126.73	-3.151e+05	2951	0.087059	-0.30744	0.96497
0.456	126.71	-3.1511e+05	2955.1	0.085693	-0.3089	0.96507
0.458	126.77	-3.1511e+05	2959.3	0.084326	-0.31037	0.96517
0.46	126.78	-3.1511e+05	2963.4	0.08296	-0.31183	0.96526
0.462	126.78	-3.1511e+05	2967.4	0.083741	-0.31173	0.96497
0.464	126.78	-3.1511e+05	2971.3	0.084522	-0.31164	0.96468
0.466	126.74	-3.1512e+05	2975.1	0.085302	-0.31154	0.96439
0.468	126.7	-3.1512e+05	2978.7	0.086083	-0.31144	0.96409
0.47	126.67	-3.1511e+05	2982.4	0.086864	-0.31134	0.9638
0.472	126.67	-3.151e+05	2985.7	0.086766	-0.31056	0.9638
0.474	126.66	-3.1511e+05	2989	0.086669	-0.30978	0.9638
0.476	126.61	-3.1511e+05	2992.1	0.086571	-0.309	0.9638
0.478	126.61	-3.1512e+05	2995.1	0.086474	-0.30822	0.9638
0.48	126.63	-3.1512e+05	2998	0.086376	-0.30744	0.9638
0.482	126.66	-3.1511e+05	3000.6	0.086669	-0.30793	0.96468
0.484	126.67	-3.151e+05	3003.1	0.086962	-0.30842	0.96556
0.486	126.64	-3.151e+05	3005.6	0.087254	-0.3089	0.96644
0.488	126.61	-3.151e+05	3007.8	0.087547	-0.30939	0.96731
0.49	126.62	-3.151e+05	3010.1	0.08784	-0.30988	0.96819
0.492	126.65	-3.151e+05	3012.1	0.087742	-0.309	0.96722
0.494	126.64	-3.151e+05	3014	0.087645	-0.30812	0.96624
0.496	126.59	-3.151e+05	3015.9	0.087547	-0.30724	0.96526
0.498	126.53	-3.151e+05	3017.5	0.08745	-0.30637	0.96429
0.5	126.51	-3.1509e+05	3019.2	0.087352	-0.30549	0.96331
0.502	126.58	-3.151e+05	3020.5	0.087254	-0.30578	0.96341
0.504	126.67	-3.151e+05	3021.8	0.087157	-0.30607	0.96351
0.506	126.68	-3.151e+05	3023	0.087059	-0.30637	0.9636
0.508	126.64	-3.1509e+05	3024	0.086962	-0.30666	0.9637
0.51	126.61	-3.1509e+05	3025.1	0.086864	-0.30695	0.9638
0.512	126.58	-3.1509e+05	3026	0.086181	-0.30724	0.9639
0.514	126.55	-3.1509e+05	3026.8	0.085498	-0.30754	0.964
0.516	126.57	-3.151e+05	3027.6	0.084814	-0.30783	0.96409
0.518	126.68	-3.1509e+05	3028.3	0.084131	-0.30812	0.96419
0.52	126.72	-3.1508e+05	3029	0.083448	-0.30842	0.96429
0.522	126.65	-3.1508e+05	3029.4	0.085595	-0.31027	0.96351
0.524	126.65	-3.1508e+05	3029.8	0.087742	-0.31212	0.96273
0.526	126.67	-3.1508e+05	3030.1	0.08989	-0.31398	0.96195
0.528	126.64	-3.1508e+05	3030.4	0.092037	-0.31583	0.96116
0.53	126.61	-3.1507e+05	3030.7	0.094184	-0.31769	0.96038
0.532	126.61	-3.1507e+05	3030.9	0.093989	-0.31759	0.96009
0.534	126.64	-3.1506e+05	3031	0.093794	-0.31749	0.9598
0.536	126.67	-3.1506e+05	3031.2	0.093598	-0.3174	0.95951
0.538	126.72	-3.1506e+05	3031.3	0.093403	-0.3173	0.95921
0.54	126.73	-3.1506e+05	3031.4	0.093208	-0.3172	0.95892
0.542	126.69	-3.1506e+05	3031.5	0.092525	-0.31642	0.96009
0.544	126.62	-3.1505e+05	3031.5	0.091842	-0.31564	0.96126
0.546	126.66	-3.1505e+05	3031.5	0.091158	-0.31486	0.96243
0.548	126.74	-3.1505e+05	3031.3	0.090475	-0.31408	0.9636
0.55	126.85	-3.1504e+05	3031.2	0.089792	-0.3133	0.96478
0.552	126.8	-3.1504e+05	3031	0.089499	-0.313	0.96556
0.554	126.7	-3.1504e+05	3030.8	0.089206	-0.31271	0.96634
0.556	126.67	-3.1503e+05	3030.6	0.088914	-0.31242	0.96712
0.558	126.73	-3.1503e+05	3030.4	0.088621	-0.31212	0.9679
0.56	126.73	-3.1503e+05	3030.2	0.088328	-0.31183	0.96868
0.562	126.71	-3.1502e+05	3030	0.087352	-0.31232	0.968
0.564	126.76	-3.1501e+05	3029.7	0.086376	-0.31281	0.96731
0.566	126.76	-3.1501e+05	3029.4	0.0854	-0.3133	0.96663
0.568	126.78	-3.1501e+05	3029.1	0.084424	-0.31378	0.96595
0.57	126.79	-3.1501e+05	3028.8	0.083448	-0.31427	0.96526
0.572	126.77	-3.15e+05	3028.4	0.084229	-0.3132	0.96683
0.574	126.72	-3.15e+05	3028.1	0.08501	-0.31212	0.96839
0.576	126.73	-3.15e+05	3027.7	0.08579	-0.31105	0.96995
0.578	126.8	-3.1499e+05	3027.4	0.086571	-0.30998	0.97151
0.58	126.82	-3.1499e+05	3027	0.087352	-0.3089	0.97307
0.582	126.81	-3.1499e+05	3026.7	0.087547	-0.3091	0.97454
0.584	126.8	-3.1499e+05	3026.3	0.087742	-0.30929	0.976
0.586	126.78	-3.1498e+05	3026	0.087938	-0.30949	0.97746
0.588	126.74	-3.1498e+05	3025.6	0.088133	-0.30968	0.97893
0.59	126.73	-3.1497e+05	3025.3	0.088328	-0.30988	0.98039
0.592	126.76	-3.1497e+05	3025	0.087938	-0.31056	0.9801
0.594	126.79	-3.1497e+05	3024.7	0.087547	-0.31125	0.97981
0.596	126.81	-3.1497e+05	3024.4	0.087157	-0.31193	0.97951
0.598	126.79	-3.1497e+05	3024.1	0.086766	-0.31261	0.97922
0.6	126.76	-3.1497e+05	3023.9	0.086376	-0.3133	0.97893
0.602	126.73	-3.1495e+05	3023.6	0.086864	-0.31203	0.97873
0.604	126.73	-3.1493e+05	3023.3	0.087352	-0.31076	0.97854
0.606	126.76	-3.1494e+05	3023	0.08784	-0.30949	0.97834
0.608	126.8	-3.1494e+05	3022.8	0.088328	-0.30822	0.97815
0.61	126.81	-3.1494e+05	3022.5	0.088816	-0.30695	0.97795
0.612	126.77	-3.1494e+05	3022.3	0.089402	-0.30773	0.97785
0.614	126.75	-3.1494e+05	3022	0.089987	-0.30851	0.97776
0.616	126.77	-3.1494e+05	3021.7	0.090573	-0.30929	0.97766
0.618	126.78	-3.1493e+05	3021.3	0.091158	-0.31008	0.97756
0.62	126.78	-3.1491e+05	3021	0.091744	-0.31086	0.97746
0.622	126.82	-3.1492e+05	3020.6	0.092915	-0.31164	0.976
0.624	126.86	-3.1492e+05	3020.2	0.094086	-0.31242	0.97454
0.626	126.82	-3.1492e+05	3019.7	0.095258	-0.3132	0.97307
0.628	126.75	-3.1491e+05	3019.2	0.096429	-0.31398	0.97161
0.63	126.71	-3.1491e+05	3018.8	0.0976	-0.31476	0.97014
0.632	126.74	-3.1491e+05	3018.2	0.096429	-0.31437	0.96917
0.634	126.8	-3.149e+05	3017.5	0.095258	-0.31398	0.96819
0.636	126.84	-3.149e+05	3016.9	0.094086	-0.31359	0.96722
0.638	126.89	-3.149e+05	3016.1	0.092915	-0.3132	0.96624
0.64	126.81	-3.149e+05	3015.4	0.091744	-0.31281	0.96526
0.642	126.75	-3.149e+05	3014.6	0.092232	-0.3133	0.96546
0.644	126.73	-3.149e+05	3013.7	0.09272	-0.31378	0.96565
0.646	126.71	-3.1488e+05	3012.9	0.093208	-0.31427	0.96585
0.648	126.75	-3.1487e+05	3012	0.093696	-0.31476	0.96604
0.65	126.83	-3.1487e+05	3011.1	0.094184	-0.31525	0.96624
0.652	126.85	-3.1487e+05	3010.2	0.095453	-0.31476	0.96702
0.654	126.83	-3.1487e+05	3009.2	0.096722	-0.31427	0.9678
0.656	126.8	-3.1487e+05	3008.2	0.09799	-0.31378	0.96858
0.658	126.82	-3.1487e+05	3007.2	0.099259	-0.3133	0.96936
0.66	126.82	-3.1487e+05	3006.3	0.10053	-0.31281	0.97014
0.662	126.79	-3.1487e+05	3005.3	0.10043	-0.31281	0.97024
0.664	126.75	-3.1486e+05	3004.3	0.10033	-0.31281	0.97034
0.666	126.74	-3.1486e+05	3003.3	0.10024	-0.31281	0.97044
0.668	126.8	-3.1486e+05	3002.4	0.10014	-0.31281	0.97053
0.67	126.84	-3.1486e+05	3001.4	0.10004	-0.31281	0.97063
0.672	126.85	-3.1486e+05	3000.6	0.098966	-0.31261	0.97034
0.674	126.86	-3.1486e+05	2999.7	0.097893	-0.31242	0.97005
0.676	126.85	-3.1486e+05	2998.8	0.096819	-0.31222	0.96975
0.678	126.82	-3.1485e+05	2998	0.095746	-0.31203	0.96946
0.68	126.8	-3.1485e+05	2997.1	0.094672	-0.31183	0.96917
0.682	126.8	-3.1484e+05	2996.3	0.093013	-0.31105	0.96936
0.684	126.78	-3.1483e+05	2995.4	0.091354	-0.31027	0.96956
0.686	126.78	-3.1484e+05	2994.6	0.089694	-0.30949	0.96975
0.688	126.82	-3.1485e+05	2993.9	0.088035	-0.30871	0.96995
0.69	126.85	-3.1484e+05	2993.1	0.086376	-0.30793	0.97014
0.692	126.85	-3.1484e+05	2992.5	0.086278	-0.30744	0.96897
0.694	126.8	-3.1484e+05	2991.8	0.086181	-0.30695	0.9678
0.696	126.8	-3.1483e+05	2991.2	0.086083	-0.30646	0.96663
0.698	126.87	-3.1483e+05	2990.6	0.085986	-0.30598	0.96546
0.7	126.89	-3.1483e+05	2989.9	0.085888	-0.30549	0.96429
0.702	126.86	-3.1483e+05	2989.4	0.085595	-0.30705	0.96341
0.704	126.82	-3.1484e+05	2989	0.085302	-0.30861	0.96253
0.706	126.76	-3.1483e+05	2988.5	0.08501	-0.31017	0.96165
0.708	126.81	-3.1483e+05	2988.1	0.084717	-0.31173	0.96077
0.71	126.89	-3.1483e+05	2987.7	0.084424	-0.3133	0.9599
0.712	126.88	-3.1483e+05	2987.4	0.084619	-0.31291	0.96068
0.714	126.84	-3.1483e+05	2987.1	0.084814	-0.31252	0.96146
0.716	126.8	-3.1483e+05	2986.8	0.08501	-0.31212	0.96224
0.718	126.86	-3.1483e+05	2986.4	0.085205	-0.31173	0.96302
0.72	126.91	-3.1483e+05	2986.1	0.0854	-0.31134	0.9638
0.722	126.87	-3.1483e+05	2985.9	0.084814	-0.31222	0.96351
0.724	126.82	-3.1483e+05	2985.7	0.084229	-0.3131	0.96321
0.726	126.8	-3.1483e+05	2985.5	0.083643	-0.31398	0.96292
0.728	126.81	-3.1483e+05	2985.2	0.083058	-0.31486	0.96263
0.73	126.82	-3.1483e+05	2985	0.082472	-0.31574	0.96234
0.732	126.8	-3.1484e+05	2984.8	0.083058	-0.31515	0.96243
0.734	126.78	-3.1482e+05	2984.7	0.083643	-0.31456	0.96253
0.736	126.74	-3.1481e+05	2984.5	0.084229	-0.31398	0.96263
0.738	126.68	-3.1482e+05	2984.4	0.084814	-0.31339	0.96273
0.74	126.71	-3.1482e+05	2984.2	0.0854	-0.31281	0.96282
0.742	126.85	-3.1482e+05	2984.1	0.08579	-0.31252	0.96409
0.744	126.96	-3.1482e+05	2983.9	0.086181	-0.31222	0.96536
0.746	126.95	-3.1482e+05	2983.8	0.086571	-0.31193	0.96663
0.748	126.88	-3.1481e+05	2983.6	0.086962	-0.31164	0.9679
0.75	126.84	-3.1482e+05	2983.5	0.087352	-0.31134	0.96917
0.752	126.8	-3.1482e+05	2983.4	0.087742	-0.31076	0.96966
0.754	126.74	-3.1482e+05	2983.3	0.088133	-0.31017	0.97014
0.756	126.82	-3.1482e+05	2983.2	0.088523	-0.30959	0.97063
0.758	126.97	-3.1482e+05	2983.2	0.088914	-0.309	0.97112
0.76	127	-3.1483e+05	2983.1	0.089304	-0.30842	0.97161
0.762	126.91	-3.1483e+05	2982.9	0.088133	-0.30988	0.96995
0.764	126.85	-3.1482e+05	2982.7	0.086962	-0.31134	0.96829
0.766	126.84	-3.1482e+05	2982.6	0.08579	-0.31281	0.96663
0.768	126.82	-3.1481e+05	2982.4	0.084619	-0.31427	0.96497
0.77	126.81	-3.1481e+05	2982.3	0.083448	-0.31574	0.96331
0.772	126.83	-3.1482e+05	2982.1	0.08335	-0.31622	0.96312
0.774	126.86	-3.1482e+05	2982	0.083253	-0.31671	0.96292
0.776	126.87	-3.1482e+05	2981.8	0.083155	-0.3172	0.96273
0.778	126.84	-3.1482e+05	2981.7	0.083058	-0.31769	0.96253
0.78	126.83	-3.1482e+05	2981.5	0.08296	-0.31818	0.96234
0.782	126.84	-3.1481e+05	2981.3	0.08335	-0.31818	0.96185
0.784	126.85	-3.1481e+05	2981.1	0.083741	-0.31818	0.96136
0.786	126.87	-3.1481e+05	2980.9	0.084131	-0.31818	0.96087
0.788	126.81	-3.1481e+05	2980.7	0.084522	-0.31818	0.96038
0.79	126.79	-3.1482e+05	2980.5	0.084912	-0.31818	0.9599
0.792	126.81	-3.1482e+05	2980.3	0.084424	-0.31827	0.96087
0.794	126.8	-3.1482e+05	2980.2	0.083936	-0.31837	0.96185
0.796	126.8	-3.1482e+05	2980	0.083448	-0.31847	0.96282
0.798	126.79	-3.1482e+05	2979.8	0.08296	-0.31857	0.9638
0.8	126.82	-3.1483e+05	2979.6	0.082472	-0.31866	0.96478
0.802	126.83	-3.1482e+05	2979.4	0.082082	-0.31837	0.96429
0.804	126.81	-3.1481e+05	2979.2	0.081691	-0.31808	0.9638
0.806	126.79	-3.1481e+05	2979	0.081301	-0.31779	0.96331
0.808	126.76	-3.1481e+05	2978.8	0.08091	-0.31749	0.96282
0.81	126.83	-3.1481e+05	2978.6	0.08052	-0.3172	0.96234
0.812	126.82	-3.1482e+05	2978.4	0.081496	-0.31691	0.96195
0.814	126.76	-3.1482e+05	2978.1	0.082472	-0.31661	0.96156
0.816	126.82	-3.1482e+05	2977.8	0.083448	-0.31632	0.96116
0.818	126.91	-3.1481e+05	2977.5	0.084424	-0.31603	0.96077
0.82	126.87	-3.148e+05	2977.2	0.0854	-0.31574	0.96038
0.822	126.82	-3.1481e+05	2976.9	0.086571	-0.31496	0.96292
0.824	126.76	-3.1481e+05	2976.6	0.087742	-0.31417	0.96546
0.826	126.72	-3.1481e+05	2976.3	0.088914	-0.31339	0.968
0.828	126.73	-3.1481e+05	2976	0.090085	-0.31261	0.97053
0.83	126.76	-3.1481e+05	2975.6	0.091256	-0.31183	0.97307
0.832	126.79	-3.1481e+05	2975.3	0.090768	-0.31203	0.97239
0.834	126.84	-3.1481e+05	2974.9	0.09028	-0.31222	0.97171
0.836	126.86	-3.1481e+05	2974.6	0.089792	-0.31242	0.97102
0.838	126.83	-3.1481e+05	2974.2	0.089304	-0.31261	0.97034
0.84	126.83	-3.1482e+05	2973.8	0.088816	-0.31281	0.96966
0.842	126.83	-3.1482e+05	2973.4	0.088816	-0.31378	0.96858
0.844	126.8	-3.1482e+05	2972.9	0.088816	-0.31476	0.96751
0.846	126.8	-3.1482e+05	2972.6	0.088816	-0.31574	0.96644
0.848	126.83	-3.1482e+05	2972.2	0.088816	-0.31671	0.96536
0.85	126.84	-3.1482e+05	2971.8	0.088816	-0.31769	0.96429
0.852	126.84	-3.1482e+05	2971.5	0.087254	-0.31818	0.96487
0.854	126.81	-3.1482e+05	2971.1	0.085693	-0.31866	0.96546
0.856	126.77	-3.1482e+05	2970.8	0.084131	-0.31915	0.96604
0.858	126.78	-3.1482e+05	2970.4	0.08257	-0.31964	0.96663
0.86	126.87	-3.1482e+05	2970	0.081008	-0.32013	0.96722
0.862	126.92	-3.1481e+05	2969.6	0.08091	-0.31905	0.96653
0.864	126.89	-3.148e+05	2969.2	0.080813	-0.31798	0.96585
0.866	126.83	-3.1481e+05	2968.8	0.080715	-0.31691	0.96517
0.868	126.83	-3.1481e+05	2968.4	0.080618	-0.31583	0.96448
0.87	126.83	-3.1481e+05	2968	0.08052	-0.31476	0.9638
0.872	126.85	-3.1481e+05	2967.5	0.081008	-0.31554	0.96321
0.874	126.93	-3.1481e+05	2967.1	0.081496	-0.31632	0.96263
0.876	126.95	-3.1481e+05	2966.7	0.081984	-0.3171	0.96204
0.878	126.89	-3.1481e+05	2966.3	0.082472	-0.31788	0.96146
0.88	126.83	-3.1481e+05	2965.9	0.08296	-0.31866	0.96087
0.882	126.8	-3.1481e+05	2965.4	0.082667	-0.31827	0.96165
0.884	126.84	-3.148e+05	2965	0.082374	-0.31788	0.96243
0.886	126.91	-3.148e+05	2964.5	0.082082	-0.31749	0.96321
0.888	126.97	-3.148e+05	2964	0.081789	-0.3171	0.964
0.89	126.92	-3.1481e+05	2963.6	0.081496	-0.31671	0.96478
0.892	126.86	-3.1482e+05	2963.1	0.083155	-0.31632	0.96429
0.894	126.9	-3.1482e+05	2962.6	0.084814	-0.31593	0.9638
0.896	126.89	-3.1483e+05	2962.2	0.086474	-0.31554	0.96331
0.898	126.85	-3.1482e+05	2961.7	0.088133	-0.31515	0.96282
0.9	126.83	-3.1482e+05	2961.2	0.089792	-0.31476	0.96234
0.902	126.86	-3.1482e+05	2960.8	0.088523	-0.31496	0.96263
0.904	126.89	-3.1482e+05	2960.4	0.087254	-0.31515	0.96292
0.906	126.89	-3.1482e+05	2960	0.085986	-0.31535	0.96321
0.908	126.89	-3.1483e+05	2959.6	0.084717	-0.31554	0.96351
0.91	126.87	-3.1482e+05	2959.2	0.083448	-0.31574	0.9638
0.912	126.87	-3.1482e+05	2958.8	0.083643	-0.31652	0.9639
0.914	126.88	-3.1482e+05	2958.4	0.083838	-0.3173	0.964
0.916	126.85	-3.1482e+05	2957.9	0.084034	-0.31808	0.96409
0.918	126.82	-3.1483e+05	2957.5	0.084229	-0.31886	0.96419
0.92	126.85	-3.1484e+05	2957.1	0.084424	-0.31964	0.96429
0.922	126.95	-3.1484e+05	2956.7	0.085107	-0.31769	0.96419
0.924	127	-3.1484e+05	2956.3	0.08579	-0.31574	0.96409
0.926	126.94	-3.1484e+05	2956	0.086474	-0.31378	0.964
0.928	126.87	-3.1484e+05	2955.6	0.087157	-0.31183	0.9639
0.93	126.88	-3.1484e+05	2955.3	0.08784	-0.30988	0.9638
0.932	126.9	-3.1484e+05	2955	0.087938	-0.31095	0.96273
0.934	126.87	-3.1483e+05	2954.6	0.088035	-0.31203	0.96165
0.936	126.86	-3.1483e+05	2954.3	0.088133	-0.3131	0.96058
0.938	126.91	-3.1483e+05	2954	0.08823	-0.31417	0.95951
0.94	126.96	-3.1483e+05	2953.7	0.088328	-0.31525	0.95843
0.942	126.97	-3.1483e+05	2953.4	0.088133	-0.31505	0.95882
0.944	126.94	-3.1483e+05	2953.2	0.087938	-0.31486	0.95921
0.946	126.93	-3.1484e+05	2952.9	0.087742	-0.31466	0.9596
0.948	126.91	-3.1484e+05	2952.6	0.087547	-0.31447	0.95999
0.95	126.9	-3.1485e+05	2952.3	0.087352	-0.31427	0.96038
0.952	126.88	-3.1485e+05	2951.9	0.088426	-0.31544	0.96019
0.954	126.91	-3.1484e+05	2951.5	0.089499	-0.31661	0.95999
0.956	126.95	-3.1483e+05	2951.1	0.090573	-0.31779	0.9598
0.958	126.92	-3.1483e+05	2950.7	0.091646	-0.31896	0.9596
0.96	126.84	-3.1483e+05	2950.3	0.09272	-0.32013	0.95941
0.962	126.74	-3.1484e+05	2949.9	0.093403	-0.31984	0.95951
0.964	126.66	-3.1484e+05	2949.5	0.094086	-0.31954	0.9596
0.966	126.56	-3.1485e+05	2949.2	0.09477	-0.31925	0.9597
0.968	126.48	-3.1485e+05	2948.8	0.095453	-0.31896	0.9598
0.97	126.4	-3.1485e+05	2948.5	0.096136	-0.31866	0.9599
0.972	126.31	-3.1485e+05	2948.2	0.095355	-0.31788	0.95999
0.974	126.14	-3.1485e+05	2947.9	0.094574	-0.3171	0.96009
0.976	125.99	-3.1485e+05	2947.5	0.093794	-0.31632	0.96019
0.978	125.94	-3.1485e+05	2947.2	0.093013	-0.31554	0.96029
0.98	126.02	-3.1486e+05	2946.9	0.092232	-0.31476	0.96038
0.982	126.15	-3.1486e+05	2946.6	0.091939	-0.31349	0.96282
0.984	126.35	-3.1486e+05	2946.2	0.091646	-0.31222	0.96526
0.986	126.57	-3.1486e+05	2945.9	0.091354	-0.31095	0.9677
0.988	126.73	-3.1486e+05	2945.6	0.091061	-0.30968	0.97014
0.99	126.78	-3.1486e+05	2945.3	0.090768	-0.30842	0.97258
0.992	126.8	-3.1487e+05	2945	0.091158	-0.30871	0.97219
0.994	126.8	-3.1487e+05	2944.6	0.091549	-0.309	0.9718
0.996	126.81	-3.1487e+05	2944.3	0.091939	-0.30929	0.97141
0.998	126.86	-3.1487e+05	2943.9	0.09233	-0.30959	0.97102
1	126.85	-3.1487e+05	2943.6	0.09272	-0.30988	0.97063
1.002	126.81	-3.1487e+05	2943.2	0.092525	-0.30988	0.97083
1.004	126.81	-3.1487e+05	2942.8	0.09233	-0.30988	0.97102
1.006	126.84	-3.1488e+05	2942.4	0.092134	-0.30988	0.97122
1.008	126.86	-3.1488e+05	2942.1	0.091939	-0.30988	0.97141
1.01	126.86	-3.1488e+05	2941.8	0.091744	-0.30988	0.97161
1.012	126.89	-3.1488e+05	2941.5	0.09067	-0.31047	0.97063
1.014	126.95	-3.1487e+05	2941.2	0.089597	-0.31105	0.96966
1.016	126.95	-3.1487e+05	2940.8	0.088523	-0.31164	0.96868
1.018	126.88	-3.1487e+05	2940.5	0.08745	-0.31222	0.9677
1.02	126.83	-3.1487e+05	2940.2	0.086376	-0.31281	0.96673
1.022	126.84	-3.1487e+05	2939.8	0.085302	-0.31388	0.96575
1.024	126.9	-3.1487e+05	2939.4	0.084229	-0.31496	0.96478
1.026	126.96	-3.1488e+05	2939.1	0.083155	-0.31603	0.9638
1.028	126.97	-3.1488e+05	2938.6	0.082082	-0.3171	0.96282
1.03	126.9	-3.1488e+05	2938.2	0.081008	-0.31818	0.96185
1.032	126.84	-3.1488e+05	2937.8	0.082862	-0.31652	0.96321
1.034	126.86	-3.1489e+05	2937.4	0.084717	-0.31486	0.96458
1.036	126.91	-3.149e+05	2937	0.086571	-0.3132	0.96595
1.038	126.96	-3.149e+05	2936.6	0.088426	-0.31154	0.96731
1.04	126.96	-3.1489e+05	2936.2	0.09028	-0.30988	0.96868
1.042	126.89	-3.149e+05	2935.8	0.090573	-0.31086	0.96907
1.044	126.83	-3.149e+05	2935.3	0.090866	-0.31183	0.96946
1.046	126.83	-3.149e+05	2934.9	0.091158	-0.31281	0.96985
1.048	126.88	-3.1489e+05	2934.5	0.091451	-0.31378	0.97024
1.05	126.89	-3.149e+05	2934.1	0.091744	-0.31476	0.97063
1.052	126.92	-3.149e+05	2933.7	0.092134	-0.31496	0.97044
1.054	126.98	-3.149e+05	2933.3	0.092525	-0.31515	0.97024
1.056	126.98	-3.149e+05	2932.8	0.092915	-0.31535	0.97005
1.058	126.89	-3.149e+05	2932.4	0.093306	-0.31554	0.96985
1.06	126.83	-3.149e+05	2932	0.093696	-0.31574	0.96966
1.062	126.78	-3.1491e+05	2931.6	0.093696	-0.31554	0.97014
1.064	126.8	-3.1491e+05	2931.2	0.093696	-0.31535	0.97063
1.066	126.92	-3.1491e+05	2930.8	0.093696	-0.31515	0.97112
1.068	126.94	-3.1491e+05	2930.4	0.093696	-0.31496	0.97161
1.07	126.95	-3.1491e+05	2929.9	0.093696	-0.31476	0.9721
1.072	126.95	-3.1491e+05	2929.6	0.093208	-0.31388	0.97268
1.074	126.92	-3.1491e+05	2929.2	0.09272	-0.313	0.97327
1.076	126.9	-3.1492e+05	2928.8	0.092232	-0.31212	0.97385
1.078	126.81	-3.1491e+05	2928.4	0.091744	-0.31125	0.97444
1.08	126.76	-3.1491e+05	2928	0.091256	-0.31037	0.97502
1.082	126.8	-3.1491e+05	2927.6	0.092134	-0.31164	0.97434
1.084	126.89	-3.1491e+05	2927.2	0.093013	-0.31291	0.97366
1.086	126.9	-3.1492e+05	2926.8	0.093891	-0.31417	0.97297
1.088	126.88	-3.1492e+05	2926.5	0.09477	-0.31544	0.97229
1.09	126.91	-3.1493e+05	2926.1	0.095648	-0.31671	0.97161
1.092	126.9	-3.1493e+05	2925.7	0.094379	-0.31544	0.97102
1.094	126.87	-3.1493e+05	2925.3	0.09311	-0.31417	0.97044
1.096	126.84	-3.1492e+05	2924.9	0.091842	-0.31291	0.96985
1.098	126.85	-3.1492e+05	2924.6	0.090573	-0.31164	0.96927
1.1	126.93	-3.1492e+05	2924.2	0.089304	-0.31037	0.96868
1.102	126.97	-3.1493e+05	2923.8	0.090085	-0.31066	0.96819
1.104	126.93	-3.1493e+05	2923.4	0.090866	-0.31095	0.9677
1.106	126.9	-3.1493e+05	2923	0.091646	-0.31125	0.96722
1.108	126.9	-3.1493e+05	2922.7	0.092427	-0.31154	0.96673
1.11	126.9	-3.1493e+05	2922.3	0.093208	-0.31183	0.96624
1.112	126.9	-3.1493e+05	2922	0.09233	-0.31154	0.96692
1.114	126.93	-3.1494e+05	2921.7	0.091451	-0.31125	0.96761
1.116	126.92	-3.1495e+05	2921.4	0.090573	-0.31095	0.96829
1.118	126.88	-3.1496e+05	2921.2	0.089694	-0.31066	0.96897
1.12	126.87	-3.1496e+05	2920.9	0.088816	-0.31037	0.96966
1.122	126.88	-3.1496e+05	2920.7	0.08745	-0.31115	0.96839
1.124	126.9	-3.1496e+05	2920.5	0.086083	-0.31193	0.96712
1.126	126.91	-3.1496e+05	2920.2	0.084717	-0.31271	0.96585
1.128	126.87	-3.1495e+05	2920	0.08335	-0.31349	0.96458
1.13	126.86	-3.1496e+05	2919.8	0.081984	-0.31427	0.96331
1.132	126.91	-3.1496e+05	2919.7	0.082667	-0.31447	0.96312
1.134	126.91	-3.1496e+05	2919.6	0.08335	-0.31466	0.96292
1.136	126.84	-3.1496e+05	2919.6	0.084034	-0.31486	0.96273
1.138	126.87	-3.1496e+05	2919.6	0.084717	-0.31505	0.96253
1.14	126.92	-3.1496e+05	2919.6	0.0854	-0.31525	0.96234
1.142	126.89	-3.1497e+05	2919.9	0.086571	-0.31447	0.96409
1.144	126.88	-3.1498e+05	2920.1	0.087742	-0.31369	0.96585
1.146	126.88	-3.1497e+05	2920.6	0.088914	-0.31291	0.96761
1.148	126.83	-3.1497e+05	2921.2	0.090085	-0.31212	0.96936
1.15	126.83	-3.1497e+05	2921.9	0.091256	-0.31134	0.97112
1.152	126.86	-3.1498e+05	2923.1	0.089402	-0.31154	0.97024
1.154	126.89	-3.1498e+05	2924.4	0.087547	-0.31173	0.96936
1.156	126.86	-3.1498e+05	2926	0.085693	-0.31193	0.96848
1.158	126.83	-3.1498e+05	2927.9	0.083838	-0.31212	0.96761
1.16	126.81	-3.1498e+05	2929.8	0.081984	-0.31232	0.96673
1.162	126.77	-3.1498e+05	2932.5	0.08296	-0.31095	0.96673
1.164	126.72	-3.1498e+05	2935.1	0.083936	-0.30959	0.96673
1.166	126.72	-3.1498e+05	2938	0.084912	-0.30822	0.96673
1.168	126.77	-3.1498e+05	2941.3	0.085888	-0.30685	0.96673
1.17	126.78	-3.1498e+05	2944.5	0.086864	-0.30549	0.96673
1.172	126.8	-3.1498e+05	2948.1	0.088621	-0.30724	0.96497
1.174	126.77	-3.1499e+05	2951.7	0.090378	-0.309	0.96321
1.176	126.76	-3.1499e+05	2955.4	0.092134	-0.31076	0.96146
1.178	126.81	-3.15e+05	2959.2	0.093891	-0.31252	0.9597
1.18	126.77	-3.1501e+05	2963	0.095648	-0.31427	0.95794
1.182	126.7	-3.1501e+05	2966.8	0.094965	-0.31291	0.95755
1.184	126.66	-3.1501e+05	2970.5	0.094282	-0.31154	0.95716
1.186	126.66	-3.15e+05	2974.2	0.093598	-0.31017	0.95677
1.188	126.69	-3.15e+05	2977.7	0.092915	-0.30881	0.95638
1.19	126.68	-3.15e+05	2981.3	0.092232	-0.30744	0.95599
1.192	126.64	-3.15e+05	2984.5	0.092622	-0.30842	0.9556
1.194	126.66	-3.15e+05	2987.8	0.093013	-0.30939	0.95521
1.196	126.7	-3.1501e+05	2990.9	0.093403	-0.31037	0.95482
1.198	126.69	-3.15e+05	2993.8	0.093794	-0.31134	0.95443
1.2	126.64	-3.15e+05	2996.7	0.094184	-0.31232	0.95404
1.202	126.61	-3.1501e+05	2999.3	0.094282	-0.31232	0.9555
1.204	126.63	-3.1501e+05	3001.9	0.094379	-0.31232	0.95697
1.206	126.64	-3.15e+05	3004.4	0.094477	-0.31232	0.95843
1.208	126.66	-3.15e+05	3006.7	0.094574	-0.31232	0.9599
1.21	126.65	-3.15e+05	3009	0.094672	-0.31232	0.96136
1.212	126.64	-3.1499e+05	3011	0.093794	-0.31086	0.96243
1.214	126.6	-3.1498e+05	3013	0.092915	-0.30939	0.96351
1.216	126.61	-3.1497e+05	3014.8	0.092037	-0.30793	0.96458
1.218	126.63	-3.1497e+05	3016.6	0.091158	-0.30646	0.96565
1.22	126.63	-3.1498e+05	3018.4	0.09028	-0.305	0.96673
1.222	126.61	-3.1498e+05	3019.8	0.090085	-0.30598	0.96731
1.224	126.61	-3.1498e+05	3021.3	0.08989	-0.30695	0.9679
1.226	126.63	-3.1497e+05	3022.7	0.089694	-0.30793	0.96848
1.228	126.61	-3.1497e+05	3023.9	0.089499	-0.3089	0.96907
1.23	126.57	-3.1497e+05	3025.2	0.089304	-0.30988	0.96966
1.232	126.54	-3.1497e+05	3026.3	0.089597	-0.30949	0.96966
1.234	126.59	-3.1497e+05	3027.4	0.08989	-0.3091	0.96966
1.236	126.64	-3.1496e+05	3028.3	0.090182	-0.30871	0.96966
1.238	126.59	-3.1496e+05	3029.2	0.090475	-0.30832	0.96966
1.24	126.58	-3.1496e+05	3030	0.090768	-0.30793	0.96966
1.242	126.59	-3.1496e+05	3030.7	0.089792	-0.30842	0.96946
1.244	126.55	-3.1495e+05	3031.4	0.088816	-0.3089	0.96927
1.246	126.57	-3.1495e+05	3032	0.08784	-0.30939	0.96907
1.248	126.67	-3.1496e+05	3032.4	0.086864	-0.30988	0.96888
1.25	126.67	-3.1495e+05	3032.9	0.085888	-0.31037	0.96868
1.252	126.6	-3.1494e+05	3033.2	0.085302	-0.31183	0.96702
1.254	126.54	-3.1494e+05	3033.5	0.084717	-0.3133	0.96536
1.256	126.53	-3.1493e+05	3033.7	0.084131	-0.31476	0.9637
1.258	126.57	-3.1493e+05	3033.9	0.083546	-0.31622	0.96204
1.26	126.65	-3.1494e+05	3034.1	0.08296	-0.31769	0.96038
1.262	126.69	-3.1493e+05	3034.2	0.08296	-0.31622	0.96097
1.264	126.7	-3.1492e+05	3034.3	0.08296	-0.31476	0.96156
1.266	126.69	-3.1491e+05	3034.3	0.08296	-0.3133	0.96214
1.268	126.68	-3.149e+05	3034.4	0.08296	-0.31183	0.96273
1.27	126.74	-3.149e+05	3034.4	0.08296	-0.31037	0.96331
1.272	126.8	-3.149e+05	3034.3	0.083058	-0.31144	0.96243
1.274	126.78	-3.149e+05	3034.2	0.083155	-0.31252	0.96156
1.276	126.72	-3.1491e+05	3034.1	0.083253	-0.31359	0.96068
1.278	126.71	-3.149e+05	3034	0.08335	-0.31466	0.9598
1.28	126.73	-3.149e+05	3033.9	0.083448	-0.31574	0.95892
1.282	126.74	-3.149e+05	3033.8	0.084229	-0.31515	0.96009
1.284	126.72	-3.149e+05	3033.6	0.08501	-0.31456	0.96126
1.286	126.68	-3.149e+05	3033.4	0.08579	-0.31398	0.96243
1.288	126.69	-3.149e+05	3033.2	0.086571	-0.31339	0.9636
1.29	126.73	-3.1489e+05	3033.1	0.087352	-0.31281	0.96478
1.292	126.74	-3.1489e+05	3032.8	0.086669	-0.31261	0.96575
1.294	126.72	-3.1488e+05	3032.6	0.085986	-0.31242	0.96673
1.296	126.7	-3.1488e+05	3032.4	0.085302	-0.31222	0.9677
1.298	126.72	-3.1488e+05	3032.1	0.084619	-0.31203	0.96868
1.3	126.78	-3.1488e+05	3031.9	0.083936	-0.31183	0.96966
1.302	126.76	-3.1488e+05	3031.6	0.084619	-0.31242	0.96936
1.304	126.74	-3.1489e+05	3031.4	0.085302	-0.313	0.96907
1.306	126.7	-3.1488e+05	3031	0.085986	-0.31359	0.96878
1.308	126.7	-3.1487e+05	3030.7	0.086669	-0.31417	0.96848
1.31	126.71	-3.1486e+05	3030.4	0.087352	-0.31476	0.96819
1.312	126.69	-3.1486e+05	3030	0.087352	-0.31505	0.96819
1.314	126.73	-3.1486e+05	3029.6	0.087352	-0.31535	0.96819
1.316	126.74	-3.1485e+05	3029.3	0.087352	-0.31564	0.96819
1.318	126.75	-3.1485e+05	3028.9	0.087352	-0.31593	0.96819
1.32	126.73	-3.1485e+05	3028.6	0.087352	-0.31622	0.96819
1.322	126.74	-3.1485e+05	3028.3	0.088035	-0.31554	0.96878
1.324	126.73	-3.1485e+05	3028	0.088718	-0.31486	0.96936
1.326	126.78	-3.1484e+05	3027.7	0.089402	-0.31417	0.96995
1.328	126.74	-3.1484e+05	3027.4	0.090085	-0.31349	0.97053
1.33	126.7	-3.1483e+05	3027.1	0.090768	-0.31281	0.97112
1.332	126.78	-3.1482e+05	3026.8	0.089499	-0.31417	0.97083
1.334	126.79	-3.1481e+05	3026.5	0.08823	-0.31554	0.97053
1.336	126.74	-3.148e+05	3026.1	0.086962	-0.31691	0.97024
1.338	126.72	-3.148e+05	3025.8	0.085693	-0.31827	0.96995
1.34	126.75	-3.148e+05	3025.4	0.084424	-0.31964	0.96966
1.342	126.79	-3.1479e+05	3025	0.084912	-0.31896	0.96985
1.344	126.81	-3.1479e+05	3024.6	0.0854	-0.31827	0.97005
1.346	126.81	-3.1479e+05	3024.2	0.085888	-0.31759	0.97024
1.348	126.79	-3.1479e+05	3023.8	0.086376	-0.31691	0.97044
1.35	126.79	-3.1479e+05	3023.4	0.086864	-0.31622	0.97063
1.352	126.8	-3.1479e+05	3022.8	0.08745	-0.3172	0.97034
1.354	126.79	-3.1477e+05	3022.3	0.088035	-0.31818	0.97005
1.356	126.78	-3.1475e+05	3021.8	0.088621	-0.31915	0.96975
1.358	126.77	-3.1475e+05	3021.1	0.089206	-0.32013	0.96946
1.36	126.75	-3.1476e+05	3020.5	0.089792	-0.3211	0.96917
1.362	126.73	-3.1476e+05	3019.8	0.09028	-0.32042	0.96946
1.364	126.71	-3.1476e+05	3019.1	0.090768	-0.31974	0.96975
1.366	126.71	-3.1475e+05	3018.4	0.091256	-0.31905	0.97005
1.368	126.74	-3.1475e+05	3017.6	0.091744	-0.31837	0.97034
1.37	126.76	-3.1475e+05	3016.9	0.092232	-0.31769	0.97063
1.372	126.78	-3.1474e+05	3016.1	0.090866	-0.3173	0.96995
1.374	126.8	-3.1474e+05	3015.2	0.089499	-0.31691	0.96927
1.376	126.81	-3.1474e+05	3014.4	0.088133	-0.31652	0.96858
1.378	126.78	-3.1474e+05	3013.5	0.086766	-0.31613	0.9679
1.38	126.78	-3.1474e+05	3012.6	0.0854	-0.31574	0.96722
1.382	126.83	-3.1474e+05	3011.6	0.084912	-0.31642	0.96722
1.384	126.83	-3.1473e+05	3010.7	0.084424	-0.3171	0.96722
1.386	126.77	-3.1473e+05	3009.7	0.083936	-0.31779	0.96722
1.388	126.8	-3.1473e+05	3008.8	0.083448	-0.31847	0.96722
1.39	126.84	-3.1473e+05	3007.9	0.08296	-0.31915	0.96722
1.392	126.82	-3.1473e+05	3006.9	0.084034	-0.31798	0.9677
1.394	126.78	-3.1473e+05	3006	0.085107	-0.31681	0.96819
1.396	126.76	-3.1472e+05	3005.1	0.086181	-0.31564	0.96868
1.398	126.71	-3.1472e+05	3004.3	0.087254	-0.31447	0.96917
1.4	126.66	-3.1471e+05	3003.4	0.088328	-0.3133	0.96966
1.402	126.67	-3.1471e+05	3002.7	0.08823	-0.3133	0.96946
1.404	126.79	-3.1471e+05	3001.9	0.088133	-0.3133	0.96927
1.406	126.92	-3.1471e+05	3001.2	0.088035	-0.3133	0.96907
1.408	126.93	-3.1471e+05	3000.6	0.087938	-0.3133	0.96888
1.41	126.85	-3.1471e+05	2999.9	0.08784	-0.3133	0.96868
1.412	126.84	-3.1471e+05	2999.3	0.085595	-0.31417	0.9677
1.414	126.8	-3.1471e+05	2998.6	0.08335	-0.31505	0.96673
1.416	126.8	-3.1471e+05	2998	0.081106	-0.31593	0.96575
1.418	126.78	-3.1471e+05	2997.4	0.078861	-0.31681	0.96478
1.42	126.77	-3.1471e+05	2996.8	0.076616	-0.31769	0.9638
1.422	126.8	-3.147e+05	2996.3	0.077104	-0.31925	0.96429
1.424	126.79	-3.147e+05	2995.7	0.077592	-0.32081	0.96478
1.426	126.77	-3.147e+05	2995.1	0.07808	-0.32237	0.96526
1.428	126.77	-3.147e+05	2994.6	0.078568	-0.32393	0.96575
1.43	126.77	-3.147e+05	2994.1	0.079056	-0.3255	0.96624
1.432	126.81	-3.147e+05	2993.7	0.080227	-0.32472	0.96702
1.434	126.81	-3.147e+05	2993.3	0.081398	-0.32393	0.9678
1.436	126.79	-3.1469e+05	2992.9	0.08257	-0.32315	0.96858
1.438	126.79	-3.1469e+05	2992.5	0.083741	-0.32237	0.96936
1.44	126.81	-3.1469e+05	2992.2	0.084912	-0.32159	0.97014
1.442	126.81	-3.1469e+05	2991.9	0.084424	-0.32198	0.96946
1.444	126.83	-3.147e+05	2991.6	0.083936	-0.32237	0.96878
1.446	126.87	-3.1469e+05	2991.4	0.083448	-0.32276	0.96809
1.448	126.85	-3.1469e+05	2991.1	0.08296	-0.32315	0.96741
1.45	126.79	-3.1469e+05	2990.8	0.082472	-0.32354	0.96673
1.452	126.77	-3.1469e+05	2990.6	0.082472	-0.32208	0.96614
1.454	126.81	-3.1469e+05	2990.4	0.082472	-0.32062	0.96556
1.456	126.82	-3.1469e+05	2990.2	0.082472	-0.31915	0.96497
1.458	126.82	-3.1468e+05	2990	0.082472	-0.31769	0.96439
1.46	126.85	-3.1468e+05	2989.8	0.082472	-0.31622	0.9638
1.462	126.85	-3.1468e+05	2989.7	0.083448	-0.31642	0.96321
1.464	126.81	-3.1468e+05	2989.5	0.084424	-0.31661	0.96263
1.466	126.78	-3.1469e+05	2989.4	0.0854	-0.31681	0.96204
1.468	126.8	-3.1469e+05	2989.2	0.086376	-0.317	0.96146
1.47	126.8	-3.1468e+05	2989	0.087352	-0.3172	0.96087
1.472	126.8	-3.1468e+05	2989	0.086962	-0.31671	0.96097
1.474	126.83	-3.1468e+05	2988.9	0.086571	-0.31622	0.96107
1.476	126.84	-3.1468e+05	2988.8	0.086181	-0.31574	0.96116
1.478	126.8	-3.1468e+05	2988.7	0.08579	-0.31525	0.96126
1.48	126.79	-3.1468e+05	2988.6	0.0854	-0.31476	0.96136
1.482	126.81	-3.1468e+05	2988.6	0.087157	-0.31535	0.96077
1.484	126.8	-3.1468e+05	2988.5	0.088914	-0.31593	0.96019
1.486	126.8	-3.1468e+05	2988.5	0.09067	-0.31652	0.9596
1.488	126.78	-3.1468e+05	2988.4	0.092427	-0.3171	0.95902
1.49	126.83	-3.1468e+05	2988.3	0.094184	-0.31769	0.95843
1.492	126.84	-3.1468e+05	2988.2	0.09233	-0.31779	0.95872
1.494	126.82	-3.1468e+05	2988	0.090475	-0.31788	0.95902
1.496	126.78	-3.1468e+05	2987.9	0.088621	-0.31798	0.95931
1.498	126.75	-3.1468e+05	2987.8	0.086766	-0.31808	0.9596
1.5	126.7	-3.1469e+05	2987.7	0.084912	-0.31818	0.9599
1.502	126.74	-3.1468e+05	2987.6	0.087059	-0.31769	0.95951
1.504	126.81	-3.1468e+05	2987.4	0.089206	-0.3172	0.95912
1.506	126.88	-3.1467e+05	2987.3	0.091354	-0.31671	0.95872
1.508	126.92	-3.1467e+05	2987.1	0.093501	-0.31622	0.95833
1.51	126.88	-3.1467e+05	2987	0.095648	-0.31574	0.95794
1.512	126.83	-3.1467e+05	2986.8	0.095843	-0.31622	0.95814
1.514	126.81	-3.1467e+05	2986.6	0.096038	-0.31671	0.95833
1.516	126.79	-3.1468e+05	2986.4	0.096234	-0.3172	0.95853
1.518	126.79	-3.1468e+05	2986.2	0.096429	-0.31769	0.95872
1.52	126.81	-3.1468e+05	2986.1	0.096624	-0.31818	0.95892
1.522	126.8	-3.1467e+05	2985.9	0.096819	-0.31827	0.95863
1.524	126.76	-3.1467e+05	2985.8	0.097014	-0.31837	0.95833
1.526	126.76	-3.1467e+05	2985.6	0.09721	-0.31847	0.95804
1.528	126.79	-3.1467e+05	2985.4	0.097405	-0.31857	0.95775
1.53	126.78	-3.1467e+05	2985.2	0.0976	-0.31866	0.95746
1.532	126.7	-3.1467e+05	2984.9	0.097893	-0.31837	0.95707
1.534	126.7	-3.1467e+05	2984.6	0.098186	-0.31808	0.95668
1.536	126.78	-3.1467e+05	2984.3	0.098478	-0.31779	0.95628
1.538	126.83	-3.1468e+05	2984	0.098771	-0.31749	0.95589
1.54	126.84	-3.1468e+05	2983.6	0.099064	-0.3172	0.9555
1.542	126.79	-3.1468e+05	2983.3	0.098576	-0.3172	0.95599
1.544	126.74	-3.1468e+05	2983	0.098088	-0.3172	0.95648
1.546	126.73	-3.1468e+05	2982.6	0.0976	-0.3172	0.95697
1.548	126.71	-3.1468e+05	2982.2	0.097112	-0.3172	0.95746
1.55	126.71	-3.1468e+05	2981.9	0.096624	-0.3172	0.95794
1.552	126.77	-3.1468e+05	2981.5	0.096819	-0.31749	0.95755
1.554	126.84	-3.1467e+05	2981.2	0.097014	-0.31779	0.95716
1.556	126.83	-3.1467e+05	2980.8	0.09721	-0.31808	0.95677
1.558	126.76	-3.1467e+05	2980.3	0.097405	-0.31837	0.95638
1.56	126.76	-3.1468e+05	2979.8	0.0976	-0.31866	0.95599
1.562	126.76	-3.1467e+05	2979.4	0.095453	-0.3173	0.95814
1.564	126.76	-3.1467e+05	2979	0.093306	-0.31593	0.96029
1.566	126.84	-3.1467e+05	2978.6	0.091158	-0.31456	0.96243
1.568	126.85	-3.1466e+05	2978.1	0.089011	-0.3132	0.96458
1.57	126.84	-3.1466e+05	2977.7	0.086864	-0.31183	0.96673
1.572	126.79	-3.1466e+05	2977.3	0.087157	-0.31105	0.96683
1.574	126.72	-3.1467e+05	2977	0.08745	-0.31027	0.96692
1.576	126.77	-3.1467e+05	2976.6	0.087742	-0.30949	0.96702
1.578	126.85	-3.1467e+05	2976.3	0.088035	-0.30871	0.96712
1.58	126.88	-3.1467e+05	2975.9	0.088328	-0.30793	0.96722
1.582	126.8	-3.1467e+05	2975.6	0.088718	-0.30783	0.96761
1.584	126.78	-3.1466e+05	2975.2	0.089109	-0.30773	0.968
1.586	126.83	-3.1467e+05	2974.9	0.089499	-0.30764	0.96839
1.588	126.86	-3.1467e+05	2974.5	0.08989	-0.30754	0.96878
1.59	126.89	-3.1467e+05	2974	0.09028	-0.30744	0.96917
1.592	126.88	-3.1467e+05	2973.6	0.090963	-0.30851	0.96946
1.594	126.83	-3.1467e+05	2973.2	0.091646	-0.30959	0.96975
1.596	126.87	-3.1468e+05	2972.7	0.09233	-0.31066	0.97005
1.598	126.9	-3.1467e+05	2972.2	0.093013	-0.31173	0.97034
1.6	126.85	-3.1467e+05	2971.8	0.093696	-0.31281	0.97063
1.602	126.81	-3.1467e+05	2971.4	0.092134	-0.3131	0.96858
1.604	126.79	-3.1466e+05	2971	0.090573	-0.31339	0.96653
1.606	126.79	-3.1466e+05	2970.6	0.089011	-0.31369	0.96448
1.608	126.81	-3.1466e+05	2970.1	0.08745	-0.31398	0.96243
1.61	126.87	-3.1467e+05	2969.7	0.085888	-0.31427	0.96038
1.612	126.94	-3.1468e+05	2969.3	0.084522	-0.31515	0.96097
1.614	126.95	-3.1467e+05	2968.9	0.083155	-0.31603	0.96156
1.616	126.91	-3.1467e+05	2968.5	0.081789	-0.31691	0.96214
1.618	126.87	-3.1467e+05	2968	0.080422	-0.31779	0.96273
1.62	126.85	-3.1466e+05	2967.5	0.079056	-0.31866	0.96331
1.622	126.84	-3.1467e+05	2967.1	0.080325	-0.31837	0.96273
1.624	126.84	-3.1468e+05	2966.6	0.081594	-0.31808	0.96214
1.626	126.84	-3.1467e+05	2966.1	0.082862	-0.31779	0.96156
1.628	126.87	-3.1467e+05	2965.7	0.084131	-0.31749	0.96097
1.63	126.89	-3.1467e+05	2965.2	0.0854	-0.3172	0.96038
1.632	126.85	-3.1468e+05	2964.8	0.084912	-0.31749	0.96107
1.634	126.81	-3.1468e+05	2964.4	0.084424	-0.31779	0.96175
1.636	126.81	-3.1468e+05	2964	0.083936	-0.31808	0.96243
1.638	126.81	-3.1469e+05	2963.6	0.083448	-0.31837	0.96312
1.64	126.82	-3.1469e+05	2963.2	0.08296	-0.31866	0.9638
1.642	126.93	-3.1469e+05	2962.8	0.082082	-0.31798	0.96429
1.644	126.98	-3.1469e+05	2962.5	0.081203	-0.3173	0.96478
1.646	126.89	-3.1468e+05	2962.1	0.080325	-0.31661	0.96526
1.648	126.86	-3.1468e+05	2961.7	0.079446	-0.31593	0.96575
1.65	126.88	-3.1468e+05	2961.3	0.078568	-0.31525	0.96624
1.652	126.89	-3.1467e+05	2960.9	0.07847	-0.31535	0.96653
1.654	126.93	-3.1468e+05	2960.5	0.078373	-0.31544	0.96683
1.656	126.92	-3.1468e+05	2960.1	0.078275	-0.31554	0.96712
1.658	126.89	-3.1467e+05	2959.7	0.078178	-0.31564	0.96741
1.66	126.86	-3.1467e+05	2959.3	0.07808	-0.31574	0.9677
1.662	126.82	-3.1468e+05	2958.9	0.07847	-0.31613	0.9677
1.664	126.8	-3.1468e+05	2958.4	0.078861	-0.31652	0.9677
1.666	126.91	-3.1468e+05	2958	0.079251	-0.31691	0.9677
1.668	126.96	-3.1468e+05	2957.5	0.079642	-0.3173	0.9677
1.67	126.93	-3.1468e+05	2957	0.080032	-0.31769	0.9677
1.672	126.89	-3.1469e+05	2956.6	0.081008	-0.31808	0.968
1.674	126.84	-3.1469e+05	2956.1	0.081984	-0.31847	0.96829
1.676	126.78	-3.1469e+05	2955.7	0.08296	-0.31886	0.96858
1.678	126.69	-3.1468e+05	2955.3	0.083936	-0.31925	0.96888
1.68	126.6	-3.1468e+05	2955	0.084912	-0.31964	0.96917
1.682	126.49	-3.1468e+05	2954.6	0.083643	-0.31944	0.96858
1.684	126.34	-3.1468e+05	2954.2	0.082374	-0.31925	0.968
1.686	126.18	-3.1468e+05	2953.8	0.081106	-0.31905	0.96741
1.688	126.07	-3.1468e+05	2953.5	0.079837	-0.31886	0.96683
1.69	126.01	-3.1469e+05	2953.1	0.078568	-0.31866	0.96624
1.692	125.96	-3.1469e+05	2952.8	0.077787	-0.31837	0.96595
1.694	126	-3.1469e+05	2952.5	0.077006	-0.31808	0.96565
1.696	126.17	-3.1469e+05	2952.2	0.076226	-0.31779	0.96536
1.698	126.39	-3.1469e+05	2951.9	0.075445	-0.31749	0.96507
1.7	126.54	-3.1468e+05	2951.6	0.074664	-0.3172	0.96478
1.702	126.63	-3.147e+05	2951.3	0.074762	-0.31652	0.96507
1.704	126.71	-3.1471e+05	2951.1	0.074859	-0.31583	0.96536
1.706	126.74	-3.1471e+05	2950.8	0.074957	-0.31515	0.96565
1.708	126.75	-3.147e+05	2950.5	0.075054	-0.31447	0.96595
1.71	126.82	-3.147e+05	2950.2	0.075152	-0.31378	0.96624
1.712	126.91	-3.147e+05	2949.9	0.076421	-0.31554	0.96663
1.714	126.88	-3.147e+05	2949.6	0.07769	-0.3173	0.96702
1.716	126.8	-3.1471e+05	2949.3	0.078958	-0.31905	0.96741
1.718	126.75	-3.1471e+05	2949	0.080227	-0.32081	0.9678
1.72	126.77	-3.1471e+05	2948.7	0.081496	-0.32257	0.96819
1.722	126.83	-3.1471e+05	2948.4	0.081886	-0.32198	0.968
1.724	126.87	-3.1471e+05	2948.1	0.082277	-0.3214	0.9678
1.726	126.9	-3.1471e+05	2947.8	0.082667	-0.32081	0.96761
1.728	126.91	-3.1471e+05	2947.5	0.083058	-0.32023	0.96741
1.73	126.87	-3.1471e+05	2947.2	0.083448	-0.31964	0.96722
1.732	126.87	-3.1471e+05	2946.9	0.082765	-0.32003	0.96663
1.734	126.9	-3.1471e+05	2946.6	0.082082	-0.32042	0.96604
1.736	126.87	-3.1471e+05	2946.3	0.081398	-0.32081	0.96546
1.738	126.86	-3.1471e+05	2946	0.080715	-0.3212	0.96487
1.74	126.86	-3.1472e+05	2945.6	0.080032	-0.32159	0.96429
1.742	126.91	-3.1472e+05	2945.3	0.080422	-0.32062	0.96439
1.744	126.9	-3.1473e+05	2944.9	0.080813	-0.31964	0.96448
1.746	126.84	-3.1473e+05	2944.5	0.081203	-0.31866	0.96458
1.748	126.8	-3.1473e+05	2944.2	0.081594	-0.31769	0.96468
1.75	126.86	-3.1472e+05	2943.8	0.081984	-0.31671	0.96478
1.752	126.95	-3.1472e+05	2943.4	0.081984	-0.3174	0.96478
1.754	126.92	-3.1472e+05	2943	0.081984	-0.31808	0.96478
1.756	126.87	-3.1472e+05	2942.6	0.081984	-0.31876	0.96478
1.758	126.86	-3.1473e+05	2942.2	0.081984	-0.31944	0.96478
1.76	126.84	-3.1474e+05	2941.8	0.081984	-0.32013	0.96478
1.762	126.86	-3.1473e+05	2941.4	0.082277	-0.31984	0.96468
1.764	126.85	-3.1473e+05	2941	0.08257	-0.31954	0.96458
1.766	126.85	-3.1473e+05	2940.5	0.082862	-0.31925	0.96448
1.768	126.88	-3.1473e+05	2940.1	0.083155	-0.31896	0.96439
1.77	126.84	-3.1473e+05	2939.7	0.083448	-0.31866	0.96429
1.772	126.83	-3.1474e+05	2939.3	0.083936	-0.31818	0.9637
1.774	126.85	-3.1474e+05	2938.9	0.084424	-0.31769	0.96312
1.776	126.86	-3.1474e+05	2938.4	0.084912	-0.3172	0.96253
1.778	126.85	-3.1473e+05	2938	0.0854	-0.31671	0.96195
1.78	126.85	-3.1473e+05	2937.5	0.085888	-0.31622	0.96136
1.782	126.83	-3.1473e+05	2937.2	0.084814	-0.31779	0.96234
1.784	126.83	-3.1474e+05	2936.9	0.083741	-0.31935	0.96331
1.786	126.85	-3.1474e+05	2936.6	0.082667	-0.32091	0.96429
1.788	126.85	-3.1474e+05	2936.2	0.081594	-0.32247	0.96526
1.79	126.85	-3.1475e+05	2935.9	0.08052	-0.32403	0.96624
1.792	126.83	-3.1475e+05	2935.5	0.08091	-0.32354	0.96634
1.794	126.81	-3.1476e+05	2935	0.081301	-0.32306	0.96644
1.796	126.84	-3.1477e+05	2934.6	0.081691	-0.32257	0.96653
1.798	126.88	-3.1476e+05	2934.1	0.082082	-0.32208	0.96663
1.8	126.89	-3.1476e+05	2933.7	0.082472	-0.32159	0.96673
1.802	126.85	-3.1476e+05	2933.2	0.083058	-0.32023	0.96526
1.804	126.83	-3.1476e+05	2932.7	0.083643	-0.31886	0.9638
1.806	126.82	-3.1476e+05	2932.2	0.084229	-0.31749	0.96234
1.808	126.79	-3.1476e+05	2931.8	0.084814	-0.31613	0.96087
1.81	126.84	-3.1477e+05	2931.3	0.0854	-0.31476	0.95941
1.812	126.85	-3.1477e+05	2930.9	0.086376	-0.31378	0.96195
1.814	126.81	-3.1476e+05	2930.5	0.087352	-0.31281	0.96448
1.816	126.89	-3.1476e+05	2930.1	0.088328	-0.31183	0.96702
1.818	126.94	-3.1477e+05	2929.7	0.089304	-0.31086	0.96956
1.82	126.94	-3.1477e+05	2929.4	0.09028	-0.30988	0.9721
1.822	126.88	-3.1477e+05	2929.1	0.090573	-0.30978	0.97171
1.824	126.87	-3.1477e+05	2928.9	0.090866	-0.30968	0.97132
1.826	126.84	-3.1477e+05	2928.6	0.091158	-0.30959	0.97092
1.828	126.84	-3.1477e+05	2928.3	0.091451	-0.30949	0.97053
1.83	126.84	-3.1477e+05	2928	0.091744	-0.30939	0.97014
1.832	126.83	-3.1478e+05	2927.8	0.089792	-0.30968	0.96936
1.834	126.84	-3.1477e+05	2927.5	0.08784	-0.30998	0.96858
1.836	126.85	-3.1477e+05	2927.2	0.085888	-0.31027	0.9678
1.838	126.85	-3.1477e+05	2927	0.083936	-0.31056	0.96702
1.84	126.86	-3.1478e+05	2926.7	0.081984	-0.31086	0.96624
1.842	126.85	-3.1478e+05	2926.5	0.081984	-0.31193	0.96536
1.844	126.84	-3.1478e+05	2926.3	0.081984	-0.313	0.96448
1.846	126.87	-3.1478e+05	2926.1	0.081984	-0.31408	0.9636
1.848	126.82	-3.1479e+05	2925.9	0.081984	-0.31515	0.96273
1.85	126.76	-3.1479e+05	2925.8	0.081984	-0.31622	0.96185
1.852	126.76	-3.1479e+05	2925.7	0.082374	-0.31593	0.96204
1.854	126.78	-3.1479e+05	2925.6	0.082765	-0.31564	0.96224
1.856	126.81	-3.1479e+05	2925.6	0.083155	-0.31535	0.96243
1.858	126.85	-3.1479e+05	2925.8	0.083546	-0.31505	0.96263
1.86	126.85	-3.1479e+05	2925.9	0.083936	-0.31476	0.96282
1.862	126.85	-3.1479e+05	2926.3	0.083741	-0.31486	0.96234
1.864	126.89	-3.1479e+05	2926.8	0.083546	-0.31496	0.96185
1.866	126.9	-3.1479e+05	2927.5	0.08335	-0.31505	0.96136
1.868	126.84	-3.1479e+05	2928.4	0.083155	-0.31515	0.96087
1.87	126.77	-3.148e+05	2929.3	0.08296	-0.31525	0.96038
1.872	126.75	-3.1481e+05	2930.8	0.08335	-0.31554	0.9598
1.874	126.71	-3.1481e+05	2932.2	0.083741	-0.31583	0.95921
1.876	126.72	-3.1481e+05	2934.1	0.084131	-0.31613	0.95863
1.878	126.8	-3.1481e+05	2936.3	0.084522	-0.31642	0.95804
1.88	126.85	-3.1481e+05	2938.5	0.084912	-0.31671	0.95746
1.882	126.81	-3.1481e+05	2941.3	0.084912	-0.31574	0.95863
1.884	126.76	-3.1481e+05	2944	0.084912	-0.31476	0.9598
1.886	126.76	-3.1481e+05	2946.9	0.084912	-0.31378	0.96097
1.888	126.79	-3.1482e+05	2950.1	0.084912	-0.31281	0.96214
1.89	126.77	-3.1481e+05	2953.2	0.084912	-0.31183	0.96331
1.892	126.72	-3.1481e+05	2956.6	0.085986	-0.31183	0.96273
1.894	126.68	-3.1481e+05	2959.9	0.087059	-0.31183	0.96214
1.896	126.68	-3.1482e+05	2963.4	0.088133	-0.31183	0.96156
1.898	126.69	-3.1482e+05	2966.8	0.089206	-0.31183	0.96097
1.9	126.67	-3.1483e+05	2970.3	0.09028	-0.31183	0.96038
1.902	126.63	-3.1483e+05	2973.7	0.090475	-0.31203	0.96019
1.904	126.61	-3.1483e+05	2977.1	0.09067	-0.31222	0.95999
1.906	126.6	-3.1482e+05	2980.5	0.090866	-0.31242	0.9598
1.908	126.61	-3.1482e+05	2983.7	0.091061	-0.31261	0.9596
1.91	126.59	-3.1482e+05	2986.9	0.091256	-0.31281	0.95941
1.912	126.61	-3.1482e+05	2989.8	0.088816	-0.31349	0.9597
1.914	126.61	-3.1482e+05	2992.8	0.086376	-0.31417	0.95999
1.916	126.6	-3.1482e+05	2995.6	0.083936	-0.31486	0.96029
1.918	126.59	-3.1482e+05	2998.3	0.081496	-0.31554	0.96058
1.92	126.56	-3.1483e+05	3001	0.079056	-0.31622	0.96087
1.922	126.51	-3.1483e+05	3003.4	0.080715	-0.31593	0.96116
1.924	126.64	-3.1483e+05	3005.7	0.082374	-0.31564	0.96146
1.926	126.65	-3.1482e+05	3007.9	0.084034	-0.31535	0.96175
1.928	126.59	-3.1481e+05	3009.9	0.085693	-0.31505	0.96204
1.93	126.6	-3.1481e+05	3011.9	0.087352	-0.31476	0.96234
1.932	126.59	-3.1481e+05	3013.6	0.086376	-0.31691	0.9638
1.934	126.55	-3.1481e+05	3015.3	0.0854	-0.31905	0.96526
1.936	126.59	-3.1482e+05	3016.9	0.084424	-0.3212	0.96673
1.938	126.63	-3.1481e+05	3018.3	0.083448	-0.32335	0.96819
1.94	126.56	-3.1481e+05	3019.7	0.082472	-0.3255	0.96966
1.942	126.51	-3.1481e+05	3020.9	0.081886	-0.32442	0.96927
1.944	126.5	-3.1481e+05	3022.1	0.081301	-0.32335	0.96888
1.946	126.49	-3.148e+05	3023.2	0.080715	-0.32228	0.96848
1.948	126.55	-3.148e+05	3024.2	0.08013	-0.3212	0.96809
1.95	126.6	-3.148e+05	3025.3	0.079544	-0.32013	0.9677
1.952	126.59	-3.148e+05	3026.1	0.080227	-0.31954	0.96761
1.954	126.58	-3.148e+05	3027	0.08091	-0.31896	0.96751
1.956	126.6	-3.148e+05	3027.7	0.081594	-0.31837	0.96741
1.958	126.63	-3.148e+05	3028.4	0.082277	-0.31779	0.96731
1.96	126.59	-3.1479e+05	3029	0.08296	-0.3172	0.96722
1.962	126.56	-3.1479e+05	3029.5	0.081008	-0.3174	0.96663
1.964	126.57	-3.1478e+05	3030.1	0.079056	-0.31759	0.96604
1.966	126.58	-3.1478e+05	3030.5	0.077104	-0.31779	0.96546
1.968	126.56	-3.1478e+05	3030.9	0.075152	-0.31798	0.96487
1.97	126.53	-3.1478e+05	3031.4	0.0732	-0.31818	0.96429
1.972	126.59	-3.1477e+05	3031.6	0.074664	-0.31935	0.96468
1.974	126.64	-3.1477e+05	3031.8	0.076128	-0.32052	0.96507
1.976	126.63	-3.1476e+05	3032	0.077592	-0.32169	0.96546
1.978	126.65	-3.1476e+05	3032.1	0.079056	-0.32286	0.96585
1.98	126.64	-3.1476e+05	3032.2	0.08052	-0.32403	0.96624
1.982	126.64	-3.1476e+05	3032.2	0.081203	-0.32403	0.96702
1.984	126.64	-3.1476e+05	3032.3	0.081886	-0.32403	0.9678
1.986	126.67	-3.1475e+05	3032.2	0.08257	-0.32403	0.96858
1.988	126.69	-3.1475e+05	3032.2	0.083253	-0.32403	0.96936
1.99	126.68	-3.1474e+05	3032.1	0.083936	-0.32403	0.97014
1.992	126.63	-3.1474e+05	3032	0.083546	-0.32413	0.96985
1.994	126.61	-3.1474e+05	3031.8	0.083155	-0.32423	0.96956
1.996	126.64	-3.1473e+05	3031.6	0.082765	-0.32432	0.96927
1.998	126.71	-3.1472e+05	3031.5	0.082374	-0.32442	0.96897
2	126.72	-3.1471e+05	3031.3	0.081984	-0.32452	0.96868
2.002	126.74	-3.1471e+05	3031.1	0.082179	-0.32462	0.96985
2.004	126.72	-3.1472e+05	3030.9	0.082374	-0.32472	0.97102
2.006	126.71	-3.1472e+05	3030.7	0.08257	-0.32481	0.97219
2.008	126.7	-3.1472e+05	3030.5	0.082765	-0.32491	0.97336
2.01	126.67	-3.1471e+05	3030.3	0.08296	-0.32501	0.97454
2.012	126.67	-3.147e+05	3030	0.083546	-0.32345	0.97385
2.014	126.63	-3.1469e+05	3029.8	0.084131	-0.32188	0.97317
2.016	126.62	-3.1468e+05	3029.6	0.084717	-0.32032	0.97249
2.018	126.69	-3.1468e+05	3029.4	0.085302	-0.31876	0.9718
2.02	126.78	-3.1468e+05	3029.1	0.085888	-0.3172	0.97112
2.022	126.78	-3.1468e+05	3028.9	0.085888	-0.31749	0.97132
2.024	126.71	-3.1468e+05	3028.7	0.085888	-0.31779	0.97151
2.026	126.67	-3.1468e+05	3028.5	0.085888	-0.31808	0.97171
2.028	126.66	-3.1467e+05	3028.4	0.085888	-0.31837	0.9719
2.03	126.67	-3.1466e+05	3028.2	0.085888	-0.31866	0.9721
2.032	126.68	-3.1466e+05	3028	0.086278	-0.3174	0.97171
2.034	126.7	-3.1466e+05	3027.8	0.086669	-0.31613	0.97132
2.036	126.7	-3.1466e+05	3027.5	0.087059	-0.31486	0.97092
2.038	126.71	-3.1465e+05	3027.3	0.08745	-0.31359	0.97053
2.04	126.74	-3.1465e+05	3027	0.08784	-0.31232	0.97014
2.042	126.74	-3.1465e+05	3026.7	0.088133	-0.31242	0.97102
2.044	126.73	-3.1465e+05	3026.4	0.088426	-0.31252	0.9719
2.046	126.73	-3.1464e+05	3026.1	0.088718	-0.31261	0.97278
2.048	126.72	-3.1463e+05	3025.7	0.089011	-0.31271	0.97366
2.05	126.7	-3.1463e+05	3025.4	0.089304	-0.31281	0.97454
2.052	126.73	-3.1463e+05	3025	0.088718	-0.31281	0.97454
2.054	126.78	-3.1462e+05	3024.5	0.088133	-0.31281	0.97454
2.056	126.75	-3.1462e+05	3024.1	0.087547	-0.31281	0.97454
2.058	126.68	-3.1462e+05	3023.7	0.086962	-0.31281	0.97454
2.06	126.66	-3.1462e+05	3023.3	0.086376	-0.31281	0.97454
2.062	126.7	-3.1461e+05	3022.8	0.087254	-0.31252	0.97415
2.064	126.74	-3.1461e+05	3022.4	0.088133	-0.31222	0.97376
2.066	126.71	-3.1461e+05	3021.9	0.089011	-0.31193	0.97336
2.068	126.68	-3.146e+05	3021.3	0.08989	-0.31164	0.97297
2.07	126.68	-3.146e+05	3020.8	0.090768	-0.31134	0.97258
2.072	126.7	-3.1459e+05	3020.2	0.089499	-0.31222	0.97141
2.074	126.72	-3.1459e+05	3019.6	0.08823	-0.3131	0.97024
2.076	126.78	-3.1459e+05	3018.9	0.086962	-0.31398	0.96907
2.078	126.78	-3.1459e+05	3018.2	0.085693	-0.31486	0.9679
2.08	126.71	-3.1459e+05	3017.5	0.084424	-0.31574	0.96673
2.082	126.66	-3.1458e+05	3016.7	0.082277	-0.31476	0.96692
2.084	126.72	-3.1457e+05	3016	0.08013	-0.31378	0.96712
2.086	126.75	-3.1457e+05	3015.2	0.077982	-0.31281	0.96731
2.088	126.73	-3.1456e+05	3014.4	0.075835	-0.31183	0.96751
2.09	126.71	-3.1456e+05	3013.5	0.073688	-0.31086	0.9677
2.092	126.69	-3.1456e+05	3012.6	0.074664	-0.31232	0.96653
2.094	126.68	-3.1455e+05	3011.7	0.07564	-0.31378	0.96536
2.096	126.7	-3.1455e+05	3010.7	0.076616	-0.31525	0.96419
2.098	126.75	-3.1455e+05	3009.7	0.077592	-0.31671	0.96302
2.1	126.83	-3.1455e+05	3008.7	0.078568	-0.31818	0.96185
2.102	126.84	-3.1455e+05	3007.7	0.079154	-0.31827	0.96195
2.104	126.79	-3.1455e+05	3006.7	0.079739	-0.31837	0.96204
2.106	126.73	-3.1455e+05	3005.7	0.080325	-0.31847	0.96214
2.108	126.72	-3.1455e+05	3004.8	0.08091	-0.31857	0.96224
2.11	126.71	-3.1454e+05	3003.8	0.081496	-0.31866	0.96234
2.112	126.73	-3.1454e+05	3002.8	0.081594	-0.31876	0.96263
2.114	126.76	-3.1454e+05	3001.9	0.081691	-0.31886	0.96292
2.116	126.74	-3.1454e+05	3000.9	0.081789	-0.31896	0.96321
2.118	126.71	-3.1454e+05	3000	0.081886	-0.31905	0.96351
2.12	126.7	-3.1453e+05	2999.1	0.081984	-0.31915	0.9638
2.122	126.7	-3.1453e+05	2998.3	0.079837	-0.31779	0.96409
2.124	126.73	-3.1452e+05	2997.6	0.07769	-0.31642	0.96439
2.126	126.76	-3.1453e+05	2996.9	0.075542	-0.31505	0.96468
2.128	126.78	-3.1453e+05	2996.2	0.073395	-0.31369	0.96497
2.13	126.79	-3.1453e+05	2995.5	0.071248	-0.31232	0.96526
2.132	126.78	-3.1453e+05	2995	0.073883	-0.3132	0.96419
2.134	126.8	-3.1453e+05	2994.4	0.076518	-0.31408	0.96312
2.136	126.81	-3.1453e+05	2993.8	0.079154	-0.31496	0.96204
2.138	126.77	-3.1453e+05	2993.2	0.081789	-0.31583	0.96097
2.14	126.74	-3.1452e+05	2992.6	0.084424	-0.31671	0.9599
2.142	126.77	-3.1452e+05	2992.2	0.083741	-0.31661	0.9598
2.144	126.8	-3.1452e+05	2991.8	0.083058	-0.31652	0.9597
2.146	126.75	-3.1452e+05	2991.4	0.082374	-0.31642	0.9596
2.148	126.75	-3.1452e+05	2991.2	0.081691	-0.31632	0.95951
2.15	126.8	-3.1452e+05	2990.9	0.081008	-0.31622	0.95941
2.152	126.82	-3.1452e+05	2990.6	0.081496	-0.31642	0.95941
2.154	126.73	-3.1452e+05	2990.3	0.081984	-0.31661	0.95941
2.156	126.71	-3.1452e+05	2990	0.082472	-0.31681	0.95941
2.158	126.78	-3.1453e+05	2989.8	0.08296	-0.317	0.95941
2.16	126.79	-3.1453e+05	2989.6	0.083448	-0.3172	0.95941
2.162	126.78	-3.1452e+05	2989.4	0.082765	-0.31808	0.96038
2.164	126.81	-3.1452e+05	2989.2	0.082082	-0.31896	0.96136
2.166	126.8	-3.1452e+05	2989	0.081398	-0.31984	0.96234
2.168	126.77	-3.1452e+05	2988.9	0.080715	-0.32071	0.96331
2.17	126.77	-3.1451e+05	2988.7	0.080032	-0.32159	0.96429
2.172	126.76	-3.1451e+05	2988.6	0.080422	-0.32042	0.96312
2.174	126.73	-3.1451e+05	2988.5	0.080813	-0.31925	0.96195
2.176	126.73	-3.145e+05	2988.4	0.081203	-0.31808	0.96077
2.178	126.75	-3.145e+05	2988.2	0.081594	-0.31691	0.9596
2.18	126.76	-3.145e+05	2988.1	0.081984	-0.31574	0.95843
2.182	126.78	-3.145e+05	2988	0.083058	-0.31593	0.95882
2.184	126.74	-3.145e+05	2987.9	0.084131	-0.31613	0.95921
2.186	126.71	-3.145e+05	2987.7	0.085205	-0.31632	0.9596
2.188	126.77	-3.1451e+05	2987.6	0.086278	-0.31652	0.95999
2.19	126.84	-3.1451e+05	2987.5	0.087352	-0.31671	0.96038
2.192	126.81	-3.1451e+05	2987.4	0.08784	-0.3171	0.96068
2.194	126.76	-3.1451e+05	2987.3	0.088328	-0.31749	0.96097
2.196	126.71	-3.1451e+05	2987.2	0.088816	-0.31788	0.96126
2.198	126.67	-3.1451e+05	2987.1	0.089304	-0.31827	0.96156
2.2	126.66	-3.145e+05	2987	0.089792	-0.31866	0.96185
2.202	126.73	-3.145e+05	2986.9	0.088718	-0.31808	0.96165
2.204	126.79	-3.145e+05	2986.8	0.087645	-0.31749	0.96146
2.206	126.8	-3.145e+05	2986.8	0.086571	-0.31691	0.96126
2.208	126.75	-3.145e+05	2986.7	0.085498	-0.31632	0.96107
2.21	126.75	-3.145e+05	2986.6	0.084424	-0.31574	0.96087
2.212	126.78	-3.145e+05	2986.6	0.083741	-0.31691	0.96165
2.214	126.77	-3.145e+05	2986.6	0.083058	-0.31808	0.96243
2.216	126.76	-3.1451e+05	2986.5	0.082374	-0.31925	0.96321
2.218	126.75	-3.1451e+05	2986.4	0.081691	-0.32042	0.964
2.22	126.71	-3.1451e+05	2986.3	0.081008	-0.32159	0.96478
2.222	126.7	-3.145e+05	2986.2	0.080618	-0.32149	0.96448
2.224	126.75	-3.1449e+05	2986.1	0.080227	-0.3214	0.96419
2.226	126.78	-3.1449e+05	2986	0.079837	-0.3213	0.9639
2.228	126.78	-3.145e+05	2985.8	0.079446	-0.3212	0.9636
2.23	126.77	-3.145e+05	2985.6	0.079056	-0.3211	0.96331
2.232	126.75	-3.145e+05	2985.4	0.079837	-0.32101	0.96321
2.234	126.74	-3.145e+05	2985.1	0.080618	-0.32091	0.96312
2.236	126.75	-3.145e+05	2984.9	0.081398	-0.32081	0.96302
2.238	126.77	-3.145e+05	2984.6	0.082179	-0.32071	0.96292
2.24	126.72	-3.145e+05	2984.3	0.08296	-0.32062	0.96282
2.242	126.66	-3.145e+05	2984	0.08335	-0.31935	0.96263
2.244	126.64	-3.145e+05	2983.6	0.083741	-0.31808	0.96243
2.246	126.67	-3.145e+05	2983.3	0.084131	-0.31681	0.96224
2.248	126.68	-3.1451e+05	2983	0.084522	-0.31554	0.96204
2.25	126.67	-3.1451e+05	2982.7	0.084912	-0.31427	0.96185
2.252	126.66	-3.1451e+05	2982.3	0.085498	-0.31437	0.96195
2.254	126.67	-3.145e+05	2982	0.086083	-0.31447	0.96204
2.256	126.7	-3.145e+05	2981.6	0.086669	-0.31456	0.96214
2.258	126.72	-3.145e+05	2981.3	0.087254	-0.31466	0.96224
2.26	126.75	-3.1451e+05	2980.9	0.08784	-0.31476	0.96234
2.262	126.7	-3.145e+05	2980.5	0.087352	-0.31515	0.96204
2.264	126.64	-3.1449e+05	2980.1	0.086864	-0.31554	0.96175
2.266	126.65	-3.145e+05	2979.7	0.086376	-0.31593	0.96146
2.268	126.75	-3.1451e+05	2979.3	0.085888	-0.31632	0.96116
2.27	126.85	-3.145e+05	2978.8	0.0854	-0.31671	0.96087
2.272	126.82	-3.145e+05	2978.3	0.085693	-0.31661	0.96097
2.274	126.78	-3.145e+05	2977.8	0.085986	-0.31652	0.96107
2.276	126.71	-3.145e+05	2977.3	0.086278	-0.31642	0.96116
2.278	126.69	-3.145e+05	2976.8	0.086571	-0.31632	0.96126
2.28	126.75	-3.145e+05	2976.3	0.086864	-0.31622	0.96136
2.282	126.87	-3.145e+05	2975.8	0.086571	-0.31671	0.96107
2.284	126.88	-3.145e+05	2975.4	0.086278	-0.3172	0.96077
2.286	126.83	-3.145e+05	2974.9	0.085986	-0.31769	0.96048
2.288	126.8	-3.1449e+05	2974.4	0.085693	-0.31818	0.96019
2.29	126.8	-3.145e+05	2973.9	0.0854	-0.31866	0.9599
2.292	126.82	-3.145e+05	2973.4	0.085595	-0.31769	0.96058
2.294	126.82	-3.145e+05	2973	0.08579	-0.31671	0.96126
2.296	126.81	-3.145e+05	2972.5	0.085986	-0.31574	0.96195
2.298	126.82	-3.145e+05	2972	0.086181	-0.31476	0.96263
2.3	126.79	-3.145e+05	2971.6	0.086376	-0.31378	0.96331
2.302	126.77	-3.145e+05	2971.1	0.085107	-0.31476	0.96351
2.304	126.8	-3.145e+05	2970.6	0.083838	-0.31574	0.9637
2.306	126.82	-3.145e+05	2970.2	0.08257	-0.31671	0.9639
2.308	126.82	-3.1451e+05	2969.7	0.081301	-0.31769	0.96409
2.31	126.81	-3.145e+05	2969.1	0.080032	-0.31866	0.96429
2.312	126.78	-3.145e+05	2968.7	0.081691	-0.31779	0.96341
2.314	126.73	-3.145e+05	2968.3	0.08335	-0.31691	0.96253
2.316	126.74	-3.145e+05	2967.8	0.08501	-0.31603	0.96165
2.318	126.79	-3.145e+05	2967.2	0.086669	-0.31515	0.96077
2.32	126.84	-3.145e+05	2966.7	0.088328	-0.31427	0.9599
2.322	126.87	-3.145e+05	2966.2	0.086083	-0.31505	0.96097
2.324	126.89	-3.145e+05	2965.7	0.083838	-0.31583	0.96204
2.326	126.86	-3.1449e+05	2965.3	0.081594	-0.31661	0.96312
2.328	126.84	-3.1449e+05	2964.9	0.079349	-0.3174	0.96419
2.33	126.85	-3.145e+05	2964.5	0.077104	-0.31818	0.96526
2.332	126.85	-3.1451e+05	2964.1	0.078763	-0.31847	0.96595
2.334	126.83	-3.1451e+05	2963.7	0.080422	-0.31876	0.96663
2.336	126.81	-3.1451e+05	2963.3	0.082082	-0.31905	0.96731
2.338	126.78	-3.1451e+05	2963	0.083741	-0.31935	0.968
2.34	126.79	-3.1451e+05	2962.6	0.0854	-0.31964	0.96868
2.342	126.79	-3.1451e+05	2962.2	0.083253	-0.31837	0.96751
2.344	126.77	-3.1451e+05	2961.8	0.081106	-0.3171	0.96634
2.346	126.79	-3.145e+05	2961.4	0.078958	-0.31583	0.96517
2.348	126.87	-3.145e+05	2961.1	0.076811	-0.31456	0.964
2.35	126.86	-3.1451e+05	2960.7	0.074664	-0.3133	0.96282
2.352	126.88	-3.1452e+05	2960.4	0.074566	-0.31339	0.96341
2.354	126.87	-3.1452e+05	2960.1	0.074469	-0.31349	0.964
2.356	126.88	-3.1452e+05	2959.8	0.074371	-0.31359	0.96458
2.358	126.87	-3.1452e+05	2959.4	0.074274	-0.31369	0.96517
2.36	126.83	-3.1451e+05	2959.1	0.074176	-0.31378	0.96575
2.362	126.81	-3.1452e+05	2958.8	0.074078	-0.31447	0.96556
2.364	126.79	-3.1452e+05	2958.5	0.073981	-0.31515	0.96536
2.366	126.79	-3.1452e+05	2958.2	0.073883	-0.31583	0.96517
2.368	126.83	-3.1452e+05	2957.9	0.073786	-0.31652	0.96497
2.37	126.89	-3.1452e+05	2957.6	0.073688	-0.3172	0.96478
2.372	126.88	-3.1452e+05	2957.3	0.07525	-0.31661	0.96614
2.374	126.82	-3.1452e+05	2957	0.076811	-0.31603	0.96751
2.376	126.76	-3.1452e+05	2956.7	0.078373	-0.31544	0.96888
2.378	126.7	-3.1452e+05	2956.4	0.079934	-0.31486	0.97024
2.38	126.65	-3.1452e+05	2956.1	0.081496	-0.31427	0.97161
2.382	126.59	-3.1452e+05	2955.8	0.080325	-0.31388	0.97063
2.384	126.48	-3.1453e+05	2955.6	0.079154	-0.31349	0.96966
2.386	126.37	-3.1453e+05	2955.3	0.077982	-0.3131	0.96868
2.388	126.27	-3.1453e+05	2955	0.076811	-0.31271	0.9677
2.39	126.2	-3.1453e+05	2954.7	0.07564	-0.31232	0.96673
2.392	126.13	-3.1452e+05	2954.4	0.075347	-0.31271	0.96644
2.394	126.11	-3.1452e+05	2954.1	0.075054	-0.3131	0.96614
2.396	126.17	-3.1452e+05	2953.8	0.074762	-0.31349	0.96585
2.398	126.2	-3.1453e+05	2953.5	0.074469	-0.31388	0.96556
2.4	126.29	-3.1454e+05	2953.2	0.074176	-0.31427	0.96526
2.402	126.51	-3.1453e+05	2952.9	0.074957	-0.31388	0.96565
2.404	126.67	-3.1453e+05	2952.7	0.075738	-0.31349	0.96604
2.406	126.71	-3.1453e+05	2952.4	0.076518	-0.3131	0.96644
2.408	126.72	-3.1452e+05	2952.2	0.077299	-0.31271	0.96683
2.41	126.74	-3.1453e+05	2952	0.07808	-0.31232	0.96722
2.412	126.79	-3.1453e+05	2951.8	0.077885	-0.31212	0.96624
2.414	126.86	-3.1454e+05	2951.5	0.07769	-0.31193	0.96526
2.416	126.97	-3.1454e+05	2951.3	0.077494	-0.31173	0.96429
2.418	126.97	-3.1454e+05	2951	0.077299	-0.31154	0.96331
2.42	126.89	-3.1454e+05	2950.7	0.077104	-0.31134	0.96234
2.422	126.84	-3.1454e+05	2950.5	0.076616	-0.31154	0.96273
2.424	126.85	-3.1454e+05	2950.2	0.076128	-0.31173	0.96312
2.426	126.81	-3.1454e+05	2949.9	0.07564	-0.31193	0.96351
2.428	126.79	-3.1454e+05	2949.7	0.075152	-0.31212	0.9639
2.43	126.82	-3.1455e+05	2949.4	0.074664	-0.31232	0.96429
2.432	126.8	-3.1455e+05	2949.2	0.07564	-0.3132	0.9637
2.434	126.81	-3.1455e+05	2948.9	0.076616	-0.31408	0.96312
2.436	126.85	-3.1455e+05	2948.6	0.077592	-0.31496	0.96253
2.438	126.91	-3.1455e+05	2948.3	0.078568	-0.31583	0.96195
2.44	126.92	-3.1454e+05	2948	0.079544	-0.31671	0.96136
2.442	126.88	-3.1454e+05	2947.6	0.078958	-0.31622	0.96195
2.444	126.82	-3.1454e+05	2947.3	0.078373	-0.31574	0.96253
2.446	126.79	-3.1454e+05	2946.9	0.077787	-0.31525	0.96312
2.448	126.77	-3.1455e+05	2946.6	0.077202	-0.31476	0.9637
2.45	126.75	-3.1454e+05	2946.2	0.076616	-0.31427	0.96429
2.452	126.75	-3.1454e+05	2945.8	0.076714	-0.31398	0.96439
2.454	126.76	-3.1455e+05	2945.4	0.076811	-0.31369	0.96448
2.456	126.82	-3.1456e+05	2945.1	0.076909	-0.31339	0.96458
2.458	126.88	-3.1456e+05	2944.7	0.077006	-0.3131	0.96468
2.46	126.9	-3.1455e+05	2944.4	0.077104	-0.31281	0.96478
2.462	126.89	-3.1456e+05	2944.1	0.078178	-0.31378	0.964
2.464	126.85	-3.1456e+05	2943.7	0.079251	-0.31476	0.96321
2.466	126.77	-3.1456e+05	2943.4	0.080325	-0.31574	0.96243
2.468	126.69	-3.1456e+05	2943.1	0.081398	-0.31671	0.96165
2.47	126.68	-3.1456e+05	2942.8	0.082472	-0.31769	0.96087
2.472	126.77	-3.1456e+05	2942.4	0.082765	-0.31671	0.96165
2.474	126.86	-3.1457e+05	2942	0.083058	-0.31574	0.96243
2.476	126.86	-3.1457e+05	2941.7	0.08335	-0.31476	0.96321
2.478	126.86	-3.1458e+05	2941.3	0.083643	-0.31378	0.964
2.48	126.84	-3.1458e+05	2940.9	0.083936	-0.31281	0.96478
2.482	126.81	-3.1458e+05	2940.5	0.084717	-0.31203	0.96439
2.484	126.82	-3.1458e+05	2940.2	0.085498	-0.31125	0.964
2.486	126.82	-3.1459e+05	2939.8	0.086278	-0.31047	0.9636
2.488	126.83	-3.1459e+05	2939.3	0.087059	-0.30968	0.96321
2.49	126.8	-3.1459e+05	2938.9	0.08784	-0.3089	0.96282
2.492	126.77	-3.146e+05	2938.5	0.086962	-0.31008	0.96331
2.494	126.78	-3.146e+05	2938	0.086083	-0.31125	0.9638
2.496	126.81	-3.146e+05	2937.5	0.085205	-0.31242	0.96429
2.498	126.82	-3.146e+05	2937.1	0.084326	-0.31359	0.96478
2.5	126.83	-3.146e+05	2936.6	0.083448	-0.31476	0.96526
2.502	126.79	-3.146e+05	2936.2	0.084814	-0.31359	0.96653
2.504	126.77	-3.146e+05	2935.7	0.086181	-0.31242	0.9678
2.506	126.78	-3.146e+05	2935.3	0.087547	-0.31125	0.96907
2.508	126.78	-3.1461e+05	2934.9	0.088914	-0.31008	0.97034
2.51	126.82	-3.1461e+05	2934.4	0.09028	-0.3089	0.97161
2.512	126.86	-3.146e+05	2934	0.09067	-0.30978	0.97122
2.514	126.85	-3.146e+05	2933.6	0.091061	-0.31066	0.97083
2.516	126.81	-3.146e+05	2933.1	0.091451	-0.31154	0.97044
2.518	126.77	-3.146e+05	2932.7	0.091842	-0.31242	0.97005
2.52	126.76	-3.1461e+05	2932.2	0.092232	-0.3133	0.96966
2.522	126.75	-3.1461e+05	2931.8	0.091549	-0.31271	0.96946
2.524	126.72	-3.1461e+05	2931.4	0.090866	-0.31212	0.96927
2.526	126.72	-3.146e+05	2931	0.090182	-0.31154	0.96907
2.528	126.83	-3.146e+05	2930.5	0.089499	-0.31095	0.96888
2.53	126.91	-3.146e+05	2930.1	0.088816	-0.31037	0.96868
2.532	126.86	-3.146e+05	2929.7	0.090475	-0.31144	0.96878
2.534	126.81	-3.1461e+05	2929.2	0.092134	-0.31252	0.96888
2.536	126.81	-3.1461e+05	2928.8	0.093794	-0.31359	0.96897
2.538	126.81	-3.1461e+05	2928.4	0.095453	-0.31466	0.96907
2.54	126.8	-3.1461e+05	2928	0.097112	-0.31574	0.96917
2.542	126.76	-3.1461e+05	2927.7	0.095941	-0.31515	0.96897
2.544	126.75	-3.1461e+05	2927.3	0.09477	-0.31456	0.96878
2.546	126.69	-3.1462e+05	2926.9	0.093598	-0.31398	0.96858
2.548	126.65	-3.1462e+05	2926.6	0.092427	-0.31339	0.96839
2.55	126.75	-3.1462e+05	2926.3	0.091256	-0.31281	0.96819
2.552	126.87	-3.1463e+05	2925.9	0.090378	-0.31261	0.96809
2.554	126.88	-3.1463e+05	2925.6	0.089499	-0.31242	0.968
2.556	126.85	-3.1463e+05	2925.4	0.088621	-0.31222	0.9679
2.558	126.82	-3.1463e+05	2925.2	0.087742	-0.31203	0.9678
2.56	126.8	-3.1463e+05	2925	0.086864	-0.31183	0.9677
2.562	126.78	-3.1464e+05	2925	0.086376	-0.3132	0.96644
2.564	126.77	-3.1464e+05	2924.9	0.085888	-0.31456	0.96517
2.566	126.75	-3.1464e+05	2925.1	0.0854	-0.31593	0.9639
2.568	126.71	-3.1465e+05	2925.3	0.084912	-0.3173	0.96263
2.57	126.7	-3.1465e+05	2925.6	0.084424	-0.31866	0.96136
2.572	126.7	-3.1465e+05	2926.4	0.083448	-0.31886	0.96136
2.574	126.71	-3.1465e+05	2927.1	0.082472	-0.31905	0.96136
2.576	126.77	-3.1466e+05	2928.1	0.081496	-0.31925	0.96136
2.578	126.82	-3.1466e+05	2929.3	0.08052	-0.31944	0.96136
2.58	126.78	-3.1466e+05	2930.6	0.079544	-0.31964	0.96136
2.582	126.72	-3.1466e+05	2932.5	0.079056	-0.31896	0.96175
2.584	126.66	-3.1466e+05	2934.3	0.078568	-0.31827	0.96214
2.586	126.72	-3.1466e+05	2936.5	0.07808	-0.31759	0.96253
2.588	126.77	-3.1466e+05	2939	0.077592	-0.31691	0.96292
2.59	126.72	-3.1466e+05	2941.5	0.077104	-0.31622	0.96331
2.592	126.66	-3.1466e+05	2944.4	0.078568	-0.31652	0.96282
2.594	126.71	-3.1466e+05	2947.4	0.080032	-0.31681	0.96234
2.596	126.7	-3.1467e+05	2950.6	0.081496	-0.3171	0.96185
2.598	126.67	-3.1467e+05	2953.9	0.08296	-0.3174	0.96136
2.6	126.66	-3.1467e+05	2957.2	0.084424	-0.31769	0.96087
2.602	126.59	-3.1467e+05	2960.7	0.083741	-0.31779	0.96087
2.604	126.59	-3.1468e+05	2964.1	0.083058	-0.31788	0.96087
2.606	126.62	-3.1468e+05	2967.5	0.082374	-0.31798	0.96087
2.608	126.62	-3.1468e+05	2970.9	0.081691	-0.31808	0.96087
2.61	126.62	-3.1467e+05	2974.3	0.081008	-0.31818	0.96087
2.612	126.56	-3.1466e+05	2977.7	0.080813	-0.31837	0.96107
2.614	126.5	-3.1466e+05	2981.1	0.080618	-0.31857	0.96126
2.616	126.52	-3.1466e+05	2984.3	0.080422	-0.31876	0.96146
2.618	126.59	-3.1467e+05	2987.3	0.080227	-0.31896	0.96165
2.62	126.58	-3.1467e+05	2990.4	0.080032	-0.31915	0.96185
2.622	126.56	-3.1466e+05	2993.1	0.080813	-0.31886	0.96156
2.624	126.58	-3.1466e+05	2995.9	0.081594	-0.31857	0.96126
2.626	126.57	-3.1467e+05	2998.6	0.082374	-0.31827	0.96097
2.628	126.52	-3.1468e+05	3001.1	0.083155	-0.31798	0.96068
2.63	126.47	-3.1467e+05	3003.7	0.083936	-0.31769	0.96038
2.632	126.49	-3.1467e+05	3005.8	0.083448	-0.3171	0.96146
2.634	126.57	-3.1467e+05	3008	0.08296	-0.31652	0.96253
2.636	126.58	-3.1467e+05	3010	0.082472	-0.31593	0.9636
2.638	126.52	-3.1467e+05	3011.8	0.081984	-0.31535	0.96468
2.64	126.5	-3.1467e+05	3013.7	0.081496	-0.31476	0.96575
2.642	126.51	-3.1467e+05	3015.3	0.080813	-0.31603	0.96585
2.644	126.53	-3.1466e+05	3016.9	0.08013	-0.3173	0.96595
2.646	126.53	-3.1466e+05	3018.3	0.079446	-0.31857	0.96604
2.648	126.55	-3.1466e+05	3019.6	0.078763	-0.31984	0.96614
2.65	126.54	-3.1466e+05	3020.9	0.07808	-0.3211	0.96624
2.652	126.5	-3.1466e+05	3022	0.079349	-0.3211	0.96468
2.654	126.49	-3.1465e+05	3023	0.080618	-0.3211	0.96312
2.656	126.51	-3.1465e+05	3024	0.081886	-0.3211	0.96156
2.658	126.52	-3.1465e+05	3024.8	0.083155	-0.3211	0.95999
2.66	126.52	-3.1465e+05	3025.7	0.084424	-0.3211	0.95843
2.662	126.52	-3.1464e+05	3026.4	0.084326	-0.32013	0.95882
2.664	126.49	-3.1463e+05	3027.1	0.084229	-0.31915	0.95921
2.666	126.48	-3.1463e+05	3027.7	0.084131	-0.31818	0.9596
2.668	126.55	-3.1463e+05	3028.3	0.084034	-0.3172	0.95999
2.67	126.62	-3.1463e+05	3028.8	0.083936	-0.31622	0.96038
2.672	126.6	-3.1463e+05	3029.1	0.083643	-0.31652	0.9598
2.674	126.52	-3.1462e+05	3029.5	0.08335	-0.31681	0.95921
2.676	126.45	-3.1462e+05	3029.8	0.083058	-0.3171	0.95863
2.678	126.51	-3.1462e+05	3030	0.082765	-0.3174	0.95804
2.68	126.64	-3.1462e+05	3030.2	0.082472	-0.31769	0.95746
2.682	126.7	-3.1461e+05	3030.3	0.082862	-0.31681	0.95755
2.684	126.69	-3.1461e+05	3030.4	0.083253	-0.31593	0.95765
2.686	126.62	-3.1461e+05	3030.5	0.083643	-0.31505	0.95775
2.688	126.61	-3.1461e+05	3030.4	0.084034	-0.31417	0.95785
2.69	126.62	-3.146e+05	3030.4	0.084424	-0.3133	0.95794
2.692	126.68	-3.146e+05	3030.4	0.083741	-0.31417	0.95853
2.694	126.72	-3.1459e+05	3030.3	0.083058	-0.31505	0.95912
2.696	126.65	-3.1458e+05	3030.2	0.082374	-0.31593	0.9597
2.698	126.65	-3.1458e+05	3030.1	0.081691	-0.31681	0.96029
2.7	126.67	-3.1458e+05	3029.9	0.081008	-0.31769	0.96087
2.702	126.62	-3.1457e+05	3029.8	0.080422	-0.31681	0.96273
2.704	126.56	-3.1457e+05	3029.8	0.079837	-0.31593	0.96458
2.706	126.61	-3.1456e+05	3029.7	0.079251	-0.31505	0.96644
2.708	126.68	-3.1456e+05	3029.6	0.078666	-0.31417	0.96829
2.71	126.71	-3.1456e+05	3029.5	0.07808	-0.3133	0.97014
2.712	126.71	-3.1456e+05	3029.4	0.077202	-0.3133	0.96878
2.714	126.7	-3.1455e+05	3029.3	0.076323	-0.3133	0.96741
2.716	126.68	-3.1455e+05	3029.1	0.075445	-0.3133	0.96604
2.718	126.66	-3.1455e+05	3029	0.074566	-0.3133	0.96468
2.72	126.63	-3.1455e+05	3028.9	0.073688	-0.3133	0.96331
2.722	126.58	-3.1455e+05	3028.8	0.074371	-0.3132	0.9637
2.724	126.56	-3.1454e+05	3028.6	0.075054	-0.3131	0.96409
2.726	126.57	-3.1454e+05	3028.5	0.075738	-0.313	0.96448
2.728	126.61	-3.1453e+05	3028.3	0.076421	-0.31291	0.96487
2.73	126.7	-3.1453e+05	3028.2	0.077104	-0.31281	0.96526
2.732	126.78	-3.1453e+05	3028	0.077982	-0.31398	0.96419
2.734	126.74	-3.1452e+05	3027.7	0.078861	-0.31515	0.96312
2.736	126.66	-3.1452e+05	3027.5	0.079739	-0.31632	0.96204
2.738	126.64	-3.1451e+05	3027.3	0.080618	-0.31749	0.96097
2.74	126.65	-3.1451e+05	3027	0.081496	-0.31866	0.9599
2.742	126.65	-3.1451e+05	3026.7	0.080813	-0.31769	0.96116
2.744	126.69	-3.1451e+05	3026.4	0.08013	-0.31671	0.96243
2.746	126.7	-3.145e+05	3026.1	0.079446	-0.31574	0.9637
2.748	126.64	-3.1449e+05	3025.9	0.078763	-0.31476	0.96497
2.75	126.62	-3.1449e+05	3025.6	0.07808	-0.31378	0.96624
2.752	126.63	-3.1448e+05	3025.3	0.078958	-0.31486	0.96634
2.754	126.68	-3.1449e+05	3025	0.079837	-0.31593	0.96644
2.756	126.73	-3.1449e+05	3024.6	0.080715	-0.317	0.96653
2.758	126.68	-3.1449e+05	3024.2	0.081594	-0.31808	0.96663
2.76	126.63	-3.1449e+05	3023.8	0.082472	-0.31915	0.96673
2.762	126.66	-3.1448e+05	3023.4	0.084326	-0.31847	0.96731
2.764	126.74	-3.1446e+05	3023	0.086181	-0.31779	0.9679
2.766	126.76	-3.1446e+05	3022.5	0.088035	-0.3171	0.96848
2.768	126.67	-3.1445e+05	3022	0.08989	-0.31642	0.96907
2.77	126.59	-3.1445e+05	3021.4	0.091744	-0.31574	0.96966
2.772	126.6	-3.1446e+05	3020.8	0.092134	-0.31583	0.97024
2.774	126.74	-3.1445e+05	3020.2	0.092525	-0.31593	0.97083
2.776	126.76	-3.1445e+05	3019.5	0.092915	-0.31603	0.97141
2.778	126.71	-3.1445e+05	3018.8	0.093306	-0.31613	0.972
2.78	126.68	-3.1445e+05	3018.1	0.093696	-0.31622	0.97258
2.782	126.7	-3.1445e+05	3017.3	0.092818	-0.31505	0.97239
2.784	126.72	-3.1444e+05	3016.6	0.091939	-0.31388	0.97219
2.786	126.72	-3.1443e+05	3015.8	0.091061	-0.31271	0.972
2.788	126.7	-3.1442e+05	3015	0.090182	-0.31154	0.9718
2.79	126.71	-3.1443e+05	3014.2	0.089304	-0.31037	0.97161
2.792	126.7	-3.1443e+05	3013.3	0.089597	-0.31056	0.97151
2.794	126.71	-3.1442e+05	3012.4	0.08989	-0.31076	0.97141
2.796	126.71	-3.1442e+05	3011.5	0.090182	-0.31095	0.97132
2.798	126.65	-3.1441e+05	3010.7	0.090475	-0.31115	0.97122
2.8	126.66	-3.144e+05	3009.8	0.090768	-0.31134	0.97112
2.802	126.74	-3.144e+05	3008.9	0.090378	-0.31027	0.97229
2.804	126.77	-3.144e+05	3007.9	0.089987	-0.3092	0.97346
2.806	126.76	-3.144e+05	3007	0.089597	-0.30812	0.97463
2.808	126.71	-3.144e+05	3006.1	0.089206	-0.30705	0.9758
2.81	126.65	-3.144e+05	3005.2	0.088816	-0.30598	0.97698
2.812	126.66	-3.144e+05	3004.4	0.089499	-0.30656	0.97639
2.814	126.7	-3.1439e+05	3003.5	0.090182	-0.30715	0.9758
2.816	126.73	-3.1439e+05	3002.6	0.090866	-0.30773	0.97522
2.818	126.78	-3.1439e+05	3001.8	0.091549	-0.30832	0.97463
2.82	126.76	-3.144e+05	3000.9	0.092232	-0.3089	0.97405
2.822	126.72	-3.1439e+05	3000.2	0.092232	-0.30861	0.97366
2.824	126.74	-3.1439e+05	2999.5	0.092232	-0.30832	0.97327
2.826	126.76	-3.1438e+05	2998.8	0.092232	-0.30803	0.97288
2.828	126.77	-3.1437e+05	2998.1	0.092232	-0.30773	0.97249
2.83	126.72	-3.1438e+05	2997.5	0.092232	-0.30744	0.9721
2.832	126.67	-3.1438e+05	2997	0.092232	-0.30812	0.9721
2.834	126.69	-3.1438e+05	2996.4	0.092232	-0.30881	0.9721
2.836	126.73	-3.1437e+05	2996	0.092232	-0.30949	0.9721
2.838	126.67	-3.1438e+05	2995.5	0.092232	-0.31017	0.9721
2.84	126.66	-3.1438e+05	2995.1	0.092232	-0.31086	0.9721
2.842	126.77	-3.1438e+05	2994.7	0.088523	-0.31115	0.97053
2.844	126.87	-3.1438e+05	2994.3	0.084814	-0.31144	0.96897
2.846	126.8	-3.1437e+05	2994	0.081106	-0.31173	0.96741
2.848	126.74	-3.1437e+05	2993.7	0.077397	-0.31203	0.96585
2.85	126.72	-3.1436e+05	2993.3	0.073688	-0.31232	0.96429
2.852	126.74	-3.1435e+05	2993	0.074469	-0.31281	0.9639
2.854	126.73	-3.1436e+05	2992.7	0.07525	-0.3133	0.96351
2.856	126.74	-3.1437e+05	2992.4	0.07603	-0.31378	0.96312
2.858	126.75	-3.1437e+05	2992.1	0.076811	-0.31427	0.96273
2.86	126.72	-3.1437e+05	2991.8	0.077592	-0.31476	0.96234
2.862	126.7	-3.1437e+05	2991.7	0.076518	-0.31378	0.96321
2.864	126.7	-3.1437e+05	2991.6	0.075445	-0.31281	0.96409
2.866	126.76	-3.1436e+05	2991.5	0.074371	-0.31183	0.96497
2.868	126.82	-3.1436e+05	2991.5	0.073298	-0.31086	0.96585
2.87	126.78	-3.1436e+05	2991.4	0.072224	-0.30988	0.96673
2.872	126.75	-3.1437e+05	2991.4	0.073493	-0.31095	0.96546
2.874	126.73	-3.1437e+05	2991.4	0.074762	-0.31203	0.96419
2.876	126.74	-3.1437e+05	2991.3	0.07603	-0.3131	0.96292
2.878	126.69	-3.1435e+05	2991.3	0.077299	-0.31417	0.96165
2.88	126.65	-3.1434e+05	2991.3	0.078568	-0.31525	0.96038
2.882	126.72	-3.1435e+05	2991.3	0.079251	-0.31622	0.96019
2.884	126.78	-3.1436e+05	2991.3	0.079934	-0.3172	0.95999
2.886	126.83	-3.1435e+05	2991.3	0.080618	-0.31818	0.9598
2.888	126.82	-3.1435e+05	2991.3	0.081301	-0.31915	0.9596
2.89	126.77	-3.1435e+05	2991.3	0.081984	-0.32013	0.95941
2.892	126.74	-3.1435e+05	2991.3	0.082277	-0.31935	0.9596
2.894	126.7	-3.1435e+05	2991.4	0.08257	-0.31857	0.9598
2.896	126.69	-3.1435e+05	2991.3	0.082862	-0.31779	0.95999
2.898	126.73	-3.1435e+05	2991.3	0.083155	-0.317	0.96019
2.9	126.77	-3.1435e+05	2991.2	0.083448	-0.31622	0.96038
2.902	126.74	-3.1435e+05	2991.2	0.082765	-0.3171	0.96058
2.904	126.68	-3.1435e+05	2991.1	0.082082	-0.31798	0.96077
2.906	126.7	-3.1435e+05	2991	0.081398	-0.31886	0.96097
2.908	126.74	-3.1435e+05	2991	0.080715	-0.31974	0.96116
2.91	126.73	-3.1435e+05	2990.9	0.080032	-0.32062	0.96136
2.912	126.7	-3.1435e+05	2990.8	0.079251	-0.31964	0.96175
2.914	126.72	-3.1435e+05	2990.7	0.07847	-0.31866	0.96214
2.916	126.76	-3.1435e+05	2990.6	0.07769	-0.31769	0.96253
2.918	126.77	-3.1435e+05	2990.4	0.076909	-0.31671	0.96292
2.92	126.74	-3.1435e+05	2990.2	0.076128	-0.31574	0.96331
2.922	126.68	-3.1435e+05	2990.1	0.076518	-0.31505	0.96468
2.924	126.66	-3.1435e+05	2989.9	0.076909	-0.31437	0.96604
2.926	126.7	-3.1434e+05	2989.8	0.077299	-0.31369	0.96741
2.928	126.72	-3.1433e+05	2989.6	0.07769	-0.313	0.96878
2.93	126.7	-3.1434e+05	2989.5	0.07808	-0.31232	0.97014
2.932	126.71	-3.1434e+05	2989.2	0.077885	-0.31291	0.96966
2.934	126.67	-3.1434e+05	2989	0.07769	-0.31349	0.96917
2.936	126.67	-3.1434e+05	2988.8	0.077494	-0.31408	0.96868
2.938	126.65	-3.1434e+05	2988.7	0.077299	-0.31466	0.96819
2.94	126.7	-3.1434e+05	2988.5	0.077104	-0.31525	0.9677
2.942	126.72	-3.1434e+05	2988.3	0.077885	-0.31486	0.9679
2.944	126.7	-3.1434e+05	2988.1	0.078666	-0.31447	0.96809
2.946	126.72	-3.1434e+05	2987.8	0.079446	-0.31408	0.96829
2.948	126.74	-3.1434e+05	2987.6	0.080227	-0.31369	0.96848
2.95	126.74	-3.1434e+05	2987.3	0.081008	-0.3133	0.96868
2.952	126.72	-3.1434e+05	2987	0.08052	-0.31349	0.96761
2.954	126.7	-3.1434e+05	2986.6	0.080032	-0.31369	0.96653
2.956	126.69	-3.1435e+05	2986.3	0.079544	-0.31388	0.96546
2.958	126.71	-3.1434e+05	2985.9	0.079056	-0.31408	0.96439
2.96	126.77	-3.1434e+05	2985.5	0.078568	-0.31427	0.96331
2.962	126.79	-3.1434e+05	2985.1	0.079056	-0.31398	0.96419
2.964	126.77	-3.1433e+05	2984.8	0.079544	-0.31369	0.96507
2.966	126.76	-3.1434e+05	2984.4	0.080032	-0.31339	0.96595
2.968	126.75	-3.1434e+05	2984	0.08052	-0.3131	0.96683
2.97	126.77	-3.1434e+05	2983.6	0.081008	-0.31281	0.9677
2.972	126.82	-3.1434e+05	2983.2	0.080715	-0.3132	0.96731
2.974	126.85	-3.1434e+05	2982.8	0.080422	-0.31359	0.96692
2.976	126.81	-3.1434e+05	2982.4	0.08013	-0.31398	0.96653
2.978	126.78	-3.1434e+05	2981.9	0.079837	-0.31437	0.96614
2.98	126.79	-3.1433e+05	2981.5	0.079544	-0.31476	0.96575
2.982	126.75	-3.1434e+05	2981.1	0.079837	-0.31496	0.96497
2.984	126.7	-3.1434e+05	2980.7	0.08013	-0.31515	0.96419
2.986	126.71	-3.1434e+05	2980.2	0.080422	-0.31535	0.96341
2.988	126.76	-3.1433e+05	2979.8	0.080715	-0.31554	0.96263
2.99	126.8	-3.1434e+05	2979.4	0.081008	-0.31574	0.96185
2.992	126.84	-3.1434e+05	2979	0.080715	-0.31515	0.96234
2.994	126.85	-3.1434e+05	2978.5	0.080422	-0.31456	0.96282
2.996	126.82	-3.1433e+05	2978.1	0.08013	-0.31398	0.96331
2.998	126.82	-3.1433e+05	2977.6	0.079837	-0.31339	0.9638
3	126.79	-3.1434e+05	2977.2	0.079544	-0.31281	0.96429
3.002	126.77	-3.1433e+05	2976.7	0.08013	-0.31261	0.96468
3.004	126.77	-3.1433e+05	2976.1	0.080715	-0.31242	0.96507
3.006	126.8	-3.1433e+05	2975.7	0.081301	-0.31222	0.96546
3.008	126.84	-3.1434e+05	2975.2	0.081886	-0.31203	0.96585
3.01	126.83	-3.1434e+05	2974.8	0.082472	-0.31183	0.96624
3.012	126.78	-3.1434e+05	2974.3	0.083058	-0.31183	0.96526
3.014	126.75	-3.1434e+05	2973.9	0.083643	-0.31183	0.96429
3.016	126.74	-3.1434e+05	2973.5	0.084229	-0.31183	0.96331
3.018	126.8	-3.1434e+05	2973	0.084814	-0.31183	0.96234
3.02	126.83	-3.1434e+05	2972.6	0.0854	-0.31183	0.96136
3.022	126.81	-3.1434e+05	2972.1	0.085693	-0.31212	0.96116
3.024	126.85	-3.1434e+05	2971.7	0.085986	-0.31242	0.96097
3.026	126.81	-3.1434e+05	2971.2	0.086278	-0.31271	0.96077
3.028	126.74	-3.1434e+05	2970.8	0.086571	-0.313	0.96058
3.03	126.79	-3.1434e+05	2970.4	0.086864	-0.3133	0.96038
3.032	126.83	-3.1434e+05	2970	0.085205	-0.3131	0.96136
3.034	126.8	-3.1434e+05	2969.6	0.083546	-0.31291	0.96234
3.036	126.75	-3.1435e+05	2969.2	0.081886	-0.31271	0.96331
3.038	126.75	-3.1434e+05	2968.9	0.080227	-0.31252	0.96429
3.04	126.8	-3.1434e+05	2968.5	0.078568	-0.31232	0.96526
3.042	126.84	-3.1434e+05	2968.2	0.07847	-0.31164	0.96604
3.044	126.86	-3.1435e+05	2967.8	0.078373	-0.31095	0.96683
3.046	126.83	-3.1435e+05	2967.5	0.078275	-0.31027	0.96761
3.048	126.8	-3.1435e+05	2967.1	0.078178	-0.30959	0.96839
3.05	126.82	-3.1435e+05	2966.7	0.07808	-0.3089	0.96917
3.052	126.84	-3.1435e+05	2966.4	0.077397	-0.3092	0.96888
3.054	126.87	-3.1435e+05	2966	0.076714	-0.30949	0.96858
3.056	126.83	-3.1434e+05	2965.7	0.07603	-0.30978	0.96829
3.058	126.78	-3.1435e+05	2965.3	0.075347	-0.31008	0.968
3.06	126.75	-3.1435e+05	2964.9	0.074664	-0.31037	0.9677
3.062	126.69	-3.1435e+05	2964.7	0.074664	-0.31134	0.96712
3.064	126.64	-3.1435e+05	2964.4	0.074664	-0.31232	0.96653
3.066	126.6	-3.1435e+05	2964.1	0.074664	-0.3133	0.96595
3.068	126.5	-3.1435e+05	2963.8	0.074664	-0.31427	0.96536
3.07	126.36	-3.1435e+05	2963.5	0.074664	-0.31525	0.96478
3.072	126.28	-3.1435e+05	2963.2	0.074469	-0.31544	0.96478
3.074	126.2	-3.1435e+05	2962.9	0.074274	-0.31564	0.96478
3.076	126.11	-3.1436e+05	2962.7	0.074078	-0.31583	0.96478
3.078	126.07	-3.1436e+05	2962.4	0.073883	-0.31603	0.96478
3.08	126.12	-3.1437e+05	2962.1	0.073688	-0.31622	0.96478
3.082	126.24	-3.1437e+05	2961.8	0.073493	-0.31574	0.96458
3.084	126.44	-3.1437e+05	2961.5	0.073298	-0.31525	0.96439
3.086	126.63	-3.1436e+05	2961.2	0.073102	-0.31476	0.96419
3.088	126.78	-3.1436e+05	2960.9	0.072907	-0.31427	0.964
3.09	126.84	-3.1436e+05	2960.6	0.072712	-0.31378	0.9638
3.092	126.87	-3.1436e+05	2960.3	0.073883	-0.31417	0.96292
3.094	126.87	-3.1436e+05	2960	0.075054	-0.31456	0.96204
3.096	126.86	-3.1437e+05	2959.7	0.076226	-0.31496	0.96116
3.098	126.86	-3.1437e+05	2959.4	0.077397	-0.31535	0.96029
3.1	126.86	-3.1437e+05	2959	0.078568	-0.31574	0.95941
3.102	126.89	-3.1437e+05	2958.7	0.077885	-0.31613	0.9598
3.104	126.9	-3.1437e+05	2958.3	0.077202	-0.31652	0.96019
3.106	126.88	-3.1437e+05	2957.9	0.076518	-0.31691	0.96058
3.108	126.84	-3.1436e+05	2957.6	0.075835	-0.3173	0.96097
3.11	126.81	-3.1436e+05	2957.3	0.075152	-0.31769	0.96136
3.112	126.82	-3.1436e+05	2957	0.073786	-0.3174	0.96204
3.114	126.87	-3.1437e+05	2956.7	0.072419	-0.3171	0.96273
3.116	126.81	-3.1438e+05	2956.4	0.071053	-0.31681	0.96341
3.118	126.77	-3.1438e+05	2956.1	0.069686	-0.31652	0.96409
3.12	126.79	-3.1438e+05	2955.8	0.06832	-0.31622	0.96478
3.122	126.83	-3.1438e+05	2955.5	0.068808	-0.31622	0.96458
3.124	126.91	-3.1438e+05	2955.1	0.069296	-0.31622	0.96439
3.126	126.9	-3.1438e+05	2954.8	0.069784	-0.31622	0.96419
3.128	126.9	-3.1438e+05	2954.4	0.070272	-0.31622	0.964
3.13	126.88	-3.1438e+05	2954.1	0.07076	-0.31622	0.9638
3.132	126.83	-3.1438e+05	2953.7	0.071248	-0.31681	0.9638
3.134	126.79	-3.1439e+05	2953.4	0.071736	-0.3174	0.9638
3.136	126.78	-3.1439e+05	2953	0.072224	-0.31798	0.9638
3.138	126.8	-3.1439e+05	2952.7	0.072712	-0.31857	0.9638
3.14	126.81	-3.1439e+05	2952.3	0.0732	-0.31915	0.9638
3.142	126.81	-3.144e+05	2952	0.072712	-0.31857	0.96419
3.144	126.83	-3.144e+05	2951.6	0.072224	-0.31798	0.96458
3.146	126.83	-3.144e+05	2951.2	0.071736	-0.3174	0.96497
3.148	126.79	-3.144e+05	2950.8	0.071248	-0.31681	0.96536
3.15	126.76	-3.1439e+05	2950.4	0.07076	-0.31622	0.96575
3.152	126.8	-3.1439e+05	2950	0.07115	-0.31603	0.96478
3.154	126.83	-3.1439e+05	2949.5	0.071541	-0.31583	0.9638
3.156	126.82	-3.144e+05	2949.1	0.071931	-0.31564	0.96282
3.158	126.79	-3.144e+05	2948.7	0.072322	-0.31544	0.96185
3.16	126.81	-3.144e+05	2948.2	0.072712	-0.31525	0.96087
3.162	126.87	-3.144e+05	2947.8	0.072322	-0.31535	0.96126
3.164	126.88	-3.144e+05	2947.3	0.071931	-0.31544	0.96165
3.166	126.79	-3.144e+05	2946.9	0.071541	-0.31554	0.96204
3.168	126.75	-3.144e+05	2946.5	0.07115	-0.31564	0.96243
3.17	126.77	-3.144e+05	2946.1	0.07076	-0.31574	0.96282
3.172	126.8	-3.1441e+05	2945.7	0.070662	-0.31642	0.96321
3.174	126.82	-3.1441e+05	2945.3	0.070565	-0.3171	0.9636
3.176	126.82	-3.1441e+05	2945	0.070467	-0.31779	0.964
3.178	126.8	-3.1441e+05	2944.6	0.07037	-0.31847	0.96439
3.18	126.78	-3.1441e+05	2944.2	0.070272	-0.31915	0.96478
3.182	126.74	-3.1441e+05	2943.9	0.071248	-0.31769	0.96575
3.184	126.72	-3.144e+05	2943.5	0.072224	-0.31622	0.96673
3.186	126.8	-3.1441e+05	2943.2	0.0732	-0.31476	0.9677
3.188	126.87	-3.1441e+05	2942.8	0.074176	-0.3133	0.96868
3.19	126.82	-3.1441e+05	2942.4	0.075152	-0.31183	0.96966
3.192	126.76	-3.1441e+05	2942	0.07564	-0.31281	0.96897
3.194	126.74	-3.1441e+05	2941.6	0.076128	-0.31378	0.96829
3.196	126.76	-3.1442e+05	2941.3	0.076616	-0.31476	0.96761
3.198	126.8	-3.1443e+05	2940.9	0.077104	-0.31574	0.96692
3.2	126.74	-3.1443e+05	2940.4	0.077592	-0.31671	0.96624
3.202	126.72	-3.1443e+05	2940.1	0.077006	-0.31613	0.96575
3.204	126.77	-3.1443e+05	2939.7	0.076421	-0.31554	0.96526
3.206	126.85	-3.1443e+05	2939.4	0.075835	-0.31496	0.96478
3.208	126.85	-3.1442e+05	2939	0.07525	-0.31437	0.96429
3.21	126.84	-3.1443e+05	2938.7	0.074664	-0.31378	0.9638
3.212	126.82	-3.1443e+05	2938.3	0.075152	-0.31427	0.9636
3.214	126.81	-3.1443e+05	2938	0.07564	-0.31476	0.96341
3.216	126.78	-3.1443e+05	2937.6	0.076128	-0.31525	0.96321
3.218	126.74	-3.1443e+05	2937.3	0.076616	-0.31574	0.96302
3.22	126.76	-3.1443e+05	2936.9	0.077104	-0.31622	0.96282
3.222	126.78	-3.1443e+05	2936.7	0.077592	-0.31681	0.96253
3.224	126.74	-3.1444e+05	2936.4	0.07808	-0.3174	0.96224
3.226	126.7	-3.1443e+05	2936.1	0.078568	-0.31798	0.96195
3.228	126.67	-3.1443e+05	2935.8	0.079056	-0.31857	0.96165
3.23	126.74	-3.1444e+05	2935.5	0.079544	-0.31915	0.96136
3.232	126.86	-3.1445e+05	2935.2	0.079349	-0.31954	0.96165
3.234	126.84	-3.1446e+05	2934.9	0.079154	-0.31993	0.96195
3.236	126.75	-3.1446e+05	2934.7	0.078958	-0.32032	0.96224
3.238	126.73	-3.1446e+05	2934.5	0.078763	-0.32071	0.96253
3.24	126.75	-3.1446e+05	2934.2	0.078568	-0.3211	0.96282
3.242	126.77	-3.1445e+05	2934.2	0.078373	-0.32062	0.96331
3.244	126.78	-3.1445e+05	2934.2	0.078178	-0.32013	0.9638
3.246	126.8	-3.1445e+05	2934.3	0.077982	-0.31964	0.96429
3.248	126.78	-3.1446e+05	2934.5	0.077787	-0.31915	0.96478
3.25	126.74	-3.1446e+05	2934.7	0.077592	-0.31866	0.96526
3.252	126.72	-3.1446e+05	2935.2	0.079056	-0.31886	0.964
3.254	126.72	-3.1446e+05	2935.8	0.08052	-0.31905	0.96273
3.256	126.76	-3.1446e+05	2936.5	0.081984	-0.31925	0.96146
3.258	126.75	-3.1446e+05	2937.6	0.083448	-0.31944	0.96019
3.26	126.71	-3.1446e+05	2938.6	0.084912	-0.31964	0.95892
3.262	126.71	-3.1447e+05	2940.2	0.084034	-0.32062	0.96048
3.264	126.7	-3.1447e+05	2941.7	0.083155	-0.32159	0.96204
3.266	126.7	-3.1447e+05	2943.5	0.082277	-0.32257	0.9636
3.268	126.71	-3.1447e+05	2945.5	0.081398	-0.32354	0.96517
3.27	126.71	-3.1448e+05	2947.6	0.08052	-0.32452	0.96673
3.272	126.68	-3.1448e+05	2950.1	0.079642	-0.32364	0.96663
3.274	126.65	-3.1448e+05	2952.7	0.078763	-0.32276	0.96653
3.276	126.61	-3.1448e+05	2955.5	0.077885	-0.32188	0.96644
3.278	126.59	-3.1448e+05	2958.4	0.077006	-0.32101	0.96634
3.28	126.63	-3.1448e+05	2961.3	0.076128	-0.32013	0.96624
3.282	126.67	-3.1448e+05	2964.4	0.076811	-0.32149	0.96653
3.284	126.58	-3.1449e+05	2967.4	0.077494	-0.32286	0.96683
3.286	126.5	-3.1448e+05	2970.5	0.078178	-0.32423	0.96712
3.288	126.61	-3.1448e+05	2973.5	0.078861	-0.32559	0.96741
3.29	126.75	-3.1448e+05	2976.6	0.079544	-0.32696	0.9677
3.292	126.7	-3.1448e+05	2979.5	0.079837	-0.32735	0.9678
3.294	126.6	-3.1448e+05	2982.4	0.08013	-0.32774	0.9679
3.296	126.55	-3.1448e+05	2985.2	0.080422	-0.32813	0.968
3.298	126.53	-3.1448e+05	2988.1	0.080715	-0.32852	0.96809
3.3	126.52	-3.1448e+05	2990.9	0.081008	-0.32891	0.96819
3.302	126.53	-3.1448e+05	2993.5	0.081496	-0.32833	0.96907
3.304	126.52	-3.1448e+05	2996.1	0.081984	-0.32774	0.96995
3.306	126.52	-3.1448e+05	2998.6	0.082472	-0.32716	0.97083
3.308	126.54	-3.1448e+05	3000.9	0.08296	-0.32657	0.97171
3.31	126.56	-3.1448e+05	3003.3	0.083448	-0.32598	0.97258
3.312	126.56	-3.1448e+05	3005.4	0.084034	-0.3254	0.97278
3.314	126.52	-3.1448e+05	3007.5	0.084619	-0.32481	0.97297
3.316	126.48	-3.1449e+05	3009.5	0.085205	-0.32423	0.97317
3.318	126.47	-3.1448e+05	3011.4	0.08579	-0.32364	0.97336
3.32	126.5	-3.1447e+05	3013.2	0.086376	-0.32306	0.97356
3.322	126.5	-3.1446e+05	3014.8	0.085986	-0.32306	0.97307
3.324	126.47	-3.1446e+05	3016.4	0.085595	-0.32306	0.97258
3.326	126.45	-3.1447e+05	3017.9	0.085205	-0.32306	0.9721
3.328	126.47	-3.1448e+05	3019.3	0.084814	-0.32306	0.97161
3.33	126.52	-3.1447e+05	3020.7	0.084424	-0.32306	0.97112
3.332	126.54	-3.1446e+05	3021.9	0.08335	-0.32364	0.97024
3.334	126.53	-3.1446e+05	3023.2	0.082277	-0.32423	0.96936
3.336	126.53	-3.1446e+05	3024.2	0.081203	-0.32481	0.96848
3.338	126.5	-3.1446e+05	3025.2	0.08013	-0.3254	0.96761
3.34	126.49	-3.1445e+05	3026.2	0.079056	-0.32598	0.96673
3.342	126.51	-3.1445e+05	3026.9	0.077104	-0.32481	0.96556
3.344	126.5	-3.1445e+05	3027.6	0.075152	-0.32364	0.96439
3.346	126.5	-3.1444e+05	3028.3	0.0732	-0.32247	0.96321
3.348	126.5	-3.1444e+05	3028.8	0.071248	-0.3213	0.96204
3.35	126.54	-3.1444e+05	3029.4	0.069296	-0.32013	0.96087
3.352	126.61	-3.1443e+05	3029.8	0.07115	-0.32013	0.96038
3.354	126.61	-3.1444e+05	3030.2	0.073005	-0.32013	0.9599
3.356	126.59	-3.1444e+05	3030.5	0.074859	-0.32013	0.95941
3.358	126.55	-3.1443e+05	3030.8	0.076714	-0.32013	0.95892
3.36	126.59	-3.1443e+05	3031.1	0.078568	-0.32013	0.95843
3.362	126.61	-3.1442e+05	3031.3	0.076811	-0.31993	0.95892
3.364	126.58	-3.1442e+05	3031.5	0.075054	-0.31974	0.95941
3.366	126.59	-3.1442e+05	3031.7	0.073298	-0.31954	0.9599
3.368	126.59	-3.1442e+05	3031.8	0.071541	-0.31935	0.96038
3.37	126.58	-3.1441e+05	3032	0.069784	-0.31915	0.96087
3.372	126.59	-3.144e+05	3032.1	0.069101	-0.31974	0.96214
3.374	126.57	-3.144e+05	3032.1	0.068418	-0.32032	0.96341
3.376	126.58	-3.1439e+05	3032.2	0.067734	-0.32091	0.96468
3.378	126.61	-3.1439e+05	3032.3	0.067051	-0.32149	0.96595
3.38	126.66	-3.1438e+05	3032.4	0.066368	-0.32208	0.96722
3.382	126.69	-3.1438e+05	3032.4	0.067637	-0.32071	0.96692
3.384	126.63	-3.1437e+05	3032.3	0.068906	-0.31935	0.96663
3.386	126.6	-3.1437e+05	3032.3	0.070174	-0.31798	0.96634
3.388	126.63	-3.1437e+05	3032.3	0.071443	-0.31661	0.96604
3.39	126.63	-3.1437e+05	3032.3	0.072712	-0.31525	0.96575
3.392	126.64	-3.1437e+05	3032.2	0.07281	-0.31564	0.96478
3.394	126.71	-3.1436e+05	3032.1	0.072907	-0.31603	0.9638
3.396	126.72	-3.1434e+05	3032	0.073005	-0.31642	0.96282
3.398	126.66	-3.1434e+05	3032	0.073102	-0.31681	0.96185
3.4	126.61	-3.1434e+05	3031.9	0.0732	-0.3172	0.96087
3.402	126.61	-3.1434e+05	3031.8	0.0732	-0.31788	0.96116
3.404	126.62	-3.1433e+05	3031.7	0.0732	-0.31857	0.96146
3.406	126.61	-3.1433e+05	3031.6	0.0732	-0.31925	0.96175
3.408	126.6	-3.1433e+05	3031.4	0.0732	-0.31993	0.96204
3.41	126.64	-3.1432e+05	3031.3	0.0732	-0.32062	0.96234
3.412	126.7	-3.1431e+05	3031.1	0.074274	-0.32052	0.96185
3.414	126.74	-3.1431e+05	3030.9	0.075347	-0.32042	0.96136
3.416	126.72	-3.1431e+05	3030.7	0.076421	-0.32032	0.96087
3.418	126.67	-3.1431e+05	3030.5	0.077494	-0.32023	0.96038
3.42	126.65	-3.1431e+05	3030.3	0.078568	-0.32013	0.9599
3.422	126.64	-3.143e+05	3030	0.078568	-0.32003	0.96116
3.424	126.64	-3.1429e+05	3029.8	0.078568	-0.31993	0.96243
3.426	126.64	-3.1429e+05	3029.5	0.078568	-0.31984	0.9637
3.428	126.63	-3.1429e+05	3029.2	0.078568	-0.31974	0.96497
3.43	126.62	-3.1428e+05	3028.9	0.078568	-0.31964	0.96624
3.432	126.63	-3.1428e+05	3028.6	0.07769	-0.31925	0.96497
3.434	126.64	-3.1428e+05	3028.3	0.076811	-0.31886	0.9637
3.436	126.68	-3.1428e+05	3028	0.075933	-0.31847	0.96243
3.438	126.63	-3.1427e+05	3027.7	0.075054	-0.31808	0.96116
3.44	126.58	-3.1427e+05	3027.4	0.074176	-0.31769	0.9599
3.442	126.61	-3.1426e+05	3027	0.07525	-0.31866	0.96146
3.444	126.67	-3.1426e+05	3026.5	0.076323	-0.31964	0.96302
3.446	126.66	-3.1426e+05	3026.1	0.077397	-0.32062	0.96458
3.448	126.67	-3.1426e+05	3025.6	0.07847	-0.32159	0.96614
3.45	126.65	-3.1425e+05	3025.1	0.079544	-0.32257	0.9677
3.452	126.6	-3.1425e+05	3024.5	0.079837	-0.32276	0.96761
3.454	126.76	-3.1425e+05	3023.9	0.08013	-0.32296	0.96751
3.456	126.79	-3.1424e+05	3023.3	0.080422	-0.32315	0.96741
3.458	126.72	-3.1424e+05	3022.5	0.080715	-0.32335	0.96731
3.46	126.69	-3.1423e+05	3021.8	0.081008	-0.32354	0.96722
3.462	126.66	-3.1423e+05	3021	0.081106	-0.32296	0.96722
3.464	126.66	-3.1423e+05	3020.2	0.081203	-0.32237	0.96722
3.466	126.64	-3.1422e+05	3019.3	0.081301	-0.32179	0.96722
3.468	126.64	-3.1422e+05	3018.5	0.081398	-0.3212	0.96722
3.47	126.69	-3.1422e+05	3017.7	0.081496	-0.32062	0.96722
3.472	126.74	-3.1422e+05	3016.8	0.08257	-0.32042	0.968
3.474	126.75	-3.1421e+05	3015.9	0.083643	-0.32023	0.96878
3.476	126.73	-3.1421e+05	3015	0.084717	-0.32003	0.96956
3.478	126.71	-3.142e+05	3014.2	0.08579	-0.31984	0.97034
3.48	126.69	-3.142e+05	3013.3	0.086864	-0.31964	0.97112
3.482	126.69	-3.1419e+05	3012.4	0.086571	-0.31935	0.97024
3.484	126.69	-3.1419e+05	3011.5	0.086278	-0.31905	0.96936
3.486	126.7	-3.1419e+05	3010.6	0.085986	-0.31876	0.96848
3.488	126.69	-3.1419e+05	3009.8	0.085693	-0.31847	0.96761
3.49	126.69	-3.1419e+05	3008.9	0.0854	-0.31818	0.96673
3.492	126.71	-3.1419e+05	3008	0.083936	-0.31876	0.96634
3.494	126.73	-3.1418e+05	3007.1	0.082472	-0.31935	0.96595
3.496	126.75	-3.1418e+05	3006.3	0.081008	-0.31993	0.96556
3.498	126.73	-3.1418e+05	3005.4	0.079544	-0.32052	0.96517
3.5	126.65	-3.1418e+05	3004.6	0.07808	-0.3211	0.96478
3.502	126.63	-3.1418e+05	3003.8	0.079837	-0.3212	0.96556
3.504	126.68	-3.1417e+05	3003.1	0.081594	-0.3213	0.96634
3.506	126.7	-3.1417e+05	3002.4	0.08335	-0.3214	0.96712
3.508	126.67	-3.1417e+05	3001.7	0.085107	-0.32149	0.9679
3.51	126.64	-3.1417e+05	3001	0.086864	-0.32159	0.96868
3.512	126.63	-3.1416e+05	3000.4	0.086474	-0.32198	0.96917
3.514	126.71	-3.1417e+05	2999.8	0.086083	-0.32237	0.96966
3.516	126.8	-3.1417e+05	2999.3	0.085693	-0.32276	0.97014
3.518	126.79	-3.1417e+05	2998.7	0.085302	-0.32315	0.97063
3.52	126.78	-3.1417e+05	2998.2	0.084912	-0.32354	0.97112
3.522	126.72	-3.1416e+05	2997.8	0.083741	-0.32354	0.97083
3.524	126.67	-3.1416e+05	2997.3	0.08257	-0.32354	0.97053
3.526	126.72	-3.1416e+05	2997	0.081398	-0.32354	0.97024
3.528	126.76	-3.1415e+05	2996.7	0.080227	-0.32354	0.96995
3.53	126.75	-3.1416e+05	2996.4	0.079056	-0.32354	0.96966
3.532	126.74	-3.1416e+05	2996.1	0.079446	-0.32228	0.96868
3.534	126.75	-3.1416e+05	2995.8	0.079837	-0.32101	0.9677
3.536	126.7	-3.1416e+05	2995.6	0.080227	-0.31974	0.96673
3.538	126.62	-3.1416e+05	2995.4	0.080618	-0.31847	0.96575
3.54	126.69	-3.1415e+05	2995.1	0.081008	-0.3172	0.96478
3.542	126.79	-3.1415e+05	2995	0.080032	-0.31798	0.96536
3.544	126.84	-3.1415e+05	2994.8	0.079056	-0.31876	0.96595
3.546	126.74	-3.1415e+05	2994.7	0.07808	-0.31954	0.96653
3.548	126.67	-3.1416e+05	2994.6	0.077104	-0.32032	0.96712
3.55	126.74	-3.1415e+05	2994.4	0.076128	-0.3211	0.9677
3.552	126.74	-3.1415e+05	2994.3	0.078568	-0.3214	0.96839
3.554	126.7	-3.1415e+05	2994.2	0.081008	-0.32169	0.96907
3.556	126.7	-3.1415e+05	2994	0.083448	-0.32198	0.96975
3.558	126.7	-3.1415e+05	2994	0.085888	-0.32228	0.97044
3.56	126.73	-3.1414e+05	2993.9	0.088328	-0.32257	0.97112
3.562	126.75	-3.1415e+05	2993.8	0.088328	-0.32276	0.97092
3.564	126.73	-3.1415e+05	2993.7	0.088328	-0.32296	0.97073
3.566	126.71	-3.1415e+05	2993.7	0.088328	-0.32315	0.97053
3.568	126.71	-3.1415e+05	2993.6	0.088328	-0.32335	0.97034
3.57	126.73	-3.1415e+05	2993.6	0.088328	-0.32354	0.97014
3.572	126.71	-3.1414e+05	2993.6	0.08823	-0.32432	0.97063
3.574	126.67	-3.1414e+05	2993.5	0.088133	-0.32511	0.97112
3.576	126.68	-3.1413e+05	2993.5	0.088035	-0.32589	0.97161
3.578	126.72	-3.1413e+05	2993.4	0.087938	-0.32667	0.9721
3.58	126.71	-3.1413e+05	2993.3	0.08784	-0.32745	0.97258
3.582	126.72	-3.1413e+05	2993.2	0.086766	-0.32628	0.9718
3.584	126.75	-3.1412e+05	2993.2	0.085693	-0.32511	0.97102
3.586	126.75	-3.1412e+05	2993.1	0.084619	-0.32393	0.97024
3.588	126.74	-3.1412e+05	2993	0.083546	-0.32276	0.96946
3.59	126.73	-3.1413e+05	2993	0.082472	-0.32159	0.96868
3.592	126.72	-3.1413e+05	2992.9	0.081301	-0.32286	0.96848
3.594	126.7	-3.1413e+05	2992.9	0.08013	-0.32413	0.96829
3.596	126.66	-3.1413e+05	2992.8	0.078958	-0.3254	0.96809
3.598	126.63	-3.1413e+05	2992.8	0.077787	-0.32667	0.9679
3.6	126.69	-3.1413e+05	2992.7	0.076616	-0.32794	0.9677
3.602	126.77	-3.1413e+05	2992.6	0.076226	-0.32628	0.96624
3.604	126.76	-3.1413e+05	2992.4	0.075835	-0.32462	0.96478
3.606	126.76	-3.1413e+05	2992.3	0.075445	-0.32296	0.96331
3.608	126.74	-3.1413e+05	2992	0.075054	-0.3213	0.96185
3.61	126.71	-3.1413e+05	2991.8	0.074664	-0.31964	0.96038
3.612	126.72	-3.1413e+05	2991.6	0.074664	-0.32023	0.96097
3.614	126.74	-3.1413e+05	2991.4	0.074664	-0.32081	0.96156
3.616	126.77	-3.1412e+05	2991.1	0.074664	-0.3214	0.96214
3.618	126.74	-3.1412e+05	2990.8	0.074664	-0.32198	0.96273
3.62	126.65	-3.1412e+05	2990.5	0.074664	-0.32257	0.96331
3.622	126.7	-3.1412e+05	2990.2	0.075542	-0.32325	0.96312
3.624	126.71	-3.1413e+05	2990	0.076421	-0.32393	0.96292
3.626	126.69	-3.1412e+05	2989.6	0.077299	-0.32462	0.96273
3.628	126.73	-3.1412e+05	2989.3	0.078178	-0.3253	0.96253
3.63	126.74	-3.1412e+05	2989	0.079056	-0.32598	0.96234
3.632	126.7	-3.1413e+05	2988.6	0.077592	-0.32579	0.96292
3.634	126.68	-3.1413e+05	2988.2	0.076128	-0.32559	0.96351
3.636	126.7	-3.1413e+05	2987.8	0.074664	-0.3254	0.96409
3.638	126.64	-3.1413e+05	2987.4	0.0732	-0.3252	0.96468
3.64	126.64	-3.1413e+05	2987	0.071736	-0.32501	0.96526
3.642	126.63	-3.1412e+05	2986.7	0.073395	-0.32472	0.96439
3.644	126.68	-3.1412e+05	2986.4	0.075054	-0.32442	0.96351
3.646	126.74	-3.1412e+05	2986.1	0.076714	-0.32413	0.96263
3.648	126.67	-3.1412e+05	2985.8	0.078373	-0.32384	0.96175
3.65	126.6	-3.1412e+05	2985.4	0.080032	-0.32354	0.96087
3.652	126.61	-3.1412e+05	2985.1	0.081106	-0.32393	0.95999
3.654	126.63	-3.1412e+05	2984.8	0.082179	-0.32432	0.95912
3.656	126.63	-3.1413e+05	2984.5	0.083253	-0.32472	0.95824
3.658	126.63	-3.1413e+05	2984.1	0.084326	-0.32511	0.95736
3.66	126.63	-3.1413e+05	2983.8	0.0854	-0.3255	0.95648
3.662	126.64	-3.1413e+05	2983.4	0.083546	-0.32569	0.95755
3.664	126.69	-3.1414e+05	2983	0.081691	-0.32589	0.95863
3.666	126.77	-3.1414e+05	2982.6	0.079837	-0.32608	0.9597
3.668	126.77	-3.1414e+05	2982.3	0.077982	-0.32628	0.96077
3.67	126.65	-3.1414e+05	2981.9	0.076128	-0.32647	0.96185
3.672	126.59	-3.1414e+05	2981.5	0.077787	-0.32637	0.96048
3.674	126.68	-3.1414e+05	2981.1	0.079446	-0.32628	0.95912
3.676	126.78	-3.1414e+05	2980.7	0.081106	-0.32618	0.95775
3.678	126.75	-3.1414e+05	2980.4	0.082765	-0.32608	0.95638
3.68	126.74	-3.1413e+05	2980	0.084424	-0.32598	0.95502
3.682	126.81	-3.1413e+05	2979.6	0.084522	-0.32647	0.9556
3.684	126.84	-3.1413e+05	2979.2	0.084619	-0.32696	0.95619
3.686	126.76	-3.1414e+05	2978.8	0.084717	-0.32745	0.95677
3.688	126.7	-3.1414e+05	2978.4	0.084814	-0.32794	0.95736
3.69	126.7	-3.1414e+05	2978	0.084912	-0.32842	0.95794
3.692	126.72	-3.1415e+05	2977.6	0.082472	-0.32725	0.95882
3.694	126.77	-3.1415e+05	2977.1	0.080032	-0.32608	0.9597
3.696	126.77	-3.1415e+05	2976.7	0.077592	-0.32491	0.96058
3.698	126.74	-3.1414e+05	2976.4	0.075152	-0.32374	0.96146
3.7	126.69	-3.1414e+05	2976	0.072712	-0.32257	0.96234
3.702	126.71	-3.1414e+05	2975.6	0.074762	-0.32354	0.96204
3.704	126.79	-3.1413e+05	2975.2	0.076811	-0.32452	0.96175
3.706	126.8	-3.1412e+05	2974.8	0.078861	-0.3255	0.96146
3.708	126.77	-3.1411e+05	2974.4	0.08091	-0.32647	0.96116
3.71	126.75	-3.1412e+05	2974	0.08296	-0.32745	0.96087
3.712	126.76	-3.1414e+05	2973.6	0.081691	-0.32559	0.96165
3.714	126.75	-3.1413e+05	2973.2	0.080422	-0.32374	0.96243
3.716	126.76	-3.1412e+05	2972.8	0.079154	-0.32188	0.96321
3.718	126.72	-3.1412e+05	2972.3	0.077885	-0.32003	0.964
3.72	126.66	-3.1412e+05	2971.9	0.076616	-0.31818	0.96478
3.722	126.66	-3.1413e+05	2971.5	0.077494	-0.31905	0.96439
3.724	126.72	-3.1414e+05	2971.1	0.078373	-0.31993	0.964
3.726	126.87	-3.1413e+05	2970.8	0.079251	-0.32081	0.9636
3.728	126.87	-3.1413e+05	2970.4	0.08013	-0.32169	0.96321
3.73	126.79	-3.1413e+05	2970	0.081008	-0.32257	0.96282
3.732	126.73	-3.1413e+05	2969.6	0.082277	-0.32267	0.96439
3.734	126.74	-3.1413e+05	2969.2	0.083546	-0.32276	0.96595
3.736	126.74	-3.1413e+05	2968.8	0.084814	-0.32286	0.96751
3.738	126.68	-3.1413e+05	2968.4	0.086083	-0.32296	0.96907
3.74	126.68	-3.1413e+05	2968.1	0.087352	-0.32306	0.97063
3.742	126.72	-3.1413e+05	2967.7	0.086278	-0.32286	0.97034
3.744	126.78	-3.1413e+05	2967.3	0.085205	-0.32267	0.97005
3.746	126.84	-3.1414e+05	2966.9	0.084131	-0.32247	0.96975
3.748	126.87	-3.1415e+05	2966.4	0.083058	-0.32228	0.96946
3.75	126.8	-3.1415e+05	2966	0.081984	-0.32208	0.96917
3.752	126.71	-3.1415e+05	2965.5	0.082082	-0.32208	0.96907
3.754	126.7	-3.1415e+05	2965.1	0.082179	-0.32208	0.96897
3.756	126.72	-3.1414e+05	2964.7	0.082277	-0.32208	0.96888
3.758	126.75	-3.1415e+05	2964.3	0.082374	-0.32208	0.96878
3.76	126.76	-3.1415e+05	2963.9	0.082472	-0.32208	0.96868
3.762	126.72	-3.1415e+05	2963.5	0.083546	-0.32101	0.96809
3.764	126.7	-3.1414e+05	2963.1	0.084619	-0.31993	0.96751
3.766	126.76	-3.1414e+05	2962.8	0.085693	-0.31886	0.96692
3.768	126.86	-3.1414e+05	2962.4	0.086766	-0.31779	0.96634
3.77	126.86	-3.1415e+05	2962.1	0.08784	-0.31671	0.96575
3.772	126.79	-3.1416e+05	2961.8	0.087938	-0.31749	0.96683
3.774	126.75	-3.1416e+05	2961.5	0.088035	-0.31827	0.9679
3.776	126.73	-3.1416e+05	2961.2	0.088133	-0.31905	0.96897
3.778	126.76	-3.1415e+05	2960.9	0.08823	-0.31984	0.97005
3.78	126.77	-3.1415e+05	2960.6	0.088328	-0.32062	0.97112
3.782	126.71	-3.1416e+05	2960.3	0.08784	-0.32081	0.97122
3.784	126.66	-3.1416e+05	2960	0.087352	-0.32101	0.97132
3.786	126.59	-3.1416e+05	2959.7	0.086864	-0.3212	0.97141
3.788	126.45	-3.1416e+05	2959.4	0.086376	-0.3214	0.97151
3.79	126.28	-3.1416e+05	2959.1	0.085888	-0.32159	0.97161
3.792	126.13	-3.1416e+05	2958.8	0.087352	-0.32208	0.97239
3.794	126.01	-3.1416e+05	2958.6	0.088816	-0.32257	0.97317
3.796	125.93	-3.1417e+05	2958.3	0.09028	-0.32306	0.97395
3.798	125.89	-3.1417e+05	2958	0.091744	-0.32354	0.97473
3.8	125.92	-3.1418e+05	2957.8	0.093208	-0.32403	0.97551
3.802	125.98	-3.1418e+05	2957.5	0.093013	-0.32452	0.97454
3.804	126.1	-3.1418e+05	2957.3	0.092818	-0.32501	0.97356
3.806	126.32	-3.1418e+05	2957.1	0.092622	-0.3255	0.97258
3.808	126.54	-3.1418e+05	2956.9	0.092427	-0.32598	0.97161
3.81	126.65	-3.1418e+05	2956.8	0.092232	-0.32647	0.97063
3.812	126.67	-3.1418e+05	2956.5	0.091646	-0.32618	0.97073
3.814	126.68	-3.1418e+05	2956.3	0.091061	-0.32589	0.97083
3.816	126.67	-3.1418e+05	2956.1	0.090475	-0.32559	0.97092
3.818	126.67	-3.1419e+05	2955.8	0.08989	-0.3253	0.97102
3.82	126.67	-3.1419e+05	2955.6	0.089304	-0.32501	0.97112
3.822	126.68	-3.1419e+05	2955.4	0.087645	-0.32618	0.97034
3.824	126.69	-3.1419e+05	2955.1	0.085986	-0.32735	0.96956
3.826	126.7	-3.1419e+05	2954.9	0.084326	-0.32852	0.96878
3.828	126.73	-3.1419e+05	2954.7	0.082667	-0.32969	0.968
3.83	126.76	-3.1419e+05	2954.4	0.081008	-0.33086	0.96722
3.832	126.77	-3.1419e+05	2954.1	0.079837	-0.3294	0.96722
3.834	126.74	-3.1418e+05	2953.9	0.078666	-0.32794	0.96722
3.836	126.74	-3.1418e+05	2953.6	0.077494	-0.32647	0.96722
3.838	126.76	-3.1418e+05	2953.4	0.076323	-0.32501	0.96722
3.84	126.78	-3.1418e+05	2953.1	0.075152	-0.32354	0.96722
3.842	126.76	-3.1419e+05	2952.8	0.074762	-0.32306	0.96634
3.844	126.68	-3.1419e+05	2952.6	0.074371	-0.32257	0.96546
3.846	126.64	-3.142e+05	2952.3	0.073981	-0.32208	0.96458
3.848	126.68	-3.142e+05	2952	0.07359	-0.32159	0.9637
3.85	126.76	-3.142e+05	2951.6	0.0732	-0.3211	0.96282
3.852	126.82	-3.142e+05	2951.4	0.073786	-0.3213	0.96302
3.854	126.82	-3.142e+05	2951.1	0.074371	-0.32149	0.96321
3.856	126.78	-3.142e+05	2950.7	0.074957	-0.32169	0.96341
3.858	126.74	-3.142e+05	2950.4	0.075542	-0.32188	0.9636
3.86	126.71	-3.142e+05	2950	0.076128	-0.32208	0.9638
3.862	126.68	-3.142e+05	2949.6	0.07564	-0.32149	0.964
3.864	126.65	-3.1421e+05	2949.2	0.075152	-0.32091	0.96419
3.866	126.73	-3.1421e+05	2948.9	0.074664	-0.32032	0.96439
3.868	126.81	-3.142e+05	2948.5	0.074176	-0.31974	0.96458
3.87	126.73	-3.1421e+05	2948.2	0.073688	-0.31915	0.96478
3.872	126.68	-3.1421e+05	2947.9	0.073395	-0.31993	0.96468
3.874	126.69	-3.1421e+05	2947.6	0.073102	-0.32071	0.96458
3.876	126.78	-3.1421e+05	2947.2	0.07281	-0.32149	0.96448
3.878	126.83	-3.1421e+05	2947	0.072517	-0.32228	0.96439
3.88	126.75	-3.1421e+05	2946.7	0.072224	-0.32306	0.96429
3.882	126.71	-3.1422e+05	2946.3	0.073298	-0.32442	0.96331
3.884	126.7	-3.1423e+05	2946	0.074371	-0.32579	0.96234
3.886	126.69	-3.1422e+05	2945.7	0.075445	-0.32716	0.96136
3.888	126.72	-3.1422e+05	2945.3	0.076518	-0.32852	0.96038
3.89	126.74	-3.1422e+05	2945	0.077592	-0.32989	0.95941
3.892	126.72	-3.1422e+05	2944.6	0.076714	-0.32842	0.9599
3.894	126.69	-3.1422e+05	2944.2	0.075835	-0.32696	0.96038
3.896	126.71	-3.1423e+05	2943.8	0.074957	-0.3255	0.96087
3.898	126.72	-3.1423e+05	2943.4	0.074078	-0.32403	0.96136
3.9	126.74	-3.1422e+05	2943	0.0732	-0.32257	0.96185
3.902	126.78	-3.1423e+05	2942.5	0.073688	-0.32237	0.96214
3.904	126.76	-3.1423e+05	2941.9	0.074176	-0.32218	0.96243
3.906	126.7	-3.1424e+05	2941.4	0.074664	-0.32198	0.96273
3.908	126.67	-3.1424e+05	2940.9	0.075152	-0.32179	0.96302
3.91	126.69	-3.1424e+05	2940.4	0.07564	-0.32159	0.96331
3.912	126.7	-3.1424e+05	2940	0.074469	-0.3212	0.96321
3.914	126.68	-3.1423e+05	2939.6	0.073298	-0.32081	0.96312
3.916	126.71	-3.1423e+05	2939.2	0.072126	-0.32042	0.96302
3.918	126.74	-3.1423e+05	2938.8	0.070955	-0.32003	0.96292
3.92	126.75	-3.1423e+05	2938.5	0.069784	-0.31964	0.96282
3.922	126.76	-3.1424e+05	2938.1	0.070565	-0.31925	0.96292
3.924	126.75	-3.1425e+05	2937.8	0.071346	-0.31886	0.96302
3.926	126.7	-3.1425e+05	2937.5	0.072126	-0.31847	0.96312
3.928	126.67	-3.1424e+05	2937.2	0.072907	-0.31808	0.96321
3.93	126.64	-3.1424e+05	2936.9	0.073688	-0.31769	0.96331
3.932	126.61	-3.1423e+05	2936.6	0.074078	-0.31818	0.96321
3.934	126.62	-3.1424e+05	2936.3	0.074469	-0.31866	0.96312
3.936	126.69	-3.1424e+05	2935.9	0.074859	-0.31915	0.96302
3.938	126.75	-3.1425e+05	2935.6	0.07525	-0.31964	0.96292
3.94	126.79	-3.1425e+05	2935.3	0.07564	-0.32013	0.96282
3.942	126.77	-3.1425e+05	2935	0.07564	-0.31964	0.96321
3.944	126.73	-3.1425e+05	2934.7	0.07564	-0.31915	0.9636
3.946	126.68	-3.1426e+05	2934.5	0.07564	-0.31866	0.964
3.948	126.66	-3.1426e+05	2934.2	0.07564	-0.31818	0.96439
3.95	126.71	-3.1426e+05	2933.9	0.07564	-0.31769	0.96478
3.952	126.76	-3.1426e+05	2933.8	0.077006	-0.31896	0.96565
3.954	126.74	-3.1427e+05	2933.7	0.078373	-0.32023	0.96653
3.956	126.7	-3.1427e+05	2933.6	0.079739	-0.32149	0.96741
3.958	126.67	-3.1428e+05	2933.6	0.081106	-0.32276	0.96829
3.96	126.65	-3.1428e+05	2933.7	0.082472	-0.32403	0.96917
3.962	126.64	-3.1427e+05	2934	0.082765	-0.32237	0.96858
3.964	126.6	-3.1427e+05	2934.4	0.083058	-0.32071	0.968
3.966	126.63	-3.1427e+05	2934.9	0.08335	-0.31905	0.96741
3.968	126.73	-3.1428e+05	2935.7	0.083643	-0.3174	0.96683
3.97	126.77	-3.1428e+05	2936.5	0.083936	-0.31574	0.96624
3.972	126.7	-3.1427e+05	2937.9	0.08501	-0.31652	0.96663
3.974	126.68	-3.1428e+05	2939.2	0.086083	-0.3173	0.96702
3.976	126.67	-3.1428e+05	2940.9	0.087157	-0.31808	0.96741
3.978	126.68	-3.1428e+05	2942.9	0.08823	-0.31886	0.9678
3.98	126.68	-3.1428e+05	2944.8	0.089304	-0.31964	0.96819
3.982	126.63	-3.1429e+05	2947.4	0.088718	-0.31944	0.96809
3.984	126.58	-3.1429e+05	2950	0.088133	-0.31925	0.968
3.986	126.57	-3.1429e+05	2952.8	0.087547	-0.31905	0.9679
3.988	126.59	-3.1429e+05	2955.9	0.086962	-0.31886	0.9678
3.99	126.62	-3.1429e+05	2959	0.086376	-0.31866	0.9677
3.992	126.64	-3.143e+05	2962.3	0.087254	-0.31847	0.96653
3.994	126.63	-3.143e+05	2965.6	0.088133	-0.31827	0.96536
3.996	126.6	-3.143e+05	2969	0.089011	-0.31808	0.96419
3.998	126.56	-3.1429e+05	2972.4	0.08989	-0.31788	0.96302
4	126.5	-3.1429e+05	2975.8	0.090768	-0.31769	0.96185
4.002	126.47	-3.1429e+05	2979.2	0.090573	-0.31818	0.96263
4.004	126.48	-3.1429e+05	2982.5	0.090378	-0.31866	0.96341
4.006	126.53	-3.1429e+05	2985.7	0.090182	-0.31915	0.96419
4.008	126.6	-3.1429e+05	2988.8	0.089987	-0.31964	0.96497
4.01	126.59	-3.1429e+05	2991.9	0.089792	-0.32013	0.96575
4.012	126.52	-3.143e+05	2994.8	0.088914	-0.32023	0.96556
4.014	126.48	-3.143e+05	2997.7	0.088035	-0.32032	0.96536
4.016	126.5	-3.143e+05	3000.4	0.087157	-0.32042	0.96517
4.018	126.56	-3.143e+05	3003	0.086278	-0.32052	0.96497
4.02	126.56	-3.143e+05	3005.6	0.0854	-0.32062	0.96478
4.022	126.53	-3.143e+05	3008	0.08579	-0.32071	0.96507
4.024	126.47	-3.143e+05	3010.3	0.086181	-0.32081	0.96536
4.026	126.46	-3.143e+05	3012.5	0.086571	-0.32091	0.96565
4.028	126.47	-3.1429e+05	3014.6	0.086962	-0.32101	0.96595
4.03	126.5	-3.1429e+05	3016.7	0.087352	-0.3211	0.96624
4.032	126.52	-3.1429e+05	3018.5	0.086669	-0.32198	0.96663
4.034	126.49	-3.1429e+05	3020.3	0.085986	-0.32286	0.96702
4.036	126.45	-3.1429e+05	3022	0.085302	-0.32374	0.96741
4.038	126.43	-3.1428e+05	3023.6	0.084619	-0.32462	0.9678
4.04	126.4	-3.1428e+05	3025.2	0.083936	-0.3255	0.96819
4.042	126.34	-3.1428e+05	3026.5	0.0854	-0.32462	0.96614
4.044	126.38	-3.1428e+05	3027.9	0.086864	-0.32374	0.96409
4.046	126.43	-3.1428e+05	3029.1	0.088328	-0.32286	0.96204
4.048	126.45	-3.1428e+05	3030.1	0.089792	-0.32198	0.95999
4.05	126.5	-3.1428e+05	3031.2	0.091256	-0.3211	0.95794
4.052	126.51	-3.1428e+05	3032	0.091256	-0.3212	0.95804
4.054	126.49	-3.1427e+05	3032.8	0.091256	-0.3213	0.95814
4.056	126.45	-3.1426e+05	3033.6	0.091256	-0.3214	0.95824
4.058	126.48	-3.1426e+05	3034.3	0.091256	-0.32149	0.95833
4.06	126.51	-3.1425e+05	3035	0.091256	-0.32159	0.95843
4.062	126.47	-3.1425e+05	3035.5	0.090866	-0.32159	0.95892
4.064	126.41	-3.1425e+05	3036.1	0.090475	-0.32159	0.95941
4.066	126.4	-3.1424e+05	3036.6	0.090085	-0.32159	0.9599
4.068	126.42	-3.1423e+05	3037.1	0.089694	-0.32159	0.96038
4.07	126.42	-3.1423e+05	3037.5	0.089304	-0.32159	0.96087
4.072	126.43	-3.1422e+05	3037.9	0.089597	-0.32188	0.96029
4.074	126.41	-3.1422e+05	3038.2	0.08989	-0.32218	0.9597
4.076	126.38	-3.1422e+05	3038.6	0.090182	-0.32247	0.95912
4.078	126.44	-3.1421e+05	3038.9	0.090475	-0.32276	0.95853
4.08	126.59	-3.1421e+05	3039.2	0.090768	-0.32306	0.95794
4.082	126.67	-3.142e+05	3039.3	0.088914	-0.32384	0.95882
4.084	126.65	-3.142e+05	3039.5	0.087059	-0.32462	0.9597
4.086	126.59	-3.142e+05	3039.6	0.085205	-0.3254	0.96058
4.088	126.55	-3.142e+05	3039.7	0.08335	-0.32618	0.96146
4.09	126.51	-3.1419e+05	3039.8	0.081496	-0.32696	0.96234
4.092	126.5	-3.1418e+05	3039.8	0.081398	-0.32696	0.96273
4.094	126.5	-3.1418e+05	3039.8	0.081301	-0.32696	0.96312
4.096	126.48	-3.1417e+05	3039.8	0.081203	-0.32696	0.96351
4.098	126.48	-3.1417e+05	3039.8	0.081106	-0.32696	0.9639
4.1	126.55	-3.1416e+05	3039.7	0.081008	-0.32696	0.96429
4.102	126.59	-3.1416e+05	3039.7	0.079642	-0.32706	0.96448
4.104	126.56	-3.1416e+05	3039.6	0.078275	-0.32716	0.96468
4.106	126.54	-3.1416e+05	3039.6	0.076909	-0.32725	0.96487
4.108	126.55	-3.1415e+05	3039.5	0.075542	-0.32735	0.96507
4.11	126.55	-3.1414e+05	3039.5	0.074176	-0.32745	0.96526
4.112	126.58	-3.1413e+05	3039.4	0.073395	-0.32686	0.96517
4.114	126.61	-3.1413e+05	3039.3	0.072614	-0.32628	0.96507
4.116	126.57	-3.1412e+05	3039.2	0.071834	-0.32569	0.96497
4.118	126.52	-3.1412e+05	3039.1	0.071053	-0.32511	0.96487
4.12	126.49	-3.1411e+05	3039	0.070272	-0.32452	0.96478
4.122	126.5	-3.1411e+05	3038.9	0.07076	-0.32472	0.96429
4.124	126.54	-3.1411e+05	3038.8	0.071248	-0.32491	0.9638
4.126	126.55	-3.141e+05	3038.7	0.071736	-0.32511	0.96331
4.128	126.53	-3.141e+05	3038.5	0.072224	-0.3253	0.96282
4.13	126.52	-3.1409e+05	3038.3	0.072712	-0.3255	0.96234
4.132	126.49	-3.1409e+05	3038.2	0.0732	-0.32628	0.96195
4.134	126.5	-3.1408e+05	3038	0.073688	-0.32706	0.96156
4.136	126.59	-3.1406e+05	3037.9	0.074176	-0.32784	0.96116
4.138	126.64	-3.1406e+05	3037.7	0.074664	-0.32862	0.96077
4.14	126.58	-3.1406e+05	3037.6	0.075152	-0.3294	0.96038
4.142	126.55	-3.1406e+05	3037.5	0.076518	-0.3295	0.95951
4.144	126.57	-3.1405e+05	3037.3	0.077885	-0.3296	0.95863
4.146	126.56	-3.1405e+05	3037.1	0.079251	-0.32969	0.95775
4.148	126.54	-3.1404e+05	3036.9	0.080618	-0.32979	0.95687
4.15	126.55	-3.1404e+05	3036.7	0.081984	-0.32989	0.95599
4.152	126.58	-3.1404e+05	3036.5	0.081691	-0.33028	0.95668
4.154	126.58	-3.1403e+05	3036.3	0.081398	-0.33067	0.95736
4.156	126.53	-3.1402e+05	3036	0.081106	-0.33106	0.95804
4.158	126.54	-3.1402e+05	3035.7	0.080813	-0.33145	0.95872
4.16	126.59	-3.1401e+05	3035.4	0.08052	-0.33184	0.95941
4.162	126.58	-3.1401e+05	3035.1	0.079837	-0.33174	0.9596
4.164	126.58	-3.1401e+05	3034.7	0.079154	-0.33164	0.9598
4.166	126.59	-3.1401e+05	3034.4	0.07847	-0.33155	0.95999
4.168	126.57	-3.14e+05	3034.1	0.077787	-0.33145	0.96019
4.17	126.53	-3.14e+05	3033.7	0.077104	-0.33135	0.96038
4.172	126.53	-3.1399e+05	3033.4	0.077397	-0.33077	0.96234
4.174	126.56	-3.1399e+05	3033	0.07769	-0.33018	0.96429
4.176	126.59	-3.1399e+05	3032.6	0.077982	-0.3296	0.96624
4.178	126.6	-3.1399e+05	3032.1	0.078275	-0.32901	0.96819
4.18	126.57	-3.1399e+05	3031.6	0.078568	-0.32842	0.97014
4.182	126.51	-3.1398e+05	3031.1	0.080032	-0.32794	0.97014
4.184	126.53	-3.1396e+05	3030.6	0.081496	-0.32745	0.97014
4.186	126.6	-3.1396e+05	3030	0.08296	-0.32696	0.97014
4.188	126.63	-3.1396e+05	3029.4	0.084424	-0.32647	0.97014
4.19	126.63	-3.1395e+05	3028.8	0.085888	-0.32598	0.97014
4.192	126.62	-3.1395e+05	3028.1	0.086181	-0.32501	0.97005
4.194	126.59	-3.1394e+05	3027.4	0.086474	-0.32403	0.96995
4.196	126.58	-3.1393e+05	3026.7	0.086766	-0.32306	0.96985
4.198	126.59	-3.1393e+05	3026	0.087059	-0.32208	0.96975
4.2	126.58	-3.1392e+05	3025.2	0.087352	-0.3211	0.96966
4.202	126.57	-3.1392e+05	3024.4	0.086962	-0.3212	0.96927
4.204	126.58	-3.1391e+05	3023.5	0.086571	-0.3213	0.96888
4.206	126.57	-3.1392e+05	3022.7	0.086181	-0.3214	0.96848
4.208	126.57	-3.1392e+05	3021.8	0.08579	-0.32149	0.96809
4.21	126.64	-3.1392e+05	3020.9	0.0854	-0.32159	0.9677
4.212	126.64	-3.1391e+05	3020	0.085205	-0.3214	0.96712
4.214	126.58	-3.1391e+05	3019.1	0.08501	-0.3212	0.96653
4.216	126.55	-3.139e+05	3018.3	0.084814	-0.32101	0.96595
