t	ekg	optical	pressure	accel_x	accel_y	accel_z
0	92.51	-2.9704e+05	3286.7	-0.35966	0.8664	0.36678
0.002	92.513	-2.9704e+05	3286.5	-0.35917	0.8663	0.36688
0.004	92.519	-2.9705e+05	3286.4	-0.35868	0.8662	0.36698
0.006	92.528	-2.9705e+05	3286.2	-0.35819	0.8661	0.36707
0.008	92.541	-2.9705e+05	3286	-0.3577	0.866	0.36717
0.01	92.556	-2.9705e+05	3285.8	-0.35722	0.86591	0.36727
0.012	92.566	-2.9704e+05	3285.7	-0.35673	0.86581	0.36737
0.014	92.576	-2.9704e+05	3285.5	-0.35624	0.86571	0.36746
0.016	92.586	-2.9704e+05	3285.3	-0.35761	0.8663	0.36766
0.018	92.584	-2.9703e+05	3285.2	-0.35897	0.86688	0.36785
0.02	92.58	-2.9704e+05	3285	-0.36034	0.86747	0.36805
0.022	92.579	-2.9704e+05	3284.7	-0.36171	0.86805	0.36824
0.024	92.58	-2.9704e+05	3284.5	-0.36307	0.86864	0.36844
0.026	92.584	-2.9703e+05	3284.3	-0.36219	0.86757	0.36864
0.028	92.587	-2.9703e+05	3284.1	-0.36132	0.86649	0.36883
0.03	92.587	-2.9703e+05	3283.9	-0.36044	0.86542	0.36903
0.032	92.587	-2.9704e+05	3283.7	-0.35956	0.86435	0.36922
0.034	92.59	-2.9705e+05	3283.5	-0.35868	0.86327	0.36942
0.036	92.593	-2.9705e+05	3283.3	-0.35761	0.86415	0.36815
0.038	92.594	-2.9705e+05	3283.1	-0.35653	0.86503	0.36688
0.04	92.595	-2.9705e+05	3282.9	-0.35546	0.86591	0.36561
0.042	92.595	-2.9704e+05	3282.7	-0.35439	0.86679	0.36434
0.044	92.597	-2.9704e+05	3282.5	-0.35331	0.86766	0.36307
0.046	92.6	-2.9704e+05	3282.3	-0.3537	0.86747	0.36317
0.048	92.601	-2.9704e+05	3282	-0.35409	0.86727	0.36327
0.05	92.6	-2.9704e+05	3281.8	-0.35448	0.86708	0.36336
0.052	92.596	-2.9704e+05	3281.7	-0.35487	0.86688	0.36346
0.054	92.593	-2.9704e+05	3281.5	-0.35526	0.86669	0.36356
0.056	92.593	-2.9704e+05	3281.3	-0.35565	0.86679	0.36395
0.058	92.596	-2.9704e+05	3281.1	-0.35604	0.86688	0.36434
0.06	92.605	-2.9704e+05	3281	-0.35644	0.86698	0.36473
0.062	92.604	-2.9704e+05	3280.8	-0.35683	0.86708	0.36512
0.064	92.609	-2.9704e+05	3280.6	-0.35722	0.86718	0.36551
0.066	92.61	-2.9703e+05	3280.4	-0.35673	0.86698	0.36571
0.068	92.609	-2.9704e+05	3280.3	-0.35624	0.86679	0.3659
0.07	92.607	-2.9704e+05	3280.1	-0.35575	0.86659	0.3661
0.072	92.607	-2.9704e+05	3280	-0.35526	0.8664	0.36629
0.074	92.603	-2.9704e+05	3279.9	-0.35478	0.8662	0.36649
0.076	92.604	-2.9703e+05	3279.7	-0.35526	0.8664	0.36629
0.078	92.611	-2.9703e+05	3279.6	-0.35575	0.86659	0.3661
0.08	92.613	-2.9703e+05	3279.5	-0.35624	0.86679	0.3659
0.082	92.61	-2.9703e+05	3279.3	-0.35673	0.86698	0.36571
0.084	92.607	-2.9704e+05	3279.2	-0.35722	0.86718	0.36551
0.086	92.609	-2.9704e+05	3279.1	-0.35731	0.86776	0.36541
0.088	92.607	-2.9704e+05	3279	-0.35741	0.86835	0.36532
0.09	92.603	-2.9704e+05	3278.9	-0.35751	0.86893	0.36522
0.092	92.605	-2.9704e+05	3278.8	-0.35761	0.86952	0.36512
0.094	92.611	-2.9703e+05	3278.6	-0.3577	0.8701	0.36502
0.096	92.618	-2.9703e+05	3278.6	-0.35839	0.8704	0.36502
0.098	92.618	-2.9703e+05	3278.5	-0.35907	0.87069	0.36502
0.1	92.615	-2.9703e+05	3278.4	-0.35975	0.87098	0.36502
0.102	92.616	-2.9703e+05	3278.3	-0.36044	0.87128	0.36502
0.104	92.616	-2.9703e+05	3278.2	-0.36112	0.87157	0.36502
0.106	92.617	-2.9702e+05	3278.1	-0.36063	0.87098	0.36483
0.108	92.617	-2.9702e+05	3278	-0.36014	0.8704	0.36463
0.11	92.612	-2.9703e+05	3277.9	-0.35966	0.86981	0.36444
0.112	92.602	-2.9703e+05	3277.8	-0.35917	0.86923	0.36424
0.114	92.578	-2.9703e+05	3277.7	-0.35868	0.86864	0.36405
0.116	92.539	-2.9703e+05	3277.5	-0.35878	0.86844	0.36424
0.118	92.487	-2.9702e+05	3277.4	-0.35888	0.86825	0.36444
0.12	92.417	-2.9702e+05	3277.3	-0.35897	0.86805	0.36463
0.122	92.327	-2.9702e+05	3277.2	-0.35907	0.86786	0.36483
0.124	92.212	-2.9702e+05	3277.1	-0.35917	0.86766	0.36502
0.126	92.08	-2.9703e+05	3277	-0.35897	0.86698	0.36629
0.128	91.958	-2.9703e+05	3276.9	-0.35878	0.8663	0.36756
0.13	91.871	-2.9703e+05	3276.8	-0.35858	0.86561	0.36883
0.132	91.837	-2.9703e+05	3276.7	-0.35839	0.86493	0.3701
0.134	91.861	-2.9703e+05	3276.6	-0.35819	0.86425	0.37137
0.136	91.954	-2.9703e+05	3276.4	-0.36005	0.86591	0.37117
0.138	92.104	-2.9703e+05	3276.3	-0.3619	0.86757	0.37098
0.14	92.288	-2.9703e+05	3276.2	-0.36376	0.86923	0.37078
0.142	92.449	-2.9703e+05	3276.1	-0.36561	0.87088	0.37059
0.144	92.556	-2.9703e+05	3276	-0.36746	0.87254	0.37039
0.146	92.605	-2.9703e+05	3275.9	-0.36698	0.87284	0.37049
0.148	92.629	-2.9703e+05	3275.8	-0.36649	0.87313	0.37059
0.15	92.635	-2.9702e+05	3275.6	-0.366	0.87342	0.37068
0.152	92.644	-2.9702e+05	3275.5	-0.36551	0.87372	0.37078
0.154	92.658	-2.9702e+05	3275.4	-0.36502	0.87401	0.37088
0.156	92.665	-2.9702e+05	3275.2	-0.36512	0.87372	0.37049
0.158	92.66	-2.9703e+05	3275.1	-0.36522	0.87342	0.3701
0.16	92.652	-2.9703e+05	3275	-0.36532	0.87313	0.36971
0.162	92.647	-2.9703e+05	3274.8	-0.36541	0.87284	0.36932
0.164	92.649	-2.9703e+05	3274.7	-0.36551	0.87254	0.36893
0.166	92.653	-2.9703e+05	3274.6	-0.36532	0.87284	0.36903
0.168	92.655	-2.9703e+05	3274.5	-0.36512	0.87313	0.36912
0.17	92.648	-2.9703e+05	3274.3	-0.36493	0.87342	0.36922
0.172	92.642	-2.9703e+05	3274.2	-0.36473	0.87372	0.36932
0.174	92.637	-2.9703e+05	3274.1	-0.36454	0.87401	0.36942
0.176	92.635	-2.9703e+05	3274	-0.36463	0.87411	0.36942
0.178	92.631	-2.9702e+05	3273.9	-0.36473	0.8742	0.36942
0.18	92.625	-2.9703e+05	3273.7	-0.36483	0.8743	0.36942
0.182	92.622	-2.9703e+05	3273.6	-0.36493	0.8744	0.36942
0.184	92.621	-2.9703e+05	3273.5	-0.36502	0.8745	0.36942
0.186	92.621	-2.9703e+05	3273.3	-0.36327	0.87274	0.36893
0.188	92.62	-2.9702e+05	3273.2	-0.36151	0.87098	0.36844
0.19	92.617	-2.9702e+05	3273	-0.35975	0.86923	0.36795
0.192	92.614	-2.9702e+05	3272.8	-0.358	0.86747	0.36746
0.194	92.616	-2.9702e+05	3272.7	-0.35624	0.86571	0.36698
0.196	92.62	-2.9702e+05	3272.5	-0.35702	0.86688	0.36707
0.198	92.622	-2.9702e+05	3272.4	-0.3578	0.86805	0.36717
0.2	92.621	-2.9702e+05	3272.2	-0.35858	0.86923	0.36727
0.202	92.618	-2.9703e+05	3272.1	-0.35936	0.8704	0.36737
0.204	92.613	-2.9703e+05	3272	-0.36014	0.87157	0.36746
0.206	92.611	-2.9703e+05	3271.9	-0.36249	0.8702	0.36824
0.208	92.609	-2.9703e+05	3271.8	-0.36483	0.86884	0.36903
0.21	92.607	-2.9702e+05	3271.6	-0.36717	0.86747	0.36981
0.212	92.607	-2.9702e+05	3271.4	-0.36951	0.8661	0.37059
0.214	92.609	-2.9702e+05	3271.2	-0.37186	0.86474	0.37137
0.216	92.608	-2.9702e+05	3271	-0.37117	0.86513	0.37137
0.218	92.603	-2.9702e+05	3270.8	-0.37049	0.86552	0.37137
0.22	92.604	-2.9703e+05	3270.6	-0.36981	0.86591	0.37137
0.222	92.6	-2.9703e+05	3270.5	-0.36912	0.8663	0.37137
0.224	92.599	-2.9703e+05	3270.3	-0.36844	0.86669	0.37137
0.226	92.596	-2.9703e+05	3270	-0.36727	0.86825	0.37234
0.228	92.595	-2.9702e+05	3269.8	-0.3661	0.86981	0.37332
0.23	92.6	-2.9702e+05	3269.6	-0.36493	0.87137	0.3743
0.232	92.602	-2.9702e+05	3269.4	-0.36376	0.87293	0.37527
0.234	92.598	-2.9703e+05	3269.2	-0.36258	0.8745	0.37625
0.236	92.593	-2.9703e+05	3269	-0.36356	0.8742	0.37527
0.238	92.59	-2.9702e+05	3268.7	-0.36454	0.87391	0.3743
0.24	92.594	-2.9702e+05	3268.5	-0.36551	0.87362	0.37332
0.242	92.594	-2.9702e+05	3268.3	-0.36649	0.87332	0.37234
0.244	92.596	-2.9703e+05	3268.1	-0.36746	0.87303	0.37137
0.246	92.596	-2.9703e+05	3267.9	-0.36737	0.87303	0.37117
0.248	92.596	-2.9703e+05	3267.7	-0.36727	0.87303	0.37098
0.25	92.593	-2.9703e+05	3267.4	-0.36717	0.87303	0.37078
0.252	92.588	-2.9703e+05	3267.2	-0.36707	0.87303	0.37059
0.254	92.59	-2.9703e+05	3267	-0.36698	0.87303	0.37039
0.256	92.59	-2.9703e+05	3266.8	-0.36532	0.87264	0.36951
0.258	92.587	-2.9703e+05	3266.6	-0.36366	0.87225	0.36864
0.26	92.586	-2.9703e+05	3266.5	-0.362	0.87186	0.36776
0.262	92.583	-2.9703e+05	3266.3	-0.36034	0.87147	0.36688
0.264	92.586	-2.9704e+05	3266.1	-0.35868	0.87108	0.366
0.266	92.586	-2.9704e+05	3266	-0.35897	0.87079	0.3662
0.268	92.581	-2.9704e+05	3265.8	-0.35927	0.87049	0.36639
0.27	92.58	-2.9704e+05	3265.7	-0.35956	0.8702	0.36659
0.272	92.579	-2.9703e+05	3265.5	-0.35985	0.86991	0.36678
0.274	92.579	-2.9702e+05	3265.4	-0.36014	0.86962	0.36698
0.276	92.578	-2.9702e+05	3265.3	-0.36171	0.8703	0.36785
0.278	92.576	-2.9701e+05	3265.2	-0.36327	0.87098	0.36873
0.28	92.576	-2.9702e+05	3265.1	-0.36483	0.87167	0.36961
0.282	92.577	-2.9702e+05	3264.9	-0.36639	0.87235	0.37049
0.284	92.575	-2.9702e+05	3264.8	-0.36795	0.87303	0.37137
0.286	92.573	-2.9703e+05	3264.7	-0.36717	0.87284	0.3699
0.288	92.572	-2.9703e+05	3264.6	-0.36639	0.87264	0.36844
0.29	92.569	-2.9703e+05	3264.5	-0.36561	0.87245	0.36698
0.292	92.565	-2.9703e+05	3264.4	-0.36483	0.87225	0.36551
0.294	92.562	-2.9703e+05	3264.4	-0.36405	0.87206	0.36405
0.296	92.56	-2.9703e+05	3264.3	-0.36376	0.87284	0.36639
0.298	92.561	-2.9703e+05	3264.3	-0.36346	0.87362	0.36873
0.3	92.557	-2.9703e+05	3264.4	-0.36317	0.8744	0.37108
0.302	92.552	-2.9703e+05	3264.6	-0.36288	0.87518	0.37342
0.304	92.552	-2.9703e+05	3264.7	-0.36258	0.87596	0.37576
0.306	92.549	-2.9703e+05	3265.1	-0.3621	0.87508	0.37381
0.308	92.544	-2.9703e+05	3265.5	-0.36161	0.8742	0.37186
0.31	92.543	-2.9703e+05	3266	-0.36112	0.87332	0.3699
0.312	92.54	-2.9703e+05	3266.7	-0.36063	0.87245	0.36795
0.314	92.539	-2.9703e+05	3267.4	-0.36014	0.87157	0.366
0.316	92.534	-2.9702e+05	3268.3	-0.36014	0.8704	0.36668
0.318	92.525	-2.9702e+05	3269.2	-0.36014	0.86923	0.36737
0.32	92.521	-2.9702e+05	3270.3	-0.36014	0.86805	0.36805
0.322	92.518	-2.9702e+05	3271.5	-0.36014	0.86688	0.36873
0.324	92.514	-2.9702e+05	3272.7	-0.36014	0.86571	0.36942
0.326	92.508	-2.9703e+05	3274	-0.35985	0.86522	0.36961
0.328	92.504	-2.9703e+05	3275.4	-0.35956	0.86474	0.36981
0.33	92.496	-2.9703e+05	3276.8	-0.35927	0.86425	0.37
0.332	92.49	-2.9703e+05	3278.3	-0.35897	0.86376	0.3702
0.334	92.486	-2.9702e+05	3279.7	-0.35868	0.86327	0.37039
0.336	92.478	-2.9702e+05	3281.3	-0.35878	0.86425	0.36932
0.338	92.468	-2.9702e+05	3282.8	-0.35888	0.86522	0.36824
0.34	92.462	-2.9702e+05	3284.3	-0.35897	0.8662	0.36717
0.342	92.459	-2.9702e+05	3285.9	-0.35907	0.86718	0.3661
0.344	92.453	-2.9702e+05	3287.4	-0.35917	0.86815	0.36502
0.346	92.448	-2.9702e+05	3288.9	-0.36005	0.86805	0.36512
0.348	92.443	-2.9702e+05	3290.4	-0.36092	0.86796	0.36522
0.35	92.436	-2.9702e+05	3291.8	-0.3618	0.86786	0.36532
0.352	92.432	-2.9702e+05	3293.2	-0.36268	0.86776	0.36541
0.354	92.431	-2.9703e+05	3294.6	-0.36356	0.86766	0.36551
0.356	92.429	-2.9702e+05	3295.9	-0.36297	0.86786	0.3659
0.358	92.428	-2.9702e+05	3297.3	-0.36239	0.86805	0.36629
0.36	92.423	-2.9701e+05	3298.5	-0.3618	0.86825	0.36668
0.362	92.419	-2.9701e+05	3299.7	-0.36122	0.86844	0.36707
0.364	92.416	-2.9702e+05	3300.9	-0.36063	0.86864	0.36746
0.366	92.413	-2.9702e+05	3302	-0.36063	0.86805	0.36756
0.368	92.411	-2.9702e+05	3303.1	-0.36063	0.86747	0.36766
0.37	92.407	-2.9702e+05	3304.2	-0.36063	0.86688	0.36776
0.372	92.402	-2.9702e+05	3305.2	-0.36063	0.8663	0.36785
0.374	92.4	-2.9702e+05	3306.3	-0.36063	0.86571	0.36795
0.376	92.4	-2.9702e+05	3307.2	-0.36112	0.86708	0.36854
0.378	92.398	-2.9703e+05	3308.1	-0.36161	0.86844	0.36912
0.38	92.396	-2.9702e+05	3309	-0.3621	0.86981	0.36971
0.382	92.396	-2.9701e+05	3309.8	-0.36258	0.87118	0.37029
0.384	92.397	-2.9702e+05	3310.5	-0.36307	0.87254	0.37088
0.386	92.399	-2.9702e+05	3311.3	-0.36395	0.87284	0.37137
0.388	92.402	-2.9702e+05	3312	-0.36483	0.87313	0.37186
0.39	92.406	-2.9702e+05	3312.6	-0.36571	0.87342	0.37234
0.392	92.405	-2.9701e+05	3313.1	-0.36659	0.87372	0.37283
0.394	92.409	-2.9701e+05	3313.7	-0.36746	0.87401	0.37332
0.396	92.418	-2.9701e+05	3314.1	-0.36717	0.8743	0.37332
0.398	92.423	-2.9702e+05	3314.6	-0.36688	0.87459	0.37332
0.4	92.429	-2.9702e+05	3315	-0.36659	0.87489	0.37332
0.402	92.433	-2.9702e+05	3315.3	-0.36629	0.87518	0.37332
0.404	92.437	-2.9701e+05	3315.7	-0.366	0.87547	0.37332
0.406	92.442	-2.9701e+05	3315.9	-0.3659	0.87469	0.37186
0.408	92.445	-2.9701e+05	3316.2	-0.3658	0.87391	0.37039
0.41	92.454	-2.9701e+05	3316.4	-0.36571	0.87313	0.36893
0.412	92.464	-2.97e+05	3316.6	-0.36561	0.87235	0.36746
0.414	92.467	-2.97e+05	3316.8	-0.36551	0.87157	0.366
0.416	92.471	-2.97e+05	3316.9	-0.36454	0.87245	0.36805
0.418	92.475	-2.97e+05	3317	-0.36356	0.87332	0.3701
0.42	92.48	-2.97e+05	3317.1	-0.36258	0.8742	0.37215
0.422	92.483	-2.97e+05	3317.2	-0.36161	0.87508	0.3742
0.424	92.486	-2.97e+05	3317.2	-0.36063	0.87596	0.37625
0.426	92.49	-2.97e+05	3317.2	-0.36151	0.87508	0.37381
0.428	92.497	-2.97e+05	3317.2	-0.36239	0.8742	0.37137
0.43	92.505	-2.97e+05	3317.2	-0.36327	0.87332	0.36893
0.432	92.506	-2.9701e+05	3317.2	-0.36415	0.87245	0.36649
0.434	92.507	-2.9701e+05	3317.2	-0.36502	0.87157	0.36405
0.436	92.511	-2.97e+05	3317.1	-0.36473	0.87225	0.36541
0.438	92.515	-2.97e+05	3317.1	-0.36444	0.87293	0.36678
0.44	92.515	-2.9699e+05	3317	-0.36415	0.87362	0.36815
0.442	92.515	-2.9699e+05	3317	-0.36385	0.8743	0.36951
0.444	92.518	-2.9699e+05	3316.9	-0.36356	0.87498	0.37088
0.446	92.521	-2.9699e+05	3316.8	-0.36424	0.87391	0.3699
0.448	92.525	-2.9699e+05	3316.7	-0.36493	0.87284	0.36893
0.45	92.525	-2.9699e+05	3316.6	-0.36561	0.87176	0.36795
0.452	92.521	-2.9699e+05	3316.6	-0.36629	0.87069	0.36698
0.454	92.521	-2.9699e+05	3316.5	-0.36698	0.86962	0.366
0.456	92.525	-2.9699e+05	3316.4	-0.36405	0.86942	0.36512
0.458	92.529	-2.97e+05	3316.3	-0.36112	0.86923	0.36424
0.46	92.531	-2.9699e+05	3316.2	-0.35819	0.86903	0.36336
0.462	92.533	-2.9699e+05	3316.1	-0.35526	0.86884	0.36249
0.464	92.536	-2.9699e+05	3316	-0.35234	0.86864	0.36161
0.466	92.535	-2.9699e+05	3315.8	-0.35302	0.86825	0.36171
0.468	92.534	-2.9699e+05	3315.7	-0.3537	0.86786	0.3618
0.47	92.535	-2.97e+05	3315.6	-0.35439	0.86747	0.3619
0.472	92.535	-2.9699e+05	3315.5	-0.35507	0.86708	0.362
0.474	92.536	-2.9699e+05	3315.3	-0.35575	0.86669	0.3621
0.476	92.539	-2.9699e+05	3315.2	-0.35644	0.86649	0.36317
0.478	92.539	-2.9699e+05	3315	-0.35712	0.8663	0.36424
0.48	92.543	-2.9699e+05	3314.8	-0.3578	0.8661	0.36532
0.482	92.543	-2.9699e+05	3314.7	-0.35848	0.86591	0.36639
0.484	92.541	-2.9699e+05	3314.6	-0.35917	0.86571	0.36746
0.486	92.541	-2.9699e+05	3314.4	-0.35878	0.86591	0.36727
0.488	92.538	-2.9699e+05	3314.2	-0.35839	0.8661	0.36707
0.49	92.539	-2.9699e+05	3314	-0.358	0.8663	0.36688
0.492	92.54	-2.9698e+05	3313.9	-0.35761	0.86649	0.36668
0.494	92.541	-2.9698e+05	3313.7	-0.35722	0.86669	0.36649
0.496	92.539	-2.9698e+05	3313.5	-0.35663	0.86679	0.36571
0.498	92.54	-2.9698e+05	3313.3	-0.35604	0.86688	0.36493
0.5	92.541	-2.9699e+05	3313.1	-0.35546	0.86698	0.36415
0.502	92.541	-2.9699e+05	3312.8	-0.35487	0.86708	0.36336
0.504	92.54	-2.9698e+05	3312.5	-0.35429	0.86718	0.36258
0.506	92.538	-2.9698e+05	3312.3	-0.35468	0.86727	0.36317
0.508	92.539	-2.9698e+05	3312	-0.35507	0.86737	0.36376
0.51	92.542	-2.9698e+05	3311.7	-0.35546	0.86747	0.36434
0.512	92.541	-2.9698e+05	3311.3	-0.35585	0.86757	0.36493
0.514	92.54	-2.9698e+05	3311	-0.35624	0.86766	0.36551
0.516	92.541	-2.9699e+05	3310.5	-0.35634	0.86776	0.36541
0.518	92.543	-2.9699e+05	3310.1	-0.35644	0.86786	0.36532
0.52	92.54	-2.9699e+05	3309.6	-0.35653	0.86796	0.36522
0.522	92.535	-2.9699e+05	3309.2	-0.35663	0.86805	0.36512
0.524	92.535	-2.9698e+05	3308.7	-0.35673	0.86815	0.36502
0.526	92.536	-2.9698e+05	3308.2	-0.35712	0.86844	0.36512
0.528	92.538	-2.9698e+05	3307.8	-0.35751	0.86874	0.36522
0.53	92.541	-2.9698e+05	3307.3	-0.3579	0.86903	0.36532
0.532	92.542	-2.9699e+05	3306.8	-0.35829	0.86932	0.36541
0.534	92.539	-2.9699e+05	3306.3	-0.35868	0.86962	0.36551
0.536	92.537	-2.9699e+05	3305.8	-0.35936	0.86952	0.36551
0.538	92.539	-2.9698e+05	3305.4	-0.36005	0.86942	0.36551
0.54	92.541	-2.9698e+05	3304.9	-0.36073	0.86932	0.36551
0.542	92.543	-2.9698e+05	3304.4	-0.36141	0.86923	0.36551
0.544	92.543	-2.9699e+05	3304	-0.3621	0.86913	0.36551
0.546	92.543	-2.9699e+05	3303.5	-0.36151	0.86893	0.36571
0.548	92.546	-2.9699e+05	3303.1	-0.36092	0.86874	0.3659
0.55	92.55	-2.9698e+05	3302.7	-0.36034	0.86854	0.3661
0.552	92.547	-2.9698e+05	3302.3	-0.35975	0.86835	0.36629
0.554	92.543	-2.9698e+05	3301.9	-0.35917	0.86815	0.36649
0.556	92.544	-2.9698e+05	3301.5	-0.35995	0.86913	0.36678
0.558	92.548	-2.9698e+05	3301.2	-0.36073	0.8701	0.36707
0.56	92.552	-2.9698e+05	3300.8	-0.36151	0.87108	0.36737
0.562	92.551	-2.9698e+05	3300.5	-0.36229	0.87206	0.36766
0.564	92.552	-2.9698e+05	3300.2	-0.36307	0.87303	0.36795
0.566	92.553	-2.9698e+05	3300	-0.36376	0.87313	0.36834
0.568	92.55	-2.9698e+05	3299.7	-0.36444	0.87323	0.36873
0.57	92.548	-2.9698e+05	3299.5	-0.36512	0.87332	0.36912
0.572	92.549	-2.9698e+05	3299.3	-0.3658	0.87342	0.36951
0.574	92.546	-2.9699e+05	3299.1	-0.36649	0.87352	0.3699
0.576	92.55	-2.9698e+05	3298.9	-0.36571	0.87323	0.36922
0.578	92.555	-2.9698e+05	3298.7	-0.36493	0.87293	0.36854
0.58	92.555	-2.9698e+05	3298.6	-0.36415	0.87264	0.36785
0.582	92.556	-2.9698e+05	3298.5	-0.36336	0.87235	0.36717
0.584	92.557	-2.9698e+05	3298.4	-0.36258	0.87206	0.36649
0.586	92.559	-2.9699e+05	3298.3	-0.3621	0.87128	0.36668
0.588	92.558	-2.9698e+05	3298.3	-0.36161	0.87049	0.36688
0.59	92.557	-2.9698e+05	3298.3	-0.36112	0.86971	0.36707
0.592	92.558	-2.9698e+05	3298.2	-0.36063	0.86893	0.36727
0.594	92.562	-2.9698e+05	3298.2	-0.36014	0.86815	0.36746
0.596	92.56	-2.9698e+05	3298.2	-0.36141	0.86884	0.36737
0.598	92.561	-2.9698e+05	3298.2	-0.36268	0.86952	0.36727
0.6	92.562	-2.9698e+05	3298.2	-0.36395	0.8702	0.36717
0.602	92.559	-2.9698e+05	3298.2	-0.36522	0.87088	0.36707
0.604	92.56	-2.9698e+05	3298.3	-0.36649	0.87157	0.36698
0.606	92.563	-2.9698e+05	3298.3	-0.36551	0.87225	0.36864
0.608	92.561	-2.9698e+05	3298.3	-0.36454	0.87293	0.37029
0.61	92.562	-2.9699e+05	3298.3	-0.36356	0.87362	0.37195
0.612	92.566	-2.9699e+05	3298.3	-0.36258	0.8743	0.37361
0.614	92.566	-2.9699e+05	3298.3	-0.36161	0.87498	0.37527
0.616	92.566	-2.9699e+05	3298.3	-0.36249	0.87498	0.37439
0.618	92.565	-2.9699e+05	3298.4	-0.36336	0.87498	0.37352
0.62	92.563	-2.9698e+05	3298.4	-0.36424	0.87498	0.37264
0.622	92.563	-2.9698e+05	3298.3	-0.36512	0.87498	0.37176
0.624	92.563	-2.9698e+05	3298.3	-0.366	0.87498	0.37088
0.626	92.563	-2.9698e+05	3298.3	-0.3659	0.87479	0.37068
0.628	92.565	-2.9698e+05	3298.2	-0.3658	0.87459	0.37049
0.63	92.567	-2.9698e+05	3298.2	-0.36571	0.8744	0.37029
0.632	92.566	-2.9698e+05	3298.2	-0.36561	0.8742	0.3701
0.634	92.564	-2.9699e+05	3298.3	-0.36551	0.87401	0.3699
0.636	92.562	-2.9699e+05	3298.2	-0.36473	0.87352	0.36922
0.638	92.557	-2.9699e+05	3298.1	-0.36395	0.87303	0.36854
0.64	92.551	-2.9699e+05	3298	-0.36317	0.87254	0.36785
0.642	92.547	-2.9699e+05	3298	-0.36239	0.87206	0.36717
0.644	92.544	-2.9699e+05	3298	-0.36161	0.87157	0.36649
0.646	92.542	-2.9699e+05	3297.9	-0.36112	0.87128	0.3658
0.648	92.544	-2.9699e+05	3297.9	-0.36063	0.87098	0.36512
0.65	92.544	-2.9699e+05	3297.8	-0.36014	0.87069	0.36444
0.652	92.543	-2.9699e+05	3297.7	-0.35966	0.8704	0.36376
0.654	92.542	-2.9699e+05	3297.6	-0.35917	0.8701	0.36307
0.656	92.541	-2.9699e+05	3297.5	-0.35946	0.87059	0.36376
0.658	92.534	-2.9699e+05	3297.4	-0.35975	0.87108	0.36444
0.66	92.529	-2.9699e+05	3297.3	-0.36005	0.87157	0.36512
0.662	92.528	-2.9699e+05	3297.1	-0.36034	0.87206	0.3658
0.664	92.529	-2.9699e+05	3297	-0.36063	0.87254	0.36649
0.666	92.526	-2.9699e+05	3296.9	-0.36073	0.87088	0.36707
0.668	92.519	-2.9699e+05	3296.8	-0.36083	0.86923	0.36766
0.67	92.511	-2.9699e+05	3296.6	-0.36092	0.86757	0.36824
0.672	92.505	-2.9699e+05	3296.5	-0.36102	0.86591	0.36883
0.674	92.495	-2.9699e+05	3296.4	-0.36112	0.86425	0.36942
0.676	92.483	-2.9699e+05	3296.3	-0.36161	0.866	0.36883
0.678	92.478	-2.9699e+05	3296.1	-0.3621	0.86776	0.36824
0.68	92.474	-2.9699e+05	3296	-0.36258	0.86952	0.36766
0.682	92.473	-2.9699e+05	3295.8	-0.36307	0.87128	0.36707
0.684	92.477	-2.9699e+05	3295.6	-0.36356	0.87303	0.36649
0.686	92.489	-2.9699e+05	3295.5	-0.36405	0.87245	0.36629
0.688	92.501	-2.9699e+05	3295.4	-0.36454	0.87186	0.3661
0.69	92.507	-2.9699e+05	3295.2	-0.36502	0.87128	0.3659
0.692	92.508	-2.9699e+05	3295	-0.36551	0.87069	0.36571
0.694	92.507	-2.9699e+05	3294.8	-0.366	0.8701	0.36551
0.696	92.507	-2.9699e+05	3294.6	-0.3662	0.87069	0.36629
0.698	92.507	-2.9699e+05	3294.4	-0.36639	0.87128	0.36707
0.7	92.512	-2.9699e+05	3294.2	-0.36659	0.87186	0.36785
0.702	92.529	-2.9699e+05	3294	-0.36678	0.87245	0.36864
0.704	92.545	-2.9699e+05	3293.8	-0.36698	0.87303	0.36942
0.706	92.553	-2.9699e+05	3293.6	-0.36678	0.87313	0.37039
0.708	92.564	-2.9699e+05	3293.4	-0.36659	0.87323	0.37137
0.71	92.576	-2.9699e+05	3293.2	-0.36639	0.87332	0.37234
0.712	92.581	-2.9699e+05	3293	-0.3662	0.87342	0.37332
0.714	92.579	-2.9699e+05	3292.8	-0.366	0.87352	0.3743
0.716	92.576	-2.9699e+05	3292.5	-0.36639	0.87323	0.37293
0.718	92.574	-2.97e+05	3292.3	-0.36678	0.87293	0.37156
0.72	92.571	-2.97e+05	3292.1	-0.36717	0.87264	0.3702
0.722	92.572	-2.97e+05	3291.9	-0.36756	0.87235	0.36883
0.724	92.577	-2.9699e+05	3291.7	-0.36795	0.87206	0.36746
0.726	92.578	-2.9699e+05	3291.5	-0.36639	0.87147	0.36737
0.728	92.579	-2.9699e+05	3291.3	-0.36483	0.87088	0.36727
0.73	92.58	-2.9699e+05	3291	-0.36327	0.8703	0.36717
0.732	92.582	-2.9699e+05	3290.8	-0.36171	0.86971	0.36707
0.734	92.584	-2.9699e+05	3290.6	-0.36014	0.86913	0.36698
0.736	92.583	-2.97e+05	3290.3	-0.36132	0.86913	0.36707
0.738	92.58	-2.97e+05	3290.1	-0.36249	0.86913	0.36717
0.74	92.579	-2.97e+05	3289.9	-0.36366	0.86913	0.36727
0.742	92.581	-2.9699e+05	3289.7	-0.36483	0.86913	0.36737
0.744	92.585	-2.9699e+05	3289.4	-0.366	0.86913	0.36746
0.746	92.588	-2.9699e+05	3289.2	-0.366	0.86971	0.36766
0.748	92.592	-2.9699e+05	3289	-0.366	0.8703	0.36785
0.75	92.596	-2.9699e+05	3288.7	-0.366	0.87088	0.36805
0.752	92.596	-2.9699e+05	3288.5	-0.366	0.87147	0.36824
0.754	92.595	-2.9699e+05	3288.2	-0.366	0.87206	0.36844
0.756	92.59	-2.9699e+05	3288	-0.36493	0.87118	0.36746
0.758	92.594	-2.9699e+05	3287.8	-0.36385	0.8703	0.36649
0.76	92.594	-2.97e+05	3287.5	-0.36278	0.86942	0.36551
0.762	92.593	-2.97e+05	3287.3	-0.36171	0.86854	0.36454
0.764	92.593	-2.97e+05	3287.1	-0.36063	0.86766	0.36356
0.766	92.598	-2.97e+05	3286.8	-0.36034	0.86844	0.36366
0.768	92.599	-2.97e+05	3286.6	-0.36005	0.86923	0.36376
0.77	92.597	-2.97e+05	3286.4	-0.35975	0.87001	0.36385
0.772	92.594	-2.97e+05	3286.1	-0.35946	0.87079	0.36395
0.774	92.594	-2.97e+05	3285.9	-0.35917	0.87157	0.36405
0.776	92.599	-2.97e+05	3285.7	-0.35868	0.87088	0.36346
0.778	92.599	-2.97e+05	3285.5	-0.35819	0.8702	0.36288
0.78	92.599	-2.97e+05	3285.3	-0.3577	0.86952	0.36229
0.782	92.601	-2.97e+05	3285.1	-0.35722	0.86884	0.36171
0.784	92.602	-2.97e+05	3284.9	-0.35673	0.86815	0.36112
0.786	92.599	-2.97e+05	3284.7	-0.35751	0.86835	0.36161
0.788	92.6	-2.97e+05	3284.5	-0.35829	0.86854	0.3621
0.79	92.608	-2.97e+05	3284.4	-0.35907	0.86874	0.36258
0.792	92.613	-2.97e+05	3284.2	-0.35985	0.86893	0.36307
0.794	92.612	-2.97e+05	3284	-0.36063	0.86913	0.36356
0.796	92.613	-2.97e+05	3283.8	-0.36112	0.86981	0.36424
0.798	92.618	-2.97e+05	3283.6	-0.36161	0.87049	0.36493
0.8	92.619	-2.97e+05	3283.4	-0.3621	0.87118	0.36561
0.802	92.613	-2.97e+05	3283.3	-0.36258	0.87186	0.36629
0.804	92.604	-2.97e+05	3283.1	-0.36307	0.87254	0.36698
0.806	92.594	-2.97e+05	3283	-0.36278	0.87264	0.36707
0.808	92.577	-2.97e+05	3282.8	-0.36249	0.87274	0.36717
0.81	92.543	-2.97e+05	3282.7	-0.36219	0.87284	0.36727
0.812	92.495	-2.97e+05	3282.5	-0.3619	0.87293	0.36737
0.814	92.43	-2.97e+05	3282.4	-0.36161	0.87303	0.36746
0.816	92.346	-2.97e+05	3282.2	-0.36122	0.87196	0.36707
0.818	92.23	-2.9701e+05	3282.1	-0.36083	0.87088	0.36668
0.82	92.083	-2.9701e+05	3281.9	-0.36044	0.86981	0.36629
0.822	91.936	-2.9701e+05	3281.8	-0.36005	0.86874	0.3659
0.824	91.82	-2.97e+05	3281.7	-0.35966	0.86766	0.36551
0.826	91.757	-2.97e+05	3281.6	-0.35946	0.86786	0.36512
0.828	91.761	-2.97e+05	3281.5	-0.35927	0.86805	0.36473
0.83	91.828	-2.97e+05	3281.3	-0.35907	0.86825	0.36434
0.832	91.964	-2.97e+05	3281.2	-0.35888	0.86844	0.36395
0.834	92.153	-2.97e+05	3281.1	-0.35868	0.86864	0.36356
0.836	92.339	-2.97e+05	3281	-0.35985	0.86874	0.36424
0.838	92.463	-2.97e+05	3280.8	-0.36102	0.86884	0.36493
0.84	92.516	-2.9701e+05	3280.7	-0.36219	0.86893	0.36561
0.842	92.529	-2.9701e+05	3280.6	-0.36336	0.86903	0.36629
0.844	92.544	-2.97e+05	3280.5	-0.36454	0.86913	0.36698
0.846	92.567	-2.97e+05	3280.3	-0.36483	0.86923	0.36659
0.848	92.588	-2.97e+05	3280.1	-0.36512	0.86932	0.3662
0.85	92.601	-2.9701e+05	3280	-0.36541	0.86942	0.3658
0.852	92.606	-2.9701e+05	3279.9	-0.36571	0.86952	0.36541
0.854	92.609	-2.9701e+05	3279.8	-0.366	0.86962	0.36502
0.856	92.612	-2.9701e+05	3279.7	-0.36668	0.86942	0.3658
0.858	92.621	-2.9701e+05	3279.5	-0.36737	0.86923	0.36659
0.86	92.629	-2.9701e+05	3279.4	-0.36805	0.86903	0.36737
0.862	92.631	-2.97e+05	3279.2	-0.36873	0.86884	0.36815
0.864	92.629	-2.97e+05	3279.1	-0.36942	0.86864	0.36893
0.866	92.626	-2.97e+05	3279	-0.36922	0.86884	0.36873
0.868	92.622	-2.97e+05	3278.8	-0.36903	0.86903	0.36854
0.87	92.617	-2.97e+05	3278.7	-0.36883	0.86923	0.36834
0.872	92.613	-2.97e+05	3278.6	-0.36864	0.86942	0.36815
0.874	92.609	-2.97e+05	3278.4	-0.36844	0.86962	0.36795
0.876	92.605	-2.9701e+05	3278.3	-0.36795	0.87001	0.36815
0.878	92.603	-2.9701e+05	3278.1	-0.36746	0.8704	0.36834
0.88	92.605	-2.9701e+05	3277.9	-0.36698	0.87079	0.36854
0.882	92.606	-2.9701e+05	3277.7	-0.36649	0.87118	0.36873
0.884	92.604	-2.9701e+05	3277.5	-0.366	0.87157	0.36893
0.886	92.6	-2.9701e+05	3277.3	-0.3659	0.87176	0.36912
0.888	92.598	-2.9702e+05	3277.1	-0.3658	0.87196	0.36932
0.89	92.601	-2.9702e+05	3277	-0.36571	0.87215	0.36951
0.892	92.601	-2.9702e+05	3276.8	-0.36561	0.87235	0.36971
0.894	92.599	-2.9702e+05	3276.6	-0.36551	0.87254	0.3699
0.896	92.599	-2.9702e+05	3276.4	-0.366	0.87118	0.37029
0.898	92.599	-2.9701e+05	3276.2	-0.36649	0.86981	0.37068
0.9	92.6	-2.9701e+05	3276	-0.36698	0.86844	0.37108
0.902	92.599	-2.9702e+05	3275.8	-0.36746	0.86708	0.37147
0.904	92.597	-2.9702e+05	3275.6	-0.36795	0.86571	0.37186
0.906	92.594	-2.9701e+05	3275.4	-0.36864	0.86591	0.37156
0.908	92.589	-2.9702e+05	3275.2	-0.36932	0.8661	0.37127
0.91	92.589	-2.9702e+05	3275	-0.37	0.8663	0.37098
0.912	92.59	-2.9703e+05	3274.7	-0.37068	0.86649	0.37068
0.914	92.593	-2.9703e+05	3274.4	-0.37137	0.86669	0.37039
0.916	92.595	-2.9702e+05	3274.2	-0.37098	0.86688	0.37098
0.918	92.594	-2.97e+05	3273.9	-0.37059	0.86708	0.37156
0.92	92.594	-2.9701e+05	3273.6	-0.3702	0.86727	0.37215
0.922	92.589	-2.9702e+05	3273.4	-0.36981	0.86747	0.37273
0.924	92.59	-2.9701e+05	3273.1	-0.36942	0.86766	0.37332
0.926	92.59	-2.9701e+05	3272.8	-0.36864	0.86893	0.37303
0.928	92.588	-2.9701e+05	3272.5	-0.36785	0.8702	0.37273
0.93	92.591	-2.9701e+05	3272.2	-0.36707	0.87147	0.37244
0.932	92.591	-2.9701e+05	3271.9	-0.36629	0.87274	0.37215
0.934	92.589	-2.9701e+05	3271.6	-0.36551	0.87401	0.37186
0.936	92.587	-2.9701e+05	3271.3	-0.3661	0.87342	0.37117
0.938	92.583	-2.9701e+05	3270.9	-0.36668	0.87284	0.37049
0.94	92.582	-2.9701e+05	3270.6	-0.36727	0.87225	0.36981
0.942	92.584	-2.9701e+05	3270.4	-0.36785	0.87167	0.36912
0.944	92.585	-2.9701e+05	3270.1	-0.36844	0.87108	0.36844
0.946	92.584	-2.9702e+05	3269.8	-0.36864	0.86942	0.36903
0.948	92.586	-2.9701e+05	3269.5	-0.36883	0.86776	0.36961
0.95	92.584	-2.9701e+05	3269.3	-0.36903	0.8661	0.3702
0.952	92.578	-2.9701e+05	3269	-0.36922	0.86444	0.37078
0.954	92.576	-2.9702e+05	3268.8	-0.36942	0.86278	0.37137
0.956	92.576	-2.9702e+05	3268.5	-0.36971	0.86288	0.37225
0.958	92.578	-2.9702e+05	3268.3	-0.37	0.86298	0.37312
0.96	92.58	-2.9701e+05	3268.1	-0.37029	0.86308	0.374
0.962	92.581	-2.9701e+05	3267.9	-0.37059	0.86317	0.37488
0.964	92.579	-2.9701e+05	3267.8	-0.37088	0.86327	0.37576
0.966	92.577	-2.9701e+05	3267.7	-0.37029	0.86415	0.37391
0.968	92.576	-2.9701e+05	3267.5	-0.36971	0.86503	0.37205
0.97	92.575	-2.9702e+05	3267.4	-0.36912	0.86591	0.3702
0.972	92.574	-2.9702e+05	3267.3	-0.36854	0.86679	0.36834
0.974	92.575	-2.9702e+05	3267.2	-0.36795	0.86766	0.36649
0.976	92.575	-2.9702e+05	3267.1	-0.36668	0.86864	0.3662
0.978	92.573	-2.9702e+05	3267	-0.36541	0.86962	0.3659
0.98	92.569	-2.9702e+05	3266.9	-0.36415	0.87059	0.36561
0.982	92.569	-2.9702e+05	3266.9	-0.36288	0.87157	0.36532
0.984	92.566	-2.9702e+05	3266.8	-0.36161	0.87254	0.36502
0.986	92.562	-2.9702e+05	3266.9	-0.36297	0.87215	0.3658
0.988	92.558	-2.9702e+05	3267	-0.36434	0.87176	0.36659
0.99	92.554	-2.9703e+05	3267.2	-0.36571	0.87137	0.36737
0.992	92.555	-2.9703e+05	3267.4	-0.36707	0.87098	0.36815
0.994	92.555	-2.9703e+05	3267.6	-0.36844	0.87059	0.36893
0.996	92.556	-2.9702e+05	3268.1	-0.36668	0.8701	0.36844
0.998	92.553	-2.9702e+05	3268.7	-0.36493	0.86962	0.36795
1	92.55	-2.9702e+05	3269.3	-0.36317	0.86913	0.36746
1.002	92.546	-2.9703e+05	3270.2	-0.36141	0.86864	0.36698
1.004	92.541	-2.9704e+05	3271	-0.35966	0.86815	0.36649
1.006	92.533	-2.9704e+05	3272.1	-0.36053	0.86864	0.36678
1.008	92.531	-2.9704e+05	3273.2	-0.36141	0.86913	0.36707
1.01	92.526	-2.9705e+05	3274.5	-0.36229	0.86962	0.36737
1.012	92.524	-2.9704e+05	3275.8	-0.36317	0.8701	0.36766
1.014	92.522	-2.9704e+05	3277.1	-0.36405	0.87059	0.36795
1.016	92.514	-2.9704e+05	3278.6	-0.36249	0.8702	0.36717
1.018	92.508	-2.9704e+05	3280.2	-0.36092	0.86981	0.36639
1.02	92.501	-2.9704e+05	3281.7	-0.35936	0.86942	0.36561
1.022	92.494	-2.9704e+05	3283.3	-0.3578	0.86903	0.36483
1.024	92.489	-2.9704e+05	3284.8	-0.35624	0.86864	0.36405
1.026	92.484	-2.9704e+05	3286.4	-0.35702	0.86854	0.36415
1.028	92.481	-2.9705e+05	3288.1	-0.3578	0.86844	0.36424
1.03	92.476	-2.9705e+05	3289.6	-0.35858	0.86835	0.36434
1.032	92.469	-2.9704e+05	3291.2	-0.35936	0.86825	0.36444
1.034	92.461	-2.9703e+05	3292.8	-0.36014	0.86815	0.36454
1.036	92.456	-2.9703e+05	3294.3	-0.36063	0.86825	0.36493
1.038	92.451	-2.9703e+05	3295.8	-0.36112	0.86835	0.36532
1.04	92.444	-2.9703e+05	3297.3	-0.36161	0.86844	0.36571
1.042	92.441	-2.9703e+05	3298.7	-0.3621	0.86854	0.3661
1.044	92.44	-2.9703e+05	3300.1	-0.36258	0.86864	0.36649
1.046	92.436	-2.9703e+05	3301.4	-0.36161	0.86805	0.36639
1.048	92.431	-2.9703e+05	3302.8	-0.36063	0.86747	0.36629
1.05	92.427	-2.9703e+05	3304.1	-0.35966	0.86688	0.3662
1.052	92.424	-2.9702e+05	3305.3	-0.35868	0.8663	0.3661
1.054	92.419	-2.9702e+05	3306.5	-0.3577	0.86571	0.366
1.056	92.414	-2.9702e+05	3307.7	-0.35888	0.8664	0.3662
1.058	92.41	-2.9702e+05	3308.9	-0.36005	0.86708	0.36639
1.06	92.407	-2.9702e+05	3310	-0.36122	0.86776	0.36659
1.062	92.405	-2.9703e+05	3310.9	-0.36239	0.86844	0.36678
1.064	92.404	-2.9702e+05	3311.9	-0.36356	0.86913	0.36698
1.066	92.401	-2.9702e+05	3312.8	-0.36249	0.86893	0.36707
1.068	92.396	-2.9702e+05	3313.7	-0.36141	0.86874	0.36717
1.07	92.394	-2.9702e+05	3314.5	-0.36034	0.86854	0.36727
1.072	92.396	-2.9702e+05	3315.3	-0.35927	0.86835	0.36737
1.074	92.396	-2.9702e+05	3316.1	-0.35819	0.86815	0.36746
1.076	92.394	-2.9702e+05	3316.7	-0.35966	0.86942	0.36737
1.078	92.393	-2.9702e+05	3317.4	-0.36112	0.87069	0.36727
1.08	92.394	-2.9702e+05	3317.9	-0.36258	0.87196	0.36717
1.082	92.394	-2.9703e+05	3318.5	-0.36405	0.87323	0.36707
1.084	92.394	-2.9702e+05	3319	-0.36551	0.8745	0.36698
1.086	92.398	-2.9702e+05	3319.5	-0.36522	0.87401	0.36678
1.088	92.404	-2.9702e+05	3319.9	-0.36493	0.87352	0.36659
1.09	92.406	-2.9702e+05	3320.3	-0.36463	0.87303	0.36639
1.092	92.41	-2.9702e+05	3320.7	-0.36434	0.87254	0.3662
1.094	92.413	-2.9702e+05	3321.1	-0.36405	0.87206	0.366
1.096	92.42	-2.9702e+05	3321.4	-0.36463	0.87147	0.3661
1.098	92.421	-2.9702e+05	3321.7	-0.36522	0.87088	0.3662
1.1	92.425	-2.9702e+05	3322	-0.3658	0.8703	0.36629
1.102	92.427	-2.9703e+05	3322.2	-0.36639	0.86971	0.36639
1.104	92.435	-2.9702e+05	3322.5	-0.36698	0.86913	0.36649
1.106	92.439	-2.9701e+05	3322.7	-0.3659	0.86913	0.36659
1.108	92.443	-2.9701e+05	3322.9	-0.36483	0.86913	0.36668
1.11	92.449	-2.9701e+05	3323.1	-0.36376	0.86913	0.36678
1.112	92.456	-2.9701e+05	3323.2	-0.36268	0.86913	0.36688
1.114	92.461	-2.9702e+05	3323.3	-0.36161	0.86913	0.36698
1.116	92.465	-2.9701e+05	3323.4	-0.36288	0.8701	0.36864
1.118	92.466	-2.9701e+05	3323.5	-0.36415	0.87108	0.37029
1.12	92.467	-2.9701e+05	3323.6	-0.36541	0.87206	0.37195
1.122	92.467	-2.97e+05	3323.6	-0.36668	0.87303	0.37361
1.124	92.469	-2.9701e+05	3323.7	-0.36795	0.87401	0.37527
1.126	92.471	-2.9701e+05	3323.7	-0.36707	0.87391	0.37361
1.128	92.474	-2.9701e+05	3323.7	-0.3662	0.87381	0.37195
1.13	92.479	-2.9701e+05	3323.7	-0.36532	0.87372	0.37029
1.132	92.483	-2.9701e+05	3323.7	-0.36444	0.87362	0.36864
1.134	92.487	-2.9701e+05	3323.7	-0.36356	0.87352	0.36698
1.136	92.489	-2.9701e+05	3323.7	-0.36288	0.87332	0.36668
1.138	92.487	-2.97e+05	3323.6	-0.36219	0.87313	0.36639
1.14	92.488	-2.97e+05	3323.6	-0.36151	0.87293	0.3661
1.142	92.492	-2.97e+05	3323.5	-0.36083	0.87274	0.3658
1.144	92.494	-2.97e+05	3323.5	-0.36014	0.87254	0.36551
1.146	92.495	-2.97e+05	3323.5	-0.36171	0.87225	0.3662
1.148	92.496	-2.97e+05	3323.4	-0.36327	0.87196	0.36688
1.15	92.497	-2.9699e+05	3323.4	-0.36483	0.87167	0.36756
1.152	92.497	-2.97e+05	3323.2	-0.36639	0.87137	0.36824
1.154	92.497	-2.97e+05	3323.1	-0.36795	0.87108	0.36893
1.156	92.496	-2.97e+05	3323.1	-0.36668	0.87108	0.36795
1.158	92.499	-2.97e+05	3323	-0.36541	0.87108	0.36698
1.16	92.503	-2.97e+05	3322.9	-0.36415	0.87108	0.366
1.162	92.505	-2.97e+05	3322.8	-0.36288	0.87108	0.36502
1.164	92.505	-2.97e+05	3322.7	-0.36161	0.87108	0.36405
1.166	92.502	-2.97e+05	3322.6	-0.36112	0.87059	0.36415
1.168	92.502	-2.97e+05	3322.5	-0.36063	0.8701	0.36424
1.17	92.503	-2.97e+05	3322.4	-0.36014	0.86962	0.36434
1.172	92.503	-2.97e+05	3322.3	-0.35966	0.86913	0.36444
1.174	92.502	-2.97e+05	3322.1	-0.35917	0.86864	0.36454
1.176	92.501	-2.97e+05	3322	-0.35966	0.86854	0.36493
1.178	92.502	-2.97e+05	3321.8	-0.36014	0.86844	0.36532
1.18	92.505	-2.97e+05	3321.6	-0.36063	0.86835	0.36571
1.182	92.504	-2.9699e+05	3321.4	-0.36112	0.86825	0.3661
1.184	92.506	-2.9699e+05	3321.3	-0.36161	0.86815	0.36649
1.186	92.502	-2.9699e+05	3321.1	-0.3618	0.86893	0.3659
1.188	92.503	-2.9699e+05	3320.9	-0.362	0.86971	0.36532
1.19	92.505	-2.9699e+05	3320.8	-0.36219	0.87049	0.36473
1.192	92.508	-2.9699e+05	3320.6	-0.36239	0.87128	0.36415
1.194	92.509	-2.9699e+05	3320.4	-0.36258	0.87206	0.36356
1.196	92.509	-2.9699e+05	3320.1	-0.36171	0.87147	0.36356
1.198	92.511	-2.9699e+05	3319.8	-0.36083	0.87088	0.36356
1.2	92.51	-2.9699e+05	3319.6	-0.35995	0.8703	0.36356
1.202	92.509	-2.97e+05	3319.3	-0.35907	0.86971	0.36356
1.204	92.509	-2.97e+05	3319.1	-0.35819	0.86913	0.36356
1.206	92.509	-2.97e+05	3318.8	-0.35848	0.86932	0.36307
1.208	92.511	-2.9699e+05	3318.5	-0.35878	0.86952	0.36258
1.21	92.511	-2.9699e+05	3318.1	-0.35907	0.86971	0.3621
1.212	92.513	-2.9699e+05	3317.8	-0.35936	0.86991	0.36161
1.214	92.514	-2.9699e+05	3317.4	-0.35966	0.8701	0.36112
1.216	92.514	-2.9699e+05	3317	-0.35995	0.8701	0.36239
1.218	92.514	-2.9699e+05	3316.6	-0.36024	0.8701	0.36366
1.22	92.512	-2.9699e+05	3316.2	-0.36053	0.8701	0.36493
1.222	92.511	-2.9699e+05	3315.7	-0.36083	0.8701	0.3662
1.224	92.511	-2.9699e+05	3315.3	-0.36112	0.8701	0.36746
1.226	92.511	-2.9699e+05	3314.9	-0.36063	0.86981	0.36707
1.228	92.512	-2.9699e+05	3314.4	-0.36014	0.86952	0.36668
1.23	92.515	-2.9699e+05	3314	-0.35966	0.86923	0.36629
1.232	92.516	-2.9699e+05	3313.5	-0.35917	0.86893	0.3659
1.234	92.515	-2.9699e+05	3313	-0.35868	0.86864	0.36551
1.236	92.515	-2.9699e+05	3312.6	-0.36034	0.86952	0.36629
1.238	92.516	-2.9699e+05	3312.2	-0.362	0.8704	0.36707
1.24	92.516	-2.9699e+05	3311.7	-0.36366	0.87128	0.36785
1.242	92.518	-2.9699e+05	3311.3	-0.36532	0.87215	0.36864
1.244	92.517	-2.9699e+05	3310.8	-0.36698	0.87303	0.36942
1.246	92.515	-2.9699e+05	3310.4	-0.36698	0.87254	0.36873
1.248	92.517	-2.9699e+05	3310	-0.36698	0.87206	0.36805
1.25	92.519	-2.9699e+05	3309.7	-0.36698	0.87157	0.36737
1.252	92.517	-2.9699e+05	3309.3	-0.36698	0.87108	0.36668
1.254	92.515	-2.9699e+05	3309	-0.36698	0.87059	0.366
1.256	92.513	-2.9699e+05	3308.6	-0.36532	0.8704	0.36561
1.258	92.515	-2.9699e+05	3308.3	-0.36366	0.8702	0.36522
1.26	92.519	-2.9699e+05	3308	-0.362	0.87001	0.36483
1.262	92.521	-2.9699e+05	3307.7	-0.36034	0.86981	0.36444
1.264	92.523	-2.97e+05	3307.5	-0.35868	0.86962	0.36405
1.266	92.52	-2.97e+05	3307.2	-0.35995	0.86981	0.36463
1.268	92.517	-2.97e+05	3307	-0.36122	0.87001	0.36522
1.27	92.518	-2.9699e+05	3306.7	-0.36249	0.8702	0.3658
1.272	92.519	-2.9699e+05	3306.6	-0.36376	0.8704	0.36639
1.274	92.52	-2.9699e+05	3306.4	-0.36502	0.87059	0.36698
1.276	92.519	-2.9699e+05	3306.3	-0.36551	0.8703	0.36688
1.278	92.519	-2.9699e+05	3306.1	-0.366	0.87001	0.36678
1.28	92.519	-2.9699e+05	3306	-0.36649	0.86971	0.36668
1.282	92.52	-2.9699e+05	3305.8	-0.36698	0.86942	0.36659
1.284	92.523	-2.9699e+05	3305.7	-0.36746	0.86913	0.36649
1.286	92.524	-2.9699e+05	3305.6	-0.3659	0.86884	0.36639
1.288	92.525	-2.97e+05	3305.5	-0.36434	0.86854	0.36629
1.29	92.528	-2.97e+05	3305.4	-0.36278	0.86825	0.3662
1.292	92.528	-2.97e+05	3305.3	-0.36122	0.86796	0.3661
1.294	92.527	-2.9699e+05	3305.2	-0.35966	0.86766	0.366
1.296	92.527	-2.9699e+05	3305.2	-0.36005	0.86835	0.366
1.298	92.528	-2.9699e+05	3305.1	-0.36044	0.86903	0.366
1.3	92.528	-2.9699e+05	3305.1	-0.36083	0.86971	0.366
1.302	92.527	-2.9699e+05	3305	-0.36122	0.8704	0.366
1.304	92.526	-2.97e+05	3304.9	-0.36161	0.87108	0.366
1.306	92.526	-2.97e+05	3304.8	-0.36132	0.8703	0.36561
1.308	92.528	-2.97e+05	3304.8	-0.36102	0.86952	0.36522
1.31	92.53	-2.9699e+05	3304.7	-0.36073	0.86874	0.36483
1.312	92.532	-2.9699e+05	3304.7	-0.36044	0.86796	0.36444
1.314	92.533	-2.9699e+05	3304.6	-0.36014	0.86718	0.36405
1.316	92.535	-2.97e+05	3304.6	-0.35946	0.86708	0.36444
1.318	92.534	-2.9701e+05	3304.5	-0.35878	0.86698	0.36483
1.32	92.532	-2.9701e+05	3304.4	-0.35809	0.86688	0.36522
1.322	92.532	-2.9701e+05	3304.3	-0.35741	0.86679	0.36561
1.324	92.53	-2.97e+05	3304.3	-0.35673	0.86669	0.366
1.326	92.531	-2.9699e+05	3304.2	-0.35848	0.86815	0.36639
1.328	92.53	-2.9699e+05	3304.1	-0.36024	0.86962	0.36678
1.33	92.532	-2.9699e+05	3304.1	-0.362	0.87108	0.36717
1.332	92.536	-2.97e+05	3304	-0.36376	0.87254	0.36756
1.334	92.537	-2.97e+05	3303.9	-0.36551	0.87401	0.36795
1.336	92.533	-2.97e+05	3303.9	-0.36454	0.87313	0.36717
1.338	92.53	-2.9699e+05	3303.8	-0.36356	0.87225	0.36639
1.34	92.528	-2.9699e+05	3303.7	-0.36258	0.87137	0.36561
1.342	92.529	-2.9699e+05	3303.6	-0.36161	0.87049	0.36483
1.344	92.533	-2.97e+05	3303.5	-0.36063	0.86962	0.36405
1.346	92.533	-2.97e+05	3303.4	-0.36063	0.86991	0.36366
1.348	92.531	-2.97e+05	3303.3	-0.36063	0.8702	0.36327
1.35	92.529	-2.97e+05	3303.2	-0.36063	0.87049	0.36288
1.352	92.526	-2.97e+05	3303	-0.36063	0.87079	0.36249
1.354	92.52	-2.97e+05	3302.9	-0.36063	0.87108	0.3621
1.356	92.514	-2.97e+05	3302.8	-0.36073	0.87098	0.36249
1.358	92.514	-2.97e+05	3302.6	-0.36083	0.87088	0.36288
1.36	92.512	-2.97e+05	3302.5	-0.36092	0.87079	0.36327
1.362	92.51	-2.9699e+05	3302.4	-0.36102	0.87069	0.36366
1.364	92.513	-2.97e+05	3302.3	-0.36112	0.87059	0.36405
1.366	92.516	-2.97e+05	3302.1	-0.36092	0.86991	0.36434
1.368	92.511	-2.97e+05	3301.9	-0.36073	0.86923	0.36463
1.37	92.508	-2.97e+05	3301.7	-0.36053	0.86854	0.36493
1.372	92.503	-2.97e+05	3301.6	-0.36034	0.86786	0.36522
1.374	92.496	-2.9701e+05	3301.5	-0.36014	0.86718	0.36551
1.376	92.493	-2.9701e+05	3301.3	-0.35995	0.86805	0.36502
1.378	92.494	-2.9701e+05	3301.2	-0.35975	0.86893	0.36454
1.38	92.494	-2.97e+05	3301	-0.35956	0.86981	0.36405
1.382	92.492	-2.97e+05	3300.8	-0.35936	0.87069	0.36356
1.384	92.487	-2.9701e+05	3300.7	-0.35917	0.87157	0.36307
1.386	92.479	-2.9701e+05	3300.5	-0.36024	0.87137	0.36385
1.388	92.469	-2.9701e+05	3300.3	-0.36132	0.87118	0.36463
1.39	92.46	-2.9701e+05	3300.2	-0.36239	0.87098	0.36541
1.392	92.453	-2.9701e+05	3300	-0.36346	0.87079	0.3662
1.394	92.447	-2.9701e+05	3299.8	-0.36454	0.87059	0.36698
1.396	92.444	-2.9701e+05	3299.6	-0.36415	0.87059	0.36688
1.398	92.448	-2.9701e+05	3299.5	-0.36376	0.87059	0.36678
1.4	92.455	-2.97e+05	3299.3	-0.36336	0.87059	0.36668
1.402	92.463	-2.97e+05	3299.1	-0.36297	0.87059	0.36659
1.404	92.471	-2.97e+05	3298.9	-0.36258	0.87059	0.36649
1.406	92.476	-2.97e+05	3298.8	-0.36219	0.87059	0.3658
1.408	92.476	-2.9701e+05	3298.6	-0.3618	0.87059	0.36512
1.41	92.474	-2.9701e+05	3298.4	-0.36141	0.87059	0.36444
1.412	92.478	-2.9701e+05	3298.2	-0.36102	0.87059	0.36376
1.414	92.485	-2.9702e+05	3298.1	-0.36063	0.87059	0.36307
1.416	92.497	-2.9701e+05	3297.9	-0.36024	0.86991	0.36327
1.418	92.51	-2.9701e+05	3297.7	-0.35985	0.86923	0.36346
1.42	92.522	-2.97e+05	3297.5	-0.35946	0.86854	0.36366
1.422	92.532	-2.97e+05	3297.3	-0.35907	0.86786	0.36385
1.424	92.542	-2.97e+05	3297.1	-0.35868	0.86718	0.36405
1.426	92.554	-2.9701e+05	3296.9	-0.35956	0.86766	0.36444
1.428	92.556	-2.9701e+05	3296.8	-0.36044	0.86815	0.36483
1.43	92.553	-2.9701e+05	3296.6	-0.36132	0.86864	0.36522
1.432	92.551	-2.9701e+05	3296.4	-0.36219	0.86913	0.36561
1.434	92.549	-2.9701e+05	3296.2	-0.36307	0.86962	0.366
1.436	92.55	-2.9701e+05	3296	-0.36317	0.86991	0.36639
1.438	92.551	-2.9701e+05	3295.8	-0.36327	0.8702	0.36678
1.44	92.553	-2.9701e+05	3295.6	-0.36336	0.87049	0.36717
1.442	92.553	-2.9701e+05	3295.5	-0.36346	0.87079	0.36756
1.444	92.556	-2.9701e+05	3295.3	-0.36356	0.87108	0.36795
1.446	92.558	-2.9701e+05	3295.1	-0.36395	0.87088	0.36776
1.448	92.559	-2.97e+05	3294.9	-0.36434	0.87069	0.36756
1.45	92.559	-2.97e+05	3294.7	-0.36473	0.87049	0.36737
1.452	92.56	-2.97e+05	3294.5	-0.36512	0.8703	0.36717
1.454	92.559	-2.97e+05	3294.4	-0.36551	0.8701	0.36698
1.456	92.56	-2.9701e+05	3294.2	-0.3658	0.86981	0.36717
1.458	92.56	-2.9701e+05	3294	-0.3661	0.86952	0.36737
1.46	92.56	-2.9701e+05	3293.8	-0.36639	0.86923	0.36756
1.462	92.563	-2.97e+05	3293.6	-0.36668	0.86893	0.36776
1.464	92.566	-2.9701e+05	3293.3	-0.36698	0.86864	0.36795
1.466	92.566	-2.9701e+05	3293.1	-0.36707	0.86825	0.36805
1.468	92.568	-2.9701e+05	3292.9	-0.36717	0.86786	0.36815
1.47	92.567	-2.9702e+05	3292.7	-0.36727	0.86747	0.36824
1.472	92.563	-2.9701e+05	3292.5	-0.36737	0.86708	0.36834
1.474	92.563	-2.97e+05	3292.4	-0.36746	0.86669	0.36844
1.476	92.565	-2.97e+05	3292.1	-0.3662	0.86708	0.36795
1.478	92.567	-2.9701e+05	3291.9	-0.36493	0.86747	0.36746
1.48	92.57	-2.9701e+05	3291.7	-0.36366	0.86786	0.36698
1.482	92.573	-2.97e+05	3291.5	-0.36239	0.86825	0.36649
1.484	92.574	-2.97e+05	3291.3	-0.36112	0.86864	0.366
1.486	92.572	-2.97e+05	3291.1	-0.36317	0.86776	0.36688
1.488	92.571	-2.9701e+05	3290.9	-0.36522	0.86688	0.36776
1.49	92.572	-2.9702e+05	3290.7	-0.36727	0.866	0.36864
1.492	92.573	-2.9702e+05	3290.5	-0.36932	0.86513	0.36951
1.494	92.573	-2.9701e+05	3290.3	-0.37137	0.86425	0.37039
1.496	92.574	-2.9701e+05	3290.1	-0.37108	0.86347	0.37127
1.498	92.575	-2.9701e+05	3289.9	-0.37078	0.86269	0.37215
1.5	92.576	-2.9701e+05	3289.7	-0.37049	0.86191	0.37303
1.502	92.574	-2.9701e+05	3289.5	-0.3702	0.86112	0.37391
1.504	92.572	-2.9701e+05	3289.3	-0.3699	0.86034	0.37478
1.506	92.574	-2.9701e+05	3289.1	-0.36961	0.86103	0.37478
1.508	92.583	-2.9701e+05	3288.9	-0.36932	0.86171	0.37478
1.51	92.591	-2.9702e+05	3288.8	-0.36903	0.86239	0.37478
1.512	92.589	-2.9702e+05	3288.6	-0.36873	0.86308	0.37478
1.514	92.591	-2.9702e+05	3288.4	-0.36844	0.86376	0.37478
1.516	92.599	-2.9702e+05	3288.3	-0.36912	0.86356	0.37391
1.518	92.599	-2.9702e+05	3288.1	-0.36981	0.86337	0.37303
1.52	92.589	-2.9702e+05	3288	-0.37049	0.86317	0.37215
1.522	92.58	-2.9702e+05	3287.9	-0.37117	0.86298	0.37127
1.524	92.569	-2.9702e+05	3287.7	-0.37186	0.86278	0.37039
1.526	92.546	-2.9702e+05	3287.6	-0.37176	0.86327	0.37039
1.528	92.502	-2.9702e+05	3287.4	-0.37166	0.86376	0.37039
1.53	92.448	-2.9702e+05	3287.2	-0.37156	0.86425	0.37039
1.532	92.38	-2.9702e+05	3287.1	-0.37147	0.86474	0.37039
1.534	92.283	-2.9703e+05	3286.9	-0.37137	0.86522	0.37039
1.536	92.14	-2.9702e+05	3286.8	-0.3702	0.86513	0.37147
1.538	91.969	-2.9702e+05	3286.7	-0.36903	0.86503	0.37254
1.54	91.815	-2.9702e+05	3286.5	-0.36785	0.86493	0.37361
1.542	91.702	-2.9702e+05	3286.4	-0.36668	0.86483	0.37469
1.544	91.651	-2.9702e+05	3286.3	-0.36551	0.86474	0.37576
1.546	91.66	-2.9702e+05	3286.1	-0.36688	0.86464	0.37566
1.548	91.739	-2.9703e+05	3286	-0.36824	0.86454	0.37556
1.55	91.888	-2.9703e+05	3285.9	-0.36961	0.86444	0.37547
1.552	92.084	-2.9703e+05	3285.7	-0.37098	0.86435	0.37537
1.554	92.273	-2.9703e+05	3285.6	-0.37234	0.86425	0.37527
1.556	92.388	-2.9703e+05	3285.5	-0.37176	0.86483	0.37439
1.558	92.426	-2.9703e+05	3285.3	-0.37117	0.86542	0.37352
1.56	92.435	-2.9702e+05	3285.2	-0.37059	0.866	0.37264
1.562	92.449	-2.9702e+05	3285.1	-0.37	0.86659	0.37176
1.564	92.471	-2.9702e+05	3285	-0.36942	0.86718	0.37088
1.566	92.491	-2.9702e+05	3284.8	-0.36883	0.86688	0.37215
1.568	92.503	-2.9702e+05	3284.7	-0.36824	0.86659	0.37342
1.57	92.515	-2.9702e+05	3284.5	-0.36766	0.8663	0.37469
1.572	92.531	-2.9702e+05	3284.4	-0.36707	0.866	0.37596
1.574	92.55	-2.9702e+05	3284.2	-0.36649	0.86571	0.37722
1.576	92.572	-2.9702e+05	3284.1	-0.36746	0.86532	0.37674
1.578	92.586	-2.9703e+05	3283.9	-0.36844	0.86493	0.37625
1.58	92.592	-2.9703e+05	3283.8	-0.36942	0.86454	0.37576
1.582	92.595	-2.9703e+05	3283.7	-0.37039	0.86415	0.37527
1.584	92.593	-2.9703e+05	3283.5	-0.37137	0.86376	0.37478
1.586	92.589	-2.9702e+05	3283.3	-0.37098	0.86425	0.3743
1.588	92.586	-2.9702e+05	3283.1	-0.37059	0.86474	0.37381
1.59	92.584	-2.9702e+05	3283	-0.3702	0.86522	0.37332
1.592	92.582	-2.9703e+05	3282.9	-0.36981	0.86571	0.37283
1.594	92.582	-2.9703e+05	3282.8	-0.36942	0.8662	0.37234
1.596	92.585	-2.9703e+05	3282.6	-0.36932	0.86581	0.37273
1.598	92.589	-2.9703e+05	3282.4	-0.36922	0.86542	0.37312
1.6	92.589	-2.9703e+05	3282.2	-0.36912	0.86503	0.37352
1.602	92.584	-2.9703e+05	3282.1	-0.36903	0.86464	0.37391
1.604	92.587	-2.9703e+05	3282	-0.36893	0.86425	0.3743
1.606	92.583	-2.9702e+05	3281.8	-0.36932	0.86454	0.3741
1.608	92.582	-2.9703e+05	3281.6	-0.36971	0.86483	0.37391
1.61	92.585	-2.9703e+05	3281.4	-0.3701	0.86513	0.37371
1.612	92.586	-2.9703e+05	3281.2	-0.37049	0.86542	0.37352
1.614	92.585	-2.9703e+05	3281.1	-0.37088	0.86571	0.37332
1.616	92.584	-2.9703e+05	3280.9	-0.37117	0.866	0.37303
1.618	92.583	-2.9703e+05	3280.7	-0.37147	0.8663	0.37273
1.62	92.582	-2.9702e+05	3280.5	-0.37176	0.86659	0.37244
1.622	92.579	-2.9701e+05	3280.3	-0.37205	0.86688	0.37215
1.624	92.579	-2.9702e+05	3280.1	-0.37234	0.86718	0.37186
1.626	92.581	-2.9703e+05	3279.9	-0.37078	0.86815	0.37186
1.628	92.582	-2.9703e+05	3279.7	-0.36922	0.86913	0.37186
1.63	92.58	-2.9703e+05	3279.5	-0.36766	0.8701	0.37186
1.632	92.577	-2.9703e+05	3279.2	-0.3661	0.87108	0.37186
1.634	92.577	-2.9703e+05	3279	-0.36454	0.87206	0.37186
1.636	92.575	-2.9703e+05	3278.7	-0.36629	0.87049	0.37234
1.638	92.573	-2.9703e+05	3278.5	-0.36805	0.86893	0.37283
1.64	92.573	-2.9703e+05	3278.2	-0.36981	0.86737	0.37332
1.642	92.577	-2.9703e+05	3277.9	-0.37156	0.86581	0.37381
1.644	92.581	-2.9703e+05	3277.6	-0.37332	0.86425	0.3743
1.646	92.58	-2.9703e+05	3277.3	-0.37176	0.86454	0.37449
1.648	92.579	-2.9703e+05	3277	-0.3702	0.86483	0.37469
1.65	92.579	-2.9703e+05	3276.7	-0.36864	0.86513	0.37488
1.652	92.579	-2.9703e+05	3276.3	-0.36707	0.86542	0.37508
1.654	92.579	-2.9703e+05	3276	-0.36551	0.86571	0.37527
1.656	92.578	-2.9703e+05	3275.7	-0.36629	0.86542	0.37498
1.658	92.578	-2.9703e+05	3275.4	-0.36707	0.86513	0.37469
1.66	92.578	-2.9703e+05	3275.1	-0.36785	0.86483	0.37439
1.662	92.578	-2.9703e+05	3274.8	-0.36864	0.86454	0.3741
1.664	92.579	-2.9703e+05	3274.5	-0.36942	0.86425	0.37381
1.666	92.581	-2.9703e+05	3274.2	-0.36961	0.86376	0.37342
1.668	92.581	-2.9703e+05	3274	-0.36981	0.86327	0.37303
1.67	92.58	-2.9703e+05	3273.8	-0.37	0.86278	0.37264
1.672	92.576	-2.9704e+05	3273.6	-0.3702	0.8623	0.37225
1.674	92.575	-2.9704e+05	3273.4	-0.37039	0.86181	0.37186
1.676	92.576	-2.9703e+05	3273.2	-0.36971	0.86249	0.37234
1.678	92.577	-2.9703e+05	3273	-0.36903	0.86317	0.37283
1.68	92.579	-2.9703e+05	3272.9	-0.36834	0.86386	0.37332
1.682	92.579	-2.9703e+05	3272.7	-0.36766	0.86454	0.37381
1.684	92.576	-2.9703e+05	3272.5	-0.36698	0.86522	0.3743
1.686	92.571	-2.9703e+05	3272.4	-0.36834	0.86464	0.3741
1.688	92.569	-2.9703e+05	3272.3	-0.36971	0.86405	0.37391
1.69	92.572	-2.9704e+05	3272.2	-0.37108	0.86347	0.37371
1.692	92.568	-2.9704e+05	3272.1	-0.37244	0.86288	0.37352
1.694	92.566	-2.9704e+05	3272	-0.37381	0.8623	0.37332
1.696	92.564	-2.9704e+05	3272	-0.37273	0.86288	0.37342
1.698	92.565	-2.9704e+05	3271.9	-0.37166	0.86347	0.37352
1.7	92.566	-2.9704e+05	3272	-0.37059	0.86405	0.37361
1.702	92.563	-2.9704e+05	3272	-0.36951	0.86464	0.37371
1.704	92.562	-2.9704e+05	3272.1	-0.36844	0.86522	0.37381
1.706	92.556	-2.9703e+05	3272.4	-0.36824	0.86532	0.3742
1.708	92.554	-2.9703e+05	3272.7	-0.36805	0.86542	0.37459
1.71	92.553	-2.9703e+05	3273.1	-0.36785	0.86552	0.37498
1.712	92.554	-2.9703e+05	3273.6	-0.36766	0.86561	0.37537
1.714	92.553	-2.9704e+05	3274.2	-0.36746	0.86571	0.37576
1.716	92.548	-2.9704e+05	3275	-0.36815	0.86464	0.37517
1.718	92.542	-2.9704e+05	3275.8	-0.36883	0.86356	0.37459
1.72	92.537	-2.9704e+05	3276.8	-0.36951	0.86249	0.374
1.722	92.536	-2.9704e+05	3277.9	-0.3702	0.86142	0.37342
1.724	92.531	-2.9703e+05	3279	-0.37088	0.86034	0.37283
1.726	92.526	-2.9703e+05	3280.4	-0.37059	0.86025	0.37244
1.728	92.521	-2.9703e+05	3281.8	-0.37029	0.86015	0.37205
1.73	92.517	-2.9703e+05	3283.2	-0.37	0.86005	0.37166
1.732	92.512	-2.9704e+05	3284.7	-0.36971	0.85995	0.37127
1.734	92.507	-2.9704e+05	3286.2	-0.36942	0.85986	0.37088
1.736	92.5	-2.9704e+05	3287.9	-0.36912	0.86034	0.37117
1.738	92.492	-2.9704e+05	3289.5	-0.36883	0.86083	0.37147
1.74	92.486	-2.9704e+05	3291.2	-0.36854	0.86132	0.37176
1.742	92.481	-2.9704e+05	3292.9	-0.36824	0.86181	0.37205
1.744	92.476	-2.9704e+05	3294.5	-0.36795	0.8623	0.37234
1.746	92.471	-2.9704e+05	3296.2	-0.36785	0.86308	0.37215
1.748	92.465	-2.9704e+05	3297.9	-0.36776	0.86386	0.37195
1.75	92.46	-2.9705e+05	3299.5	-0.36766	0.86464	0.37176
1.752	92.454	-2.9704e+05	3301.1	-0.36756	0.86542	0.37156
1.754	92.448	-2.9704e+05	3302.7	-0.36746	0.8662	0.37137
1.756	92.44	-2.9704e+05	3304.3	-0.36766	0.86581	0.37147
1.758	92.433	-2.9704e+05	3305.8	-0.36785	0.86542	0.37156
1.76	92.43	-2.9704e+05	3307.3	-0.36805	0.86503	0.37166
1.762	92.426	-2.9705e+05	3308.7	-0.36824	0.86464	0.37176
1.764	92.422	-2.9704e+05	3310.1	-0.36844	0.86425	0.37186
1.766	92.418	-2.9704e+05	3311.4	-0.36766	0.86415	0.37283
1.768	92.415	-2.9704e+05	3312.7	-0.36688	0.86405	0.37381
1.77	92.411	-2.9704e+05	3313.9	-0.3661	0.86396	0.37478
1.772	92.408	-2.9704e+05	3315	-0.36532	0.86386	0.37576
1.774	92.404	-2.9705e+05	3316.2	-0.36454	0.86376	0.37674
1.776	92.399	-2.9704e+05	3317.2	-0.36483	0.86444	0.37488
1.778	92.398	-2.9704e+05	3318.2	-0.36512	0.86513	0.37303
1.78	92.396	-2.9704e+05	3319.1	-0.36541	0.86581	0.37117
1.782	92.391	-2.9703e+05	3319.9	-0.36571	0.86649	0.36932
1.784	92.387	-2.9703e+05	3320.7	-0.366	0.86718	0.36746
1.786	92.384	-2.9704e+05	3321.5	-0.36688	0.866	0.36883
1.788	92.38	-2.9704e+05	3322.2	-0.36776	0.86483	0.3702
1.79	92.378	-2.9704e+05	3322.9	-0.36864	0.86366	0.37156
1.792	92.376	-2.9704e+05	3323.5	-0.36951	0.86249	0.37293
1.794	92.378	-2.9704e+05	3324.2	-0.37039	0.86132	0.3743
1.796	92.379	-2.9703e+05	3324.7	-0.37	0.86317	0.37361
1.798	92.381	-2.9703e+05	3325.2	-0.36961	0.86503	0.37293
1.8	92.382	-2.9702e+05	3325.7	-0.36922	0.86688	0.37225
1.802	92.381	-2.9702e+05	3326.1	-0.36883	0.86874	0.37156
1.804	92.383	-2.9702e+05	3326.6	-0.36844	0.87059	0.37088
1.806	92.387	-2.9702e+05	3326.9	-0.36932	0.86971	0.37156
1.808	92.39	-2.9702e+05	3327.3	-0.3702	0.86884	0.37225
1.81	92.395	-2.9702e+05	3327.6	-0.37108	0.86796	0.37293
1.812	92.401	-2.9702e+05	3327.9	-0.37195	0.86708	0.37361
1.814	92.407	-2.9702e+05	3328.2	-0.37283	0.8662	0.3743
1.816	92.411	-2.9702e+05	3328.5	-0.37361	0.86688	0.37371
1.818	92.414	-2.9702e+05	3328.7	-0.37439	0.86757	0.37312
1.82	92.418	-2.9702e+05	3328.9	-0.37517	0.86825	0.37254
1.822	92.423	-2.9702e+05	3329.1	-0.37596	0.86893	0.37195
1.824	92.426	-2.9702e+05	3329.2	-0.37674	0.86962	0.37137
1.826	92.429	-2.9701e+05	3329.3	-0.37615	0.8702	0.37234
1.828	92.434	-2.9702e+05	3329.5	-0.37556	0.87079	0.37332
1.83	92.439	-2.9703e+05	3329.6	-0.37498	0.87137	0.3743
1.832	92.445	-2.9703e+05	3329.7	-0.37439	0.87196	0.37527
1.834	92.45	-2.9702e+05	3329.8	-0.37381	0.87254	0.37625
1.836	92.454	-2.9703e+05	3329.9	-0.37371	0.87088	0.37644
1.838	92.457	-2.9703e+05	3329.9	-0.37361	0.86923	0.37664
1.84	92.46	-2.9702e+05	3330	-0.37352	0.86757	0.37683
1.842	92.463	-2.97e+05	3330.1	-0.37342	0.86591	0.37703
1.844	92.465	-2.9701e+05	3330.1	-0.37332	0.86425	0.37722
1.846	92.469	-2.9701e+05	3330.2	-0.37332	0.86532	0.37625
1.848	92.472	-2.9701e+05	3330.2	-0.37332	0.8664	0.37527
1.85	92.474	-2.9701e+05	3330.2	-0.37332	0.86747	0.3743
1.852	92.473	-2.9701e+05	3330.2	-0.37332	0.86854	0.37332
1.854	92.474	-2.9701e+05	3330.3	-0.37332	0.86962	0.37234
1.856	92.474	-2.9701e+05	3330.3	-0.37234	0.86923	0.37303
1.858	92.476	-2.97e+05	3330.3	-0.37137	0.86884	0.37371
1.86	92.478	-2.97e+05	3330.3	-0.37039	0.86844	0.37439
1.862	92.479	-2.97e+05	3330.3	-0.36942	0.86805	0.37508
1.864	92.482	-2.97e+05	3330.3	-0.36844	0.86766	0.37576
1.866	92.482	-2.97e+05	3330.3	-0.36776	0.86835	0.37566
1.868	92.484	-2.97e+05	3330.3	-0.36707	0.86903	0.37556
1.87	92.483	-2.9701e+05	3330.3	-0.36639	0.86971	0.37547
1.872	92.482	-2.97e+05	3330.2	-0.36571	0.8704	0.37537
1.874	92.483	-2.97e+05	3330.2	-0.36502	0.87108	0.37527
1.876	92.487	-2.97e+05	3330.2	-0.36571	0.86942	0.37586
1.878	92.49	-2.97e+05	3330.1	-0.36639	0.86776	0.37644
1.88	92.492	-2.97e+05	3330.1	-0.36707	0.8661	0.37703
1.882	92.493	-2.97e+05	3330	-0.36776	0.86444	0.37761
1.884	92.494	-2.97e+05	3330	-0.36844	0.86278	0.3782
1.886	92.49	-2.97e+05	3329.9	-0.36922	0.86356	0.37761
1.888	92.487	-2.97e+05	3329.8	-0.37	0.86435	0.37703
1.89	92.489	-2.97e+05	3329.7	-0.37078	0.86513	0.37644
1.892	92.491	-2.97e+05	3329.6	-0.37156	0.86591	0.37586
1.894	92.491	-2.97e+05	3329.5	-0.37234	0.86669	0.37527
1.896	92.493	-2.9699e+05	3329.3	-0.37049	0.86679	0.37537
1.898	92.495	-2.9699e+05	3329.2	-0.36864	0.86688	0.37547
1.9	92.498	-2.9699e+05	3329	-0.36678	0.86698	0.37556
1.902	92.499	-2.9699e+05	3328.8	-0.36493	0.86708	0.37566
1.904	92.497	-2.9699e+05	3328.7	-0.36307	0.86718	0.37576
1.906	92.495	-2.9699e+05	3328.5	-0.36385	0.8663	0.37615
1.908	92.495	-2.9699e+05	3328.3	-0.36463	0.86542	0.37654
1.91	92.497	-2.9699e+05	3328	-0.36541	0.86454	0.37693
1.912	92.5	-2.9699e+05	3327.8	-0.3662	0.86366	0.37732
1.914	92.503	-2.9699e+05	3327.6	-0.36698	0.86278	0.37771
1.916	92.503	-2.9698e+05	3327.3	-0.36659	0.86317	0.37664
1.918	92.501	-2.9698e+05	3327	-0.3662	0.86356	0.37556
1.92	92.501	-2.9699e+05	3326.7	-0.3658	0.86396	0.37449
1.922	92.501	-2.9699e+05	3326.4	-0.36541	0.86435	0.37342
1.924	92.5	-2.9699e+05	3326.1	-0.36502	0.86474	0.37234
1.926	92.499	-2.9699e+05	3325.8	-0.36502	0.86542	0.37254
1.928	92.503	-2.9699e+05	3325.5	-0.36502	0.8661	0.37273
1.93	92.506	-2.9699e+05	3325.1	-0.36502	0.86679	0.37293
1.932	92.509	-2.9699e+05	3324.7	-0.36502	0.86747	0.37312
1.934	92.51	-2.9698e+05	3324.3	-0.36502	0.86815	0.37332
1.936	92.51	-2.9699e+05	3323.8	-0.36493	0.86835	0.37264
1.938	92.509	-2.97e+05	3323.4	-0.36483	0.86854	0.37195
1.94	92.511	-2.9699e+05	3323	-0.36473	0.86874	0.37127
1.942	92.509	-2.9699e+05	3322.5	-0.36463	0.86893	0.37059
1.944	92.509	-2.9699e+05	3322.1	-0.36454	0.86913	0.3699
1.946	92.51	-2.9698e+05	3321.6	-0.36483	0.86854	0.37147
1.948	92.511	-2.9698e+05	3321.2	-0.36512	0.86796	0.37303
1.95	92.512	-2.9699e+05	3320.7	-0.36541	0.86737	0.37459
1.952	92.511	-2.9699e+05	3320.3	-0.36571	0.86679	0.37615
1.954	92.513	-2.9699e+05	3319.8	-0.366	0.8662	0.37771
1.956	92.514	-2.9699e+05	3319.4	-0.36541	0.86591	0.37771
1.958	92.513	-2.9698e+05	3318.9	-0.36483	0.86561	0.37771
1.96	92.512	-2.9698e+05	3318.5	-0.36424	0.86532	0.37771
1.962	92.515	-2.9699e+05	3318	-0.36366	0.86503	0.37771
1.964	92.519	-2.9698e+05	3317.5	-0.36307	0.86474	0.37771
1.966	92.521	-2.9697e+05	3317.1	-0.36444	0.86522	0.37596
1.968	92.523	-2.9698e+05	3316.8	-0.3658	0.86571	0.3742
1.97	92.521	-2.9698e+05	3316.4	-0.36717	0.8662	0.37244
1.972	92.517	-2.9698e+05	3316	-0.36854	0.86669	0.37068
1.974	92.515	-2.9698e+05	3315.7	-0.3699	0.86718	0.36893
1.976	92.518	-2.9698e+05	3315.3	-0.36971	0.86708	0.36951
1.978	92.521	-2.9699e+05	3315	-0.36951	0.86698	0.3701
1.98	92.522	-2.9698e+05	3314.7	-0.36932	0.86688	0.37068
1.982	92.522	-2.9697e+05	3314.4	-0.36912	0.86679	0.37127
1.984	92.522	-2.9698e+05	3314.2	-0.36893	0.86669	0.37186
1.986	92.523	-2.9699e+05	3313.9	-0.36942	0.86571	0.37225
1.988	92.525	-2.9699e+05	3313.6	-0.3699	0.86474	0.37264
1.99	92.526	-2.9699e+05	3313.4	-0.37039	0.86376	0.37303
1.992	92.526	-2.9699e+05	3313.2	-0.37088	0.86278	0.37342
1.994	92.528	-2.9699e+05	3313	-0.37137	0.86181	0.37381
1.996	92.529	-2.9699e+05	3312.8	-0.37127	0.862	0.37391
1.998	92.53	-2.9699e+05	3312.6	-0.37117	0.8622	0.374
2	92.53	-2.97e+05	3312.4	-0.37108	0.86239	0.3741
2.002	92.531	-2.97e+05	3312.2	-0.37098	0.86259	0.3742
2.004	92.533	-2.97e+05	3312.1	-0.37088	0.86278	0.3743
2.006	92.53	-2.9699e+05	3311.9	-0.37147	0.86288	0.37439
2.008	92.528	-2.9699e+05	3311.8	-0.37205	0.86298	0.37449
2.01	92.53	-2.97e+05	3311.6	-0.37264	0.86308	0.37459
2.012	92.531	-2.97e+05	3311.5	-0.37322	0.86317	0.37469
2.014	92.532	-2.9699e+05	3311.4	-0.37381	0.86327	0.37478
2.016	92.534	-2.9699e+05	3311.2	-0.37361	0.86415	0.37352
2.018	92.533	-2.9699e+05	3311.1	-0.37342	0.86503	0.37225
2.02	92.532	-2.9699e+05	3311	-0.37322	0.86591	0.37098
2.022	92.53	-2.9699e+05	3310.9	-0.37303	0.86679	0.36971
2.024	92.531	-2.9699e+05	3310.7	-0.37283	0.86766	0.36844
2.026	92.533	-2.9699e+05	3310.7	-0.37312	0.86757	0.36951
2.028	92.535	-2.9699e+05	3310.6	-0.37342	0.86747	0.37059
2.03	92.537	-2.9698e+05	3310.5	-0.37371	0.86737	0.37166
2.032	92.538	-2.9698e+05	3310.4	-0.374	0.86727	0.37273
2.034	92.54	-2.9698e+05	3310.3	-0.3743	0.86718	0.37381
2.036	92.538	-2.9698e+05	3310.2	-0.37293	0.86649	0.3743
2.038	92.539	-2.9698e+05	3310.1	-0.37156	0.86581	0.37478
2.04	92.538	-2.9698e+05	3310	-0.3702	0.86513	0.37527
2.042	92.538	-2.9698e+05	3309.9	-0.36883	0.86444	0.37576
2.044	92.54	-2.9698e+05	3309.8	-0.36746	0.86376	0.37625
2.046	92.541	-2.9698e+05	3309.7	-0.36785	0.86405	0.37517
2.048	92.544	-2.9698e+05	3309.6	-0.36824	0.86435	0.3741
2.05	92.547	-2.9699e+05	3309.5	-0.36864	0.86464	0.37303
2.052	92.544	-2.9699e+05	3309.4	-0.36903	0.86493	0.37195
2.054	92.541	-2.9699e+05	3309.3	-0.36942	0.86522	0.37088
2.056	92.539	-2.9699e+05	3309.2	-0.36903	0.86532	0.37186
2.058	92.539	-2.9699e+05	3309.1	-0.36864	0.86542	0.37283
2.06	92.542	-2.9699e+05	3309	-0.36824	0.86552	0.37381
2.062	92.544	-2.9699e+05	3308.8	-0.36785	0.86561	0.37478
2.064	92.546	-2.9699e+05	3308.7	-0.36746	0.86571	0.37576
2.066	92.548	-2.9699e+05	3308.6	-0.36795	0.86552	0.37566
2.068	92.547	-2.9699e+05	3308.5	-0.36844	0.86532	0.37556
2.07	92.547	-2.97e+05	3308.3	-0.36893	0.86513	0.37547
2.072	92.548	-2.9699e+05	3308.1	-0.36942	0.86493	0.37537
2.074	92.549	-2.9699e+05	3308	-0.3699	0.86474	0.37527
2.076	92.55	-2.9699e+05	3307.8	-0.3702	0.86454	0.37439
2.078	92.549	-2.97e+05	3307.6	-0.37049	0.86435	0.37352
2.08	92.55	-2.97e+05	3307.5	-0.37078	0.86415	0.37264
2.082	92.552	-2.9699e+05	3307.3	-0.37108	0.86396	0.37176
2.084	92.55	-2.9699e+05	3307.1	-0.37137	0.86376	0.37088
2.086	92.549	-2.9699e+05	3306.9	-0.37234	0.86415	0.37117
2.088	92.55	-2.9699e+05	3306.7	-0.37332	0.86454	0.37147
2.09	92.55	-2.9699e+05	3306.5	-0.3743	0.86493	0.37176
2.092	92.547	-2.9699e+05	3306.3	-0.37527	0.86532	0.37205
2.094	92.545	-2.9699e+05	3306.1	-0.37625	0.86571	0.37234
2.096	92.545	-2.9699e+05	3306	-0.37625	0.86561	0.37205
2.098	92.544	-2.9699e+05	3305.8	-0.37625	0.86552	0.37176
2.1	92.539	-2.9699e+05	3305.6	-0.37625	0.86542	0.37147
2.102	92.534	-2.9699e+05	3305.4	-0.37625	0.86532	0.37117
2.104	92.528	-2.9699e+05	3305.2	-0.37625	0.86522	0.37088
2.106	92.523	-2.9699e+05	3305.1	-0.37576	0.86483	0.37117
2.108	92.522	-2.97e+05	3304.9	-0.37527	0.86444	0.37147
2.11	92.523	-2.97e+05	3304.7	-0.37478	0.86405	0.37176
2.112	92.529	-2.97e+05	3304.5	-0.3743	0.86366	0.37205
2.114	92.526	-2.97e+05	3304.3	-0.37381	0.86327	0.37234
2.116	92.522	-2.97e+05	3304.1	-0.37381	0.86376	0.37254
2.118	92.513	-2.97e+05	3304	-0.37381	0.86425	0.37273
2.12	92.506	-2.97e+05	3303.8	-0.37381	0.86474	0.37293
2.122	92.508	-2.9701e+05	3303.6	-0.37381	0.86522	0.37312
2.124	92.51	-2.97e+05	3303.4	-0.37381	0.86571	0.37332
2.126	92.505	-2.97e+05	3303.2	-0.37293	0.86542	0.374
2.128	92.502	-2.97e+05	3303	-0.37205	0.86513	0.37469
2.13	92.497	-2.97e+05	3302.9	-0.37117	0.86483	0.37537
2.132	92.494	-2.9701e+05	3302.7	-0.37029	0.86454	0.37605
2.134	92.485	-2.9701e+05	3302.5	-0.36942	0.86425	0.37674
2.136	92.473	-2.9701e+05	3302.4	-0.36932	0.86444	0.37625
2.138	92.461	-2.9702e+05	3302.2	-0.36922	0.86464	0.37576
2.14	92.453	-2.9701e+05	3302	-0.36912	0.86483	0.37527
2.142	92.45	-2.97e+05	3301.9	-0.36903	0.86503	0.37478
2.144	92.454	-2.97e+05	3301.8	-0.36893	0.86522	0.3743
2.146	92.462	-2.97e+05	3301.6	-0.36903	0.86513	0.37381
2.148	92.475	-2.97e+05	3301.4	-0.36912	0.86503	0.37332
2.15	92.485	-2.97e+05	3301.2	-0.36922	0.86493	0.37283
2.152	92.486	-2.97e+05	3301.1	-0.36932	0.86483	0.37234
2.154	92.482	-2.9699e+05	3300.9	-0.36942	0.86474	0.37186
2.156	92.48	-2.9699e+05	3300.8	-0.36854	0.86522	0.37244
2.158	92.483	-2.9699e+05	3300.7	-0.36766	0.86571	0.37303
2.16	92.492	-2.9699e+05	3300.5	-0.36678	0.8662	0.37361
2.162	92.505	-2.9699e+05	3300.4	-0.3659	0.86669	0.3742
2.164	92.521	-2.9699e+05	3300.3	-0.36502	0.86718	0.37478
2.166	92.535	-2.9699e+05	3300.1	-0.36541	0.86698	0.37498
2.168	92.545	-2.9699e+05	3299.9	-0.3658	0.86679	0.37517
2.17	92.551	-2.9698e+05	3299.8	-0.3662	0.86659	0.37537
2.172	92.558	-2.9699e+05	3299.7	-0.36659	0.8664	0.37556
2.174	92.558	-2.9699e+05	3299.6	-0.36698	0.8662	0.37576
2.176	92.554	-2.9699e+05	3299.4	-0.36737	0.8664	0.37517
2.178	92.551	-2.9699e+05	3299.3	-0.36776	0.86659	0.37459
2.18	92.55	-2.9698e+05	3299.2	-0.36815	0.86679	0.374
2.182	92.55	-2.9697e+05	3299.1	-0.36854	0.86698	0.37342
2.184	92.554	-2.9697e+05	3298.9	-0.36893	0.86718	0.37283
2.186	92.557	-2.9697e+05	3298.8	-0.36854	0.86747	0.37293
2.188	92.558	-2.9698e+05	3298.6	-0.36815	0.86776	0.37303
2.19	92.559	-2.9699e+05	3298.5	-0.36776	0.86805	0.37312
2.192	92.561	-2.9699e+05	3298.3	-0.36737	0.86835	0.37322
2.194	92.562	-2.9699e+05	3298.2	-0.36698	0.86864	0.37332
2.196	92.563	-2.97e+05	3298.1	-0.36659	0.86796	0.374
2.198	92.564	-2.97e+05	3297.9	-0.3662	0.86727	0.37469
2.2	92.564	-2.97e+05	3297.8	-0.3658	0.86659	0.37537
2.202	92.566	-2.97e+05	3297.6	-0.36541	0.86591	0.37605
2.204	92.57	-2.97e+05	3297.5	-0.36502	0.86522	0.37674
2.206	92.567	-2.97e+05	3297.3	-0.36659	0.86513	0.37664
2.208	92.569	-2.97e+05	3297.1	-0.36815	0.86503	0.37654
2.21	92.572	-2.97e+05	3297	-0.36971	0.86493	0.37644
2.212	92.573	-2.97e+05	3296.8	-0.37127	0.86483	0.37635
2.214	92.575	-2.97e+05	3296.7	-0.37283	0.86474	0.37625
2.216	92.577	-2.97e+05	3296.6	-0.37215	0.86435	0.37605
2.218	92.574	-2.97e+05	3296.4	-0.37147	0.86396	0.37586
2.22	92.575	-2.97e+05	3296.3	-0.37078	0.86356	0.37566
2.222	92.575	-2.97e+05	3296.1	-0.3701	0.86317	0.37547
2.224	92.578	-2.9699e+05	3295.9	-0.36942	0.86278	0.37527
2.226	92.581	-2.9699e+05	3295.7	-0.36824	0.86415	0.37517
2.228	92.583	-2.9699e+05	3295.6	-0.36707	0.86552	0.37508
2.23	92.584	-2.9699e+05	3295.4	-0.3659	0.86688	0.37498
2.232	92.585	-2.9699e+05	3295.3	-0.36473	0.86825	0.37488
2.234	92.585	-2.9699e+05	3295.1	-0.36356	0.86962	0.37478
2.236	92.584	-2.9699e+05	3295	-0.36366	0.86903	0.37547
2.238	92.583	-2.9699e+05	3294.8	-0.36376	0.86844	0.37615
2.24	92.583	-2.9699e+05	3294.6	-0.36385	0.86786	0.37683
2.242	92.584	-2.9699e+05	3294.5	-0.36395	0.86727	0.37752
2.244	92.584	-2.9699e+05	3294.3	-0.36405	0.86669	0.3782
2.246	92.587	-2.9699e+05	3294.1	-0.3659	0.8663	0.37722
2.248	92.591	-2.97e+05	3294	-0.36776	0.86591	0.37625
2.25	92.594	-2.9701e+05	3293.8	-0.36961	0.86552	0.37527
2.252	92.596	-2.97e+05	3293.7	-0.37147	0.86513	0.3743
2.254	92.599	-2.97e+05	3293.6	-0.37332	0.86474	0.37332
2.256	92.605	-2.97e+05	3293.4	-0.37264	0.86435	0.374
2.258	92.608	-2.97e+05	3293.3	-0.37195	0.86396	0.37469
2.26	92.608	-2.97e+05	3293.2	-0.37127	0.86356	0.37537
2.262	92.61	-2.97e+05	3293	-0.37059	0.86317	0.37605
2.264	92.616	-2.97e+05	3292.9	-0.3699	0.86278	0.37674
2.266	92.615	-2.9699e+05	3292.7	-0.36932	0.86308	0.37693
2.268	92.605	-2.97e+05	3292.6	-0.36873	0.86337	0.37713
2.27	92.593	-2.97e+05	3292.5	-0.36815	0.86366	0.37732
2.272	92.579	-2.97e+05	3292.3	-0.36756	0.86396	0.37752
2.274	92.545	-2.97e+05	3292.2	-0.36698	0.86425	0.37771
2.276	92.49	-2.97e+05	3292.1	-0.36766	0.86435	0.37703
2.278	92.424	-2.97e+05	3291.9	-0.36834	0.86444	0.37635
2.28	92.337	-2.97e+05	3291.7	-0.36903	0.86454	0.37566
2.282	92.219	-2.97e+05	3291.6	-0.36971	0.86464	0.37498
2.284	92.054	-2.97e+05	3291.5	-0.37039	0.86474	0.3743
2.286	91.876	-2.97e+05	3291.3	-0.37108	0.86425	0.3741
2.288	91.73	-2.97e+05	3291.1	-0.37176	0.86376	0.37391
2.29	91.636	-2.97e+05	3291	-0.37244	0.86327	0.37371
2.292	91.614	-2.97e+05	3290.8	-0.37312	0.86278	0.37352
2.294	91.647	-2.97e+05	3290.7	-0.37381	0.8623	0.37332
2.296	91.759	-2.97e+05	3290.5	-0.37225	0.86376	0.37352
2.298	91.952	-2.97e+05	3290.4	-0.37068	0.86522	0.37371
2.3	92.174	-2.97e+05	3290.2	-0.36912	0.86669	0.37391
2.302	92.34	-2.9699e+05	3290.1	-0.36756	0.86815	0.3741
2.304	92.41	-2.97e+05	3289.9	-0.366	0.86962	0.3743
2.306	92.429	-2.97e+05	3289.8	-0.36571	0.86884	0.37488
2.308	92.436	-2.97e+05	3289.6	-0.36541	0.86805	0.37547
2.31	92.452	-2.97e+05	3289.5	-0.36512	0.86727	0.37605
2.312	92.483	-2.97e+05	3289.3	-0.36483	0.86649	0.37664
2.314	92.505	-2.97e+05	3289.1	-0.36454	0.86571	0.37722
2.316	92.514	-2.97e+05	3288.9	-0.3659	0.86532	0.37635
2.318	92.529	-2.97e+05	3288.8	-0.36727	0.86493	0.37547
2.32	92.551	-2.9699e+05	3288.6	-0.36864	0.86454	0.37459
2.322	92.57	-2.9699e+05	3288.4	-0.37	0.86415	0.37371
2.324	92.588	-2.9699e+05	3288.3	-0.37137	0.86376	0.37283
2.326	92.603	-2.97e+05	3288.1	-0.3701	0.86444	0.37332
2.328	92.611	-2.97e+05	3287.9	-0.36883	0.86513	0.37381
2.33	92.615	-2.97e+05	3287.7	-0.36756	0.86581	0.3743
2.332	92.616	-2.97e+05	3287.6	-0.36629	0.86649	0.37478
2.334	92.616	-2.97e+05	3287.4	-0.36502	0.86718	0.37527
2.336	92.611	-2.9699e+05	3287.2	-0.3661	0.8662	0.37527
2.338	92.606	-2.9699e+05	3287	-0.36717	0.86522	0.37527
2.34	92.607	-2.9699e+05	3286.8	-0.36824	0.86425	0.37527
2.342	92.609	-2.9699e+05	3286.6	-0.36932	0.86327	0.37527
2.344	92.609	-2.9699e+05	3286.4	-0.37039	0.8623	0.37527
2.346	92.61	-2.9699e+05	3286.2	-0.37108	0.86337	0.374
2.348	92.612	-2.97e+05	3285.9	-0.37176	0.86444	0.37273
2.35	92.612	-2.97e+05	3285.7	-0.37244	0.86552	0.37147
2.352	92.611	-2.97e+05	3285.5	-0.37312	0.86659	0.3702
2.354	92.612	-2.97e+05	3285.4	-0.37381	0.86766	0.36893
2.356	92.611	-2.97e+05	3285.1	-0.37342	0.86679	0.3701
2.358	92.608	-2.97e+05	3284.9	-0.37303	0.86591	0.37127
2.36	92.608	-2.97e+05	3284.7	-0.37264	0.86503	0.37244
2.362	92.61	-2.9701e+05	3284.4	-0.37225	0.86415	0.37361
2.364	92.611	-2.9701e+05	3284.2	-0.37186	0.86327	0.37478
2.366	92.611	-2.9701e+05	3284	-0.37176	0.86386	0.37459
2.368	92.611	-2.9701e+05	3283.8	-0.37166	0.86444	0.37439
2.37	92.611	-2.97e+05	3283.6	-0.37156	0.86503	0.3742
2.372	92.607	-2.97e+05	3283.3	-0.37147	0.86561	0.374
2.374	92.607	-2.97e+05	3283	-0.37137	0.8662	0.37381
2.376	92.607	-2.97e+05	3282.8	-0.37088	0.8661	0.3742
2.378	92.613	-2.97e+05	3282.5	-0.37039	0.866	0.37459
2.38	92.613	-2.97e+05	3282.3	-0.3699	0.86591	0.37498
2.382	92.613	-2.9701e+05	3282	-0.36942	0.86581	0.37537
2.384	92.609	-2.9701e+05	3281.7	-0.36893	0.86571	0.37576
2.386	92.606	-2.97e+05	3281.4	-0.37	0.86552	0.37439
2.388	92.606	-2.97e+05	3281.1	-0.37108	0.86532	0.37303
2.39	92.605	-2.97e+05	3280.8	-0.37215	0.86513	0.37166
2.392	92.603	-2.97e+05	3280.4	-0.37322	0.86493	0.37029
2.394	92.604	-2.97e+05	3280.1	-0.3743	0.86474	0.36893
2.396	92.607	-2.97e+05	3279.8	-0.37293	0.86483	0.3701
2.398	92.608	-2.9701e+05	3279.5	-0.37156	0.86493	0.37127
2.4	92.607	-2.9701e+05	3279.1	-0.3702	0.86503	0.37244
2.402	92.607	-2.9701e+05	3278.8	-0.36883	0.86513	0.37361
2.404	92.607	-2.9701e+05	3278.5	-0.36746	0.86522	0.37478
2.406	92.605	-2.9701e+05	3278.2	-0.36678	0.86513	0.37498
2.408	92.605	-2.97e+05	3277.8	-0.3661	0.86503	0.37517
2.41	92.604	-2.97e+05	3277.5	-0.36541	0.86493	0.37537
2.412	92.603	-2.97e+05	3277.3	-0.36473	0.86483	0.37556
2.414	92.603	-2.9701e+05	3277	-0.36405	0.86474	0.37576
2.416	92.603	-2.9701e+05	3276.8	-0.36561	0.86356	0.37556
2.418	92.602	-2.9701e+05	3276.5	-0.36717	0.86239	0.37537
2.42	92.602	-2.9701e+05	3276.3	-0.36873	0.86122	0.37517
2.422	92.601	-2.9701e+05	3276.2	-0.37029	0.86005	0.37498
2.424	92.598	-2.9701e+05	3276	-0.37186	0.85888	0.37478
2.426	92.598	-2.9701e+05	3275.9	-0.37225	0.85956	0.37469
2.428	92.6	-2.9701e+05	3275.7	-0.37264	0.86025	0.37459
2.43	92.6	-2.9701e+05	3275.6	-0.37303	0.86093	0.37449
2.432	92.599	-2.9701e+05	3275.5	-0.37342	0.86161	0.37439
2.434	92.598	-2.9701e+05	3275.4	-0.37381	0.8623	0.3743
2.436	92.596	-2.9701e+05	3275.3	-0.37273	0.86269	0.3743
2.438	92.592	-2.9702e+05	3275.2	-0.37166	0.86308	0.3743
2.44	92.589	-2.9702e+05	3275.1	-0.37059	0.86347	0.3743
2.442	92.585	-2.9701e+05	3275	-0.36951	0.86386	0.3743
2.444	92.586	-2.9701e+05	3275	-0.36844	0.86425	0.3743
2.446	92.587	-2.9701e+05	3275	-0.36844	0.86425	0.37459
2.448	92.584	-2.9701e+05	3275	-0.36844	0.86425	0.37488
2.45	92.582	-2.9701e+05	3275.1	-0.36844	0.86425	0.37517
2.452	92.582	-2.9701e+05	3275.2	-0.36844	0.86425	0.37547
2.454	92.578	-2.9701e+05	3275.3	-0.36844	0.86425	0.37576
2.456	92.576	-2.9701e+05	3275.6	-0.36893	0.86474	0.37488
2.458	92.577	-2.9701e+05	3275.9	-0.36942	0.86522	0.374
2.46	92.573	-2.9701e+05	3276.4	-0.3699	0.86571	0.37312
2.462	92.57	-2.9701e+05	3277	-0.37039	0.8662	0.37225
2.464	92.567	-2.9701e+05	3277.6	-0.37088	0.86669	0.37137
2.466	92.564	-2.9701e+05	3278.4	-0.37	0.86688	0.37166
2.468	92.56	-2.9701e+05	3279.3	-0.36912	0.86708	0.37195
2.47	92.557	-2.9701e+05	3280.3	-0.36824	0.86727	0.37225
2.472	92.554	-2.9701e+05	3281.4	-0.36737	0.86747	0.37254
2.474	92.551	-2.9701e+05	3282.5	-0.36649	0.86766	0.37283
2.476	92.549	-2.9701e+05	3283.8	-0.36639	0.86708	0.37283
2.478	92.544	-2.9701e+05	3285.2	-0.36629	0.86649	0.37283
2.48	92.537	-2.9701e+05	3286.6	-0.3662	0.86591	0.37283
2.482	92.53	-2.9701e+05	3288.1	-0.3661	0.86532	0.37283
2.484	92.52	-2.9701e+05	3289.6	-0.366	0.86474	0.37283
2.486	92.511	-2.9701e+05	3291.2	-0.3661	0.86483	0.37332
2.488	92.507	-2.9701e+05	3292.8	-0.3662	0.86493	0.37381
2.49	92.504	-2.9701e+05	3294.5	-0.36629	0.86503	0.3743
2.492	92.499	-2.9701e+05	3296.1	-0.36639	0.86513	0.37478
2.494	92.494	-2.9702e+05	3297.8	-0.36649	0.86522	0.37527
2.496	92.487	-2.9701e+05	3299.4	-0.36698	0.86591	0.3742
2.498	92.482	-2.9701e+05	3301	-0.36746	0.86659	0.37312
2.5	92.48	-2.9701e+05	3302.7	-0.36795	0.86727	0.37205
2.502	92.475	-2.9701e+05	3304.3	-0.36844	0.86796	0.37098
2.504	92.467	-2.9702e+05	3305.9	-0.36893	0.86864	0.3699
2.506	92.459	-2.9702e+05	3307.3	-0.36795	0.86903	0.37088
2.508	92.453	-2.9702e+05	3308.8	-0.36698	0.86942	0.37186
2.51	92.45	-2.9701e+05	3310.2	-0.366	0.86981	0.37283
2.512	92.447	-2.9701e+05	3311.6	-0.36502	0.8702	0.37381
2.514	92.443	-2.9701e+05	3313	-0.36405	0.87059	0.37478
2.516	92.439	-2.9701e+05	3314.3	-0.3658	0.86893	0.37478
2.518	92.433	-2.97e+05	3315.5	-0.36756	0.86727	0.37478
2.52	92.428	-2.9701e+05	3316.7	-0.36932	0.86561	0.37478
2.522	92.423	-2.9702e+05	3317.7	-0.37108	0.86396	0.37478
2.524	92.418	-2.9701e+05	3318.7	-0.37283	0.8623	0.37478
2.526	92.415	-2.9701e+05	3319.7	-0.37088	0.86386	0.37488
2.528	92.416	-2.9701e+05	3320.6	-0.36893	0.86542	0.37498
2.53	92.414	-2.9701e+05	3321.5	-0.36698	0.86698	0.37508
2.532	92.41	-2.9701e+05	3322.3	-0.36502	0.86854	0.37517
2.534	92.406	-2.9701e+05	3323.1	-0.36307	0.8701	0.37527
2.536	92.401	-2.9701e+05	3323.7	-0.36356	0.86971	0.37586
2.538	92.398	-2.97e+05	3324.4	-0.36405	0.86932	0.37644
2.54	92.394	-2.97e+05	3325	-0.36454	0.86893	0.37703
2.542	92.394	-2.97e+05	3325.5	-0.36502	0.86854	0.37761
2.544	92.396	-2.97e+05	3326.1	-0.36551	0.86815	0.3782
2.546	92.399	-2.97e+05	3326.6	-0.36639	0.86669	0.3781
2.548	92.4	-2.9701e+05	3327	-0.36727	0.86522	0.378
2.55	92.405	-2.9701e+05	3327.5	-0.36815	0.86376	0.37791
2.552	92.407	-2.9701e+05	3327.8	-0.36903	0.8623	0.37781
2.554	92.408	-2.97e+05	3328.1	-0.3699	0.86083	0.37771
2.556	92.412	-2.97e+05	3328.5	-0.36932	0.8623	0.37664
2.558	92.415	-2.97e+05	3328.8	-0.36873	0.86376	0.37556
2.56	92.419	-2.97e+05	3329.1	-0.36815	0.86522	0.37449
2.562	92.423	-2.97e+05	3329.3	-0.36756	0.86669	0.37342
2.564	92.429	-2.97e+05	3329.5	-0.36698	0.86815	0.37234
2.566	92.438	-2.97e+05	3329.7	-0.36639	0.86815	0.37342
2.568	92.441	-2.97e+05	3329.9	-0.3658	0.86815	0.37449
2.57	92.444	-2.9699e+05	3330	-0.36522	0.86815	0.37556
2.572	92.451	-2.9699e+05	3330.1	-0.36463	0.86815	0.37664
2.574	92.458	-2.9699e+05	3330.2	-0.36405	0.86815	0.37771
2.576	92.465	-2.9698e+05	3330.3	-0.36415	0.86805	0.37693
2.578	92.47	-2.9698e+05	3330.4	-0.36424	0.86796	0.37615
2.58	92.475	-2.9698e+05	3330.4	-0.36434	0.86786	0.37537
2.582	92.479	-2.9699e+05	3330.4	-0.36444	0.86776	0.37459
2.584	92.481	-2.9699e+05	3330.4	-0.36454	0.86766	0.37381
2.586	92.484	-2.9699e+05	3330.4	-0.3658	0.86688	0.374
2.588	92.489	-2.9699e+05	3330.4	-0.36707	0.8661	0.3742
2.59	92.494	-2.9699e+05	3330.4	-0.36834	0.86532	0.37439
2.592	92.498	-2.9699e+05	3330.4	-0.36961	0.86454	0.37459
2.594	92.501	-2.9699e+05	3330.3	-0.37088	0.86376	0.37478
2.596	92.502	-2.9698e+05	3330.3	-0.37068	0.86444	0.37449
2.598	92.505	-2.9698e+05	3330.2	-0.37049	0.86513	0.3742
2.6	92.508	-2.9698e+05	3330.2	-0.37029	0.86581	0.37391
2.602	92.508	-2.9698e+05	3330.1	-0.3701	0.86649	0.37361
2.604	92.507	-2.9697e+05	3330	-0.3699	0.86718	0.37332
2.606	92.506	-2.9697e+05	3329.9	-0.36864	0.86737	0.37361
2.608	92.507	-2.9697e+05	3329.8	-0.36737	0.86757	0.37391
2.61	92.511	-2.9698e+05	3329.7	-0.3661	0.86776	0.3742
2.612	92.515	-2.9697e+05	3329.6	-0.36483	0.86796	0.37449
2.614	92.519	-2.9697e+05	3329.6	-0.36356	0.86815	0.37478
2.616	92.522	-2.9698e+05	3329.5	-0.36434	0.86718	0.37508
2.618	92.523	-2.9698e+05	3329.4	-0.36512	0.8662	0.37537
2.62	92.522	-2.9698e+05	3329.3	-0.3659	0.86522	0.37566
2.622	92.52	-2.9698e+05	3329.1	-0.36668	0.86425	0.37596
2.624	92.521	-2.9697e+05	3329	-0.36746	0.86327	0.37625
2.626	92.522	-2.9697e+05	3328.9	-0.3661	0.86356	0.37615
2.628	92.526	-2.9697e+05	3328.8	-0.36473	0.86386	0.37605
2.63	92.524	-2.9697e+05	3328.7	-0.36336	0.86415	0.37596
2.632	92.524	-2.9697e+05	3328.6	-0.362	0.86444	0.37586
2.634	92.526	-2.9698e+05	3328.5	-0.36063	0.86474	0.37576
2.636	92.523	-2.9697e+05	3328.3	-0.36249	0.86503	0.37439
2.638	92.524	-2.9696e+05	3328.2	-0.36434	0.86532	0.37303
2.64	92.525	-2.9696e+05	3328	-0.3662	0.86561	0.37166
2.642	92.526	-2.9697e+05	3327.8	-0.36805	0.86591	0.37029
2.644	92.531	-2.9698e+05	3327.6	-0.3699	0.8662	0.36893
2.646	92.531	-2.9698e+05	3327.4	-0.36883	0.86649	0.36903
2.648	92.532	-2.9697e+05	3327.2	-0.36776	0.86679	0.36912
2.65	92.53	-2.9696e+05	3327	-0.36668	0.86708	0.36922
2.652	92.525	-2.9696e+05	3326.7	-0.36561	0.86737	0.36932
2.654	92.525	-2.9697e+05	3326.5	-0.36454	0.86766	0.36942
2.656	92.529	-2.9697e+05	3326.2	-0.3658	0.86727	0.37029
2.658	92.53	-2.9697e+05	3325.9	-0.36707	0.86688	0.37117
2.66	92.532	-2.9697e+05	3325.7	-0.36834	0.86649	0.37205
2.662	92.535	-2.9697e+05	3325.4	-0.36961	0.8661	0.37293
2.664	92.536	-2.9697e+05	3325.1	-0.37088	0.86571	0.37381
2.666	92.536	-2.9697e+05	3324.7	-0.37068	0.86493	0.37371
2.668	92.536	-2.9697e+05	3324.4	-0.37049	0.86415	0.37361
2.67	92.537	-2.9697e+05	3324	-0.37029	0.86337	0.37352
2.672	92.537	-2.9697e+05	3323.7	-0.3701	0.86259	0.37342
2.674	92.537	-2.9697e+05	3323.3	-0.3699	0.86181	0.37332
2.676	92.539	-2.9696e+05	3322.9	-0.3701	0.8623	0.37342
2.678	92.54	-2.9696e+05	3322.5	-0.37029	0.86278	0.37352
2.68	92.539	-2.9696e+05	3322.1	-0.37049	0.86327	0.37361
2.682	92.537	-2.9696e+05	3321.6	-0.37068	0.86376	0.37371
2.684	92.54	-2.9696e+05	3321.2	-0.37088	0.86425	0.37381
2.686	92.545	-2.9696e+05	3320.7	-0.37029	0.86493	0.37303
2.688	92.545	-2.9697e+05	3320.2	-0.36971	0.86561	0.37225
2.69	92.541	-2.9697e+05	3319.7	-0.36912	0.8663	0.37147
2.692	92.542	-2.9696e+05	3319.3	-0.36854	0.86698	0.37068
2.694	92.545	-2.9696e+05	3318.9	-0.36795	0.86766	0.3699
2.696	92.551	-2.9696e+05	3318.4	-0.36844	0.86708	0.37078
2.698	92.55	-2.9696e+05	3317.9	-0.36893	0.86649	0.37166
2.7	92.548	-2.9696e+05	3317.4	-0.36942	0.86591	0.37254
2.702	92.549	-2.9695e+05	3316.9	-0.3699	0.86532	0.37342
2.704	92.554	-2.9696e+05	3316.5	-0.37039	0.86474	0.3743
2.706	92.554	-2.9696e+05	3316	-0.37127	0.86503	0.3741
2.708	92.552	-2.9696e+05	3315.6	-0.37215	0.86532	0.37391
2.71	92.552	-2.9696e+05	3315.1	-0.37303	0.86561	0.37371
2.712	92.551	-2.9696e+05	3314.7	-0.37391	0.86591	0.37352
2.714	92.554	-2.9696e+05	3314.3	-0.37478	0.8662	0.37332
2.716	92.559	-2.9696e+05	3313.8	-0.3741	0.8663	0.37244
2.718	92.557	-2.9697e+05	3313.4	-0.37342	0.8664	0.37156
2.72	92.557	-2.9696e+05	3313	-0.37273	0.86649	0.37068
2.722	92.555	-2.9696e+05	3312.6	-0.37205	0.86659	0.36981
2.724	92.558	-2.9697e+05	3312.2	-0.37137	0.86669	0.36893
2.726	92.558	-2.9697e+05	3311.9	-0.37078	0.86669	0.36971
2.728	92.558	-2.9697e+05	3311.5	-0.3702	0.86669	0.37049
2.73	92.559	-2.9696e+05	3311.2	-0.36961	0.86669	0.37127
2.732	92.562	-2.9696e+05	3310.9	-0.36903	0.86669	0.37205
2.734	92.561	-2.9696e+05	3310.6	-0.36844	0.86669	0.37283
2.736	92.558	-2.9696e+05	3310.4	-0.36746	0.86698	0.37332
2.738	92.559	-2.9696e+05	3310.1	-0.36649	0.86727	0.37381
2.74	92.561	-2.9696e+05	3309.9	-0.36551	0.86757	0.3743
2.742	92.561	-2.9696e+05	3309.7	-0.36454	0.86786	0.37478
2.744	92.56	-2.9696e+05	3309.5	-0.36356	0.86815	0.37527
2.746	92.561	-2.9697e+05	3309.3	-0.36473	0.86718	0.37527
2.748	92.564	-2.9697e+05	3309.1	-0.3659	0.8662	0.37527
2.75	92.566	-2.9697e+05	3308.9	-0.36707	0.86522	0.37527
2.752	92.568	-2.9697e+05	3308.8	-0.36824	0.86425	0.37527
2.754	92.569	-2.9697e+05	3308.7	-0.36942	0.86327	0.37527
2.756	92.567	-2.9696e+05	3308.6	-0.36834	0.86464	0.3743
2.758	92.566	-2.9696e+05	3308.5	-0.36727	0.866	0.37332
2.76	92.565	-2.9696e+05	3308.4	-0.3662	0.86737	0.37234
2.762	92.565	-2.9696e+05	3308.2	-0.36512	0.86874	0.37137
2.764	92.567	-2.9697e+05	3308.1	-0.36405	0.8701	0.37039
2.766	92.57	-2.9697e+05	3308.1	-0.36376	0.8702	0.37029
2.768	92.568	-2.9697e+05	3308	-0.36346	0.8703	0.3702
2.77	92.566	-2.9696e+05	3308	-0.36317	0.8704	0.3701
2.772	92.566	-2.9696e+05	3307.9	-0.36288	0.87049	0.37
2.774	92.567	-2.9696e+05	3307.9	-0.36258	0.87059	0.3699
2.776	92.568	-2.9696e+05	3307.9	-0.36288	0.87049	0.36951
2.778	92.569	-2.9696e+05	3307.8	-0.36317	0.8704	0.36912
2.78	92.57	-2.9696e+05	3307.8	-0.36346	0.8703	0.36873
2.782	92.573	-2.9697e+05	3307.8	-0.36376	0.8702	0.36834
2.784	92.573	-2.9697e+05	3307.8	-0.36405	0.8701	0.36795
2.786	92.573	-2.9697e+05	3307.7	-0.36356	0.86981	0.36776
2.788	92.572	-2.9697e+05	3307.7	-0.36307	0.86952	0.36756
2.79	92.572	-2.9697e+05	3307.7	-0.36258	0.86923	0.36737
2.792	92.57	-2.9697e+05	3307.6	-0.3621	0.86893	0.36717
2.794	92.569	-2.9696e+05	3307.6	-0.36161	0.86864	0.36698
2.796	92.573	-2.9696e+05	3307.6	-0.36268	0.86932	0.36737
2.798	92.574	-2.9696e+05	3307.6	-0.36376	0.87001	0.36776
2.8	92.572	-2.9697e+05	3307.5	-0.36483	0.87069	0.36815
2.802	92.574	-2.9697e+05	3307.5	-0.3659	0.87137	0.36854
2.804	92.576	-2.9697e+05	3307.5	-0.36698	0.87206	0.36893
2.806	92.575	-2.9697e+05	3307.4	-0.36698	0.87049	0.36961
2.808	92.574	-2.9697e+05	3307.4	-0.36698	0.86893	0.37029
2.81	92.573	-2.9697e+05	3307.3	-0.36698	0.86737	0.37098
2.812	92.574	-2.9697e+05	3307.2	-0.36698	0.86581	0.37166
2.814	92.577	-2.9697e+05	3307.1	-0.36698	0.86425	0.37234
2.816	92.579	-2.9697e+05	3307.1	-0.36707	0.86503	0.37088
2.818	92.575	-2.9697e+05	3307	-0.36717	0.86581	0.36942
2.82	92.571	-2.9697e+05	3306.9	-0.36727	0.86659	0.36795
2.822	92.571	-2.9697e+05	3306.8	-0.36737	0.86737	0.36649
2.824	92.572	-2.9697e+05	3306.6	-0.36746	0.86815	0.36502
2.826	92.575	-2.9697e+05	3306.5	-0.36688	0.86854	0.36551
2.828	92.576	-2.9697e+05	3306.4	-0.36629	0.86893	0.366
2.83	92.576	-2.9697e+05	3306.2	-0.36571	0.86932	0.36649
2.832	92.578	-2.9697e+05	3306	-0.36512	0.86971	0.36698
2.834	92.58	-2.9697e+05	3305.8	-0.36454	0.8701	0.36746
2.836	92.579	-2.9697e+05	3305.7	-0.36561	0.86903	0.36815
2.838	92.577	-2.9697e+05	3305.5	-0.36668	0.86796	0.36883
2.84	92.576	-2.9697e+05	3305.4	-0.36776	0.86688	0.36951
2.842	92.575	-2.9697e+05	3305.2	-0.36883	0.86581	0.3702
2.844	92.577	-2.9697e+05	3305	-0.3699	0.86474	0.37088
2.846	92.578	-2.9697e+05	3304.8	-0.3701	0.86396	0.37147
2.848	92.578	-2.9697e+05	3304.6	-0.37029	0.86317	0.37205
2.85	92.58	-2.9697e+05	3304.5	-0.37049	0.86239	0.37264
2.852	92.582	-2.9697e+05	3304.3	-0.37068	0.86161	0.37322
2.854	92.579	-2.9697e+05	3304.1	-0.37088	0.86083	0.37381
2.856	92.576	-2.9697e+05	3303.9	-0.37039	0.86132	0.37381
2.858	92.575	-2.9697e+05	3303.7	-0.3699	0.86181	0.37381
2.86	92.576	-2.9697e+05	3303.5	-0.36942	0.8623	0.37381
2.862	92.577	-2.9697e+05	3303.3	-0.36893	0.86278	0.37381
2.864	92.575	-2.9697e+05	3303.1	-0.36844	0.86327	0.37381
2.866	92.57	-2.9697e+05	3302.9	-0.36707	0.86396	0.37439
2.868	92.562	-2.9697e+05	3302.7	-0.36571	0.86464	0.37498
2.87	92.556	-2.9697e+05	3302.5	-0.36434	0.86532	0.37556
2.872	92.557	-2.9697e+05	3302.3	-0.36297	0.866	0.37615
2.874	92.56	-2.9697e+05	3302.1	-0.36161	0.86669	0.37674
2.876	92.558	-2.9697e+05	3301.9	-0.36258	0.866	0.37693
2.878	92.556	-2.9697e+05	3301.6	-0.36356	0.86532	0.37713
2.88	92.551	-2.9697e+05	3301.5	-0.36454	0.86464	0.37732
2.882	92.548	-2.9697e+05	3301.3	-0.36551	0.86396	0.37752
2.884	92.547	-2.9697e+05	3301.1	-0.36649	0.86327	0.37771
2.886	92.541	-2.9698e+05	3300.9	-0.36688	0.86308	0.37742
2.888	92.542	-2.9697e+05	3300.7	-0.36727	0.86288	0.37713
2.89	92.543	-2.9696e+05	3300.5	-0.36766	0.86269	0.37683
2.892	92.542	-2.9697e+05	3300.3	-0.36805	0.86249	0.37654
2.894	92.537	-2.9697e+05	3300.1	-0.36844	0.8623	0.37625
2.896	92.534	-2.9697e+05	3299.8	-0.36844	0.86259	0.37596
2.898	92.531	-2.9698e+05	3299.6	-0.36844	0.86288	0.37566
2.9	92.522	-2.9698e+05	3299.4	-0.36844	0.86317	0.37537
2.902	92.507	-2.9698e+05	3299.2	-0.36844	0.86347	0.37508
2.904	92.492	-2.9698e+05	3299.1	-0.36844	0.86376	0.37478
2.906	92.483	-2.9698e+05	3298.8	-0.36785	0.86396	0.37527
2.908	92.48	-2.9698e+05	3298.6	-0.36727	0.86415	0.37576
2.91	92.482	-2.9697e+05	3298.4	-0.36668	0.86435	0.37625
2.912	92.494	-2.9698e+05	3298.2	-0.3661	0.86454	0.37674
2.914	92.516	-2.9698e+05	3298	-0.36551	0.86474	0.37722
2.916	92.53	-2.9698e+05	3297.9	-0.3658	0.86464	0.37732
2.918	92.528	-2.9698e+05	3297.7	-0.3661	0.86454	0.37742
2.92	92.524	-2.9698e+05	3297.5	-0.36639	0.86444	0.37752
2.922	92.52	-2.9698e+05	3297.3	-0.36668	0.86435	0.37761
2.924	92.521	-2.9698e+05	3297.2	-0.36698	0.86425	0.37771
2.926	92.532	-2.9698e+05	3296.9	-0.36785	0.86386	0.37742
2.928	92.545	-2.9698e+05	3296.7	-0.36873	0.86347	0.37713
2.93	92.559	-2.9698e+05	3296.5	-0.36961	0.86308	0.37683
2.932	92.571	-2.9698e+05	3296.3	-0.37049	0.86269	0.37654
2.934	92.581	-2.9698e+05	3296	-0.37137	0.8623	0.37625
2.936	92.589	-2.9698e+05	3295.8	-0.37117	0.86317	0.37556
2.938	92.595	-2.9697e+05	3295.6	-0.37098	0.86405	0.37488
2.94	92.596	-2.9698e+05	3295.4	-0.37078	0.86493	0.3742
2.942	92.595	-2.9698e+05	3295.1	-0.37059	0.86581	0.37352
2.944	92.596	-2.9698e+05	3294.9	-0.37039	0.86669	0.37283
2.946	92.597	-2.9698e+05	3294.7	-0.36961	0.86659	0.37352
2.948	92.599	-2.9698e+05	3294.5	-0.36883	0.86649	0.3742
2.95	92.602	-2.9698e+05	3294.2	-0.36805	0.8664	0.37488
2.952	92.601	-2.9698e+05	3294	-0.36727	0.8663	0.37556
2.954	92.599	-2.9698e+05	3293.8	-0.36649	0.8662	0.37625
2.956	92.603	-2.9698e+05	3293.5	-0.36659	0.86552	0.37635
2.958	92.61	-2.9699e+05	3293.3	-0.36668	0.86483	0.37644
2.96	92.614	-2.9698e+05	3293.1	-0.36678	0.86415	0.37654
2.962	92.614	-2.9698e+05	3292.8	-0.36688	0.86347	0.37664
2.964	92.612	-2.9698e+05	3292.6	-0.36698	0.86278	0.37674
2.966	92.612	-2.9698e+05	3292.4	-0.36707	0.86356	0.37674
2.968	92.615	-2.9698e+05	3292.2	-0.36717	0.86435	0.37674
2.97	92.616	-2.9698e+05	3291.9	-0.36727	0.86513	0.37674
2.972	92.614	-2.9699e+05	3291.7	-0.36737	0.86591	0.37674
2.974	92.615	-2.97e+05	3291.4	-0.36746	0.86669	0.37674
2.976	92.62	-2.9699e+05	3291.2	-0.36727	0.86688	0.37615
2.978	92.623	-2.9699e+05	3290.9	-0.36707	0.86708	0.37556
2.98	92.623	-2.9698e+05	3290.7	-0.36688	0.86727	0.37498
2.982	92.624	-2.9698e+05	3290.4	-0.36668	0.86747	0.37439
2.984	92.624	-2.9698e+05	3290.1	-0.36649	0.86766	0.37381
2.986	92.622	-2.9698e+05	3289.9	-0.3662	0.86747	0.3743
2.988	92.623	-2.9699e+05	3289.7	-0.3659	0.86727	0.37478
2.99	92.626	-2.97e+05	3289.5	-0.36561	0.86708	0.37527
2.992	92.628	-2.97e+05	3289.2	-0.36532	0.86688	0.37576
2.994	92.63	-2.9699e+05	3289	-0.36502	0.86669	0.37625
2.996	92.631	-2.9699e+05	3288.8	-0.36522	0.86552	0.37693
2.998	92.632	-2.9699e+05	3288.5	-0.36541	0.86435	0.37761
3	92.631	-2.97e+05	3288.3	-0.36561	0.86317	0.3783
3.002	92.632	-2.97e+05	3288.1	-0.3658	0.862	0.37898
3.004	92.634	-2.97e+05	3287.9	-0.366	0.86083	0.37966
3.006	92.632	-2.9699e+05	3287.6	-0.36483	0.86152	0.37957
3.008	92.631	-2.9699e+05	3287.4	-0.36366	0.8622	0.37947
3.01	92.632	-2.9698e+05	3287.2	-0.36249	0.86288	0.37937
3.012	92.632	-2.9699e+05	3287	-0.36132	0.86356	0.37927
3.014	92.633	-2.9699e+05	3286.8	-0.36014	0.86425	0.37918
3.016	92.636	-2.9699e+05	3286.6	-0.36044	0.86405	0.38005
3.018	92.638	-2.9699e+05	3286.4	-0.36073	0.86386	0.38093
3.02	92.642	-2.9699e+05	3286.2	-0.36102	0.86366	0.38181
3.022	92.648	-2.9699e+05	3286	-0.36132	0.86347	0.38269
3.024	92.65	-2.9699e+05	3285.8	-0.36161	0.86327	0.38357
3.026	92.647	-2.9699e+05	3285.6	-0.36014	0.86249	0.38279
3.028	92.649	-2.9699e+05	3285.4	-0.35868	0.86171	0.38201
3.03	92.655	-2.9699e+05	3285.2	-0.35722	0.86093	0.38123
3.032	92.656	-2.97e+05	3285	-0.35575	0.86015	0.38044
3.034	92.648	-2.97e+05	3284.9	-0.35429	0.85937	0.37966
3.036	92.635	-2.9699e+05	3284.7	-0.35565	0.86005	0.37937
3.038	92.616	-2.9699e+05	3284.5	-0.35702	0.86073	0.37908
3.04	92.581	-2.9699e+05	3284.3	-0.35839	0.86142	0.37879
3.042	92.526	-2.97e+05	3284.2	-0.35975	0.8621	0.37849
3.044	92.459	-2.9699e+05	3284	-0.36112	0.86278	0.3782
3.046	92.367	-2.9699e+05	3283.8	-0.35995	0.86269	0.37859
3.048	92.242	-2.9699e+05	3283.7	-0.35878	0.86259	0.37898
3.05	92.075	-2.9699e+05	3283.5	-0.35761	0.86249	0.37937
3.052	91.9	-2.97e+05	3283.3	-0.35644	0.86239	0.37976
3.054	91.76	-2.97e+05	3283	-0.35526	0.8623	0.38015
3.056	91.672	-2.97e+05	3282.9	-0.35614	0.86152	0.37966
3.058	91.655	-2.97e+05	3282.8	-0.35702	0.86073	0.37918
3.06	91.697	-2.97e+05	3282.6	-0.3579	0.85995	0.37869
3.062	91.823	-2.97e+05	3282.4	-0.35878	0.85917	0.3782
3.064	92.031	-2.97e+05	3282.2	-0.35966	0.85839	0.37771
3.066	92.252	-2.97e+05	3282.1	-0.35907	0.85839	0.37791
3.068	92.41	-2.97e+05	3281.9	-0.35848	0.85839	0.3781
3.07	92.475	-2.97e+05	3281.8	-0.3579	0.85839	0.3783
3.072	92.492	-2.97e+05	3281.6	-0.35731	0.85839	0.37849
3.074	92.497	-2.9701e+05	3281.4	-0.35673	0.85839	0.37869
3.076	92.508	-2.9701e+05	3281.2	-0.35741	0.85927	0.37937
3.078	92.535	-2.9701e+05	3281	-0.35809	0.86015	0.38005
3.08	92.556	-2.9701e+05	3280.8	-0.35878	0.86103	0.38074
3.082	92.562	-2.9701e+05	3280.6	-0.35946	0.86191	0.38142
3.084	92.575	-2.97e+05	3280.4	-0.36014	0.86278	0.3821
3.086	92.596	-2.97e+05	3280.2	-0.35985	0.86327	0.38103
3.088	92.615	-2.9699e+05	3280	-0.35956	0.86376	0.37996
3.09	92.629	-2.9699e+05	3279.8	-0.35927	0.86425	0.37888
3.092	92.641	-2.9699e+05	3279.6	-0.35897	0.86474	0.37781
3.094	92.649	-2.97e+05	3279.5	-0.35868	0.86522	0.37674
3.096	92.651	-2.97e+05	3279.3	-0.35917	0.86532	0.37742
3.098	92.65	-2.9701e+05	3279.1	-0.35966	0.86542	0.3781
3.1	92.648	-2.9701e+05	3278.9	-0.36014	0.86552	0.37879
3.102	92.645	-2.97e+05	3278.7	-0.36063	0.86561	0.37947
3.104	92.643	-2.97e+05	3278.4	-0.36112	0.86571	0.38015
3.106	92.642	-2.97e+05	3278.2	-0.36278	0.86571	0.37869
3.108	92.64	-2.97e+05	3278.1	-0.36444	0.86571	0.37722
3.11	92.64	-2.9701e+05	3277.9	-0.3661	0.86571	0.37576
3.112	92.641	-2.9701e+05	3277.7	-0.36776	0.86571	0.3743
3.114	92.641	-2.9701e+05	3277.5	-0.36942	0.86571	0.37283
3.116	92.639	-2.9701e+05	3277.3	-0.36864	0.86591	0.37293
3.118	92.638	-2.9701e+05	3277.1	-0.36785	0.8661	0.37303
3.12	92.637	-2.9701e+05	3276.9	-0.36707	0.8663	0.37312
3.122	92.638	-2.9701e+05	3276.7	-0.36629	0.86649	0.37322
3.124	92.642	-2.9701e+05	3276.4	-0.36551	0.86669	0.37332
3.126	92.643	-2.9701e+05	3276.3	-0.36639	0.866	0.37352
3.128	92.642	-2.9701e+05	3276.1	-0.36727	0.86532	0.37371
3.13	92.644	-2.9701e+05	3275.9	-0.36815	0.86464	0.37391
3.132	92.641	-2.9701e+05	3275.7	-0.36903	0.86396	0.3741
3.134	92.638	-2.9701e+05	3275.6	-0.3699	0.86327	0.3743
3.136	92.635	-2.9701e+05	3275.4	-0.3701	0.86425	0.37381
3.138	92.634	-2.9702e+05	3275.2	-0.37029	0.86522	0.37332
3.14	92.632	-2.9702e+05	3275	-0.37049	0.8662	0.37283
3.142	92.63	-2.9701e+05	3274.7	-0.37068	0.86718	0.37234
3.144	92.632	-2.9702e+05	3274.5	-0.37088	0.86815	0.37186
3.146	92.629	-2.9702e+05	3274.3	-0.37068	0.86776	0.37195
3.148	92.629	-2.9701e+05	3274	-0.37049	0.86737	0.37205
3.15	92.631	-2.97e+05	3273.8	-0.37029	0.86698	0.37215
3.152	92.63	-2.9701e+05	3273.6	-0.3701	0.86659	0.37225
3.154	92.629	-2.9701e+05	3273.4	-0.3699	0.8662	0.37234
3.156	92.626	-2.9701e+05	3273.1	-0.3699	0.8664	0.37166
3.158	92.625	-2.9701e+05	3272.9	-0.3699	0.86659	0.37098
3.16	92.629	-2.9701e+05	3272.6	-0.3699	0.86679	0.37029
3.162	92.631	-2.9701e+05	3272.3	-0.3699	0.86698	0.36961
3.164	92.633	-2.9701e+05	3272	-0.3699	0.86718	0.36893
3.166	92.632	-2.9701e+05	3271.7	-0.3699	0.86727	0.36932
3.168	92.63	-2.9701e+05	3271.5	-0.3699	0.86737	0.36971
3.17	92.628	-2.9701e+05	3271.2	-0.3699	0.86747	0.3701
3.172	92.628	-2.9701e+05	3270.9	-0.3699	0.86757	0.37049
3.174	92.626	-2.9701e+05	3270.6	-0.3699	0.86766	0.37088
3.176	92.626	-2.97e+05	3270.3	-0.36893	0.86737	0.37166
3.178	92.626	-2.97e+05	3270	-0.36795	0.86708	0.37244
3.18	92.627	-2.97e+05	3269.8	-0.36698	0.86679	0.37322
3.182	92.628	-2.97e+05	3269.6	-0.366	0.86649	0.374
3.184	92.629	-2.9701e+05	3269.5	-0.36502	0.8662	0.37478
3.186	92.628	-2.9702e+05	3269.2	-0.36688	0.86513	0.37469
3.188	92.627	-2.9702e+05	3269	-0.36873	0.86405	0.37459
3.19	92.627	-2.9702e+05	3268.8	-0.37059	0.86298	0.37449
3.192	92.626	-2.9702e+05	3268.7	-0.37244	0.86191	0.37439
3.194	92.623	-2.9701e+05	3268.6	-0.3743	0.86083	0.3743
3.196	92.622	-2.9701e+05	3268.4	-0.37293	0.86171	0.3743
3.198	92.623	-2.9701e+05	3268.3	-0.37156	0.86259	0.3743
3.2	92.622	-2.9701e+05	3268.2	-0.3702	0.86347	0.3743
3.202	92.62	-2.9702e+05	3268.2	-0.36883	0.86435	0.3743
3.204	92.616	-2.9701e+05	3268.1	-0.36746	0.86522	0.3743
3.206	92.612	-2.9701e+05	3268.1	-0.36785	0.86483	0.374
3.208	92.611	-2.9701e+05	3268	-0.36824	0.86444	0.37371
3.21	92.611	-2.9702e+05	3268	-0.36864	0.86405	0.37342
3.212	92.609	-2.9702e+05	3268	-0.36903	0.86366	0.37312
3.214	92.608	-2.9702e+05	3268	-0.36942	0.86327	0.37283
3.216	92.607	-2.9701e+05	3268	-0.36932	0.86366	0.37234
3.218	92.604	-2.9701e+05	3268.1	-0.36922	0.86405	0.37186
3.22	92.601	-2.9702e+05	3268.2	-0.36912	0.86444	0.37137
3.222	92.598	-2.9702e+05	3268.4	-0.36903	0.86483	0.37088
3.224	92.593	-2.9703e+05	3268.6	-0.36893	0.86522	0.37039
3.226	92.59	-2.9703e+05	3269	-0.36766	0.86581	0.37108
3.228	92.589	-2.9703e+05	3269.4	-0.36639	0.8664	0.37176
3.23	92.591	-2.9704e+05	3269.9	-0.36512	0.86698	0.37244
3.232	92.59	-2.9704e+05	3270.6	-0.36385	0.86757	0.37312
3.234	92.583	-2.9704e+05	3271.3	-0.36258	0.86815	0.37381
3.236	92.576	-2.9704e+05	3272.3	-0.36405	0.86698	0.37371
3.238	92.57	-2.9704e+05	3273.2	-0.36551	0.86581	0.37361
3.24	92.566	-2.9704e+05	3274.3	-0.36698	0.86464	0.37352
3.242	92.561	-2.9703e+05	3275.6	-0.36844	0.86347	0.37342
3.244	92.557	-2.9703e+05	3276.8	-0.3699	0.8623	0.37332
3.246	92.554	-2.9704e+05	3278.2	-0.36961	0.86181	0.37381
3.248	92.55	-2.9703e+05	3279.6	-0.36932	0.86132	0.3743
3.25	92.544	-2.9703e+05	3281.1	-0.36903	0.86083	0.37478
3.252	92.539	-2.9703e+05	3282.7	-0.36873	0.86034	0.37527
3.254	92.53	-2.9702e+05	3284.3	-0.36844	0.85986	0.37576
3.256	92.522	-2.9703e+05	3286	-0.36756	0.86122	0.37586
3.258	92.516	-2.9703e+05	3287.6	-0.36668	0.86259	0.37596
3.26	92.509	-2.9703e+05	3289.2	-0.3658	0.86396	0.37605
3.262	92.501	-2.9704e+05	3290.9	-0.36493	0.86532	0.37615
3.264	92.499	-2.9704e+05	3292.5	-0.36405	0.86669	0.37625
3.266	92.498	-2.9703e+05	3294.1	-0.36502	0.86532	0.37635
3.268	92.493	-2.9703e+05	3295.8	-0.366	0.86396	0.37644
3.27	92.482	-2.9703e+05	3297.3	-0.36698	0.86259	0.37654
3.272	92.474	-2.9703e+05	3298.9	-0.36795	0.86122	0.37664
3.274	92.472	-2.9703e+05	3300.5	-0.36893	0.85986	0.37674
3.276	92.468	-2.9703e+05	3301.9	-0.36883	0.86112	0.37615
3.278	92.463	-2.9703e+05	3303.4	-0.36873	0.86239	0.37556
3.28	92.457	-2.9703e+05	3304.8	-0.36864	0.86366	0.37498
3.282	92.449	-2.9703e+05	3306.2	-0.36854	0.86493	0.37439
3.284	92.444	-2.9702e+05	3307.5	-0.36844	0.8662	0.37381
3.286	92.44	-2.9702e+05	3308.7	-0.36766	0.86669	0.3742
3.288	92.437	-2.9702e+05	3309.9	-0.36688	0.86718	0.37459
3.29	92.435	-2.9702e+05	3311	-0.3661	0.86766	0.37498
3.292	92.429	-2.9702e+05	3312.1	-0.36532	0.86815	0.37537
3.294	92.424	-2.9702e+05	3313.1	-0.36454	0.86864	0.37576
3.296	92.42	-2.9702e+05	3314	-0.36483	0.86864	0.37586
3.298	92.423	-2.9702e+05	3314.8	-0.36512	0.86864	0.37596
3.3	92.421	-2.9702e+05	3315.6	-0.36541	0.86864	0.37605
3.302	92.417	-2.9702e+05	3316.4	-0.36571	0.86864	0.37615
3.304	92.412	-2.9702e+05	3317.1	-0.366	0.86864	0.37625
3.306	92.406	-2.9702e+05	3317.7	-0.36551	0.86815	0.37664
3.308	92.401	-2.9702e+05	3318.3	-0.36502	0.86766	0.37703
3.31	92.399	-2.9701e+05	3318.8	-0.36454	0.86718	0.37742
3.312	92.411	-2.9701e+05	3319.3	-0.36405	0.86669	0.37781
3.314	92.412	-2.9702e+05	3319.7	-0.36356	0.8662	0.3782
3.316	92.414	-2.9702e+05	3320.1	-0.36434	0.86649	0.37771
3.318	92.411	-2.9702e+05	3320.5	-0.36512	0.86679	0.37722
3.32	92.414	-2.9702e+05	3320.9	-0.3659	0.86708	0.37674
3.322	92.417	-2.9701e+05	3321.1	-0.36668	0.86737	0.37625
3.324	92.42	-2.9701e+05	3321.4	-0.36746	0.86766	0.37576
3.326	92.427	-2.9701e+05	3321.6	-0.36776	0.86805	0.37556
3.328	92.435	-2.9701e+05	3321.9	-0.36805	0.86844	0.37537
3.33	92.441	-2.9701e+05	3322.1	-0.36834	0.86884	0.37517
3.332	92.446	-2.9701e+05	3322.2	-0.36864	0.86923	0.37498
3.334	92.45	-2.9701e+05	3322.4	-0.36893	0.86962	0.37478
3.336	92.452	-2.9701e+05	3322.5	-0.36922	0.86884	0.37508
3.338	92.455	-2.9701e+05	3322.6	-0.36951	0.86805	0.37537
3.34	92.462	-2.9701e+05	3322.7	-0.36981	0.86727	0.37566
3.342	92.471	-2.9701e+05	3322.7	-0.3701	0.86649	0.37596
3.344	92.477	-2.9701e+05	3322.8	-0.37039	0.86571	0.37625
3.346	92.481	-2.9701e+05	3322.8	-0.36922	0.8662	0.37644
3.348	92.488	-2.97e+05	3322.8	-0.36805	0.86669	0.37664
3.35	92.495	-2.97e+05	3322.8	-0.36688	0.86718	0.37683
3.352	92.499	-2.97e+05	3322.8	-0.36571	0.86766	0.37703
3.354	92.501	-2.97e+05	3322.7	-0.36454	0.86815	0.37722
3.356	92.503	-2.97e+05	3322.7	-0.36571	0.86825	0.37664
3.358	92.504	-2.97e+05	3322.6	-0.36688	0.86835	0.37605
3.36	92.507	-2.97e+05	3322.6	-0.36805	0.86844	0.37547
3.362	92.511	-2.97e+05	3322.5	-0.36922	0.86854	0.37488
3.364	92.514	-2.9699e+05	3322.4	-0.37039	0.86864	0.3743
3.366	92.518	-2.9699e+05	3322.3	-0.3699	0.86844	0.37469
3.368	92.521	-2.9699e+05	3322.2	-0.36942	0.86825	0.37508
3.37	92.521	-2.9699e+05	3322	-0.36893	0.86805	0.37547
3.372	92.522	-2.9699e+05	3321.9	-0.36844	0.86786	0.37586
3.374	92.524	-2.9699e+05	3321.8	-0.36795	0.86766	0.37625
3.376	92.526	-2.9699e+05	3321.7	-0.36688	0.86796	0.37644
3.378	92.527	-2.97e+05	3321.5	-0.3658	0.86825	0.37664
3.38	92.53	-2.97e+05	3321.4	-0.36473	0.86854	0.37683
3.382	92.532	-2.97e+05	3321.2	-0.36366	0.86884	0.37703
3.384	92.531	-2.97e+05	3321	-0.36258	0.86913	0.37722
3.386	92.529	-2.97e+05	3320.9	-0.36415	0.86786	0.37703
3.388	92.527	-2.97e+05	3320.7	-0.36571	0.86659	0.37683
3.39	92.527	-2.97e+05	3320.5	-0.36727	0.86532	0.37664
3.392	92.529	-2.97e+05	3320.3	-0.36883	0.86405	0.37644
3.394	92.532	-2.97e+05	3320.1	-0.37039	0.86278	0.37625
3.396	92.534	-2.97e+05	3320	-0.37	0.86415	0.37508
3.398	92.539	-2.97e+05	3319.9	-0.36961	0.86552	0.37391
3.4	92.54	-2.97e+05	3319.7	-0.36922	0.86688	0.37273
3.402	92.54	-2.97e+05	3319.5	-0.36883	0.86825	0.37156
3.404	92.538	-2.9699e+05	3319.3	-0.36844	0.86962	0.37039
3.406	92.536	-2.9699e+05	3319	-0.36746	0.86952	0.37137
3.408	92.539	-2.9699e+05	3318.8	-0.36649	0.86942	0.37234
3.41	92.543	-2.97e+05	3318.5	-0.36551	0.86932	0.37332
3.412	92.542	-2.9699e+05	3318.3	-0.36454	0.86923	0.3743
3.414	92.543	-2.9699e+05	3318.1	-0.36356	0.86913	0.37527
3.416	92.544	-2.9699e+05	3317.8	-0.36385	0.86874	0.37498
3.418	92.545	-2.9699e+05	3317.5	-0.36415	0.86835	0.37469
3.42	92.545	-2.9699e+05	3317.2	-0.36444	0.86796	0.37439
3.422	92.545	-2.9699e+05	3316.9	-0.36473	0.86757	0.3741
3.424	92.544	-2.9699e+05	3316.6	-0.36502	0.86718	0.37381
3.426	92.544	-2.9699e+05	3316.2	-0.36473	0.8664	0.37459
3.428	92.546	-2.9699e+05	3315.9	-0.36444	0.86561	0.37537
3.43	92.547	-2.9699e+05	3315.5	-0.36415	0.86483	0.37615
3.432	92.546	-2.9699e+05	3315.2	-0.36385	0.86405	0.37693
3.434	92.548	-2.9699e+05	3314.8	-0.36356	0.86327	0.37771
3.436	92.55	-2.9699e+05	3314.4	-0.36493	0.86347	0.37703
3.438	92.548	-2.9698e+05	3314	-0.36629	0.86366	0.37635
3.44	92.549	-2.9698e+05	3313.5	-0.36766	0.86386	0.37566
3.442	92.552	-2.9698e+05	3313.1	-0.36903	0.86405	0.37498
3.444	92.555	-2.9698e+05	3312.6	-0.37039	0.86425	0.3743
3.446	92.555	-2.9698e+05	3312.1	-0.3701	0.86474	0.37391
3.448	92.556	-2.9698e+05	3311.6	-0.36981	0.86522	0.37352
3.45	92.558	-2.9698e+05	3311.1	-0.36951	0.86571	0.37312
3.452	92.557	-2.9698e+05	3310.6	-0.36922	0.8662	0.37273
3.454	92.555	-2.9698e+05	3310.1	-0.36893	0.86669	0.37234
3.456	92.555	-2.9698e+05	3309.6	-0.36805	0.86727	0.37225
3.458	92.555	-2.9699e+05	3309.2	-0.36717	0.86786	0.37215
3.46	92.555	-2.9699e+05	3308.7	-0.36629	0.86844	0.37205
3.462	92.558	-2.9699e+05	3308.2	-0.36541	0.86903	0.37195
3.464	92.562	-2.9699e+05	3307.8	-0.36454	0.86962	0.37186
3.466	92.565	-2.9699e+05	3307.3	-0.36366	0.86942	0.37049
3.468	92.563	-2.9699e+05	3306.8	-0.36278	0.86923	0.36912
3.47	92.563	-2.9699e+05	3306.4	-0.3619	0.86903	0.36776
3.472	92.561	-2.9699e+05	3306	-0.36102	0.86884	0.36639
3.474	92.563	-2.9698e+05	3305.5	-0.36014	0.86864	0.36502
3.476	92.565	-2.9698e+05	3305.2	-0.36171	0.86884	0.36541
3.478	92.57	-2.9698e+05	3304.8	-0.36327	0.86903	0.3658
3.48	92.57	-2.9698e+05	3304.4	-0.36483	0.86923	0.3662
3.482	92.576	-2.9699e+05	3304.1	-0.36639	0.86942	0.36659
3.484	92.574	-2.9699e+05	3303.7	-0.36795	0.86962	0.36698
3.486	92.574	-2.9699e+05	3303.4	-0.36795	0.86971	0.36727
3.488	92.574	-2.9699e+05	3303.2	-0.36795	0.86981	0.36756
3.49	92.573	-2.9699e+05	3302.9	-0.36795	0.86991	0.36785
3.492	92.568	-2.9699e+05	3302.7	-0.36795	0.87001	0.36815
3.494	92.571	-2.9699e+05	3302.4	-0.36795	0.8701	0.36844
3.496	92.574	-2.9698e+05	3302.2	-0.36629	0.8701	0.36717
3.498	92.575	-2.9698e+05	3302	-0.36463	0.8701	0.3659
3.5	92.574	-2.9698e+05	3301.8	-0.36297	0.8701	0.36463
3.502	92.574	-2.9698e+05	3301.7	-0.36132	0.8701	0.36336
3.504	92.573	-2.9699e+05	3301.5	-0.35966	0.8701	0.3621
3.506	92.573	-2.9699e+05	3301.4	-0.35995	0.87001	0.36268
3.508	92.574	-2.9699e+05	3301.2	-0.36024	0.86991	0.36327
3.51	92.575	-2.9699e+05	3301.1	-0.36053	0.86981	0.36385
3.512	92.578	-2.9698e+05	3301	-0.36083	0.86971	0.36444
3.514	92.581	-2.9698e+05	3300.9	-0.36112	0.86962	0.36502
3.516	92.579	-2.9699e+05	3300.8	-0.36307	0.86786	0.36659
3.518	92.577	-2.9699e+05	3300.8	-0.36502	0.8661	0.36815
3.52	92.575	-2.9699e+05	3300.8	-0.36698	0.86435	0.36971
3.522	92.575	-2.9699e+05	3300.7	-0.36893	0.86259	0.37127
3.524	92.576	-2.9699e+05	3300.7	-0.37088	0.86083	0.37283
3.526	92.578	-2.9699e+05	3300.6	-0.37039	0.86181	0.37283
3.528	92.578	-2.9699e+05	3300.6	-0.3699	0.86278	0.37283
3.53	92.581	-2.9699e+05	3300.6	-0.36942	0.86376	0.37283
3.532	92.585	-2.9699e+05	3300.6	-0.36893	0.86474	0.37283
3.534	92.587	-2.9699e+05	3300.6	-0.36844	0.86571	0.37283
3.536	92.584	-2.9699e+05	3300.5	-0.36873	0.86591	0.37273
3.538	92.581	-2.97e+05	3300.5	-0.36903	0.8661	0.37264
3.54	92.579	-2.97e+05	3300.5	-0.36932	0.8663	0.37254
3.542	92.579	-2.97e+05	3300.5	-0.36961	0.86649	0.37244
3.544	92.579	-2.97e+05	3300.5	-0.3699	0.86669	0.37234
3.546	92.581	-2.9699e+05	3300.5	-0.36932	0.86649	0.37264
3.548	92.582	-2.9699e+05	3300.5	-0.36873	0.8663	0.37293
3.55	92.583	-2.9699e+05	3300.5	-0.36815	0.8661	0.37322
3.552	92.586	-2.9699e+05	3300.4	-0.36756	0.86591	0.37352
3.554	92.589	-2.9698e+05	3300.4	-0.36698	0.86571	0.37381
3.556	92.589	-2.9699e+05	3300.4	-0.36893	0.8664	0.37312
3.558	92.587	-2.9699e+05	3300.4	-0.37088	0.86708	0.37244
3.56	92.585	-2.9699e+05	3300.3	-0.37283	0.86776	0.37176
3.562	92.586	-2.9699e+05	3300.3	-0.37478	0.86844	0.37108
3.564	92.587	-2.9699e+05	3300.2	-0.37674	0.86913	0.37039
3.566	92.588	-2.9698e+05	3300.2	-0.37654	0.86923	0.37039
3.568	92.585	-2.9698e+05	3300.1	-0.37635	0.86932	0.37039
3.57	92.581	-2.9699e+05	3300	-0.37615	0.86942	0.37039
3.572	92.579	-2.9699e+05	3299.9	-0.37596	0.86952	0.37039
3.574	92.579	-2.9699e+05	3299.8	-0.37576	0.86962	0.37039
3.576	92.577	-2.97e+05	3299.7	-0.37615	0.87001	0.37068
3.578	92.579	-2.97e+05	3299.7	-0.37654	0.8704	0.37098
3.58	92.581	-2.97e+05	3299.6	-0.37693	0.87079	0.37127
3.582	92.586	-2.9699e+05	3299.4	-0.37732	0.87118	0.37156
3.584	92.59	-2.9699e+05	3299.3	-0.37771	0.87157	0.37186
3.586	92.587	-2.9699e+05	3299.2	-0.37683	0.86962	0.37244
3.588	92.585	-2.9699e+05	3299	-0.37596	0.86766	0.37303
3.59	92.586	-2.9699e+05	3298.9	-0.37508	0.86571	0.37361
3.592	92.586	-2.97e+05	3298.8	-0.3742	0.86376	0.3742
3.594	92.587	-2.97e+05	3298.6	-0.37332	0.86181	0.37478
3.596	92.588	-2.97e+05	3298.5	-0.37215	0.86288	0.37537
3.598	92.59	-2.9699e+05	3298.3	-0.37098	0.86396	0.37596
3.6	92.594	-2.9698e+05	3298.1	-0.36981	0.86503	0.37654
3.602	92.592	-2.9698e+05	3297.9	-0.36864	0.8661	0.37713
3.604	92.589	-2.9698e+05	3297.8	-0.36746	0.86718	0.37771
3.606	92.589	-2.9699e+05	3297.6	-0.36746	0.86679	0.37752
3.608	92.59	-2.9699e+05	3297.4	-0.36746	0.8664	0.37732
3.61	92.591	-2.97e+05	3297.2	-0.36746	0.866	0.37713
3.612	92.594	-2.9699e+05	3297	-0.36746	0.86561	0.37693
3.614	92.595	-2.9699e+05	3296.7	-0.36746	0.86522	0.37674
3.616	92.596	-2.9699e+05	3296.6	-0.36688	0.86571	0.37654
3.618	92.596	-2.97e+05	3296.4	-0.36629	0.8662	0.37635
3.62	92.595	-2.9699e+05	3296.2	-0.36571	0.86669	0.37615
3.622	92.593	-2.9699e+05	3295.9	-0.36512	0.86718	0.37596
3.624	92.591	-2.9699e+05	3295.7	-0.36454	0.86766	0.37576
3.626	92.591	-2.97e+05	3295.5	-0.36434	0.86796	0.37547
3.628	92.593	-2.97e+05	3295.2	-0.36415	0.86825	0.37517
3.63	92.596	-2.9699e+05	3295	-0.36395	0.86854	0.37488
3.632	92.598	-2.97e+05	3294.7	-0.36376	0.86884	0.37459
3.634	92.598	-2.97e+05	3294.5	-0.36356	0.86913	0.3743
3.636	92.597	-2.97e+05	3294.2	-0.36454	0.86776	0.37449
3.638	92.595	-2.97e+05	3294	-0.36551	0.8664	0.37469
3.64	92.595	-2.97e+05	3293.7	-0.36649	0.86503	0.37488
3.642	92.594	-2.9699e+05	3293.5	-0.36746	0.86366	0.37508
3.644	92.594	-2.9699e+05	3293.2	-0.36844	0.8623	0.37527
3.646	92.592	-2.9699e+05	3293	-0.36864	0.86308	0.37498
3.648	92.591	-2.9699e+05	3292.8	-0.36883	0.86386	0.37469
3.65	92.59	-2.9699e+05	3292.5	-0.36903	0.86464	0.37439
3.652	92.584	-2.9699e+05	3292.3	-0.36922	0.86542	0.3741
3.654	92.583	-2.9699e+05	3292	-0.36942	0.8662	0.37381
3.656	92.577	-2.9698e+05	3291.8	-0.36883	0.8661	0.37391
3.658	92.577	-2.9698e+05	3291.6	-0.36824	0.866	0.374
3.66	92.577	-2.9698e+05	3291.3	-0.36766	0.86591	0.3741
3.662	92.573	-2.9699e+05	3291.1	-0.36707	0.86581	0.3742
3.664	92.569	-2.9698e+05	3290.9	-0.36649	0.86571	0.3743
3.666	92.562	-2.9698e+05	3290.7	-0.36512	0.86571	0.37488
3.668	92.556	-2.9698e+05	3290.5	-0.36376	0.86571	0.37547
3.67	92.557	-2.9699e+05	3290.3	-0.36239	0.86571	0.37605
3.672	92.563	-2.9699e+05	3290.1	-0.36102	0.86571	0.37664
3.674	92.566	-2.9699e+05	3289.8	-0.35966	0.86571	0.37722
3.676	92.564	-2.9699e+05	3289.6	-0.36122	0.86552	0.37664
3.678	92.559	-2.9699e+05	3289.4	-0.36278	0.86532	0.37605
3.68	92.554	-2.9699e+05	3289.2	-0.36434	0.86513	0.37547
3.682	92.548	-2.9699e+05	3289	-0.3659	0.86493	0.37488
3.684	92.538	-2.9699e+05	3288.8	-0.36746	0.86474	0.3743
3.686	92.527	-2.97e+05	3288.6	-0.36639	0.86571	0.37371
3.688	92.516	-2.97e+05	3288.4	-0.36532	0.86669	0.37312
3.69	92.509	-2.97e+05	3288.2	-0.36424	0.86766	0.37254
3.692	92.509	-2.97e+05	3287.9	-0.36317	0.86864	0.37195
3.694	92.514	-2.97e+05	3287.7	-0.3621	0.86962	0.37137
3.696	92.522	-2.97e+05	3287.5	-0.36307	0.86932	0.37205
3.698	92.533	-2.97e+05	3287.3	-0.36405	0.86903	0.37273
3.7	92.541	-2.9699e+05	3287.1	-0.36502	0.86874	0.37342
3.702	92.542	-2.9699e+05	3286.9	-0.366	0.86844	0.3741
3.704	92.538	-2.9699e+05	3286.7	-0.36698	0.86815	0.37478
3.706	92.536	-2.9699e+05	3286.5	-0.36639	0.86776	0.37498
3.708	92.537	-2.9699e+05	3286.3	-0.3658	0.86737	0.37517
3.71	92.546	-2.9699e+05	3286.1	-0.36522	0.86698	0.37537
3.712	92.562	-2.9699e+05	3285.9	-0.36463	0.86659	0.37556
3.714	92.579	-2.97e+05	3285.6	-0.36405	0.8662	0.37576
3.716	92.59	-2.97e+05	3285.4	-0.36493	0.866	0.37498
3.718	92.597	-2.97e+05	3285.2	-0.3658	0.86581	0.3742
3.72	92.607	-2.97e+05	3285	-0.36668	0.86561	0.37342
3.722	92.616	-2.97e+05	3284.8	-0.36756	0.86542	0.37264
3.724	92.619	-2.97e+05	3284.6	-0.36844	0.86522	0.37186
3.726	92.617	-2.97e+05	3284.4	-0.36854	0.86542	0.37234
3.728	92.615	-2.97e+05	3284.1	-0.36864	0.86561	0.37283
3.73	92.616	-2.97e+05	3283.9	-0.36873	0.86581	0.37332
3.732	92.621	-2.97e+05	3283.7	-0.36883	0.866	0.37381
3.734	92.624	-2.97e+05	3283.4	-0.36893	0.8662	0.3743
3.736	92.625	-2.97e+05	3283.2	-0.36922	0.866	0.3743
3.738	92.623	-2.9699e+05	3283	-0.36951	0.86581	0.3743
3.74	92.621	-2.9699e+05	3282.7	-0.36981	0.86561	0.3743
3.742	92.622	-2.97e+05	3282.4	-0.3701	0.86542	0.3743
3.744	92.623	-2.9699e+05	3282.2	-0.37039	0.86522	0.3743
3.746	92.623	-2.9699e+05	3281.9	-0.3702	0.86513	0.37449
3.748	92.628	-2.9699e+05	3281.7	-0.37	0.86503	0.37469
3.75	92.632	-2.97e+05	3281.5	-0.36981	0.86493	0.37488
3.752	92.633	-2.97e+05	3281.2	-0.36961	0.86483	0.37508
3.754	92.633	-2.97e+05	3280.9	-0.36942	0.86474	0.37527
3.756	92.633	-2.97e+05	3280.7	-0.36903	0.86474	0.37498
3.758	92.635	-2.97e+05	3280.5	-0.36864	0.86474	0.37469
3.76	92.637	-2.97e+05	3280.2	-0.36824	0.86474	0.37439
3.762	92.636	-2.97e+05	3280	-0.36785	0.86474	0.3741
3.764	92.636	-2.97e+05	3279.7	-0.36746	0.86474	0.37381
3.766	92.637	-2.97e+05	3279.5	-0.36678	0.86483	0.37439
3.768	92.64	-2.97e+05	3279.3	-0.3661	0.86493	0.37498
3.77	92.642	-2.97e+05	3279	-0.36541	0.86503	0.37556
3.772	92.643	-2.97e+05	3278.8	-0.36473	0.86513	0.37615
3.774	92.644	-2.9699e+05	3278.5	-0.36405	0.86522	0.37674
3.776	92.643	-2.97e+05	3278.3	-0.36502	0.86435	0.37674
3.778	92.643	-2.97e+05	3278.1	-0.366	0.86347	0.37674
3.78	92.645	-2.97e+05	3277.8	-0.36698	0.86259	0.37674
3.782	92.648	-2.9699e+05	3277.6	-0.36795	0.86171	0.37674
3.784	92.646	-2.9699e+05	3277.3	-0.36893	0.86083	0.37674
3.786	92.644	-2.9699e+05	3277.1	-0.37	0.86132	0.37625
3.788	92.643	-2.9699e+05	3276.9	-0.37108	0.86181	0.37576
3.79	92.644	-2.9699e+05	3276.7	-0.37215	0.8623	0.37527
3.792	92.643	-2.97e+05	3276.5	-0.37322	0.86278	0.37478
3.794	92.643	-2.9701e+05	3276.3	-0.3743	0.86327	0.3743
3.796	92.645	-2.97e+05	3276.1	-0.37312	0.86386	0.37439
3.798	92.649	-2.97e+05	3275.8	-0.37195	0.86444	0.37449
3.8	92.652	-2.97e+05	3275.6	-0.37078	0.86503	0.37459
3.802	92.655	-2.9699e+05	3275.4	-0.36961	0.86561	0.37469
3.804	92.659	-2.9699e+05	3275.2	-0.36844	0.8662	0.37478
3.806	92.659	-2.97e+05	3275	-0.36893	0.866	0.37459
3.808	92.655	-2.97e+05	3274.8	-0.36942	0.86581	0.37439
3.81	92.656	-2.97e+05	3274.6	-0.3699	0.86561	0.3742
3.812	92.662	-2.97e+05	3274.3	-0.37039	0.86542	0.374
3.814	92.667	-2.97e+05	3274.1	-0.37088	0.86522	0.37381
3.816	92.666	-2.97e+05	3273.9	-0.37098	0.86454	0.37391
3.818	92.652	-2.97e+05	3273.8	-0.37108	0.86386	0.374
3.82	92.63	-2.97e+05	3273.6	-0.37117	0.86317	0.3741
3.822	92.59	-2.97e+05	3273.4	-0.37127	0.86249	0.3742
3.824	92.537	-2.97e+05	3273.2	-0.37137	0.86181	0.3743
3.826	92.467	-2.97e+05	3273	-0.37117	0.8622	0.37361
3.828	92.373	-2.97e+05	3272.9	-0.37098	0.86259	0.37293
3.83	92.242	-2.9701e+05	3272.7	-0.37078	0.86298	0.37225
3.832	92.07	-2.9701e+05	3272.5	-0.37059	0.86337	0.37156
3.834	91.898	-2.9701e+05	3272.4	-0.37039	0.86376	0.37088
3.836	91.759	-2.9701e+05	3272.2	-0.36971	0.86376	0.37137
3.838	91.68	-2.9701e+05	3272	-0.36903	0.86376	0.37186
3.84	91.668	-2.97e+05	3271.8	-0.36834	0.86376	0.37234
3.842	91.721	-2.97e+05	3271.6	-0.36766	0.86376	0.37283
3.844	91.858	-2.97e+05	3271.5	-0.36698	0.86376	0.37332
3.846	92.072	-2.97e+05	3271.3	-0.36776	0.86415	0.37244
3.848	92.291	-2.97e+05	3271.1	-0.36854	0.86454	0.37156
3.85	92.441	-2.97e+05	3271	-0.36932	0.86493	0.37068
3.852	92.505	-2.97e+05	3270.9	-0.3701	0.86532	0.36981
3.854	92.521	-2.97e+05	3270.7	-0.37088	0.86571	0.36893
3.856	92.522	-2.97e+05	3270.5	-0.37059	0.86493	0.37049
3.858	92.536	-2.97e+05	3270.4	-0.37029	0.86415	0.37205
3.86	92.565	-2.9701e+05	3270.2	-0.37	0.86337	0.37361
3.862	92.588	-2.9701e+05	3270	-0.36971	0.86259	0.37517
3.864	92.6	-2.9701e+05	3269.9	-0.36942	0.86181	0.37674
3.866	92.614	-2.9701e+05	3269.7	-0.36942	0.862	0.37683
3.868	92.627	-2.9701e+05	3269.5	-0.36942	0.8622	0.37693
3.87	92.64	-2.9701e+05	3269.4	-0.36942	0.86239	0.37703
3.872	92.657	-2.9701e+05	3269.3	-0.36942	0.86259	0.37713
3.874	92.669	-2.9701e+05	3269.1	-0.36942	0.86278	0.37722
3.876	92.674	-2.97e+05	3269	-0.36942	0.86376	0.37517
3.878	92.674	-2.97e+05	3268.8	-0.36942	0.86474	0.37312
3.88	92.67	-2.97e+05	3268.6	-0.36942	0.86571	0.37108
3.882	92.667	-2.97e+05	3268.5	-0.36942	0.86669	0.36903
3.884	92.666	-2.9701e+05	3268.4	-0.36942	0.86766	0.36698
3.886	92.663	-2.9701e+05	3268.2	-0.36737	0.86757	0.36668
3.888	92.663	-2.9701e+05	3268	-0.36532	0.86747	0.36639
3.89	92.665	-2.9701e+05	3267.8	-0.36327	0.86737	0.3661
3.892	92.662	-2.9701e+05	3267.7	-0.36122	0.86727	0.3658
3.894	92.661	-2.9701e+05	3267.5	-0.35917	0.86718	0.36551
3.896	92.662	-2.9701e+05	3267.4	-0.36014	0.86844	0.36571
3.898	92.659	-2.9701e+05	3267.2	-0.36112	0.86971	0.3659
3.9	92.655	-2.9701e+05	3267	-0.3621	0.87098	0.3661
3.902	92.656	-2.9701e+05	3266.8	-0.36307	0.87225	0.36629
3.904	92.664	-2.9701e+05	3266.6	-0.36405	0.87352	0.36649
3.906	92.665	-2.9701e+05	3266.5	-0.36463	0.87303	0.36659
3.908	92.658	-2.9701e+05	3266.3	-0.36522	0.87254	0.36668
3.91	92.657	-2.9702e+05	3266.1	-0.3658	0.87206	0.36678
3.912	92.653	-2.9702e+05	3265.9	-0.36639	0.87157	0.36688
3.914	92.662	-2.9702e+05	3265.7	-0.36698	0.87108	0.36698
3.916	92.661	-2.9701e+05	3265.5	-0.36795	0.8702	0.36776
3.918	92.658	-2.9701e+05	3265.4	-0.36893	0.86932	0.36854
3.92	92.655	-2.9701e+05	3265.2	-0.3699	0.86844	0.36932
3.922	92.653	-2.97e+05	3265	-0.37088	0.86757	0.3701
3.924	92.656	-2.9701e+05	3264.8	-0.37186	0.86669	0.37088
3.926	92.656	-2.9702e+05	3264.5	-0.37186	0.86698	0.37117
3.928	92.655	-2.9702e+05	3264.3	-0.37186	0.86727	0.37147
3.93	92.655	-2.9702e+05	3264.1	-0.37186	0.86757	0.37176
3.932	92.652	-2.9701e+05	3263.8	-0.37186	0.86786	0.37205
3.934	92.654	-2.9701e+05	3263.5	-0.37186	0.86815	0.37234
3.936	92.654	-2.9701e+05	3263.2	-0.37195	0.86757	0.37254
3.938	92.652	-2.9701e+05	3262.9	-0.37205	0.86698	0.37273
3.94	92.651	-2.9701e+05	3262.5	-0.37215	0.8664	0.37293
3.942	92.65	-2.9701e+05	3262.2	-0.37225	0.86581	0.37312
3.944	92.647	-2.9701e+05	3261.8	-0.37234	0.86522	0.37332
3.946	92.647	-2.9701e+05	3261.4	-0.37147	0.86493	0.3741
3.948	92.648	-2.9701e+05	3261.1	-0.37059	0.86464	0.37488
3.95	92.65	-2.9701e+05	3260.7	-0.36971	0.86435	0.37566
3.952	92.65	-2.9701e+05	3260.4	-0.36883	0.86405	0.37644
3.954	92.65	-2.9701e+05	3260	-0.36795	0.86376	0.37722
3.956	92.652	-2.9702e+05	3259.7	-0.36746	0.86425	0.37674
3.958	92.653	-2.9702e+05	3259.4	-0.36698	0.86474	0.37625
3.96	92.652	-2.9701e+05	3259.1	-0.36649	0.86522	0.37576
3.962	92.652	-2.9701e+05	3258.7	-0.366	0.86571	0.37527
3.964	92.654	-2.9702e+05	3258.4	-0.36551	0.8662	0.37478
3.966	92.652	-2.9702e+05	3258.2	-0.36424	0.86503	0.37556
3.968	92.649	-2.9702e+05	3257.9	-0.36297	0.86386	0.37635
3.97	92.646	-2.9702e+05	3257.7	-0.36171	0.86269	0.37713
3.972	92.641	-2.9702e+05	3257.4	-0.36044	0.86152	0.37791
3.974	92.641	-2.9702e+05	3257.2	-0.35917	0.86034	0.37869
3.976	92.643	-2.9702e+05	3257	-0.36102	0.86142	0.37771
3.978	92.645	-2.9702e+05	3256.8	-0.36288	0.86249	0.37674
3.98	92.645	-2.9702e+05	3256.6	-0.36473	0.86356	0.37576
3.982	92.643	-2.9702e+05	3256.4	-0.36659	0.86464	0.37478
3.984	92.644	-2.9701e+05	3256.2	-0.36844	0.86571	0.37381
3.986	92.642	-2.9701e+05	3256.1	-0.36834	0.86522	0.3741
3.988	92.638	-2.9701e+05	3256	-0.36824	0.86474	0.37439
3.99	92.643	-2.9702e+05	3255.9	-0.36815	0.86425	0.37469
3.992	92.641	-2.9702e+05	3255.7	-0.36805	0.86376	0.37498
3.994	92.64	-2.9702e+05	3255.6	-0.36795	0.86327	0.37527
3.996	92.638	-2.9702e+05	3255.5	-0.36727	0.86415	0.37527
3.998	92.635	-2.9702e+05	3255.5	-0.36659	0.86503	0.37527
4	92.636	-2.9702e+05	3255.4	-0.3659	0.86591	0.37527
4.002	92.636	-2.9701e+05	3255.4	-0.36522	0.86679	0.37527
4.004	92.632	-2.9702e+05	3255.4	-0.36454	0.86766	0.37527
4.006	92.628	-2.9702e+05	3255.5	-0.36483	0.86747	0.37488
4.008	92.621	-2.9702e+05	3255.6	-0.36512	0.86727	0.37449
4.01	92.623	-2.9702e+05	3255.8	-0.36541	0.86708	0.3741
4.012	92.624	-2.9702e+05	3256.1	-0.36571	0.86688	0.37371
4.014	92.623	-2.9701e+05	3256.4	-0.366	0.86669	0.37332
4.016	92.622	-2.9702e+05	3257	-0.36698	0.86542	0.37283
4.018	92.618	-2.9702e+05	3257.6	-0.36795	0.86415	0.37234
4.02	92.617	-2.9703e+05	3258.4	-0.36893	0.86288	0.37186
4.022	92.608	-2.9703e+05	3259.3	-0.3699	0.86161	0.37137
4.024	92.599	-2.9702e+05	3260.2	-0.37088	0.86034	0.37088
4.026	92.597	-2.9701e+05	3261.4	-0.3701	0.86112	0.37156
4.028	92.598	-2.9702e+05	3262.5	-0.36932	0.86191	0.37225
4.03	92.595	-2.9702e+05	3263.7	-0.36854	0.86269	0.37293
4.032	92.59	-2.9702e+05	3265.1	-0.36776	0.86347	0.37361
4.034	92.582	-2.9702e+05	3266.5	-0.36698	0.86425	0.3743
4.036	92.575	-2.9702e+05	3268	-0.36649	0.86513	0.37391
4.038	92.569	-2.9701e+05	3269.5	-0.366	0.866	0.37352
4.04	92.562	-2.9701e+05	3271.1	-0.36551	0.86688	0.37312
4.042	92.556	-2.9701e+05	3272.6	-0.36502	0.86776	0.37273
4.044	92.553	-2.9702e+05	3274.2	-0.36454	0.86864	0.37234
4.046	92.548	-2.9702e+05	3275.8	-0.36444	0.86815	0.37137
4.048	92.541	-2.9702e+05	3277.4	-0.36434	0.86766	0.37039
4.05	92.537	-2.9701e+05	3279	-0.36424	0.86718	0.36942
4.052	92.531	-2.9701e+05	3280.5	-0.36415	0.86669	0.36844
4.054	92.523	-2.9702e+05	3282.1	-0.36405	0.8662	0.36746
4.056	92.517	-2.9701e+05	3283.5	-0.366	0.86522	0.36903
4.058	92.51	-2.9701e+05	3285	-0.36795	0.86425	0.37059
4.06	92.506	-2.9701e+05	3286.4	-0.3699	0.86327	0.37215
4.062	92.504	-2.9701e+05	3287.8	-0.37186	0.8623	0.37371
4.064	92.5	-2.9701e+05	3289.2	-0.37381	0.86132	0.37527
4.066	92.499	-2.9701e+05	3290.4	-0.37283	0.86152	0.37478
4.068	92.503	-2.9701e+05	3291.7	-0.37186	0.86171	0.3743
4.07	92.503	-2.9701e+05	3292.9	-0.37088	0.86191	0.37381
4.072	92.493	-2.9701e+05	3294.1	-0.3699	0.8621	0.37332
4.074	92.491	-2.9701e+05	3295.2	-0.36893	0.8623	0.37283
4.076	92.486	-2.9701e+05	3296.3	-0.36824	0.86366	0.37147
4.078	92.479	-2.9701e+05	3297.3	-0.36756	0.86503	0.3701
4.08	92.475	-2.9701e+05	3298.3	-0.36688	0.8664	0.36873
4.082	92.477	-2.9701e+05	3299.2	-0.3662	0.86776	0.36737
4.084	92.473	-2.97e+05	3300.1	-0.36551	0.86913	0.366
4.086	92.474	-2.97e+05	3300.8	-0.36532	0.86962	0.36561
4.088	92.468	-2.9701e+05	3301.6	-0.36512	0.8701	0.36522
4.09	92.466	-2.9701e+05	3302.3	-0.36493	0.87059	0.36483
4.092	92.464	-2.9701e+05	3302.9	-0.36473	0.87108	0.36444
4.094	92.467	-2.9701e+05	3303.6	-0.36454	0.87157	0.36405
4.096	92.469	-2.9701e+05	3304	-0.36395	0.87196	0.36473
4.098	92.468	-2.9701e+05	3304.5	-0.36336	0.87235	0.36541
4.1	92.469	-2.97e+05	3305	-0.36278	0.87274	0.3661
4.102	92.475	-2.97e+05	3305.4	-0.36219	0.87313	0.36678
4.104	92.481	-2.97e+05	3305.7	-0.36161	0.87352	0.36746
4.106	92.486	-2.97e+05	3306	-0.3619	0.87332	0.36688
4.108	92.486	-2.9699e+05	3306.4	-0.36219	0.87313	0.36629
4.11	92.485	-2.9699e+05	3306.6	-0.36249	0.87293	0.36571
4.112	92.491	-2.97e+05	3306.9	-0.36278	0.87274	0.36512
4.114	92.5	-2.97e+05	3307.1	-0.36307	0.87254	0.36454
4.116	92.507	-2.97e+05	3307.3	-0.36424	0.87128	0.36541
4.118	92.513	-2.9699e+05	3307.4	-0.36541	0.87001	0.36629
4.12	92.52	-2.9699e+05	3307.6	-0.36659	0.86874	0.36717
4.122	92.526	-2.9699e+05	3307.7	-0.36776	0.86747	0.36805
4.124	92.53	-2.9699e+05	3307.8	-0.36893	0.8662	0.36893
4.126	92.534	-2.9699e+05	3307.8	-0.36912	0.86571	0.37029
4.128	92.539	-2.9699e+05	3307.9	-0.36932	0.86522	0.37166
4.13	92.547	-2.9699e+05	3307.9	-0.36951	0.86474	0.37303
4.132	92.553	-2.9698e+05	3308	-0.36971	0.86425	0.37439
4.134	92.558	-2.9698e+05	3308	-0.3699	0.86376	0.37576
4.136	92.562	-2.9698e+05	3307.9	-0.36971	0.86405	0.37488
4.138	92.563	-2.9699e+05	3307.9	-0.36951	0.86435	0.374
4.14	92.563	-2.9698e+05	3307.8	-0.36932	0.86464	0.37312
4.142	92.563	-2.9698e+05	3307.8	-0.36912	0.86493	0.37225
4.144	92.567	-2.9698e+05	3307.7	-0.36893	0.86522	0.37137
4.146	92.573	-2.9698e+05	3307.6	-0.36981	0.86532	0.37098
4.148	92.577	-2.9697e+05	3307.6	-0.37068	0.86542	0.37059
4.15	92.585	-2.9696e+05	3307.5	-0.37156	0.86552	0.3702
4.152	92.59	-2.9697e+05	3307.4	-0.37244	0.86561	0.36981
4.154	92.588	-2.9697e+05	3307.3	-0.37332	0.86571	0.36942
4.156	92.587	-2.9697e+05	3307.2	-0.37332	0.86561	0.36961
4.158	92.589	-2.9698e+05	3307.1	-0.37332	0.86552	0.36981
4.16	92.592	-2.9698e+05	3307	-0.37332	0.86542	0.37
4.162	92.595	-2.9698e+05	3306.9	-0.37332	0.86532	0.3702
4.164	92.597	-2.9697e+05	3306.8	-0.37332	0.86522	0.37039
4.166	92.596	-2.9697e+05	3306.6	-0.37215	0.86552	0.37039
4.168	92.596	-2.9697e+05	3306.5	-0.37098	0.86581	0.37039
4.17	92.595	-2.9696e+05	3306.4	-0.36981	0.8661	0.37039
4.172	92.591	-2.9696e+05	3306.3	-0.36864	0.8664	0.37039
4.174	92.598	-2.9695e+05	3306.1	-0.36746	0.86669	0.37039
4.176	92.602	-2.9696e+05	3306	-0.3662	0.86708	0.36922
4.178	92.599	-2.9697e+05	3305.8	-0.36493	0.86747	0.36805
4.18	92.603	-2.9696e+05	3305.7	-0.36366	0.86786	0.36688
4.182	92.606	-2.9696e+05	3305.5	-0.36239	0.86825	0.36571
4.184	92.603	-2.9697e+05	3305.3	-0.36112	0.86864	0.36454
4.186	92.606	-2.9697e+05	3305.1	-0.36122	0.86884	0.36473
4.188	92.606	-2.9696e+05	3304.9	-0.36132	0.86903	0.36493
4.19	92.605	-2.9696e+05	3304.7	-0.36141	0.86923	0.36512
4.192	92.604	-2.9696e+05	3304.5	-0.36151	0.86942	0.36532
4.194	92.607	-2.9696e+05	3304.3	-0.36161	0.86962	0.36551
4.196	92.608	-2.9696e+05	3304	-0.36122	0.86932	0.366
4.198	92.608	-2.9696e+05	3303.8	-0.36083	0.86903	0.36649
4.2	92.61	-2.9696e+05	3303.6	-0.36044	0.86874	0.36698
4.202	92.609	-2.9696e+05	3303.4	-0.36005	0.86844	0.36746
4.204	92.605	-2.9696e+05	3303.2	-0.35966	0.86815	0.36795
4.206	92.605	-2.9696e+05	3302.9	-0.36161	0.86805	0.36815
4.208	92.608	-2.9696e+05	3302.6	-0.36356	0.86796	0.36834
4.21	92.611	-2.9696e+05	3302.3	-0.36551	0.86786	0.36854
4.212	92.61	-2.9696e+05	3302.1	-0.36746	0.86776	0.36873
4.214	92.61	-2.9696e+05	3301.8	-0.36942	0.86766	0.36893
4.216	92.611	-2.9695e+05	3301.4	-0.36776	0.86815	0.36873
4.218	92.611	-2.9695e+05	3301.1	-0.3661	0.86864	0.36854
4.22	92.608	-2.9695e+05	3300.7	-0.36444	0.86913	0.36834
4.222	92.606	-2.9695e+05	3300.3	-0.36278	0.86962	0.36815
4.224	92.607	-2.9696e+05	3299.9	-0.36112	0.8701	0.36795
4.226	92.608	-2.9696e+05	3299.5	-0.36151	0.86952	0.36746
4.228	92.609	-2.9696e+05	3299	-0.3619	0.86893	0.36698
4.23	92.612	-2.9695e+05	3298.5	-0.36229	0.86835	0.36649
4.232	92.614	-2.9695e+05	3298.1	-0.36268	0.86776	0.366
4.234	92.617	-2.9696e+05	3297.6	-0.36307	0.86718	0.36551
4.236	92.617	-2.9696e+05	3297.1	-0.36268	0.86825	0.3658
4.238	92.615	-2.9696e+05	3296.6	-0.36229	0.86932	0.3661
4.24	92.617	-2.9695e+05	3296.1	-0.3619	0.8704	0.36639
4.242	92.617	-2.9695e+05	3295.7	-0.36151	0.87147	0.36668
4.244	92.615	-2.9695e+05	3295.2	-0.36112	0.87254	0.36698
4.246	92.615	-2.9695e+05	3294.7	-0.362	0.87147	0.36688
4.248	92.62	-2.9695e+05	3294.2	-0.36288	0.8704	0.36678
4.25	92.627	-2.9695e+05	3293.7	-0.36376	0.86932	0.36668
4.252	92.626	-2.9695e+05	3293.3	-0.36463	0.86825	0.36659
4.254	92.62	-2.9695e+05	3292.9	-0.36551	0.86718	0.36649
4.256	92.622	-2.9695e+05	3292.4	-0.36424	0.86815	0.36678
4.258	92.618	-2.9695e+05	3292	-0.36297	0.86913	0.36707
4.26	92.624	-2.9696e+05	3291.5	-0.36171	0.8701	0.36737
4.262	92.627	-2.9696e+05	3291.2	-0.36044	0.87108	0.36766
4.264	92.631	-2.9695e+05	3290.8	-0.35917	0.87206	0.36795
4.266	92.63	-2.9695e+05	3290.5	-0.35936	0.87215	0.36756
4.268	92.63	-2.9694e+05	3290.2	-0.35956	0.87225	0.36717
4.27	92.628	-2.9694e+05	3289.9	-0.35975	0.87235	0.36678
4.272	92.633	-2.9695e+05	3289.6	-0.35995	0.87245	0.36639
4.274	92.632	-2.9695e+05	3289.3	-0.36014	0.87254	0.366
4.276	92.63	-2.9695e+05	3289	-0.36073	0.87137	0.36649
4.278	92.632	-2.9695e+05	3288.7	-0.36132	0.8702	0.36698
4.28	92.633	-2.9695e+05	3288.5	-0.3619	0.86903	0.36746
4.282	92.632	-2.9696e+05	3288.3	-0.36249	0.86786	0.36795
4.284	92.638	-2.9694e+05	3288.1	-0.36307	0.86669	0.36844
4.286	92.642	-2.9693e+05	3287.9	-0.36288	0.8663	0.36893
4.288	92.639	-2.9693e+05	3287.8	-0.36268	0.86591	0.36942
4.29	92.635	-2.9693e+05	3287.6	-0.36249	0.86552	0.3699
4.292	92.636	-2.9694e+05	3287.4	-0.36229	0.86513	0.37039
4.294	92.639	-2.9694e+05	3287.3	-0.3621	0.86474	0.37088
4.296	92.638	-2.9694e+05	3287.2	-0.36356	0.86561	0.37029
4.298	92.638	-2.9693e+05	3287.1	-0.36502	0.86649	0.36971
4.3	92.641	-2.9693e+05	3286.9	-0.36649	0.86737	0.36912
4.302	92.644	-2.9693e+05	3286.9	-0.36795	0.86825	0.36854
4.304	92.644	-2.9694e+05	3286.8	-0.36942	0.86913	0.36795
