t	ekg	optical	pressure	accel_x	accel_y	accel_z
0	66.435	-41631	2860.4	-0.76567	0.39723	-0.49239
0.002	66.435	-41633	2860.2	-0.76636	0.39694	-0.49181
0.004	66.416	-41635	2860	-0.76704	0.39665	-0.49122
0.006	66.407	-41635	2859.8	-0.76772	0.39635	-0.49064
0.008	66.411	-41635	2859.7	-0.7684	0.39606	-0.49005
0.01	66.412	-41637	2859.5	-0.76909	0.39577	-0.48946
0.012	66.408	-41641	2859.3	-0.76977	0.39635	-0.48927
0.014	66.405	-41644	2859.1	-0.77045	0.39694	-0.48907
0.016	66.399	-41646	2858.9	-0.77114	0.39752	-0.48888
0.018	66.393	-41645	2858.8	-0.77182	0.39811	-0.48868
0.02	66.39	-41641	2858.6	-0.7725	0.3987	-0.48849
0.022	66.375	-41639	2858.4	-0.77133	0.3987	-0.4881
0.024	66.357	-41638	2858.2	-0.77016	0.3987	-0.48771
0.026	66.359	-41637	2858.1	-0.76899	0.3987	-0.48732
0.028	66.37	-41637	2858	-0.76782	0.3987	-0.48693
0.03	66.377	-41636	2857.8	-0.76665	0.3987	-0.48654
0.032	66.385	-41634	2857.7	-0.76675	0.39879	-0.48712
0.034	66.391	-41633	2857.6	-0.76684	0.39889	-0.48771
0.036	66.393	-41631	2857.5	-0.76694	0.39899	-0.48829
0.038	66.39	-41631	2857.4	-0.76704	0.39909	-0.48888
0.04	66.383	-41632	2857.3	-0.76714	0.39918	-0.48946
0.042	66.376	-41635	2857.2	-0.76587	0.39792	-0.4879
0.044	66.378	-41638	2857.1	-0.7646	0.39665	-0.48634
0.046	66.382	-41638	2857.1	-0.76333	0.39538	-0.48478
0.048	66.38	-41633	2857.1	-0.76206	0.39411	-0.48322
0.05	66.378	-41630	2857.1	-0.76079	0.39284	-0.48166
0.052	66.385	-41629	2857.1	-0.76167	0.39333	-0.48263
0.054	66.391	-41630	2857.2	-0.76255	0.39382	-0.48361
0.056	66.378	-41633	2857.4	-0.76343	0.3943	-0.48458
0.058	66.363	-41635	2857.6	-0.76431	0.39479	-0.48556
0.06	66.355	-41637	2857.8	-0.76518	0.39528	-0.48654
0.062	66.348	-41640	2858.3	-0.76596	0.39538	-0.48654
0.064	66.351	-41644	2858.7	-0.76675	0.39548	-0.48654
0.066	66.359	-41644	2859.2	-0.76753	0.39557	-0.48654
0.068	66.357	-41641	2859.8	-0.76831	0.39567	-0.48654
0.07	66.353	-41638	2860.4	-0.76909	0.39577	-0.48654
0.072	66.354	-41634	2861.2	-0.76801	0.39635	-0.48751
0.074	66.348	-41632	2862	-0.76694	0.39694	-0.48849
0.076	66.347	-41631	2862.9	-0.76587	0.39752	-0.48946
0.078	66.339	-41636	2863.9	-0.76479	0.39811	-0.49044
0.08	66.305	-41646	2864.9	-0.76372	0.3987	-0.49142
0.082	66.285	-41649	2866	-0.76382	0.39821	-0.49142
0.084	66.284	-41647	2867.1	-0.76392	0.39772	-0.49142
0.086	66.276	-41645	2868.2	-0.76401	0.39723	-0.49142
0.088	66.271	-41643	2869.4	-0.76411	0.39674	-0.49142
0.09	66.274	-41646	2870.5	-0.76421	0.39626	-0.49142
0.092	66.29	-41654	2871.7	-0.7647	0.39616	-0.49103
0.094	66.291	-41663	2872.9	-0.76518	0.39606	-0.49064
0.096	66.286	-41671	2874.1	-0.76567	0.39596	-0.49024
0.098	66.281	-41675	2875.2	-0.76616	0.39587	-0.48985
0.1	66.273	-41676	2876.4	-0.76665	0.39577	-0.48946
0.102	66.256	-41671	2877.5	-0.76596	0.39538	-0.48937
0.104	66.244	-41662	2878.6	-0.76528	0.39499	-0.48927
0.106	66.236	-41658	2879.7	-0.7646	0.3946	-0.48917
0.108	66.234	-41660	2880.7	-0.76392	0.39421	-0.48907
0.11	66.234	-41662	2881.7	-0.76323	0.39382	-0.48898
0.112	66.228	-41666	2882.8	-0.7645	0.39469	-0.48927
0.114	66.222	-41667	2883.8	-0.76577	0.39557	-0.48956
0.116	66.217	-41665	2884.8	-0.76704	0.39645	-0.48985
0.118	66.223	-41664	2885.8	-0.76831	0.39733	-0.49015
0.12	66.223	-41665	2886.7	-0.76958	0.39821	-0.49044
0.122	66.216	-41666	2887.5	-0.76948	0.3986	-0.49054
0.124	66.206	-41667	2888.4	-0.76938	0.39899	-0.49064
0.126	66.196	-41664	2889.2	-0.76928	0.39938	-0.49073
0.128	66.197	-41659	2890	-0.76919	0.39977	-0.49083
0.13	66.199	-41654	2890.8	-0.76909	0.40016	-0.49093
0.132	66.195	-41650	2891.5	-0.7685	0.39948	-0.49054
0.134	66.201	-41646	2892.2	-0.76792	0.39879	-0.49015
0.136	66.211	-41642	2892.9	-0.76733	0.39811	-0.48976
0.138	66.216	-41640	2893.5	-0.76675	0.39743	-0.48937
0.14	66.215	-41640	2894.1	-0.76616	0.39674	-0.48898
0.142	66.215	-41640	2894.7	-0.76596	0.39694	-0.48917
0.144	66.213	-41638	2895.2	-0.76577	0.39713	-0.48937
0.146	66.206	-41637	2895.8	-0.76557	0.39733	-0.48956
0.148	66.208	-41637	2896.2	-0.76538	0.39752	-0.48976
0.15	66.218	-41635	2896.7	-0.76518	0.39772	-0.48995
0.152	66.228	-41632	2897.1	-0.76548	0.39772	-0.49005
0.154	66.243	-41630	2897.6	-0.76577	0.39772	-0.49015
0.156	66.255	-41628	2898	-0.76606	0.39772	-0.49024
0.158	66.258	-41627	2898.4	-0.76636	0.39772	-0.49034
0.16	66.264	-41627	2898.8	-0.76665	0.39772	-0.49044
0.162	66.26	-41629	2899.1	-0.76626	0.39782	-0.49054
0.164	66.251	-41635	2899.4	-0.76587	0.39792	-0.49064
0.166	66.258	-41638	2899.7	-0.76548	0.39801	-0.49073
0.168	66.276	-41638	2900	-0.76509	0.39811	-0.49083
0.17	66.291	-41635	2900.3	-0.7647	0.39821	-0.49093
0.172	66.294	-41629	2900.6	-0.76606	0.39918	-0.49034
0.174	66.301	-41628	2900.8	-0.76743	0.40016	-0.48976
0.176	66.308	-41633	2901	-0.7688	0.40114	-0.48917
0.178	66.309	-41635	2901.2	-0.77016	0.40211	-0.48859
0.18	66.313	-41634	2901.4	-0.77153	0.40309	-0.488
0.182	66.318	-41629	2901.6	-0.77202	0.40231	-0.4879
0.184	66.33	-41619	2901.7	-0.7725	0.40153	-0.4878
0.186	66.343	-41614	2901.8	-0.77299	0.40075	-0.48771
0.188	66.345	-41611	2902	-0.77348	0.39996	-0.48761
0.19	66.342	-41611	2902.1	-0.77397	0.39918	-0.48751
0.192	66.342	-41613	2902.2	-0.77407	0.39938	-0.48741
0.194	66.344	-41612	2902.3	-0.77416	0.39957	-0.48732
0.196	66.337	-41607	2902.4	-0.77426	0.39977	-0.48722
0.198	66.334	-41604	2902.6	-0.77436	0.39996	-0.48712
0.2	66.329	-41603	2902.7	-0.77446	0.40016	-0.48702
0.202	66.33	-41603	2902.7	-0.77299	0.40094	-0.4879
0.204	66.342	-41604	2902.8	-0.77153	0.40172	-0.48878
0.206	66.355	-41602	2902.8	-0.77006	0.4025	-0.48966
0.208	66.361	-41599	2902.8	-0.7686	0.40328	-0.49054
0.21	66.36	-41598	2902.9	-0.76714	0.40406	-0.49142
0.212	66.348	-41601	2902.9	-0.76743	0.40426	-0.49064
0.214	66.358	-41602	2902.9	-0.76772	0.40445	-0.48985
0.216	66.37	-41601	2903	-0.76801	0.40465	-0.48907
0.218	66.372	-41600	2903	-0.76831	0.40484	-0.48829
0.22	66.369	-41599	2903	-0.7686	0.40504	-0.48751
0.222	66.355	-41596	2903	-0.76723	0.40377	-0.48839
0.224	66.344	-41593	2903.1	-0.76587	0.4025	-0.48927
0.226	66.352	-41594	2903.1	-0.7645	0.40123	-0.49015
0.228	66.375	-41598	2903.1	-0.76313	0.39996	-0.49103
0.23	66.403	-41598	2903.1	-0.76177	0.3987	-0.4919
0.232	66.419	-41594	2903.2	-0.76284	0.3984	-0.49132
0.234	66.415	-41590	2903.2	-0.76392	0.39811	-0.49073
0.236	66.405	-41585	2903.3	-0.76499	0.39782	-0.49015
0.238	66.392	-41584	2903.4	-0.76606	0.39752	-0.48956
0.24	66.377	-41585	2903.4	-0.76714	0.39723	-0.48898
0.242	66.373	-41586	2903.5	-0.76596	0.39655	-0.48868
0.244	66.378	-41587	2903.6	-0.76479	0.39587	-0.48839
0.246	66.378	-41585	2903.7	-0.76362	0.39518	-0.4881
0.248	66.366	-41580	2903.8	-0.76245	0.3945	-0.4878
0.25	66.353	-41576	2903.8	-0.76128	0.39382	-0.48751
0.252	66.357	-41574	2903.9	-0.76157	0.3945	-0.48859
0.254	66.368	-41571	2903.9	-0.76187	0.39518	-0.48966
0.256	66.37	-41568	2904	-0.76216	0.39587	-0.49073
0.258	66.369	-41571	2904	-0.76245	0.39655	-0.49181
0.26	66.371	-41579	2904.1	-0.76274	0.39723	-0.49288
0.262	66.376	-41580	2904.1	-0.76401	0.39752	-0.4922
0.264	66.372	-41574	2904.1	-0.76528	0.39782	-0.49151
0.266	66.381	-41569	2904.1	-0.76655	0.39811	-0.49083
0.268	66.382	-41566	2904.1	-0.76782	0.3984	-0.49015
0.27	66.375	-41564	2904	-0.76909	0.3987	-0.48946
0.272	66.376	-41564	2904	-0.7685	0.3984	-0.48907
0.274	66.37	-41564	2903.9	-0.76792	0.39811	-0.48868
0.276	66.366	-41565	2903.8	-0.76733	0.39782	-0.48829
0.278	66.369	-41564	2903.6	-0.76675	0.39752	-0.4879
0.28	66.374	-41561	2903.4	-0.76616	0.39723	-0.48751
0.282	66.373	-41559	2903.2	-0.76587	0.39645	-0.48751
0.284	66.387	-41558	2903	-0.76557	0.39567	-0.48751
0.286	66.391	-41558	2902.8	-0.76528	0.39489	-0.48751
0.288	66.387	-41559	2902.5	-0.76499	0.39411	-0.48751
0.29	66.384	-41560	2902.3	-0.7647	0.39333	-0.48751
0.292	66.367	-41561	2902.1	-0.76567	0.3946	-0.48761
0.294	66.35	-41562	2901.8	-0.76665	0.39587	-0.48771
0.296	66.348	-41563	2901.5	-0.76762	0.39713	-0.4878
0.298	66.349	-41562	2901.3	-0.7686	0.3984	-0.4879
0.3	66.358	-41559	2901	-0.76958	0.39967	-0.488
0.302	66.382	-41555	2900.7	-0.76938	0.39948	-0.48839
0.304	66.401	-41551	2900.4	-0.76919	0.39928	-0.48878
0.306	66.407	-41550	2900.2	-0.76899	0.39909	-0.48917
0.308	66.411	-41553	2899.9	-0.7688	0.39889	-0.48956
0.31	66.41	-41555	2899.6	-0.7686	0.3987	-0.48995
0.312	66.396	-41556	2899.3	-0.76919	0.39811	-0.48878
0.314	66.386	-41557	2899.1	-0.76977	0.39752	-0.48761
0.316	66.382	-41558	2898.8	-0.77036	0.39694	-0.48644
0.318	66.373	-41558	2898.6	-0.77094	0.39635	-0.48527
0.32	66.365	-41556	2898.3	-0.77153	0.39577	-0.4841
0.322	66.366	-41555	2898.1	-0.77075	0.39489	-0.4839
0.324	66.37	-41553	2897.9	-0.76997	0.39401	-0.48371
0.326	66.365	-41550	2897.7	-0.76919	0.39313	-0.48351
0.328	66.359	-41546	2897.5	-0.7684	0.39225	-0.48332
0.33	66.358	-41544	2897.3	-0.76762	0.39138	-0.48312
0.332	66.361	-41543	2897.1	-0.76684	0.39089	-0.48302
0.334	66.363	-41545	2896.9	-0.76606	0.3904	-0.48292
0.336	66.356	-41550	2896.8	-0.76528	0.38991	-0.48283
0.338	66.355	-41552	2896.6	-0.7645	0.38942	-0.48273
0.34	66.364	-41550	2896.5	-0.76372	0.38894	-0.48263
0.342	66.366	-41550	2896.4	-0.76479	0.39069	-0.48283
0.344	66.364	-41554	2896.2	-0.76587	0.39245	-0.48302
0.346	66.382	-41554	2896.1	-0.76694	0.39421	-0.48322
0.348	66.38	-41550	2896.1	-0.76801	0.39596	-0.48341
0.35	66.376	-41545	2896	-0.76909	0.39772	-0.48361
0.352	66.383	-41538	2895.9	-0.76928	0.39772	-0.4841
0.354	66.393	-41538	2895.8	-0.76948	0.39772	-0.48458
0.356	66.39	-41544	2895.7	-0.76967	0.39772	-0.48507
0.358	66.378	-41544	2895.7	-0.76987	0.39772	-0.48556
0.36	66.373	-41538	2895.6	-0.77006	0.39772	-0.48605
0.362	66.376	-41537	2895.5	-0.77026	0.39792	-0.48615
0.364	66.383	-41540	2895.5	-0.77045	0.39811	-0.48624
0.366	66.387	-41544	2895.4	-0.77065	0.39831	-0.48634
0.368	66.386	-41547	2895.4	-0.77084	0.3985	-0.48644
0.37	66.373	-41551	2895.3	-0.77104	0.3987	-0.48654
0.372	66.364	-41556	2895.3	-0.77084	0.3986	-0.48663
0.374	66.371	-41554	2895.3	-0.77065	0.3985	-0.48673
0.376	66.375	-41547	2895.2	-0.77045	0.3984	-0.48683
0.378	66.381	-41546	2895.2	-0.77026	0.39831	-0.48693
0.38	66.389	-41550	2895.1	-0.77006	0.39821	-0.48702
0.382	66.397	-41550	2895.1	-0.76987	0.39889	-0.4879
0.384	66.4	-41545	2895.1	-0.76967	0.39957	-0.48878
0.386	66.398	-41545	2895.1	-0.76948	0.40026	-0.48966
0.388	66.393	-41548	2895.1	-0.76928	0.40094	-0.49054
0.39	66.39	-41551	2895.1	-0.76909	0.40162	-0.49142
0.392	66.385	-41553	2895	-0.76899	0.40133	-0.49073
0.394	66.376	-41549	2895	-0.76889	0.40104	-0.49005
0.396	66.374	-41540	2895	-0.7688	0.40075	-0.48937
0.398	66.386	-41538	2895	-0.7687	0.40045	-0.48868
0.4	66.396	-41544	2894.9	-0.7686	0.40016	-0.488
0.402	66.393	-41546	2894.9	-0.76928	0.40006	-0.48829
0.404	66.393	-41543	2894.9	-0.76997	0.39996	-0.48859
0.406	66.397	-41542	2894.8	-0.77065	0.39987	-0.48888
0.408	66.385	-41543	2894.8	-0.77133	0.39977	-0.48917
0.41	66.354	-41542	2894.8	-0.77202	0.39967	-0.48946
0.412	66.328	-41539	2894.8	-0.77231	0.39879	-0.48849
0.414	66.314	-41539	2894.7	-0.7726	0.39792	-0.48751
0.416	66.344	-41544	2894.7	-0.77289	0.39704	-0.48654
0.418	66.42	-41545	2894.7	-0.77319	0.39616	-0.48556
0.42	66.45	-41544	2894.7	-0.77348	0.39528	-0.48458
0.422	66.412	-41546	2894.6	-0.7728	0.39635	-0.48546
0.424	66.376	-41552	2894.6	-0.77211	0.39743	-0.48634
0.426	66.366	-41553	2894.5	-0.77143	0.3985	-0.48722
0.428	66.375	-41551	2894.4	-0.77075	0.39957	-0.4881
0.43	66.397	-41545	2894.4	-0.77006	0.40065	-0.48898
0.432	66.413	-41536	2894.3	-0.77065	0.40036	-0.48898
0.434	66.413	-41533	2894.3	-0.77124	0.40006	-0.48898
0.436	66.399	-41536	2894.2	-0.77182	0.39977	-0.48898
0.438	66.389	-41538	2894.2	-0.77241	0.39948	-0.48898
0.44	66.397	-41541	2894.1	-0.77299	0.39918	-0.48898
0.442	66.385	-41541	2894.1	-0.77231	0.40006	-0.48966
0.444	66.381	-41540	2894	-0.77163	0.40094	-0.49034
0.446	66.39	-41541	2893.9	-0.77094	0.40182	-0.49103
0.448	66.397	-41544	2893.9	-0.77026	0.4027	-0.49171
0.45	66.405	-41543	2893.8	-0.76958	0.40358	-0.49239
0.452	66.415	-41539	2893.7	-0.76928	0.40309	-0.49112
0.454	66.41	-41534	2893.7	-0.76899	0.4026	-0.48985
0.456	66.403	-41530	2893.6	-0.7687	0.40211	-0.48859
0.458	66.409	-41529	2893.5	-0.7684	0.40162	-0.48732
0.46	66.414	-41531	2893.5	-0.76811	0.40114	-0.48605
0.462	66.415	-41532	2893.4	-0.7686	0.40143	-0.48595
0.464	66.409	-41531	2893.3	-0.76909	0.40172	-0.48585
0.466	66.404	-41535	2893.2	-0.76958	0.40201	-0.48576
0.468	66.404	-41544	2893.1	-0.77006	0.40231	-0.48566
0.47	66.4	-41545	2893	-0.77055	0.4026	-0.48556
0.472	66.393	-41540	2892.9	-0.77104	0.40182	-0.48536
0.474	66.399	-41536	2892.8	-0.77153	0.40104	-0.48517
0.476	66.405	-41533	2892.7	-0.77202	0.40026	-0.48497
0.478	66.402	-41535	2892.6	-0.7725	0.39948	-0.48478
0.48	66.401	-41541	2892.4	-0.77299	0.3987	-0.48458
0.482	66.403	-41544	2892.3	-0.77143	0.39821	-0.48419
0.484	66.402	-41543	2892.1	-0.76987	0.39772	-0.4838
0.486	66.397	-41541	2892	-0.76831	0.39723	-0.48341
0.488	66.394	-41537	2891.8	-0.76675	0.39674	-0.48302
0.49	66.39	-41533	2891.7	-0.76518	0.39626	-0.48263
0.492	66.375	-41528	2891.5	-0.76411	0.39635	-0.48253
0.494	66.362	-41527	2891.3	-0.76304	0.39645	-0.48244
0.496	66.356	-41530	2891.1	-0.76196	0.39655	-0.48234
0.498	66.356	-41532	2890.9	-0.76089	0.39665	-0.48224
0.5	66.369	-41532	2890.7	-0.75982	0.39674	-0.48214
0.502	66.371	-41530	2890.5	-0.76001	0.39635	-0.48136
0.504	66.355	-41527	2890.3	-0.76021	0.39596	-0.48058
0.506	66.339	-41526	2890.1	-0.7604	0.39557	-0.4798
0.508	66.333	-41526	2889.9	-0.7606	0.39518	-0.47902
0.51	66.33	-41526	2889.7	-0.76079	0.39479	-0.47824
0.512	66.32	-41525	2889.4	-0.76089	0.3946	-0.47814
0.514	66.305	-41528	2889.2	-0.76099	0.3944	-0.47804
0.516	66.291	-41533	2888.9	-0.76108	0.39421	-0.47795
0.518	66.277	-41534	2888.7	-0.76118	0.39401	-0.47785
0.52	66.28	-41532	2888.5	-0.76128	0.39382	-0.47775
0.522	66.288	-41529	2888.3	-0.76128	0.39323	-0.47814
0.524	66.287	-41525	2888	-0.76128	0.39264	-0.47853
0.526	66.309	-41524	2887.8	-0.76128	0.39206	-0.47892
0.528	66.327	-41525	2887.5	-0.76128	0.39147	-0.47931
0.53	66.343	-41525	2887.3	-0.76128	0.39089	-0.4797
0.532	66.345	-41522	2887.1	-0.76118	0.39206	-0.48
0.534	66.35	-41521	2886.9	-0.76108	0.39323	-0.48029
0.536	66.345	-41522	2886.7	-0.76099	0.3944	-0.48058
0.538	66.334	-41522	2886.5	-0.76089	0.39557	-0.48088
0.54	66.338	-41522	2886.3	-0.76079	0.39674	-0.48117
0.542	66.341	-41523	2886.1	-0.76157	0.39684	-0.48185
0.544	66.348	-41524	2885.9	-0.76235	0.39694	-0.48253
0.546	66.356	-41526	2885.8	-0.76313	0.39704	-0.48322
0.548	66.374	-41528	2885.6	-0.76392	0.39713	-0.4839
0.55	66.404	-41529	2885.4	-0.7647	0.39723	-0.48458
0.552	66.427	-41530	2885.2	-0.76587	0.39811	-0.48595
0.554	66.431	-41532	2885.1	-0.76704	0.39899	-0.48732
0.556	66.419	-41533	2884.9	-0.76821	0.39987	-0.48868
0.558	66.407	-41533	2884.8	-0.76938	0.40075	-0.49005
0.56	66.405	-41532	2884.7	-0.77055	0.40162	-0.49142
0.562	66.407	-41528	2884.5	-0.76967	0.40075	-0.49064
0.564	66.401	-41521	2884.4	-0.7688	0.39987	-0.48985
0.566	66.387	-41521	2884.2	-0.76792	0.39899	-0.48907
0.568	66.376	-41528	2884.1	-0.76704	0.39811	-0.48829
0.57	66.376	-41531	2883.9	-0.76616	0.39723	-0.48751
0.572	66.387	-41531	2883.8	-0.76509	0.39694	-0.48849
0.574	66.404	-41532	2883.7	-0.76401	0.39665	-0.48946
0.576	66.417	-41533	2883.6	-0.76294	0.39635	-0.49044
0.578	66.416	-41536	2883.4	-0.76187	0.39606	-0.49142
0.58	66.411	-41540	2883.3	-0.76079	0.39577	-0.49239
0.582	66.413	-41541	2883.2	-0.76255	0.39655	-0.4922
0.584	66.42	-41540	2883.1	-0.76431	0.39733	-0.492
0.586	66.425	-41538	2883	-0.76606	0.39811	-0.49181
0.588	66.421	-41535	2882.9	-0.76782	0.39889	-0.49161
0.59	66.411	-41533	2882.7	-0.76958	0.39967	-0.49142
0.592	66.4	-41530	2882.6	-0.7688	0.3985	-0.49054
0.594	66.389	-41530	2882.5	-0.76801	0.39733	-0.48966
0.596	66.38	-41532	2882.4	-0.76723	0.39616	-0.48878
0.598	66.386	-41534	2882.3	-0.76645	0.39499	-0.4879
0.6	66.385	-41536	2882.2	-0.76567	0.39382	-0.48702
0.602	66.38	-41537	2882.1	-0.76489	0.39382	-0.4881
0.604	66.384	-41538	2881.9	-0.76411	0.39382	-0.48917
0.606	66.401	-41538	2881.8	-0.76333	0.39382	-0.49024
0.608	66.41	-41538	2881.6	-0.76255	0.39382	-0.49132
0.61	66.415	-41536	2881.5	-0.76177	0.39382	-0.49239
0.612	66.422	-41534	2881.4	-0.76284	0.3945	-0.49093
0.614	66.43	-41533	2881.2	-0.76392	0.39518	-0.48946
0.616	66.428	-41533	2881.1	-0.76499	0.39587	-0.488
0.618	66.409	-41534	2881	-0.76606	0.39655	-0.48654
0.62	66.403	-41538	2880.9	-0.76714	0.39723	-0.48507
0.622	66.414	-41539	2880.8	-0.76714	0.39782	-0.48566
0.624	66.417	-41539	2880.6	-0.76714	0.3984	-0.48624
0.626	66.422	-41538	2880.5	-0.76714	0.39899	-0.48683
0.628	66.417	-41536	2880.4	-0.76714	0.39957	-0.48741
0.63	66.414	-41537	2880.3	-0.76714	0.40016	-0.488
0.632	66.416	-41542	2880.2	-0.76675	0.40036	-0.48907
0.634	66.424	-41543	2880.1	-0.76636	0.40055	-0.49015
0.636	66.443	-41541	2880	-0.76596	0.40075	-0.49122
0.638	66.453	-41539	2879.9	-0.76557	0.40094	-0.49229
0.64	66.449	-41537	2879.8	-0.76518	0.40114	-0.49337
0.642	66.448	-41538	2879.7	-0.76636	0.40104	-0.49259
0.644	66.452	-41541	2879.6	-0.76753	0.40094	-0.49181
0.646	66.45	-41542	2879.5	-0.7687	0.40084	-0.49103
0.648	66.442	-41542	2879.4	-0.76987	0.40075	-0.49024
0.65	66.431	-41543	2879.3	-0.77104	0.40065	-0.48946
0.652	66.416	-41544	2879.2	-0.77084	0.40075	-0.48946
0.654	66.398	-41543	2879.1	-0.77065	0.40084	-0.48946
0.656	66.365	-41539	2878.9	-0.77045	0.40094	-0.48946
0.658	66.319	-41538	2878.8	-0.77026	0.40104	-0.48946
0.66	66.261	-41539	2878.7	-0.77006	0.40114	-0.48946
0.662	66.177	-41540	2878.6	-0.77075	0.40094	-0.48937
0.664	66.067	-41543	2878.5	-0.77143	0.40075	-0.48927
0.666	65.922	-41543	2878.4	-0.77211	0.40055	-0.48917
0.668	65.761	-41541	2878.3	-0.7728	0.40036	-0.48907
0.67	65.612	-41540	2878.2	-0.77348	0.40016	-0.48898
0.672	65.51	-41539	2878.1	-0.7727	0.39957	-0.4879
0.674	65.471	-41539	2877.9	-0.77192	0.39899	-0.48683
0.676	65.499	-41542	2877.8	-0.77114	0.3984	-0.48576
0.678	65.596	-41543	2877.7	-0.77036	0.39782	-0.48468
0.68	65.763	-41545	2877.6	-0.76958	0.39723	-0.48361
0.682	65.978	-41544	2877.5	-0.77016	0.39713	-0.4841
0.684	66.165	-41542	2877.3	-0.77075	0.39704	-0.48458
0.686	66.28	-41541	2877.2	-0.77133	0.39694	-0.48507
0.688	66.326	-41542	2877	-0.77192	0.39684	-0.48556
0.69	66.341	-41543	2876.9	-0.7725	0.39674	-0.48605
0.692	66.356	-41545	2876.7	-0.7725	0.39762	-0.48654
0.694	66.383	-41545	2876.6	-0.7725	0.3985	-0.48702
0.696	66.403	-41544	2876.4	-0.7725	0.39938	-0.48751
0.698	66.4	-41544	2876.2	-0.7725	0.40026	-0.488
0.7	66.414	-41543	2876.1	-0.7725	0.40114	-0.48849
0.702	66.439	-41543	2875.9	-0.77211	0.40026	-0.48771
0.704	66.461	-41543	2875.7	-0.77172	0.39938	-0.48693
0.706	66.46	-41544	2875.5	-0.77133	0.3985	-0.48615
0.708	66.435	-41546	2875.4	-0.77094	0.39762	-0.48536
0.71	66.436	-41547	2875.2	-0.77055	0.39674	-0.48458
0.712	66.451	-41548	2875	-0.76831	0.39548	-0.48351
0.714	66.458	-41548	2874.8	-0.76606	0.39421	-0.48244
0.716	66.452	-41549	2874.7	-0.76382	0.39294	-0.48136
0.718	66.444	-41550	2874.5	-0.76157	0.39167	-0.48029
0.72	66.434	-41550	2874.4	-0.75933	0.3904	-0.47922
0.722	66.435	-41550	2874.2	-0.76079	0.39216	-0.48048
0.724	66.442	-41551	2874	-0.76226	0.39391	-0.48175
0.726	66.446	-41552	2873.9	-0.76372	0.39567	-0.48302
0.728	66.444	-41554	2873.7	-0.76518	0.39743	-0.48429
0.73	66.439	-41554	2873.6	-0.76665	0.39918	-0.48556
0.732	66.434	-41552	2873.4	-0.76684	0.39996	-0.48644
0.734	66.427	-41550	2873.3	-0.76704	0.40075	-0.48732
0.736	66.423	-41547	2873.1	-0.76723	0.40153	-0.4882
0.738	66.425	-41544	2873	-0.76743	0.40231	-0.48907
0.74	66.435	-41543	2872.8	-0.76762	0.40309	-0.48995
0.742	66.448	-41545	2872.7	-0.76753	0.40348	-0.48849
0.744	66.445	-41550	2872.5	-0.76743	0.40387	-0.48702
0.746	66.43	-41554	2872.4	-0.76733	0.40426	-0.48556
0.748	66.42	-41555	2872.2	-0.76723	0.40465	-0.4841
0.75	66.414	-41555	2872	-0.76714	0.40504	-0.48263
0.752	66.411	-41555	2871.8	-0.76801	0.40524	-0.48341
0.754	66.416	-41556	2871.6	-0.76889	0.40543	-0.48419
0.756	66.431	-41560	2871.4	-0.76977	0.40563	-0.48497
0.758	66.45	-41560	2871.2	-0.77065	0.40582	-0.48576
0.76	66.452	-41556	2871	-0.77153	0.40602	-0.48654
0.762	66.439	-41556	2870.8	-0.77065	0.40543	-0.48663
0.764	66.426	-41559	2870.6	-0.76977	0.40484	-0.48673
0.766	66.408	-41560	2870.4	-0.76889	0.40426	-0.48683
0.768	66.403	-41557	2870.2	-0.76801	0.40367	-0.48693
0.77	66.398	-41554	2869.9	-0.76714	0.40309	-0.48702
0.772	66.381	-41550	2869.7	-0.76733	0.40338	-0.48702
0.774	66.387	-41550	2869.5	-0.76753	0.40367	-0.48702
0.776	66.398	-41554	2869.3	-0.76772	0.40397	-0.48702
0.778	66.402	-41557	2869	-0.76792	0.40426	-0.48702
0.78	66.404	-41559	2868.8	-0.76811	0.40455	-0.48702
0.782	66.396	-41557	2868.5	-0.7684	0.40465	-0.48673
0.784	66.388	-41552	2868.3	-0.7687	0.40475	-0.48644
0.786	66.378	-41553	2868	-0.76899	0.40484	-0.48615
0.788	66.369	-41559	2867.7	-0.76928	0.40494	-0.48585
0.79	66.378	-41560	2867.5	-0.76958	0.40504	-0.48556
0.792	66.406	-41557	2867.2	-0.76889	0.40426	-0.48605
0.794	66.433	-41555	2866.9	-0.76821	0.40348	-0.48654
0.796	66.452	-41556	2866.7	-0.76753	0.4027	-0.48702
0.798	66.451	-41557	2866.4	-0.76684	0.40192	-0.48751
0.8	66.437	-41559	2866.2	-0.76616	0.40114	-0.488
0.802	66.438	-41560	2865.9	-0.76626	0.40075	-0.48888
0.804	66.434	-41561	2865.7	-0.76636	0.40036	-0.48976
0.806	66.426	-41560	2865.5	-0.76645	0.39996	-0.49064
0.808	66.417	-41559	2865.2	-0.76655	0.39957	-0.49151
0.81	66.411	-41558	2865	-0.76665	0.39918	-0.49239
0.812	66.409	-41557	2864.8	-0.76753	0.39938	-0.4919
0.814	66.415	-41556	2864.6	-0.7684	0.39957	-0.49142
0.816	66.424	-41553	2864.4	-0.76928	0.39977	-0.49093
0.818	66.421	-41554	2864.3	-0.77016	0.39996	-0.49044
0.82	66.405	-41557	2864.1	-0.77104	0.40016	-0.48995
0.822	66.395	-41558	2864	-0.77055	0.40055	-0.48976
0.824	66.398	-41556	2863.8	-0.77006	0.40094	-0.48956
0.826	66.403	-41560	2863.7	-0.76958	0.40133	-0.48937
0.828	66.404	-41569	2863.6	-0.76909	0.40172	-0.48917
0.83	66.402	-41570	2863.4	-0.7686	0.40211	-0.48898
0.832	66.399	-41563	2863.3	-0.7686	0.4024	-0.48927
0.834	66.393	-41558	2863.2	-0.7686	0.4027	-0.48956
0.836	66.391	-41555	2863.2	-0.7686	0.40299	-0.48985
0.838	66.389	-41554	2863.2	-0.7686	0.40328	-0.49015
0.84	66.389	-41557	2863.3	-0.7686	0.40358	-0.49044
0.842	66.391	-41557	2863.3	-0.7688	0.40377	-0.48985
0.844	66.384	-41555	2863.3	-0.76899	0.40397	-0.48927
0.846	66.37	-41554	2863.4	-0.76919	0.40416	-0.48868
0.848	66.363	-41554	2863.5	-0.76938	0.40436	-0.4881
0.85	66.363	-41556	2863.6	-0.76958	0.40455	-0.48751
0.852	66.353	-41558	2863.9	-0.77006	0.40445	-0.48771
0.854	66.344	-41559	2864.3	-0.77055	0.40436	-0.4879
0.856	66.335	-41558	2864.7	-0.77104	0.40426	-0.4881
0.858	66.337	-41561	2865.2	-0.77153	0.40416	-0.48829
0.86	66.328	-41568	2865.8	-0.77202	0.40406	-0.48849
0.862	66.316	-41570	2866.5	-0.77075	0.40299	-0.48839
0.864	66.31	-41567	2867.2	-0.76948	0.40192	-0.48829
0.866	66.318	-41568	2868	-0.76821	0.40084	-0.4882
0.868	66.317	-41573	2868.9	-0.76694	0.39977	-0.4881
0.87	66.311	-41573	2869.8	-0.76567	0.3987	-0.488
0.872	66.303	-41568	2870.9	-0.76587	0.39918	-0.48907
0.874	66.289	-41564	2872	-0.76606	0.39967	-0.49015
0.876	66.289	-41561	2873.2	-0.76626	0.40016	-0.49122
0.878	66.289	-41562	2874.3	-0.76645	0.40065	-0.49229
0.88	66.29	-41565	2875.5	-0.76665	0.40114	-0.49337
0.882	66.278	-41567	2876.7	-0.76626	0.40133	-0.49337
0.884	66.26	-41567	2877.9	-0.76587	0.40153	-0.49337
0.886	66.25	-41569	2879.1	-0.76548	0.40172	-0.49337
0.888	66.245	-41572	2880.4	-0.76509	0.40192	-0.49337
0.89	66.239	-41570	2881.6	-0.7647	0.40211	-0.49337
0.892	66.234	-41561	2882.7	-0.76489	0.40201	-0.49347
0.894	66.224	-41558	2883.9	-0.76509	0.40192	-0.49356
0.896	66.218	-41561	2885	-0.76528	0.40182	-0.49366
0.898	66.216	-41565	2886.2	-0.76548	0.40172	-0.49376
0.9	66.213	-41571	2887.3	-0.76567	0.40162	-0.49386
0.902	66.216	-41572	2888.4	-0.76645	0.40143	-0.49327
0.904	66.223	-41568	2889.5	-0.76723	0.40123	-0.49268
0.906	66.231	-41567	2890.5	-0.76801	0.40104	-0.4921
0.908	66.241	-41567	2891.5	-0.7688	0.40084	-0.49151
0.91	66.243	-41566	2892.5	-0.76958	0.40065	-0.49093
0.912	66.238	-41561	2893.4	-0.7685	0.40055	-0.49161
0.914	66.227	-41557	2894.4	-0.76743	0.40045	-0.49229
0.916	66.216	-41552	2895.3	-0.76636	0.40036	-0.49298
0.918	66.21	-41550	2896.1	-0.76528	0.40026	-0.49366
0.92	66.206	-41550	2897	-0.76421	0.40016	-0.49434
0.922	66.205	-41550	2897.7	-0.76577	0.40016	-0.49278
0.924	66.208	-41550	2898.5	-0.76733	0.40016	-0.49122
0.926	66.212	-41551	2899.3	-0.76889	0.40016	-0.48966
0.928	66.215	-41553	2900	-0.77045	0.40016	-0.4881
0.93	66.212	-41555	2900.7	-0.77202	0.40016	-0.48654
0.932	66.218	-41559	2901.4	-0.77172	0.40036	-0.48683
0.934	66.239	-41559	2902	-0.77143	0.40055	-0.48712
0.936	66.254	-41554	2902.7	-0.77114	0.40075	-0.48741
0.938	66.278	-41552	2903.3	-0.77084	0.40094	-0.48771
0.94	66.298	-41553	2904	-0.77055	0.40114	-0.488
0.942	66.296	-41553	2904.5	-0.77045	0.40153	-0.48771
0.944	66.287	-41554	2905	-0.77036	0.40192	-0.48741
0.946	66.277	-41551	2905.5	-0.77026	0.40231	-0.48712
0.948	66.264	-41546	2906	-0.77016	0.4027	-0.48683
0.95	66.245	-41547	2906.5	-0.77006	0.40309	-0.48654
0.952	66.247	-41552	2906.9	-0.76948	0.40358	-0.48605
0.954	66.247	-41552	2907.3	-0.76889	0.40406	-0.48556
0.956	66.25	-41548	2907.7	-0.76831	0.40455	-0.48507
0.958	66.265	-41546	2908.1	-0.76772	0.40504	-0.48458
0.96	66.285	-41545	2908.4	-0.76714	0.40553	-0.4841
0.962	66.302	-41545	2908.7	-0.76733	0.40475	-0.48439
0.964	66.317	-41544	2909	-0.76753	0.40397	-0.48468
0.966	66.34	-41542	2909.3	-0.76772	0.40319	-0.48497
0.968	66.354	-41540	2909.5	-0.76792	0.4024	-0.48527
0.97	66.349	-41538	2909.8	-0.76811	0.40162	-0.48556
0.972	66.338	-41537	2909.9	-0.76645	0.40133	-0.48497
0.974	66.336	-41535	2910.1	-0.76479	0.40104	-0.48439
0.976	66.338	-41534	2910.3	-0.76313	0.40075	-0.4838
0.978	66.356	-41531	2910.4	-0.76148	0.40045	-0.48322
0.98	66.379	-41526	2910.5	-0.75982	0.40016	-0.48263
0.982	66.384	-41524	2910.7	-0.76079	0.40055	-0.48302
0.984	66.375	-41527	2910.8	-0.76177	0.40094	-0.48341
0.986	66.368	-41529	2910.9	-0.76274	0.40133	-0.4838
0.988	66.373	-41530	2911	-0.76372	0.40172	-0.48419
0.99	66.38	-41530	2911.1	-0.7647	0.40211	-0.48458
0.992	66.388	-41529	2911.1	-0.76489	0.40201	-0.48585
0.994	66.407	-41526	2911.2	-0.76509	0.40192	-0.48712
0.996	66.419	-41519	2911.2	-0.76528	0.40182	-0.48839
0.998	66.41	-41517	2911.3	-0.76548	0.40172	-0.48966
1	66.395	-41519	2911.3	-0.76567	0.40162	-0.49093
1.002	66.384	-41518	2911.4	-0.76596	0.40211	-0.49034
1.004	66.387	-41513	2911.4	-0.76626	0.4026	-0.48976
1.006	66.393	-41513	2911.5	-0.76655	0.40309	-0.48917
1.008	66.387	-41516	2911.5	-0.76684	0.40358	-0.48859
1.01	66.381	-41516	2911.5	-0.76714	0.40406	-0.488
1.012	66.384	-41512	2911.5	-0.76723	0.40387	-0.48859
1.014	66.399	-41512	2911.5	-0.76733	0.40367	-0.48917
1.016	66.41	-41515	2911.6	-0.76743	0.40348	-0.48976
1.018	66.417	-41515	2911.6	-0.76753	0.40328	-0.49034
1.02	66.441	-41512	2911.6	-0.76762	0.40309	-0.49093
1.022	66.465	-41511	2911.6	-0.76762	0.40338	-0.48976
1.024	66.46	-41511	2911.7	-0.76762	0.40367	-0.48859
1.026	66.449	-41511	2911.7	-0.76762	0.40397	-0.48741
1.028	66.422	-41511	2911.8	-0.76762	0.40426	-0.48624
1.03	66.39	-41512	2911.8	-0.76762	0.40455	-0.48507
1.032	66.387	-41514	2911.8	-0.76782	0.40504	-0.48478
1.034	66.376	-41514	2911.9	-0.76801	0.40553	-0.48449
1.036	66.37	-41511	2911.9	-0.76821	0.40602	-0.48419
1.038	66.367	-41508	2911.9	-0.7684	0.4065	-0.4839
1.04	66.369	-41503	2911.8	-0.7686	0.40699	-0.48361
1.042	66.376	-41497	2911.9	-0.7688	0.4067	-0.484
1.044	66.392	-41489	2911.9	-0.76899	0.40641	-0.48439
1.046	66.408	-41485	2911.9	-0.76919	0.40611	-0.48478
1.048	66.429	-41486	2911.9	-0.76938	0.40582	-0.48517
1.05	66.435	-41485	2911.9	-0.76958	0.40553	-0.48556
1.052	66.42	-41484	2911.8	-0.77006	0.40475	-0.48634
1.054	66.411	-41486	2911.8	-0.77055	0.40397	-0.48712
1.056	66.407	-41491	2911.7	-0.77104	0.40319	-0.4879
1.058	66.4	-41491	2911.6	-0.77153	0.4024	-0.48868
1.06	66.388	-41485	2911.4	-0.77202	0.40162	-0.48946
1.062	66.391	-41481	2911.3	-0.77114	0.40182	-0.48976
1.064	66.4	-41479	2911.2	-0.77026	0.40201	-0.49005
1.066	66.4	-41481	2911.1	-0.76938	0.40221	-0.49034
1.068	66.401	-41486	2910.9	-0.7685	0.4024	-0.49064
1.07	66.407	-41485	2910.7	-0.76762	0.4026	-0.49093
1.072	66.414	-41480	2910.6	-0.7685	0.40182	-0.49044
1.074	66.417	-41477	2910.4	-0.76938	0.40104	-0.48995
1.076	66.414	-41476	2910.2	-0.77026	0.40026	-0.48946
1.078	66.409	-41475	2909.9	-0.77114	0.39948	-0.48898
1.08	66.405	-41472	2909.6	-0.77202	0.3987	-0.48849
1.082	66.398	-41472	2909.3	-0.77153	0.39948	-0.48859
1.084	66.393	-41474	2909.1	-0.77104	0.40026	-0.48868
1.086	66.393	-41475	2908.8	-0.77055	0.40104	-0.48878
1.088	66.393	-41474	2908.5	-0.77006	0.40182	-0.48888
1.09	66.395	-41475	2908.3	-0.76958	0.4026	-0.48898
1.092	66.394	-41478	2908	-0.76899	0.4026	-0.4882
1.094	66.396	-41476	2907.7	-0.7684	0.4026	-0.48741
1.096	66.393	-41471	2907.4	-0.76782	0.4026	-0.48663
1.098	66.391	-41470	2907.1	-0.76723	0.4026	-0.48585
1.1	66.392	-41473	2906.8	-0.76665	0.4026	-0.48507
1.102	66.391	-41474	2906.4	-0.76733	0.4027	-0.48546
1.104	66.395	-41473	2906.1	-0.76801	0.4028	-0.48585
1.106	66.392	-41471	2905.8	-0.7687	0.40289	-0.48624
1.108	66.39	-41467	2905.6	-0.76938	0.40299	-0.48663
1.11	66.397	-41466	2905.3	-0.77006	0.40309	-0.48702
1.112	66.383	-41467	2905	-0.77026	0.40289	-0.48732
1.114	66.365	-41467	2904.7	-0.77045	0.4027	-0.48761
1.116	66.362	-41465	2904.5	-0.77065	0.4025	-0.4879
1.118	66.37	-41464	2904.2	-0.77084	0.40231	-0.4882
1.12	66.384	-41462	2904	-0.77104	0.40211	-0.48849
1.122	66.401	-41465	2903.8	-0.77104	0.40231	-0.4882
1.124	66.397	-41473	2903.6	-0.77104	0.4025	-0.4879
1.126	66.385	-41477	2903.4	-0.77104	0.4027	-0.48761
1.128	66.376	-41477	2903.2	-0.77104	0.40289	-0.48732
1.13	66.374	-41477	2903	-0.77104	0.40309	-0.48702
1.132	66.379	-41477	2902.8	-0.77006	0.4025	-0.48634
1.134	66.386	-41476	2902.7	-0.76909	0.40192	-0.48566
1.136	66.385	-41474	2902.5	-0.76811	0.40133	-0.48497
1.138	66.381	-41473	2902.4	-0.76714	0.40075	-0.48429
1.14	66.389	-41473	2902.3	-0.76616	0.40016	-0.48361
1.142	66.401	-41473	2902.2	-0.76675	0.40036	-0.48351
1.144	66.402	-41475	2902.1	-0.76733	0.40055	-0.48341
1.146	66.402	-41474	2902	-0.76792	0.40075	-0.48332
1.148	66.396	-41471	2901.9	-0.7685	0.40094	-0.48322
1.15	66.395	-41468	2901.9	-0.76909	0.40114	-0.48312
1.152	66.398	-41466	2901.8	-0.76938	0.40192	-0.48371
1.154	66.403	-41464	2901.8	-0.76967	0.4027	-0.48429
1.156	66.404	-41463	2901.7	-0.76997	0.40348	-0.48488
1.158	66.398	-41463	2901.7	-0.77026	0.40426	-0.48546
1.16	66.389	-41464	2901.6	-0.77055	0.40504	-0.48605
1.162	66.392	-41463	2901.6	-0.76977	0.40455	-0.48566
1.164	66.398	-41461	2901.5	-0.76899	0.40406	-0.48527
1.166	66.4	-41458	2901.5	-0.76821	0.40358	-0.48488
1.168	66.404	-41455	2901.5	-0.76743	0.40309	-0.48449
1.17	66.412	-41456	2901.5	-0.76665	0.4026	-0.4841
1.172	66.422	-41462	2901.5	-0.76792	0.4028	-0.48429
1.174	66.431	-41464	2901.5	-0.76919	0.40299	-0.48449
1.176	66.44	-41462	2901.6	-0.77045	0.40319	-0.48468
1.178	66.444	-41460	2901.6	-0.77172	0.40338	-0.48488
1.18	66.437	-41458	2901.6	-0.77299	0.40358	-0.48507
1.182	66.426	-41459	2901.6	-0.7728	0.40309	-0.48546
1.184	66.408	-41463	2901.7	-0.7726	0.4026	-0.48585
1.186	66.39	-41466	2901.7	-0.77241	0.40211	-0.48624
1.188	66.373	-41466	2901.8	-0.77221	0.40162	-0.48663
1.19	66.377	-41466	2901.9	-0.77202	0.40114	-0.48702
1.192	66.388	-41467	2901.8	-0.77163	0.40172	-0.48712
1.194	66.389	-41467	2901.8	-0.77124	0.40231	-0.48722
1.196	66.392	-41465	2901.8	-0.77084	0.40289	-0.48732
1.198	66.395	-41462	2901.9	-0.77045	0.40348	-0.48741
1.2	66.397	-41457	2901.9	-0.77006	0.40406	-0.48751
1.202	66.394	-41454	2901.9	-0.7688	0.40348	-0.48673
1.204	66.391	-41453	2901.8	-0.76753	0.40289	-0.48595
1.206	66.398	-41456	2901.8	-0.76626	0.40231	-0.48517
1.208	66.408	-41463	2901.8	-0.76499	0.40172	-0.48439
1.21	66.4	-41465	2901.8	-0.76372	0.40114	-0.48361
1.212	66.382	-41463	2901.7	-0.76421	0.40182	-0.48312
1.214	66.37	-41459	2901.6	-0.7647	0.4025	-0.48263
1.216	66.372	-41455	2901.5	-0.76518	0.40319	-0.48214
1.218	66.37	-41455	2901.5	-0.76567	0.40387	-0.48166
1.22	66.368	-41459	2901.4	-0.76616	0.40455	-0.48117
1.222	66.375	-41460	2901.3	-0.76567	0.40338	-0.48175
1.224	66.389	-41457	2901.1	-0.76518	0.40221	-0.48234
1.226	66.391	-41454	2901	-0.7647	0.40104	-0.48292
1.228	66.384	-41451	2900.9	-0.76421	0.39987	-0.48351
1.23	66.375	-41452	2900.8	-0.76372	0.3987	-0.4841
1.232	66.372	-41456	2900.6	-0.76313	0.39821	-0.4838
1.234	66.376	-41458	2900.4	-0.76255	0.39772	-0.48351
1.236	66.377	-41457	2900.2	-0.76196	0.39723	-0.48322
1.238	66.374	-41456	2900	-0.76138	0.39674	-0.48292
1.24	66.374	-41457	2899.8	-0.76079	0.39626	-0.48263
1.242	66.369	-41457	2899.6	-0.75943	0.39772	-0.48234
1.244	66.357	-41456	2899.4	-0.75806	0.39918	-0.48205
1.246	66.345	-41454	2899.2	-0.75669	0.40065	-0.48175
1.248	66.335	-41450	2898.9	-0.75533	0.40211	-0.48146
1.25	66.328	-41449	2898.7	-0.75396	0.40358	-0.48117
1.252	66.321	-41450	2898.4	-0.75523	0.40387	-0.48078
1.254	66.323	-41451	2898.2	-0.7565	0.40416	-0.48039
1.256	66.335	-41452	2897.9	-0.75777	0.40445	-0.48
1.258	66.344	-41453	2897.7	-0.75904	0.40475	-0.47961
1.26	66.348	-41457	2897.4	-0.7603	0.40504	-0.47922
1.262	66.347	-41457	2897.1	-0.76069	0.40289	-0.47941
1.264	66.346	-41454	2896.8	-0.76108	0.40075	-0.47961
1.266	66.344	-41453	2896.6	-0.76148	0.3986	-0.4798
1.268	66.351	-41454	2896.4	-0.76187	0.39645	-0.48
1.27	66.367	-41459	2896.1	-0.76226	0.3943	-0.48019
1.272	66.375	-41467	2895.8	-0.76226	0.39479	-0.48019
1.274	66.379	-41465	2895.5	-0.76226	0.39528	-0.48019
1.276	66.388	-41452	2895.2	-0.76226	0.39577	-0.48019
1.278	66.391	-41446	2894.9	-0.76226	0.39626	-0.48019
1.28	66.393	-41446	2894.6	-0.76226	0.39674	-0.48019
1.282	66.399	-41448	2894.4	-0.76372	0.39811	-0.48146
1.284	66.402	-41453	2894.1	-0.76518	0.39948	-0.48273
1.286	66.406	-41456	2893.8	-0.76665	0.40084	-0.484
1.288	66.401	-41458	2893.6	-0.76811	0.40221	-0.48527
1.29	66.416	-41459	2893.3	-0.76958	0.40358	-0.48654
1.292	66.444	-41461	2893	-0.76977	0.40377	-0.48702
1.294	66.442	-41462	2892.8	-0.76997	0.40397	-0.48751
1.296	66.438	-41463	2892.5	-0.77016	0.40416	-0.488
1.298	66.436	-41461	2892.3	-0.77036	0.40436	-0.48849
1.3	66.43	-41455	2892	-0.77055	0.40455	-0.48898
1.302	66.423	-41454	2891.8	-0.77026	0.40484	-0.4881
1.304	66.412	-41456	2891.5	-0.76997	0.40514	-0.48722
1.306	66.392	-41456	2891.3	-0.76967	0.40543	-0.48634
1.308	66.377	-41453	2891	-0.76938	0.40572	-0.48546
1.31	66.392	-41452	2890.8	-0.76909	0.40602	-0.48458
1.312	66.413	-41453	2890.6	-0.76967	0.40524	-0.48497
1.314	66.436	-41453	2890.4	-0.77026	0.40445	-0.48536
1.316	66.448	-41453	2890.2	-0.77084	0.40367	-0.48576
1.318	66.44	-41455	2890	-0.77143	0.40289	-0.48615
1.32	66.427	-41458	2889.8	-0.77202	0.40211	-0.48654
1.322	66.427	-41459	2889.6	-0.77143	0.4026	-0.48712
1.324	66.433	-41459	2889.4	-0.77084	0.40309	-0.48771
1.326	66.433	-41458	2889.1	-0.77026	0.40358	-0.48829
1.328	66.425	-41456	2888.9	-0.76967	0.40406	-0.48888
1.33	66.42	-41453	2888.7	-0.76909	0.40455	-0.48946
1.332	66.42	-41451	2888.6	-0.76899	0.40455	-0.48937
1.334	66.422	-41454	2888.4	-0.76889	0.40455	-0.48927
1.336	66.427	-41461	2888.2	-0.7688	0.40455	-0.48917
1.338	66.433	-41462	2888	-0.7687	0.40455	-0.48907
1.34	66.439	-41458	2887.8	-0.7686	0.40455	-0.48898
1.342	66.44	-41457	2887.6	-0.7684	0.40397	-0.48937
1.344	66.441	-41460	2887.5	-0.76821	0.40338	-0.48976
1.346	66.447	-41462	2887.3	-0.76801	0.4028	-0.49015
1.348	66.44	-41462	2887.1	-0.76782	0.40221	-0.49054
1.35	66.429	-41463	2887	-0.76762	0.40162	-0.49093
1.352	66.435	-41463	2886.8	-0.7686	0.40201	-0.49073
1.354	66.449	-41463	2886.6	-0.76958	0.4024	-0.49054
1.356	66.449	-41462	2886.5	-0.77055	0.4028	-0.49034
1.358	66.452	-41462	2886.3	-0.77153	0.40319	-0.49015
1.36	66.461	-41461	2886.1	-0.7725	0.40358	-0.48995
1.362	66.456	-41462	2885.9	-0.7727	0.4024	-0.48907
1.364	66.453	-41463	2885.8	-0.77289	0.40123	-0.4882
1.366	66.458	-41462	2885.6	-0.77309	0.40006	-0.48732
1.368	66.447	-41459	2885.4	-0.77328	0.39889	-0.48644
1.37	66.44	-41457	2885.2	-0.77348	0.39772	-0.48556
1.372	66.442	-41457	2885	-0.77241	0.3985	-0.48654
1.374	66.446	-41460	2884.8	-0.77133	0.39928	-0.48751
1.376	66.442	-41466	2884.6	-0.77026	0.40006	-0.48849
1.378	66.422	-41469	2884.5	-0.76919	0.40084	-0.48946
1.38	66.403	-41467	2884.3	-0.76811	0.40162	-0.49044
1.382	66.359	-41465	2884.2	-0.7684	0.40153	-0.49015
1.384	66.317	-41463	2884.1	-0.7687	0.40143	-0.48985
1.386	66.272	-41463	2883.9	-0.76899	0.40133	-0.48956
1.388	66.202	-41465	2883.7	-0.76928	0.40123	-0.48927
1.39	66.091	-41468	2883.5	-0.76958	0.40114	-0.48898
1.392	65.942	-41471	2883.4	-0.76919	0.40133	-0.48878
1.394	65.785	-41470	2883.2	-0.7688	0.40153	-0.48859
1.396	65.656	-41465	2883	-0.7684	0.40172	-0.48839
1.398	65.572	-41464	2882.9	-0.76801	0.40192	-0.4882
1.4	65.554	-41470	2882.8	-0.76762	0.40211	-0.488
1.402	65.605	-41472	2882.7	-0.76762	0.40231	-0.4882
1.404	65.73	-41473	2882.5	-0.76762	0.4025	-0.48839
1.406	65.912	-41472	2882.4	-0.76762	0.4027	-0.48859
1.408	66.109	-41470	2882.2	-0.76762	0.40289	-0.48878
1.41	66.258	-41469	2882.1	-0.76762	0.40309	-0.48898
1.412	66.341	-41470	2882	-0.7685	0.4027	-0.48859
1.414	66.379	-41469	2881.9	-0.76938	0.40231	-0.4882
1.416	66.393	-41466	2881.7	-0.77026	0.40192	-0.4878
1.418	66.407	-41465	2881.6	-0.77114	0.40153	-0.48741
1.42	66.428	-41465	2881.5	-0.77202	0.40114	-0.48702
1.422	66.443	-41466	2881.3	-0.77104	0.40153	-0.4878
1.424	66.449	-41470	2881.2	-0.77006	0.40192	-0.48859
1.426	66.451	-41473	2881	-0.76909	0.40231	-0.48937
1.428	66.451	-41476	2880.8	-0.76811	0.4027	-0.49015
1.43	66.458	-41474	2880.7	-0.76714	0.40309	-0.49093
1.432	66.474	-41467	2880.5	-0.76753	0.40299	-0.49044
1.434	66.489	-41465	2880.4	-0.76792	0.40289	-0.48995
1.436	66.492	-41469	2880.3	-0.76831	0.4028	-0.48946
1.438	66.48	-41474	2880.1	-0.7687	0.4027	-0.48898
1.44	66.458	-41480	2879.9	-0.76909	0.4026	-0.48849
1.442	66.441	-41483	2879.7	-0.76811	0.40153	-0.48868
1.444	66.432	-41483	2879.5	-0.76714	0.40045	-0.48888
1.446	66.44	-41484	2879.4	-0.76616	0.39938	-0.48907
1.448	66.46	-41487	2879.2	-0.76518	0.39831	-0.48927
1.45	66.472	-41486	2879	-0.76421	0.39723	-0.48946
1.452	66.487	-41481	2878.8	-0.76499	0.39782	-0.48937
1.454	66.487	-41477	2878.6	-0.76577	0.3984	-0.48927
1.456	66.48	-41475	2878.4	-0.76655	0.39899	-0.48917
1.458	66.456	-41476	2878.2	-0.76733	0.39957	-0.48907
1.46	66.447	-41480	2878	-0.76811	0.40016	-0.48898
1.462	66.453	-41483	2877.8	-0.76782	0.40036	-0.48898
1.464	66.457	-41484	2877.6	-0.76753	0.40055	-0.48898
1.466	66.46	-41483	2877.4	-0.76723	0.40075	-0.48898
1.468	66.457	-41479	2877.2	-0.76694	0.40094	-0.48898
1.47	66.46	-41478	2877	-0.76665	0.40114	-0.48898
1.472	66.468	-41478	2876.7	-0.76675	0.40065	-0.48868
1.474	66.472	-41476	2876.5	-0.76684	0.40016	-0.48839
1.476	66.465	-41471	2876.3	-0.76694	0.39967	-0.4881
1.478	66.441	-41473	2876.1	-0.76704	0.39918	-0.4878
1.48	66.419	-41482	2875.8	-0.76714	0.3987	-0.48751
1.482	66.417	-41489	2875.6	-0.76684	0.39831	-0.48732
1.484	66.419	-41491	2875.4	-0.76655	0.39792	-0.48712
1.486	66.417	-41491	2875.2	-0.76626	0.39752	-0.48693
1.488	66.417	-41488	2875	-0.76596	0.39713	-0.48673
1.49	66.42	-41487	2874.7	-0.76567	0.39674	-0.48654
1.492	66.419	-41489	2874.5	-0.76626	0.39743	-0.48673
1.494	66.425	-41491	2874.3	-0.76684	0.39811	-0.48693
1.496	66.435	-41493	2874.1	-0.76743	0.39879	-0.48712
1.498	66.447	-41493	2873.8	-0.76801	0.39948	-0.48732
1.5	66.454	-41490	2873.6	-0.7686	0.40016	-0.48751
1.502	66.441	-41491	2873.4	-0.7686	0.40084	-0.4879
1.504	66.428	-41494	2873.3	-0.7686	0.40153	-0.48829
1.506	66.43	-41494	2873	-0.7686	0.40221	-0.48868
1.508	66.434	-41488	2872.8	-0.7686	0.40289	-0.48907
1.51	66.432	-41488	2872.6	-0.7686	0.40358	-0.48946
1.512	66.421	-41491	2872.4	-0.76909	0.40358	-0.48946
1.514	66.412	-41494	2872.2	-0.76958	0.40358	-0.48946
1.516	66.409	-41495	2872	-0.77006	0.40358	-0.48946
1.518	66.414	-41496	2871.7	-0.77055	0.40358	-0.48946
1.52	66.43	-41496	2871.5	-0.77104	0.40358	-0.48946
1.522	66.44	-41495	2871.3	-0.77133	0.40299	-0.48907
1.524	66.434	-41494	2871.1	-0.77163	0.4024	-0.48868
1.526	66.423	-41497	2870.9	-0.77192	0.40182	-0.48829
1.528	66.412	-41504	2870.7	-0.77221	0.40123	-0.4879
1.53	66.409	-41505	2870.4	-0.7725	0.40065	-0.48751
1.532	66.402	-41501	2870.2	-0.77133	0.40075	-0.48683
1.534	66.397	-41497	2870	-0.77016	0.40084	-0.48615
1.536	66.396	-41494	2869.7	-0.76899	0.40094	-0.48546
1.538	66.406	-41493	2869.6	-0.76782	0.40104	-0.48478
1.54	66.416	-41494	2869.4	-0.76665	0.40114	-0.4841
1.542	66.409	-41497	2869.1	-0.76548	0.39996	-0.48273
1.544	66.395	-41500	2868.9	-0.76431	0.39879	-0.48136
1.546	66.391	-41503	2868.7	-0.76313	0.39762	-0.48
1.548	66.395	-41506	2868.5	-0.76196	0.39645	-0.47863
1.55	66.392	-41505	2868.3	-0.76079	0.39528	-0.47726
1.552	66.395	-41501	2868.1	-0.75991	0.39557	-0.47785
1.554	66.397	-41498	2867.9	-0.75904	0.39587	-0.47844
1.556	66.411	-41497	2867.7	-0.75816	0.39616	-0.47902
1.558	66.419	-41499	2867.5	-0.75728	0.39645	-0.47961
1.56	66.416	-41504	2867.3	-0.7564	0.39674	-0.48019
1.562	66.39	-41508	2867.1	-0.75679	0.39684	-0.48058
1.564	66.376	-41509	2867	-0.75718	0.39694	-0.48097
1.566	66.375	-41507	2866.8	-0.75757	0.39704	-0.48136
1.568	66.368	-41503	2866.7	-0.75796	0.39713	-0.48175
1.57	66.36	-41503	2866.6	-0.75835	0.39723	-0.48214
1.572	66.357	-41508	2866.6	-0.75855	0.39665	-0.48214
1.574	66.363	-41511	2866.6	-0.75874	0.39606	-0.48214
1.576	66.375	-41510	2866.7	-0.75894	0.39548	-0.48214
1.578	66.379	-41513	2866.8	-0.75913	0.39489	-0.48214
1.58	66.385	-41518	2867	-0.75933	0.3943	-0.48214
1.582	66.383	-41516	2867.3	-0.76128	0.39635	-0.48341
1.584	66.373	-41507	2867.7	-0.76323	0.3984	-0.48468
1.586	66.36	-41501	2868	-0.76518	0.40045	-0.48595
1.588	66.343	-41500	2868.5	-0.76714	0.4025	-0.48722
1.59	66.33	-41500	2869	-0.76909	0.40455	-0.48849
1.592	66.326	-41501	2869.7	-0.76899	0.40475	-0.4878
1.594	66.326	-41502	2870.4	-0.76889	0.40494	-0.48712
1.596	66.323	-41503	2871.2	-0.7688	0.40514	-0.48644
1.598	66.313	-41504	2872	-0.7687	0.40533	-0.48576
1.6	66.299	-41505	2872.8	-0.7686	0.40553	-0.48507
1.602	66.29	-41508	2873.7	-0.76899	0.40533	-0.48556
1.604	66.289	-41513	2874.6	-0.76938	0.40514	-0.48605
1.606	66.293	-41510	2875.5	-0.76977	0.40494	-0.48654
1.608	66.293	-41499	2876.5	-0.77016	0.40475	-0.48702
1.61	66.281	-41496	2877.5	-0.77055	0.40455	-0.48751
1.612	66.275	-41501	2878.4	-0.77026	0.40445	-0.4879
1.614	66.27	-41506	2879.4	-0.76997	0.40436	-0.48829
1.616	66.255	-41510	2880.3	-0.76967	0.40426	-0.48868
1.618	66.247	-41513	2881.3	-0.76938	0.40416	-0.48907
1.62	66.248	-41515	2882.3	-0.76909	0.40406	-0.48946
1.622	66.248	-41515	2883.2	-0.76831	0.40309	-0.49044
1.624	66.239	-41513	2884.1	-0.76753	0.40211	-0.49142
1.626	66.227	-41510	2885	-0.76675	0.40114	-0.49239
1.628	66.204	-41507	2885.8	-0.76596	0.40016	-0.49337
1.63	66.192	-41507	2886.7	-0.76518	0.39918	-0.49434
1.632	66.195	-41510	2887.5	-0.76567	0.39967	-0.49356
1.634	66.199	-41512	2888.3	-0.76616	0.40016	-0.49278
1.636	66.218	-41511	2889.1	-0.76665	0.40065	-0.492
1.638	66.226	-41512	2889.8	-0.76714	0.40114	-0.49122
1.64	66.228	-41514	2890.6	-0.76762	0.40162	-0.49044
1.642	66.231	-41512	2891.3	-0.76753	0.40045	-0.48985
1.644	66.224	-41505	2892	-0.76743	0.39928	-0.48927
1.646	66.207	-41503	2892.6	-0.76733	0.39811	-0.48868
1.648	66.2	-41505	2893.3	-0.76723	0.39694	-0.4881
1.65	66.212	-41506	2893.9	-0.76714	0.39577	-0.48751
1.652	66.218	-41504	2894.5	-0.76675	0.39684	-0.48839
1.654	66.22	-41504	2895.1	-0.76636	0.39792	-0.48927
1.656	66.217	-41504	2895.6	-0.76596	0.39899	-0.49015
1.658	66.209	-41505	2896.1	-0.76557	0.40006	-0.49103
1.66	66.207	-41508	2896.6	-0.76518	0.40114	-0.4919
1.662	66.206	-41510	2897	-0.76479	0.39948	-0.49093
1.664	66.218	-41509	2897.5	-0.7644	0.39782	-0.48995
1.666	66.252	-41510	2897.9	-0.76401	0.39616	-0.48898
1.668	66.285	-41510	2898.3	-0.76362	0.3945	-0.488
1.67	66.309	-41512	2898.7	-0.76323	0.39284	-0.48702
1.672	66.324	-41514	2899.1	-0.76274	0.39421	-0.48849
1.674	66.325	-41513	2899.5	-0.76226	0.39557	-0.48995
1.676	66.324	-41511	2899.9	-0.76177	0.39694	-0.49142
1.678	66.329	-41508	2900.1	-0.76128	0.39831	-0.49288
1.68	66.328	-41506	2900.4	-0.76079	0.39967	-0.49434
1.682	66.324	-41503	2900.7	-0.76216	0.39977	-0.49366
1.684	66.333	-41500	2901	-0.76352	0.39987	-0.49298
1.686	66.349	-41498	2901.2	-0.76489	0.39996	-0.49229
1.688	66.354	-41497	2901.4	-0.76626	0.40006	-0.49161
1.69	66.353	-41497	2901.6	-0.76762	0.40016	-0.49093
1.692	66.356	-41499	2901.8	-0.76684	0.40006	-0.49132
1.694	66.366	-41500	2902	-0.76606	0.39996	-0.49171
1.696	66.373	-41501	2902.2	-0.76528	0.39987	-0.4921
1.698	66.371	-41499	2902.4	-0.7645	0.39977	-0.49249
1.7	66.358	-41493	2902.5	-0.76372	0.39967	-0.49288
1.702	66.349	-41489	2902.6	-0.76382	0.39928	-0.4922
1.704	66.36	-41487	2902.7	-0.76392	0.39889	-0.49151
1.706	66.368	-41486	2902.7	-0.76401	0.3985	-0.49083
1.708	66.376	-41486	2902.8	-0.76411	0.39811	-0.49015
1.71	66.389	-41487	2902.9	-0.76421	0.39772	-0.48946
1.712	66.381	-41490	2902.9	-0.7647	0.3986	-0.49015
1.714	66.378	-41490	2903	-0.76518	0.39948	-0.49083
1.716	66.382	-41489	2903	-0.76567	0.40036	-0.49151
1.718	66.378	-41486	2903	-0.76616	0.40123	-0.4922
1.72	66.382	-41483	2903	-0.76665	0.40211	-0.49288
1.722	66.387	-41483	2903.1	-0.76626	0.40065	-0.49181
1.724	66.393	-41487	2903.1	-0.76587	0.39918	-0.49073
1.726	66.413	-41488	2903.1	-0.76548	0.39772	-0.48966
1.728	66.419	-41486	2903.1	-0.76509	0.39626	-0.48859
1.73	66.42	-41483	2903	-0.7647	0.39479	-0.48751
1.732	66.417	-41480	2903	-0.76567	0.39577	-0.48761
1.734	66.413	-41478	2903	-0.76665	0.39674	-0.48771
1.736	66.41	-41476	2903	-0.76762	0.39772	-0.4878
1.738	66.406	-41474	2903	-0.7686	0.3987	-0.4879
1.74	66.401	-41472	2903	-0.76958	0.39967	-0.488
1.742	66.398	-41471	2902.9	-0.7684	0.3986	-0.48868
1.744	66.409	-41470	2902.9	-0.76723	0.39752	-0.48937
1.746	66.414	-41467	2902.9	-0.76606	0.39645	-0.49005
1.748	66.413	-41462	2902.9	-0.76489	0.39538	-0.49073
1.75	66.417	-41459	2903	-0.76372	0.3943	-0.49142
1.752	66.424	-41459	2903	-0.76333	0.39528	-0.49181
1.754	66.418	-41461	2903	-0.76294	0.39626	-0.4922
1.756	66.407	-41465	2903.1	-0.76255	0.39723	-0.49259
1.758	66.409	-41468	2903.1	-0.76216	0.39821	-0.49298
1.76	66.417	-41470	2903.2	-0.76177	0.39918	-0.49337
1.762	66.423	-41471	2903.2	-0.76021	0.39977	-0.49395
1.764	66.42	-41470	2903.2	-0.75864	0.40036	-0.49454
1.766	66.413	-41469	2903.2	-0.75708	0.40094	-0.49512
1.768	66.412	-41466	2903.2	-0.75552	0.40153	-0.49571
1.77	66.422	-41464	2903.3	-0.75396	0.40211	-0.4963
1.772	66.428	-41461	2903.3	-0.75445	0.40172	-0.49639
1.774	66.417	-41459	2903.3	-0.75494	0.40133	-0.49649
1.776	66.408	-41459	2903.3	-0.75542	0.40094	-0.49659
1.778	66.411	-41459	2903.3	-0.75591	0.40055	-0.49669
1.78	66.411	-41460	2903.3	-0.7564	0.40016	-0.49678
1.782	66.411	-41461	2903.3	-0.7563	0.40016	-0.49669
1.784	66.418	-41464	2903.3	-0.7562	0.40016	-0.49659
1.786	66.42	-41464	2903.2	-0.75611	0.40016	-0.49649
1.788	66.418	-41461	2903.1	-0.75601	0.40016	-0.49639
1.79	66.423	-41457	2903	-0.75591	0.40016	-0.4963
1.792	66.427	-41453	2902.9	-0.75513	0.39948	-0.49581
1.794	66.41	-41454	2902.8	-0.75435	0.39879	-0.49532
1.796	66.388	-41458	2902.7	-0.75357	0.39811	-0.49483
1.798	66.388	-41458	2902.5	-0.75279	0.39743	-0.49434
1.8	66.396	-41455	2902.3	-0.75201	0.39674	-0.49386
1.802	66.403	-41452	2902.1	-0.75328	0.39665	-0.49288
1.804	66.412	-41449	2901.9	-0.75455	0.39655	-0.4919
1.806	66.411	-41447	2901.6	-0.75581	0.39645	-0.49093
1.808	66.413	-41447	2901.4	-0.75708	0.39635	-0.48995
1.81	66.417	-41449	2901.1	-0.75835	0.39626	-0.48898
1.812	66.413	-41454	2900.8	-0.76001	0.39626	-0.48985
1.814	66.406	-41454	2900.6	-0.76167	0.39626	-0.49073
1.816	66.393	-41447	2900.3	-0.76333	0.39626	-0.49161
1.818	66.392	-41446	2900	-0.76499	0.39626	-0.49249
1.82	66.406	-41451	2899.6	-0.76665	0.39626	-0.49337
1.822	66.409	-41455	2899.3	-0.76665	0.39635	-0.49259
1.824	66.411	-41458	2899	-0.76665	0.39645	-0.49181
1.826	66.421	-41459	2898.7	-0.76665	0.39655	-0.49103
1.828	66.414	-41456	2898.4	-0.76665	0.39665	-0.49024
1.83	66.403	-41456	2898.1	-0.76665	0.39674	-0.48946
1.832	66.402	-41459	2897.9	-0.76684	0.39684	-0.48966
1.834	66.398	-41459	2897.7	-0.76704	0.39694	-0.48985
1.836	66.391	-41458	2897.5	-0.76723	0.39704	-0.49005
1.838	66.384	-41456	2897.2	-0.76743	0.39713	-0.49024
1.84	66.384	-41452	2897	-0.76762	0.39723	-0.49044
1.842	66.404	-41449	2896.8	-0.76675	0.39606	-0.48917
1.844	66.434	-41447	2896.5	-0.76587	0.39489	-0.4879
1.846	66.445	-41446	2896.3	-0.76499	0.39372	-0.48663
1.848	66.431	-41447	2896.1	-0.76411	0.39255	-0.48536
1.85	66.418	-41450	2895.9	-0.76323	0.39138	-0.4841
1.852	66.414	-41456	2895.7	-0.76421	0.39206	-0.48429
1.854	66.408	-41455	2895.6	-0.76518	0.39274	-0.48449
1.856	66.4	-41448	2895.4	-0.76616	0.39343	-0.48468
1.858	66.388	-41444	2895.3	-0.76714	0.39411	-0.48488
1.86	66.366	-41442	2895.1	-0.76811	0.39479	-0.48507
1.862	66.356	-41444	2895	-0.76792	0.39538	-0.48546
1.864	66.379	-41449	2895	-0.76772	0.39596	-0.48585
1.866	66.406	-41451	2894.9	-0.76753	0.39655	-0.48624
1.868	66.417	-41449	2894.8	-0.76733	0.39713	-0.48663
1.87	66.427	-41449	2894.7	-0.76714	0.39772	-0.48702
1.872	66.43	-41451	2894.6	-0.76723	0.39704	-0.48693
1.874	66.419	-41453	2894.6	-0.76733	0.39635	-0.48683
1.876	66.411	-41456	2894.6	-0.76743	0.39567	-0.48673
1.878	66.404	-41455	2894.5	-0.76753	0.39499	-0.48663
1.88	66.403	-41450	2894.5	-0.76762	0.3943	-0.48654
1.882	66.405	-41448	2894.5	-0.76762	0.39489	-0.48702
1.884	66.412	-41447	2894.5	-0.76762	0.39548	-0.48751
1.886	66.421	-41449	2894.5	-0.76762	0.39606	-0.488
1.888	66.427	-41454	2894.5	-0.76762	0.39665	-0.48849
1.89	66.429	-41454	2894.5	-0.76762	0.39723	-0.48898
1.892	66.43	-41450	2894.4	-0.76714	0.39733	-0.48946
1.894	66.43	-41448	2894.4	-0.76665	0.39743	-0.48995
1.896	66.429	-41448	2894.4	-0.76616	0.39752	-0.49044
1.898	66.431	-41449	2894.4	-0.76567	0.39762	-0.49093
1.9	66.423	-41451	2894.4	-0.76518	0.39772	-0.49142
1.902	66.418	-41455	2894.4	-0.76596	0.39743	-0.49034
1.904	66.423	-41459	2894.4	-0.76675	0.39713	-0.48927
1.906	66.434	-41461	2894.4	-0.76753	0.39684	-0.4882
1.908	66.445	-41460	2894.4	-0.76831	0.39655	-0.48712
1.91	66.446	-41458	2894.4	-0.76909	0.39626	-0.48605
1.912	66.442	-41454	2894.4	-0.76831	0.39557	-0.48663
1.914	66.434	-41452	2894.4	-0.76753	0.39489	-0.48722
1.916	66.407	-41450	2894.4	-0.76675	0.39421	-0.4878
1.918	66.389	-41448	2894.4	-0.76596	0.39352	-0.48839
1.92	66.39	-41447	2894.4	-0.76518	0.39284	-0.48898
1.922	66.393	-41446	2894.3	-0.76528	0.39362	-0.48927
1.924	66.4	-41443	2894.3	-0.76538	0.3944	-0.48956
1.926	66.411	-41444	2894.2	-0.76548	0.39518	-0.48985
1.928	66.425	-41449	2894.2	-0.76557	0.39596	-0.49015
1.93	66.436	-41451	2894.2	-0.76567	0.39674	-0.49044
1.932	66.442	-41451	2894.1	-0.76557	0.39704	-0.49083
1.934	66.454	-41450	2894.1	-0.76548	0.39733	-0.49122
1.936	66.461	-41449	2894	-0.76538	0.39762	-0.49161
1.938	66.452	-41451	2894	-0.76528	0.39792	-0.492
1.94	66.441	-41454	2894	-0.76518	0.39821	-0.49239
1.942	66.432	-41456	2893.9	-0.76577	0.39801	-0.492
1.944	66.42	-41455	2893.8	-0.76636	0.39782	-0.49161
1.946	66.411	-41455	2893.8	-0.76694	0.39762	-0.49122
1.948	66.416	-41456	2893.6	-0.76753	0.39743	-0.49083
1.95	66.428	-41453	2893.5	-0.76811	0.39723	-0.49044
1.952	66.435	-41448	2893.4	-0.76792	0.39723	-0.48976
1.954	66.446	-41449	2893.3	-0.76772	0.39723	-0.48907
1.956	66.459	-41457	2893.2	-0.76753	0.39723	-0.48839
1.958	66.459	-41459	2893.1	-0.76733	0.39723	-0.48771
1.96	66.453	-41456	2893	-0.76714	0.39723	-0.48702
1.962	66.454	-41454	2892.8	-0.76596	0.39626	-0.48741
1.964	66.447	-41452	2892.7	-0.76479	0.39528	-0.4878
1.966	66.438	-41451	2892.6	-0.76362	0.3943	-0.4882
1.968	66.432	-41450	2892.4	-0.76245	0.39333	-0.48859
1.97	66.418	-41451	2892.3	-0.76128	0.39235	-0.48898
1.972	66.409	-41453	2892.2	-0.76255	0.39323	-0.48927
1.974	66.42	-41453	2892	-0.76382	0.39411	-0.48956
1.976	66.432	-41452	2891.9	-0.76509	0.39499	-0.48985
1.978	66.437	-41451	2891.8	-0.76636	0.39587	-0.49015
1.98	66.439	-41450	2891.7	-0.76762	0.39674	-0.49044
1.982	66.443	-41450	2891.5	-0.76792	0.39723	-0.49044
1.984	66.432	-41451	2891.3	-0.76821	0.39772	-0.49044
1.986	66.415	-41453	2891.1	-0.7685	0.39821	-0.49044
1.988	66.419	-41455	2891	-0.7688	0.3987	-0.49044
1.99	66.425	-41451	2890.8	-0.76909	0.39918	-0.49044
1.992	66.418	-41442	2890.6	-0.7685	0.39811	-0.48956
1.994	66.407	-41442	2890.5	-0.76792	0.39704	-0.48868
1.996	66.407	-41453	2890.3	-0.76733	0.39596	-0.4878
1.998	66.409	-41457	2890.1	-0.76675	0.39489	-0.48693
2	66.408	-41456	2889.9	-0.76616	0.39382	-0.48605
2.002	66.405	-41455	2889.8	-0.76606	0.3944	-0.48722
2.004	66.405	-41452	2889.6	-0.76596	0.39499	-0.48839
2.006	66.405	-41449	2889.5	-0.76587	0.39557	-0.48956
2.008	66.406	-41445	2889.3	-0.76577	0.39616	-0.49073
2.01	66.41	-41447	2889.1	-0.76567	0.39674	-0.4919
2.012	66.41	-41457	2888.9	-0.76636	0.39713	-0.49122
2.014	66.405	-41462	2888.8	-0.76704	0.39752	-0.49054
2.016	66.409	-41462	2888.6	-0.76772	0.39792	-0.48985
2.018	66.412	-41459	2888.4	-0.7684	0.39831	-0.48917
2.02	66.401	-41454	2888.2	-0.76909	0.3987	-0.48849
2.022	66.38	-41453	2888	-0.7687	0.39792	-0.48878
2.024	66.357	-41455	2887.7	-0.76831	0.39713	-0.48907
2.026	66.342	-41457	2887.5	-0.76792	0.39635	-0.48937
2.028	66.347	-41457	2887.3	-0.76753	0.39557	-0.48966
2.03	66.357	-41457	2887.2	-0.76714	0.39479	-0.48995
2.032	66.361	-41457	2886.9	-0.76733	0.39596	-0.49024
2.034	66.369	-41454	2886.7	-0.76753	0.39713	-0.49054
2.036	66.379	-41450	2886.6	-0.76772	0.39831	-0.49083
2.038	66.38	-41448	2886.4	-0.76792	0.39948	-0.49112
2.04	66.384	-41449	2886.3	-0.76811	0.40065	-0.49142
2.042	66.404	-41453	2886.1	-0.76762	0.39967	-0.49093
2.044	66.417	-41458	2886	-0.76714	0.3987	-0.49044
2.046	66.415	-41458	2885.8	-0.76665	0.39772	-0.48995
2.048	66.42	-41455	2885.6	-0.76616	0.39674	-0.48946
2.05	66.436	-41453	2885.5	-0.76567	0.39577	-0.48898
2.052	66.444	-41454	2885.3	-0.76577	0.39606	-0.48927
2.054	66.438	-41454	2885.1	-0.76587	0.39635	-0.48956
2.056	66.43	-41452	2884.9	-0.76596	0.39665	-0.48985
2.058	66.432	-41454	2884.8	-0.76606	0.39694	-0.49015
2.06	66.433	-41459	2884.7	-0.76616	0.39723	-0.49044
2.062	66.435	-41457	2884.5	-0.76714	0.39723	-0.49015
2.064	66.43	-41450	2884.4	-0.76811	0.39723	-0.48985
2.066	66.431	-41450	2884.2	-0.76909	0.39723	-0.48956
2.068	66.438	-41458	2884.1	-0.77006	0.39723	-0.48927
2.07	66.443	-41460	2883.9	-0.77104	0.39723	-0.48898
2.072	66.437	-41457	2883.8	-0.76997	0.39694	-0.48927
2.074	66.436	-41457	2883.6	-0.76889	0.39665	-0.48956
2.076	66.438	-41460	2883.5	-0.76782	0.39635	-0.48985
2.078	66.44	-41461	2883.4	-0.76675	0.39606	-0.49015
2.08	66.446	-41459	2883.2	-0.76567	0.39577	-0.49044
2.082	66.461	-41455	2883	-0.76606	0.39713	-0.49044
2.084	66.466	-41451	2882.8	-0.76645	0.3985	-0.49044
2.086	66.469	-41450	2882.7	-0.76684	0.39987	-0.49044
2.088	66.481	-41453	2882.5	-0.76723	0.40123	-0.49044
2.09	66.485	-41456	2882.4	-0.76762	0.4026	-0.49044
2.092	66.475	-41460	2882.3	-0.76782	0.40143	-0.48985
2.094	66.459	-41461	2882.1	-0.76801	0.40026	-0.48927
2.096	66.448	-41461	2882	-0.76821	0.39909	-0.48868
2.098	66.441	-41459	2881.8	-0.7684	0.39792	-0.4881
2.1	66.437	-41454	2881.6	-0.7686	0.39674	-0.48751
2.102	66.444	-41450	2881.4	-0.7685	0.39723	-0.488
2.104	66.461	-41447	2881.2	-0.7684	0.39772	-0.48849
2.106	66.474	-41450	2881.1	-0.76831	0.39821	-0.48898
2.108	66.482	-41458	2880.9	-0.76821	0.3987	-0.48946
2.11	66.489	-41460	2880.7	-0.76811	0.39918	-0.48995
2.112	66.491	-41454	2880.5	-0.76811	0.39909	-0.49005
2.114	66.493	-41452	2880.4	-0.76811	0.39899	-0.49015
2.116	66.496	-41453	2880.2	-0.76811	0.39889	-0.49024
2.118	66.494	-41454	2880.1	-0.76811	0.39879	-0.49034
2.12	66.493	-41457	2880	-0.76811	0.3987	-0.49044
2.122	66.5	-41461	2879.8	-0.76772	0.39782	-0.48966
2.124	66.512	-41465	2879.7	-0.76733	0.39694	-0.48888
2.126	66.509	-41467	2879.5	-0.76694	0.39606	-0.4881
2.128	66.494	-41466	2879.4	-0.76655	0.39518	-0.48732
2.13	66.478	-41464	2879.2	-0.76616	0.3943	-0.48654
2.132	66.459	-41460	2879.1	-0.76655	0.39479	-0.48654
2.134	66.44	-41461	2879	-0.76694	0.39528	-0.48654
2.136	66.442	-41466	2878.9	-0.76733	0.39577	-0.48654
2.138	66.457	-41468	2878.8	-0.76772	0.39626	-0.48654
2.14	66.472	-41469	2878.7	-0.76811	0.39674	-0.48654
2.142	66.485	-41468	2878.6	-0.76714	0.39655	-0.48751
2.144	66.483	-41463	2878.5	-0.76616	0.39635	-0.48849
2.146	66.487	-41462	2878.3	-0.76518	0.39616	-0.48946
2.148	66.491	-41463	2878.2	-0.76421	0.39596	-0.49044
2.15	66.492	-41467	2878.1	-0.76323	0.39577	-0.49142
2.152	66.484	-41474	2878	-0.7645	0.39655	-0.49142
2.154	66.47	-41479	2877.9	-0.76577	0.39733	-0.49142
2.156	66.456	-41482	2877.9	-0.76704	0.39811	-0.49142
2.158	66.429	-41482	2877.7	-0.76831	0.39889	-0.49142
2.16	66.389	-41480	2877.6	-0.76958	0.39967	-0.49142
2.162	66.317	-41479	2877.6	-0.76919	0.39918	-0.49103
2.164	66.215	-41477	2877.5	-0.7688	0.3987	-0.49064
2.166	66.07	-41477	2877.4	-0.7684	0.39821	-0.49024
2.168	65.894	-41480	2877.3	-0.76801	0.39772	-0.48985
2.17	65.722	-41481	2877.1	-0.76762	0.39723	-0.48946
2.172	65.585	-41480	2877	-0.76606	0.39606	-0.48966
2.174	65.505	-41480	2876.9	-0.7645	0.39489	-0.48985
2.176	65.49	-41479	2876.8	-0.76294	0.39372	-0.49005
2.178	65.542	-41479	2876.7	-0.76138	0.39255	-0.49024
2.18	65.657	-41482	2876.6	-0.75982	0.39138	-0.49044
2.182	65.829	-41483	2876.5	-0.76148	0.39206	-0.48985
2.184	66.023	-41483	2876.4	-0.76313	0.39274	-0.48927
2.186	66.173	-41481	2876.3	-0.76479	0.39343	-0.48868
2.188	66.247	-41479	2876.2	-0.76645	0.39411	-0.4881
2.19	66.284	-41474	2876.1	-0.76811	0.39479	-0.48751
2.192	66.329	-41467	2876	-0.76831	0.39567	-0.48741
2.194	66.368	-41465	2875.8	-0.7685	0.39655	-0.48732
2.196	66.378	-41467	2875.7	-0.7687	0.39743	-0.48722
2.198	66.376	-41469	2875.6	-0.76889	0.39831	-0.48712
2.2	66.391	-41470	2875.4	-0.76909	0.39918	-0.48702
2.202	66.422	-41470	2875.3	-0.76831	0.39928	-0.48839
2.204	66.45	-41467	2875.2	-0.76753	0.39938	-0.48976
2.206	66.476	-41467	2875.1	-0.76675	0.39948	-0.49112
2.208	66.496	-41469	2874.9	-0.76596	0.39957	-0.49249
2.21	66.492	-41472	2874.8	-0.76518	0.39967	-0.49386
2.212	66.475	-41474	2874.7	-0.76567	0.39879	-0.49298
2.214	66.477	-41473	2874.6	-0.76616	0.39792	-0.4921
2.216	66.49	-41468	2874.4	-0.76665	0.39704	-0.49122
2.218	66.509	-41466	2874.3	-0.76714	0.39616	-0.49034
2.22	66.517	-41467	2874.2	-0.76762	0.39528	-0.48946
2.222	66.51	-41469	2874	-0.76811	0.39577	-0.48927
2.224	66.505	-41474	2873.9	-0.7686	0.39626	-0.48907
2.226	66.506	-41476	2873.8	-0.76909	0.39674	-0.48888
2.228	66.511	-41477	2873.6	-0.76958	0.39723	-0.48868
2.23	66.495	-41477	2873.4	-0.77006	0.39772	-0.48849
2.232	66.485	-41475	2873.3	-0.76899	0.39665	-0.48829
2.234	66.495	-41472	2873.2	-0.76792	0.39557	-0.4881
2.236	66.494	-41468	2873	-0.76684	0.3945	-0.4879
2.238	66.489	-41467	2872.9	-0.76577	0.39343	-0.48771
2.24	66.486	-41470	2872.8	-0.7647	0.39235	-0.48751
2.242	66.486	-41473	2872.6	-0.76528	0.39343	-0.488
2.244	66.486	-41477	2872.4	-0.76587	0.3945	-0.48849
2.246	66.485	-41479	2872.3	-0.76645	0.39557	-0.48898
2.248	66.489	-41479	2872.2	-0.76704	0.39665	-0.48946
2.25	66.495	-41477	2872	-0.76762	0.39772	-0.48995
2.252	66.499	-41474	2871.9	-0.76782	0.39762	-0.48995
2.254	66.503	-41472	2871.7	-0.76801	0.39752	-0.48995
2.256	66.503	-41473	2871.5	-0.76821	0.39743	-0.48995
2.258	66.494	-41474	2871.3	-0.7684	0.39733	-0.48995
2.26	66.487	-41476	2871.2	-0.7686	0.39723	-0.48995
2.262	66.484	-41475	2871.1	-0.76801	0.39704	-0.48976
2.264	66.481	-41473	2870.9	-0.76743	0.39684	-0.48956
2.266	66.476	-41472	2870.8	-0.76684	0.39665	-0.48937
2.268	66.471	-41473	2870.7	-0.76626	0.39645	-0.48917
2.27	66.466	-41474	2870.6	-0.76567	0.39626	-0.48898
2.272	66.467	-41476	2870.4	-0.76548	0.39538	-0.48859
2.274	66.47	-41476	2870.2	-0.76528	0.3945	-0.4882
2.276	66.464	-41475	2870.1	-0.76509	0.39362	-0.4878
2.278	66.459	-41475	2869.9	-0.76489	0.39274	-0.48741
2.28	66.461	-41476	2869.7	-0.7647	0.39186	-0.48702
2.282	66.459	-41476	2869.6	-0.76528	0.39323	-0.48761
2.284	66.46	-41476	2869.4	-0.76587	0.3946	-0.4882
2.286	66.461	-41476	2869.2	-0.76645	0.39596	-0.48878
2.288	66.464	-41476	2869.1	-0.76704	0.39733	-0.48937
2.29	66.466	-41475	2869	-0.76762	0.3987	-0.48995
2.292	66.463	-41473	2868.8	-0.76792	0.3987	-0.49005
2.294	66.471	-41472	2868.7	-0.76821	0.3987	-0.49015
2.296	66.478	-41470	2868.5	-0.7685	0.3987	-0.49024
2.298	66.483	-41472	2868.3	-0.7688	0.3987	-0.49034
2.3	66.489	-41477	2868.1	-0.76909	0.3987	-0.49044
2.302	66.492	-41481	2868	-0.7684	0.39762	-0.48956
2.304	66.486	-41483	2867.9	-0.76772	0.39655	-0.48868
2.306	66.481	-41483	2867.7	-0.76704	0.39548	-0.4878
2.308	66.481	-41480	2867.6	-0.76636	0.3944	-0.48693
2.31	66.483	-41479	2867.4	-0.76567	0.39333	-0.48605
2.312	66.471	-41480	2867.2	-0.76675	0.39411	-0.48576
2.314	66.468	-41481	2867	-0.76782	0.39489	-0.48546
2.316	66.47	-41483	2866.8	-0.76889	0.39567	-0.48517
2.318	66.462	-41485	2866.7	-0.76997	0.39645	-0.48488
2.32	66.457	-41487	2866.5	-0.77104	0.39723	-0.48458
2.322	66.451	-41486	2866.4	-0.77055	0.39772	-0.48605
2.324	66.443	-41484	2866.3	-0.77006	0.39821	-0.48751
2.326	66.45	-41482	2866.2	-0.76958	0.3987	-0.48898
2.328	66.469	-41480	2866.1	-0.76909	0.39918	-0.49044
2.33	66.477	-41480	2866	-0.7686	0.39967	-0.4919
2.332	66.474	-41481	2865.9	-0.7685	0.39918	-0.49103
2.334	66.484	-41481	2865.9	-0.7684	0.3987	-0.49015
2.336	66.502	-41479	2865.9	-0.76831	0.39821	-0.48927
2.338	66.501	-41478	2865.9	-0.76821	0.39772	-0.48839
2.34	66.487	-41478	2865.9	-0.76811	0.39723	-0.48751
2.342	66.47	-41479	2866.1	-0.76782	0.39723	-0.48751
2.344	66.451	-41482	2866.3	-0.76753	0.39723	-0.48751
2.346	66.43	-41484	2866.5	-0.76723	0.39723	-0.48751
2.348	66.413	-41483	2866.9	-0.76694	0.39723	-0.48751
2.35	66.406	-41483	2867.2	-0.76665	0.39723	-0.48751
2.352	66.414	-41484	2867.8	-0.76675	0.39772	-0.48839
2.354	66.422	-41483	2868.4	-0.76684	0.39821	-0.48927
2.356	66.419	-41480	2869.1	-0.76694	0.3987	-0.49015
2.358	66.414	-41482	2869.9	-0.76704	0.39918	-0.49103
2.36	66.411	-41489	2870.6	-0.76714	0.39967	-0.4919
2.362	66.409	-41493	2871.6	-0.76753	0.39938	-0.49103
2.364	66.402	-41495	2872.5	-0.76792	0.39909	-0.49015
2.366	66.395	-41494	2873.5	-0.76831	0.39879	-0.48927
2.368	66.393	-41490	2874.6	-0.7687	0.3985	-0.48839
2.37	66.401	-41489	2875.6	-0.76909	0.39821	-0.48751
2.372	66.402	-41489	2876.7	-0.76899	0.3986	-0.48859
2.374	66.393	-41489	2877.9	-0.76889	0.39899	-0.48966
2.376	66.388	-41488	2879	-0.7688	0.39938	-0.49073
2.378	66.381	-41488	2880.2	-0.7687	0.39977	-0.49181
2.38	66.367	-41487	2881.3	-0.7686	0.40016	-0.49288
2.382	66.362	-41484	2882.4	-0.76919	0.39996	-0.49249
2.384	66.358	-41479	2883.5	-0.76977	0.39977	-0.4921
2.386	66.348	-41477	2884.7	-0.77036	0.39957	-0.49171
2.388	66.342	-41476	2885.8	-0.77094	0.39938	-0.49132
2.39	66.332	-41477	2886.9	-0.77153	0.39918	-0.49093
2.392	66.317	-41478	2888	-0.77084	0.39879	-0.49103
2.394	66.309	-41478	2889	-0.77016	0.3984	-0.49112
2.396	66.311	-41476	2890	-0.76948	0.39801	-0.49122
2.398	66.326	-41475	2891	-0.7688	0.39762	-0.49132
2.4	66.337	-41475	2892	-0.76811	0.39723	-0.49142
2.402	66.328	-41477	2892.9	-0.76762	0.39655	-0.49044
2.404	66.322	-41481	2893.8	-0.76714	0.39587	-0.48946
2.406	66.318	-41481	2894.7	-0.76665	0.39518	-0.48849
2.408	66.304	-41479	2895.5	-0.76616	0.3945	-0.48751
2.41	66.298	-41475	2896.4	-0.76567	0.39382	-0.48654
2.412	66.302	-41469	2897.1	-0.76655	0.3944	-0.48683
2.414	66.305	-41468	2897.9	-0.76743	0.39499	-0.48712
2.416	66.301	-41472	2898.7	-0.76831	0.39557	-0.48741
2.418	66.299	-41473	2899.4	-0.76919	0.39616	-0.48771
2.42	66.297	-41471	2900.1	-0.77006	0.39674	-0.488
2.422	66.284	-41470	2900.7	-0.76928	0.39655	-0.4878
2.424	66.259	-41470	2901.4	-0.7685	0.39635	-0.48761
2.426	66.243	-41467	2902	-0.76772	0.39616	-0.48741
2.428	66.248	-41462	2902.5	-0.76694	0.39596	-0.48722
2.43	66.26	-41459	2903.1	-0.76616	0.39577	-0.48702
2.432	66.269	-41459	2903.6	-0.76567	0.39567	-0.4878
2.434	66.282	-41460	2904	-0.76518	0.39557	-0.48859
2.436	66.286	-41462	2904.5	-0.7647	0.39548	-0.48937
2.438	66.288	-41458	2904.8	-0.76421	0.39538	-0.49015
2.44	66.301	-41447	2905.2	-0.76372	0.39528	-0.49093
2.442	66.316	-41447	2905.6	-0.76352	0.39499	-0.49044
2.444	66.326	-41459	2906	-0.76333	0.39469	-0.48995
2.446	66.332	-41463	2906.3	-0.76313	0.3944	-0.48946
2.448	66.339	-41460	2906.6	-0.76294	0.39411	-0.48898
2.45	66.348	-41453	2906.9	-0.76274	0.39382	-0.48849
2.452	66.348	-41443	2907.2	-0.76382	0.3945	-0.48829
2.454	66.347	-41442	2907.5	-0.76489	0.39518	-0.4881
2.456	66.355	-41450	2907.8	-0.76596	0.39587	-0.4879
2.458	66.362	-41449	2908.1	-0.76704	0.39655	-0.48771
2.46	66.365	-41438	2908.4	-0.76811	0.39723	-0.48751
2.462	66.375	-41433	2908.6	-0.76762	0.39772	-0.48829
2.464	66.387	-41435	2908.9	-0.76714	0.39821	-0.48907
2.466	66.395	-41438	2909.1	-0.76665	0.3987	-0.48985
2.468	66.402	-41442	2909.2	-0.76616	0.39918	-0.49064
2.47	66.407	-41443	2909.4	-0.76567	0.39967	-0.49142
2.472	66.415	-41441	2909.5	-0.76587	0.39967	-0.49181
2.474	66.42	-41438	2909.7	-0.76606	0.39967	-0.4922
2.476	66.423	-41433	2909.8	-0.76626	0.39967	-0.49259
2.478	66.427	-41432	2910	-0.76645	0.39967	-0.49298
2.48	66.425	-41432	2910.1	-0.76665	0.39967	-0.49337
2.482	66.416	-41433	2910.2	-0.76675	0.39967	-0.49278
2.484	66.412	-41432	2910.4	-0.76684	0.39967	-0.4922
2.486	66.414	-41429	2910.5	-0.76694	0.39967	-0.49161
2.488	66.428	-41424	2910.6	-0.76704	0.39967	-0.49103
2.49	66.433	-41420	2910.7	-0.76714	0.39967	-0.49044
2.492	66.416	-41417	2910.8	-0.76684	0.39918	-0.49005
2.494	66.411	-41416	2910.9	-0.76655	0.3987	-0.48966
2.496	66.437	-41417	2911	-0.76626	0.39821	-0.48927
2.498	66.463	-41416	2911.2	-0.76596	0.39772	-0.48888
2.5	66.476	-41413	2911.3	-0.76567	0.39723	-0.48849
2.502	66.472	-41413	2911.5	-0.76626	0.39811	-0.48898
2.504	66.456	-41415	2911.6	-0.76684	0.39899	-0.48946
2.506	66.445	-41410	2911.7	-0.76743	0.39987	-0.48995
2.508	66.442	-41397	2911.9	-0.76801	0.40075	-0.49044
2.51	66.442	-41395	2912	-0.7686	0.40162	-0.49093
2.512	66.444	-41402	2912.1	-0.76919	0.40055	-0.49015
2.514	66.45	-41405	2912.2	-0.76977	0.39948	-0.48937
2.516	66.441	-41406	2912.3	-0.77036	0.3984	-0.48859
2.518	66.438	-41403	2912.4	-0.77094	0.39733	-0.4878
2.52	66.457	-41398	2912.6	-0.77153	0.39626	-0.48702
2.522	66.476	-41396	2912.7	-0.77104	0.39713	-0.48771
2.524	66.481	-41396	2912.8	-0.77055	0.39801	-0.48839
2.526	66.473	-41398	2913	-0.77006	0.39889	-0.48907
2.528	66.459	-41400	2913.1	-0.76958	0.39977	-0.48976
2.53	66.444	-41398	2913.2	-0.76909	0.40065	-0.49044
2.532	66.429	-41391	2913.3	-0.7684	0.39977	-0.49015
2.534	66.423	-41384	2913.3	-0.76772	0.39889	-0.48985
2.536	66.43	-41376	2913.4	-0.76704	0.39801	-0.48956
2.538	66.434	-41377	2913.5	-0.76636	0.39713	-0.48927
2.54	66.436	-41387	2913.6	-0.76567	0.39626	-0.48898
2.542	66.441	-41389	2913.7	-0.76509	0.39587	-0.48917
2.544	66.458	-41384	2913.8	-0.7645	0.39548	-0.48937
2.546	66.469	-41379	2913.9	-0.76392	0.39508	-0.48956
2.548	66.464	-41376	2913.9	-0.76333	0.39469	-0.48976
2.55	66.462	-41375	2913.9	-0.76274	0.3943	-0.48995
2.552	66.456	-41375	2913.9	-0.76421	0.39499	-0.48976
2.554	66.452	-41375	2913.9	-0.76567	0.39567	-0.48956
2.556	66.451	-41374	2913.9	-0.76714	0.39635	-0.48937
2.558	66.446	-41375	2913.8	-0.7686	0.39704	-0.48917
2.56	66.431	-41376	2913.7	-0.77006	0.39772	-0.48898
2.562	66.426	-41376	2913.6	-0.76958	0.39733	-0.48868
2.564	66.439	-41375	2913.5	-0.76909	0.39694	-0.48839
2.566	66.447	-41374	2913.4	-0.7686	0.39655	-0.4881
2.568	66.451	-41373	2913.2	-0.76811	0.39616	-0.4878
2.57	66.454	-41371	2913	-0.76762	0.39577	-0.48751
2.572	66.451	-41368	2912.8	-0.76694	0.39479	-0.4878
2.574	66.442	-41365	2912.6	-0.76626	0.39382	-0.4881
2.576	66.445	-41362	2912.3	-0.76557	0.39284	-0.48839
2.578	66.449	-41361	2912	-0.76489	0.39186	-0.48868
2.58	66.447	-41361	2911.8	-0.76421	0.39089	-0.48898
2.582	66.45	-41361	2911.5	-0.76499	0.39225	-0.48859
2.584	66.445	-41361	2911.1	-0.76577	0.39362	-0.4882
2.586	66.441	-41359	2910.8	-0.76655	0.39499	-0.4878
2.588	66.443	-41357	2910.5	-0.76733	0.39635	-0.48741
2.59	66.448	-41357	2910.1	-0.76811	0.39772	-0.48702
2.592	66.45	-41360	2909.8	-0.76792	0.39723	-0.48732
2.594	66.456	-41361	2909.5	-0.76772	0.39674	-0.48761
2.596	66.469	-41359	2909.2	-0.76753	0.39626	-0.4879
2.598	66.468	-41357	2908.9	-0.76733	0.39577	-0.4882
2.6	66.462	-41357	2908.6	-0.76714	0.39528	-0.48849
2.602	66.469	-41356	2908.3	-0.76792	0.39538	-0.4882
2.604	66.47	-41353	2908	-0.7687	0.39548	-0.4879
2.606	66.455	-41354	2907.7	-0.76948	0.39557	-0.48761
2.608	66.432	-41357	2907.4	-0.77026	0.39567	-0.48732
2.61	66.414	-41357	2907.1	-0.77104	0.39577	-0.48702
2.612	66.416	-41354	2906.8	-0.77045	0.39626	-0.48702
2.614	66.435	-41349	2906.6	-0.76987	0.39674	-0.48702
2.616	66.452	-41342	2906.3	-0.76928	0.39723	-0.48702
2.618	66.461	-41339	2906.1	-0.7687	0.39772	-0.48702
2.62	66.47	-41339	2905.8	-0.76811	0.39821	-0.48702
2.622	66.476	-41340	2905.6	-0.76801	0.39821	-0.48741
2.624	66.472	-41341	2905.4	-0.76792	0.39821	-0.4878
2.626	66.456	-41340	2905.2	-0.76782	0.39821	-0.4882
2.628	66.438	-41337	2905	-0.76772	0.39821	-0.48859
2.63	66.427	-41338	2904.8	-0.76762	0.39821	-0.48898
2.632	66.418	-41343	2904.7	-0.76801	0.39782	-0.48839
2.634	66.424	-41344	2904.5	-0.7684	0.39743	-0.4878
2.636	66.445	-41341	2904.4	-0.7688	0.39704	-0.48722
2.638	66.478	-41340	2904.3	-0.76919	0.39665	-0.48663
2.64	66.491	-41342	2904.1	-0.76958	0.39626	-0.48605
2.642	66.48	-41342	2904	-0.76928	0.39655	-0.48722
2.644	66.457	-41339	2903.9	-0.76899	0.39684	-0.48839
2.646	66.445	-41340	2903.8	-0.7687	0.39713	-0.48956
2.648	66.443	-41345	2903.7	-0.7684	0.39743	-0.49073
2.65	66.451	-41346	2903.6	-0.76811	0.39772	-0.4919
2.652	66.455	-41342	2903.6	-0.76801	0.39752	-0.49142
2.654	66.451	-41341	2903.5	-0.76792	0.39733	-0.49093
2.656	66.442	-41343	2903.5	-0.76782	0.39713	-0.49044
2.658	66.443	-41344	2903.5	-0.76772	0.39694	-0.48995
2.66	66.453	-41344	2903.4	-0.76762	0.39674	-0.48946
2.662	66.453	-41344	2903.4	-0.76753	0.39684	-0.48985
2.664	66.468	-41342	2903.3	-0.76743	0.39694	-0.49024
2.666	66.484	-41340	2903.3	-0.76733	0.39704	-0.49064
2.668	66.48	-41337	2903.3	-0.76723	0.39713	-0.49103
2.67	66.465	-41337	2903.3	-0.76714	0.39723	-0.49142
2.672	66.453	-41338	2903.2	-0.76782	0.39694	-0.49034
2.674	66.451	-41337	2903.2	-0.7685	0.39665	-0.48927
2.676	66.455	-41336	2903.1	-0.76919	0.39635	-0.4882
2.678	66.459	-41335	2903.1	-0.76987	0.39606	-0.48712
2.68	66.471	-41335	2903.1	-0.77055	0.39577	-0.48605
2.682	66.477	-41337	2903	-0.77084	0.39567	-0.48654
2.684	66.475	-41341	2903	-0.77114	0.39557	-0.48702
2.686	66.469	-41342	2902.9	-0.77143	0.39548	-0.48751
2.688	66.467	-41339	2902.9	-0.77172	0.39538	-0.488
2.69	66.466	-41337	2902.9	-0.77202	0.39528	-0.48849
2.692	66.46	-41338	2902.9	-0.77163	0.39567	-0.48859
2.694	66.452	-41335	2902.8	-0.77124	0.39606	-0.48868
2.696	66.45	-41331	2902.8	-0.77084	0.39645	-0.48878
2.698	66.454	-41331	2902.7	-0.77045	0.39684	-0.48888
2.7	66.462	-41336	2902.6	-0.77006	0.39723	-0.48898
2.702	66.473	-41336	2902.5	-0.76899	0.39567	-0.48927
2.704	66.484	-41331	2902.5	-0.76792	0.39411	-0.48956
2.706	66.482	-41330	2902.4	-0.76684	0.39255	-0.48985
2.708	66.472	-41331	2902.3	-0.76577	0.39099	-0.49015
2.71	66.465	-41333	2902.2	-0.7647	0.38942	-0.49044
2.712	66.46	-41337	2902.1	-0.76538	0.39099	-0.49044
2.714	66.449	-41340	2902	-0.76606	0.39255	-0.49044
2.716	66.438	-41341	2901.9	-0.76675	0.39411	-0.49044
2.718	66.438	-41341	2901.9	-0.76743	0.39567	-0.49044
2.72	66.457	-41340	2901.8	-0.76811	0.39723	-0.49044
2.722	66.469	-41338	2901.7	-0.76792	0.39792	-0.49083
2.724	66.476	-41335	2901.6	-0.76772	0.3986	-0.49122
2.726	66.494	-41332	2901.5	-0.76753	0.39928	-0.49161
2.728	66.498	-41328	2901.4	-0.76733	0.39996	-0.492
2.73	66.475	-41327	2901.3	-0.76714	0.40065	-0.49239
2.732	66.453	-41330	2901.3	-0.76684	0.39967	-0.49239
2.734	66.444	-41333	2901.2	-0.76655	0.3987	-0.49239
2.736	66.452	-41337	2901.1	-0.76626	0.39772	-0.49239
2.738	66.464	-41340	2900.9	-0.76596	0.39674	-0.49239
2.74	66.471	-41341	2900.8	-0.76567	0.39577	-0.49239
2.742	66.491	-41341	2900.7	-0.76577	0.39596	-0.4921
2.744	66.498	-41340	2900.6	-0.76587	0.39616	-0.49181
2.746	66.489	-41338	2900.5	-0.76596	0.39635	-0.49151
2.748	66.492	-41335	2900.4	-0.76606	0.39655	-0.49122
2.75	66.491	-41333	2900.3	-0.76616	0.39674	-0.49093
2.752	66.48	-41331	2900.1	-0.76684	0.39626	-0.48976
2.754	66.463	-41332	2900	-0.76753	0.39577	-0.48859
2.756	66.447	-41334	2899.8	-0.76821	0.39528	-0.48741
2.758	66.445	-41335	2899.7	-0.76889	0.39479	-0.48624
2.76	66.453	-41336	2899.5	-0.76958	0.3943	-0.48507
2.762	66.454	-41335	2899.3	-0.7687	0.39469	-0.48624
2.764	66.453	-41332	2899.2	-0.76782	0.39508	-0.48741
2.766	66.456	-41331	2899	-0.76694	0.39548	-0.48859
2.768	66.452	-41329	2898.8	-0.76606	0.39587	-0.48976
2.77	66.449	-41329	2898.6	-0.76518	0.39626	-0.49093
2.772	66.446	-41329	2898.4	-0.76606	0.39645	-0.49024
2.774	66.447	-41330	2898.3	-0.76694	0.39665	-0.48956
2.776	66.447	-41331	2898.1	-0.76782	0.39684	-0.48888
2.778	66.441	-41331	2897.9	-0.7687	0.39704	-0.4882
2.78	66.438	-41332	2897.7	-0.76958	0.39723	-0.48751
2.782	66.439	-41331	2897.5	-0.76928	0.39782	-0.4881
2.784	66.437	-41330	2897.3	-0.76899	0.3984	-0.48868
2.786	66.427	-41329	2897.1	-0.7687	0.39899	-0.48927
2.788	66.404	-41329	2896.9	-0.7684	0.39957	-0.48985
2.79	66.373	-41329	2896.7	-0.76811	0.40016	-0.49044
2.792	66.347	-41330	2896.4	-0.76821	0.39938	-0.48927
2.794	66.341	-41330	2896.2	-0.76831	0.3986	-0.4881
2.796	66.343	-41329	2896	-0.7684	0.39782	-0.48693
2.798	66.351	-41328	2895.8	-0.7685	0.39704	-0.48576
2.8	66.374	-41328	2895.6	-0.7686	0.39626	-0.48458
2.802	66.402	-41332	2895.4	-0.7684	0.39635	-0.48488
2.804	66.43	-41340	2895.1	-0.76821	0.39645	-0.48517
2.806	66.44	-41342	2894.9	-0.76801	0.39655	-0.48546
2.808	66.432	-41337	2894.7	-0.76782	0.39665	-0.48576
2.81	66.433	-41332	2894.5	-0.76762	0.39674	-0.48605
2.812	66.436	-41328	2894.3	-0.76831	0.39743	-0.48663
2.814	66.433	-41327	2894.1	-0.76899	0.39811	-0.48722
2.816	66.432	-41328	2893.8	-0.76967	0.39879	-0.4878
2.818	66.434	-41328	2893.6	-0.77036	0.39948	-0.48839
2.82	66.444	-41325	2893.4	-0.77104	0.40016	-0.48898
2.822	66.47	-41323	2893.2	-0.77065	0.39957	-0.48878
2.824	66.494	-41323	2893	-0.77026	0.39899	-0.48859
2.826	66.503	-41324	2892.8	-0.76987	0.3984	-0.48839
2.828	66.492	-41327	2892.6	-0.76948	0.39782	-0.4882
2.83	66.486	-41330	2892.4	-0.76909	0.39723	-0.488
2.832	66.488	-41334	2892.3	-0.76919	0.39792	-0.48859
2.834	66.494	-41336	2892.1	-0.76928	0.3986	-0.48917
2.836	66.483	-41336	2891.9	-0.76938	0.39928	-0.48976
2.838	66.475	-41335	2891.7	-0.76948	0.39996	-0.49034
2.84	66.475	-41332	2891.6	-0.76958	0.40065	-0.49093
2.842	66.47	-41331	2891.4	-0.76909	0.39996	-0.49112
2.844	66.474	-41333	2891.3	-0.7686	0.39928	-0.49132
2.846	66.484	-41332	2891.1	-0.76811	0.3986	-0.49151
2.848	66.495	-41327	2891	-0.76762	0.39792	-0.49171
2.85	66.499	-41327	2890.8	-0.76714	0.39723	-0.4919
2.852	66.5	-41330	2890.7	-0.76733	0.39752	-0.49181
2.854	66.505	-41331	2890.5	-0.76753	0.39782	-0.49171
2.856	66.512	-41331	2890.4	-0.76772	0.39811	-0.49161
2.858	66.515	-41331	2890.2	-0.76792	0.3984	-0.49151
2.86	66.51	-41332	2890	-0.76811	0.3987	-0.49142
2.862	66.502	-41334	2889.9	-0.76762	0.39792	-0.49112
2.864	66.499	-41339	2889.8	-0.76714	0.39713	-0.49083
2.866	66.496	-41337	2889.6	-0.76665	0.39635	-0.49054
2.868	66.489	-41331	2889.4	-0.76616	0.39557	-0.49024
2.87	66.481	-41329	2889.2	-0.76567	0.39479	-0.48995
2.872	66.487	-41330	2889.1	-0.76684	0.39577	-0.49054
2.874	66.513	-41332	2888.9	-0.76801	0.39674	-0.49112
2.876	66.529	-41334	2888.7	-0.76919	0.39772	-0.49171
2.878	66.523	-41334	2888.6	-0.77036	0.3987	-0.49229
2.88	66.514	-41332	2888.5	-0.77153	0.39967	-0.49288
2.882	66.504	-41332	2888.3	-0.76997	0.3986	-0.49239
2.884	66.493	-41333	2888.2	-0.7684	0.39752	-0.4919
2.886	66.489	-41334	2888.1	-0.76684	0.39645	-0.49142
2.888	66.482	-41332	2887.9	-0.76528	0.39538	-0.49093
2.89	66.476	-41333	2887.8	-0.76372	0.3943	-0.49044
2.892	66.483	-41337	2887.6	-0.76392	0.39391	-0.49044
2.894	66.484	-41336	2887.4	-0.76411	0.39352	-0.49044
2.896	66.479	-41331	2887.3	-0.76431	0.39313	-0.49044
2.898	66.484	-41331	2887.1	-0.7645	0.39274	-0.49044
2.9	66.509	-41337	2887	-0.7647	0.39235	-0.49044
2.902	66.531	-41339	2886.9	-0.76538	0.39333	-0.48985
2.904	66.532	-41338	2886.7	-0.76606	0.3943	-0.48927
2.906	66.533	-41335	2886.6	-0.76675	0.39528	-0.48868
2.908	66.544	-41332	2886.4	-0.76743	0.39626	-0.4881
2.91	66.543	-41330	2886.2	-0.76811	0.39723	-0.48751
2.912	66.534	-41329	2886.1	-0.76792	0.39694	-0.48761
2.914	66.535	-41331	2886	-0.76772	0.39665	-0.48771
2.916	66.527	-41336	2885.9	-0.76753	0.39635	-0.4878
2.918	66.531	-41341	2885.7	-0.76733	0.39606	-0.4879
2.92	66.538	-41344	2885.6	-0.76714	0.39577	-0.488
2.922	66.521	-41345	2885.5	-0.76733	0.39596	-0.48829
2.924	66.499	-41346	2885.3	-0.76753	0.39616	-0.48859
2.926	66.47	-41343	2885.2	-0.76772	0.39635	-0.48888
2.928	66.426	-41335	2885.1	-0.76792	0.39655	-0.48917
2.93	66.372	-41331	2885	-0.76811	0.39674	-0.48946
2.932	66.304	-41331	2884.9	-0.76811	0.39665	-0.48907
2.934	66.183	-41334	2884.7	-0.76811	0.39655	-0.48868
2.936	66.01	-41340	2884.6	-0.76811	0.39645	-0.48829
2.938	65.827	-41342	2884.4	-0.76811	0.39635	-0.4879
2.94	65.661	-41341	2884.3	-0.76811	0.39626	-0.48751
2.942	65.539	-41341	2884.2	-0.7685	0.39665	-0.48829
2.944	65.477	-41341	2884	-0.76889	0.39704	-0.48907
2.946	65.478	-41341	2883.8	-0.76928	0.39743	-0.48985
2.948	65.562	-41340	2883.7	-0.76967	0.39782	-0.49064
2.95	65.723	-41341	2883.5	-0.77006	0.39821	-0.49142
2.952	65.92	-41342	2883.3	-0.76997	0.39801	-0.49122
2.954	66.114	-41342	2883.2	-0.76987	0.39782	-0.49103
2.956	66.251	-41341	2883	-0.76977	0.39762	-0.49083
2.958	66.311	-41344	2882.8	-0.76967	0.39743	-0.49064
2.96	66.332	-41353	2882.6	-0.76958	0.39723	-0.49044
2.962	66.348	-41358	2882.5	-0.7686	0.39606	-0.48995
2.964	66.369	-41359	2882.3	-0.76762	0.39489	-0.48946
2.966	66.385	-41357	2882.1	-0.76665	0.39372	-0.48898
2.968	66.398	-41352	2882	-0.76567	0.39255	-0.48849
2.97	66.422	-41347	2881.8	-0.7647	0.39138	-0.488
2.972	66.455	-41343	2881.6	-0.76596	0.39274	-0.488
2.974	66.486	-41343	2881.4	-0.76723	0.39411	-0.488
2.976	66.503	-41345	2881.2	-0.7685	0.39548	-0.488
2.978	66.513	-41347	2880.9	-0.76977	0.39684	-0.488
2.98	66.515	-41349	2880.7	-0.77104	0.39821	-0.488
2.982	66.518	-41351	2880.5	-0.77006	0.39723	-0.48722
2.984	66.523	-41353	2880.3	-0.76909	0.39626	-0.48644
2.986	66.531	-41351	2880.1	-0.76811	0.39528	-0.48566
2.988	66.537	-41345	2879.9	-0.76714	0.3943	-0.48488
2.99	66.533	-41344	2879.7	-0.76616	0.39333	-0.4841
2.992	66.526	-41347	2879.5	-0.76587	0.39372	-0.4841
2.994	66.525	-41349	2879.3	-0.76557	0.39411	-0.4841
2.996	66.529	-41348	2879.1	-0.76528	0.3945	-0.4841
2.998	66.539	-41348	2879	-0.76499	0.39489	-0.4841
3	66.557	-41347	2878.8	-0.7647	0.39528	-0.4841
3.002	66.556	-41345	2878.6	-0.76548	0.39469	-0.48439
3.004	66.546	-41344	2878.4	-0.76626	0.39411	-0.48468
3.006	66.546	-41344	2878.2	-0.76704	0.39352	-0.48497
3.008	66.547	-41343	2878.1	-0.76782	0.39294	-0.48527
3.01	66.539	-41343	2877.9	-0.7686	0.39235	-0.48556
3.012	66.53	-41342	2877.8	-0.7685	0.39304	-0.48595
3.014	66.518	-41345	2877.6	-0.7684	0.39372	-0.48634
3.016	66.509	-41352	2877.5	-0.76831	0.3944	-0.48673
3.018	66.51	-41353	2877.3	-0.76821	0.39508	-0.48712
3.02	66.526	-41348	2877.2	-0.76811	0.39577	-0.48751
3.022	66.538	-41349	2877	-0.76733	0.39587	-0.4878
3.024	66.528	-41354	2876.9	-0.76655	0.39596	-0.4881
3.026	66.516	-41356	2876.7	-0.76577	0.39606	-0.48839
3.028	66.509	-41353	2876.6	-0.76499	0.39616	-0.48868
3.03	66.505	-41352	2876.5	-0.76421	0.39626	-0.48898
3.032	66.516	-41355	2876.4	-0.7646	0.39577	-0.48878
3.034	66.524	-41357	2876.2	-0.76499	0.39528	-0.48859
3.036	66.517	-41361	2876.1	-0.76538	0.39479	-0.48839
3.038	66.513	-41357	2875.9	-0.76577	0.3943	-0.4882
3.04	66.52	-41346	2875.8	-0.76616	0.39382	-0.488
3.042	66.524	-41341	2875.7	-0.76577	0.39372	-0.48849
3.044	66.518	-41344	2875.6	-0.76538	0.39362	-0.48898
3.046	66.508	-41346	2875.5	-0.76499	0.39352	-0.48946
3.048	66.495	-41349	2875.3	-0.7646	0.39343	-0.48995
3.05	66.487	-41352	2875.2	-0.76421	0.39333	-0.49044
3.052	66.488	-41356	2875.1	-0.76509	0.39479	-0.49054
3.054	66.497	-41355	2875	-0.76596	0.39626	-0.49064
3.056	66.506	-41350	2874.9	-0.76684	0.39772	-0.49073
3.058	66.511	-41347	2874.8	-0.76772	0.39918	-0.49083
3.06	66.521	-41347	2874.7	-0.7686	0.40065	-0.49093
3.062	66.53	-41347	2874.5	-0.76889	0.39987	-0.49083
3.064	66.527	-41348	2874.3	-0.76919	0.39909	-0.49073
3.066	66.517	-41350	2874.2	-0.76948	0.39831	-0.49064
3.068	66.511	-41354	2874	-0.76977	0.39752	-0.49054
3.07	66.506	-41356	2873.9	-0.77006	0.39674	-0.49044
3.072	66.5	-41357	2873.7	-0.76997	0.39626	-0.48946
3.074	66.498	-41356	2873.6	-0.76987	0.39577	-0.48849
3.076	66.496	-41355	2873.5	-0.76977	0.39528	-0.48751
3.078	66.502	-41355	2873.3	-0.76967	0.39479	-0.48654
3.08	66.516	-41354	2873.2	-0.76958	0.3943	-0.48556
3.082	66.522	-41356	2873	-0.76977	0.3946	-0.48576
3.084	66.534	-41359	2872.9	-0.76997	0.39489	-0.48595
3.086	66.542	-41359	2872.7	-0.77016	0.39518	-0.48615
3.088	66.536	-41356	2872.6	-0.77036	0.39548	-0.48634
3.09	66.526	-41356	2872.4	-0.77055	0.39577	-0.48654
3.092	66.508	-41360	2872.3	-0.76997	0.39567	-0.48624
3.094	66.498	-41363	2872.1	-0.76938	0.39557	-0.48595
3.096	66.495	-41365	2872	-0.7688	0.39548	-0.48566
3.098	66.497	-41363	2871.9	-0.76821	0.39538	-0.48536
3.1	66.499	-41358	2871.8	-0.76762	0.39528	-0.48507
3.102	66.504	-41356	2871.7	-0.76762	0.39489	-0.48527
3.104	66.504	-41358	2871.6	-0.76762	0.3945	-0.48546
3.106	66.496	-41357	2871.6	-0.76762	0.39411	-0.48566
3.108	66.491	-41355	2871.6	-0.76762	0.39372	-0.48585
3.11	66.483	-41356	2871.6	-0.76762	0.39333	-0.48605
3.112	66.475	-41361	2871.7	-0.76723	0.39294	-0.48595
3.114	66.471	-41364	2871.8	-0.76684	0.39255	-0.48585
3.116	66.466	-41366	2871.9	-0.76645	0.39216	-0.48576
3.118	66.465	-41366	2872.1	-0.76606	0.39177	-0.48566
3.12	66.467	-41364	2872.4	-0.76567	0.39138	-0.48556
3.122	66.474	-41365	2872.8	-0.76606	0.39206	-0.48517
3.124	66.484	-41369	2873.2	-0.76645	0.39274	-0.48478
3.126	66.476	-41369	2873.7	-0.76684	0.39343	-0.48439
3.128	66.45	-41366	2874.3	-0.76723	0.39411	-0.484
3.13	66.433	-41363	2874.9	-0.76762	0.39479	-0.48361
3.132	66.433	-41358	2875.7	-0.76753	0.39518	-0.48478
3.134	66.436	-41356	2876.5	-0.76743	0.39557	-0.48595
3.136	66.433	-41357	2877.4	-0.76733	0.39596	-0.48712
3.138	66.426	-41359	2878.3	-0.76723	0.39635	-0.48829
3.14	66.426	-41362	2879.2	-0.76714	0.39674	-0.48946
3.142	66.432	-41362	2880.3	-0.76762	0.39694	-0.48956
3.144	66.429	-41359	2881.3	-0.76811	0.39713	-0.48966
3.146	66.412	-41357	2882.4	-0.7686	0.39733	-0.48976
3.148	66.398	-41355	2883.4	-0.76909	0.39752	-0.48985
3.15	66.39	-41357	2884.5	-0.76958	0.39772	-0.48995
3.152	66.396	-41362	2885.6	-0.76919	0.39694	-0.48907
3.154	66.397	-41364	2886.6	-0.7688	0.39616	-0.4882
3.156	66.391	-41362	2887.7	-0.7684	0.39538	-0.48732
3.158	66.38	-41361	2888.7	-0.76801	0.3946	-0.48644
3.16	66.366	-41360	2889.8	-0.76762	0.39382	-0.48556
3.162	66.349	-41359	2890.8	-0.76557	0.39411	-0.48644
3.164	66.343	-41359	2891.9	-0.76352	0.3944	-0.48732
3.166	66.338	-41360	2892.9	-0.76148	0.39469	-0.4882
3.168	66.336	-41361	2893.8	-0.75943	0.39499	-0.48907
3.17	66.343	-41361	2894.8	-0.75738	0.39528	-0.48995
3.172	66.353	-41360	2895.7	-0.75962	0.39587	-0.49054
3.174	66.365	-41360	2896.6	-0.76187	0.39645	-0.49112
3.176	66.367	-41360	2897.5	-0.76411	0.39704	-0.49171
3.178	66.351	-41361	2898.4	-0.76636	0.39762	-0.49229
3.18	66.332	-41364	2899.2	-0.7686	0.39821	-0.49288
3.182	66.315	-41364	2900	-0.76909	0.39782	-0.49132
3.184	66.306	-41361	2900.7	-0.76958	0.39743	-0.48976
3.186	66.298	-41356	2901.4	-0.77006	0.39704	-0.4882
3.188	66.3	-41350	2902.2	-0.77055	0.39665	-0.48663
3.19	66.321	-41344	2902.9	-0.77104	0.39626	-0.48507
3.192	66.34	-41337	2903.5	-0.77016	0.39635	-0.48566
3.194	66.338	-41337	2904.1	-0.76928	0.39645	-0.48624
3.196	66.324	-41342	2904.7	-0.7684	0.39655	-0.48683
3.198	66.321	-41345	2905.3	-0.76753	0.39665	-0.48741
3.2	66.324	-41345	2905.8	-0.76665	0.39674	-0.488
3.202	66.327	-41343	2906.3	-0.76655	0.39665	-0.48761
3.204	66.337	-41338	2906.8	-0.76645	0.39655	-0.48722
3.206	66.346	-41335	2907.2	-0.76636	0.39645	-0.48683
3.208	66.349	-41336	2907.7	-0.76626	0.39635	-0.48644
3.21	66.357	-41335	2908.2	-0.76616	0.39626	-0.48605
3.212	66.368	-41331	2908.6	-0.76655	0.39684	-0.48683
3.214	66.37	-41331	2909	-0.76694	0.39743	-0.48761
3.216	66.368	-41335	2909.4	-0.76733	0.39801	-0.48839
3.218	66.379	-41339	2909.7	-0.76772	0.3986	-0.48917
3.22	66.393	-41344	2910.1	-0.76811	0.39918	-0.48995
3.222	66.398	-41344	2910.4	-0.76684	0.3987	-0.48995
3.224	66.4	-41341	2910.8	-0.76557	0.39821	-0.48995
3.226	66.405	-41340	2911.1	-0.76431	0.39772	-0.48995
3.228	66.411	-41342	2911.4	-0.76304	0.39723	-0.48995
3.23	66.422	-41344	2911.7	-0.76177	0.39674	-0.48995
3.232	66.44	-41345	2912	-0.76284	0.39743	-0.49044
3.234	66.449	-41345	2912.3	-0.76392	0.39811	-0.49093
3.236	66.441	-41345	2912.5	-0.76499	0.39879	-0.49142
3.238	66.432	-41345	2912.8	-0.76606	0.39948	-0.4919
3.24	66.442	-41343	2913	-0.76714	0.40016	-0.49239
3.242	66.455	-41339	2913.2	-0.76831	0.40006	-0.49161
3.244	66.462	-41331	2913.4	-0.76948	0.39996	-0.49083
3.246	66.464	-41322	2913.6	-0.77065	0.39987	-0.49005
3.248	66.466	-41312	2913.8	-0.77182	0.39977	-0.48927
3.25	66.472	-41306	2914	-0.77299	0.39967	-0.48849
3.252	66.466	-41305	2914.1	-0.77182	0.40006	-0.48898
3.254	66.458	-41305	2914.3	-0.77065	0.40045	-0.48946
3.256	66.454	-41305	2914.4	-0.76948	0.40084	-0.48995
3.258	66.463	-41304	2914.6	-0.76831	0.40123	-0.49044
3.26	66.466	-41302	2914.7	-0.76714	0.40162	-0.49093
3.262	66.462	-41301	2914.9	-0.76743	0.40104	-0.49024
3.264	66.451	-41299	2915	-0.76772	0.40045	-0.48956
3.266	66.446	-41298	2915.2	-0.76801	0.39987	-0.48888
3.268	66.445	-41296	2915.3	-0.76831	0.39928	-0.4882
3.27	66.456	-41295	2915.4	-0.7686	0.3987	-0.48751
3.272	66.469	-41295	2915.6	-0.76782	0.39899	-0.48888
3.274	66.489	-41295	2915.7	-0.76704	0.39928	-0.49024
3.276	66.502	-41293	2915.8	-0.76626	0.39957	-0.49161
3.278	66.498	-41291	2915.9	-0.76548	0.39987	-0.49298
3.28	66.488	-41287	2916.1	-0.7647	0.40016	-0.49434
3.282	66.483	-41282	2916.2	-0.76518	0.39967	-0.49249
3.284	66.48	-41277	2916.3	-0.76567	0.39918	-0.49064
3.286	66.491	-41274	2916.4	-0.76616	0.3987	-0.48878
3.288	66.507	-41273	2916.5	-0.76665	0.39821	-0.48693
3.29	66.509	-41273	2916.7	-0.76714	0.39772	-0.48507
3.292	66.497	-41273	2916.8	-0.76743	0.39772	-0.48556
3.294	66.487	-41276	2916.9	-0.76772	0.39772	-0.48605
3.296	66.482	-41282	2917	-0.76801	0.39772	-0.48654
3.298	66.476	-41285	2917.1	-0.76831	0.39772	-0.48702
3.3	66.47	-41284	2917.2	-0.7686	0.39772	-0.48751
3.302	66.47	-41281	2917.4	-0.76743	0.39684	-0.48849
3.304	66.481	-41275	2917.6	-0.76626	0.39596	-0.48946
3.306	66.497	-41271	2917.7	-0.76509	0.39508	-0.49044
3.308	66.5	-41270	2917.9	-0.76392	0.39421	-0.49142
3.31	66.493	-41269	2918	-0.76274	0.39333	-0.49239
3.312	66.48	-41268	2918.1	-0.76313	0.39313	-0.49142
3.314	66.48	-41266	2918.3	-0.76352	0.39294	-0.49044
3.316	66.497	-41264	2918.4	-0.76392	0.39274	-0.48946
3.318	66.517	-41265	2918.5	-0.76431	0.39255	-0.48849
3.32	66.523	-41268	2918.6	-0.7647	0.39235	-0.48751
3.322	66.508	-41270	2918.6	-0.76577	0.39391	-0.48839
3.324	66.493	-41271	2918.7	-0.76684	0.39548	-0.48927
3.326	66.488	-41271	2918.8	-0.76792	0.39704	-0.49015
3.328	66.492	-41269	2918.8	-0.76899	0.3986	-0.49103
3.33	66.483	-41266	2918.8	-0.77006	0.40016	-0.4919
3.332	66.47	-41263	2918.7	-0.76977	0.39957	-0.49054
3.334	66.471	-41260	2918.7	-0.76948	0.39899	-0.48917
3.336	66.475	-41260	2918.6	-0.76919	0.3984	-0.4878
3.338	66.479	-41257	2918.5	-0.76889	0.39782	-0.48644
3.34	66.486	-41251	2918.4	-0.7686	0.39723	-0.48507
3.342	66.49	-41247	2918.1	-0.76743	0.39645	-0.48634
3.344	66.493	-41245	2917.9	-0.76626	0.39567	-0.48761
3.346	66.492	-41244	2917.7	-0.76509	0.39489	-0.48888
3.348	66.492	-41243	2917.5	-0.76392	0.39411	-0.49015
3.35	66.498	-41242	2917.3	-0.76274	0.39333	-0.49142
3.352	66.488	-41240	2917	-0.76274	0.39372	-0.49132
3.354	66.477	-41238	2916.7	-0.76274	0.39411	-0.49122
3.356	66.478	-41237	2916.4	-0.76274	0.3945	-0.49112
3.358	66.477	-41236	2916.1	-0.76274	0.39489	-0.49103
3.36	66.476	-41236	2915.7	-0.76274	0.39528	-0.49093
3.362	66.468	-41238	2915.5	-0.76421	0.39557	-0.49015
3.364	66.46	-41241	2915.2	-0.76567	0.39587	-0.48937
3.366	66.464	-41240	2914.9	-0.76714	0.39616	-0.48859
3.368	66.48	-41235	2914.6	-0.7686	0.39645	-0.4878
3.37	66.487	-41231	2914.2	-0.77006	0.39674	-0.48702
3.372	66.485	-41230	2913.9	-0.76899	0.39645	-0.48654
3.374	66.49	-41231	2913.5	-0.76792	0.39616	-0.48605
3.376	66.499	-41232	2913.2	-0.76684	0.39587	-0.48556
3.378	66.501	-41233	2912.9	-0.76577	0.39557	-0.48507
3.38	66.505	-41233	2912.6	-0.7647	0.39528	-0.48458
3.382	66.515	-41231	2912.3	-0.76538	0.39548	-0.48449
3.384	66.52	-41228	2912	-0.76606	0.39567	-0.48439
3.386	66.521	-41227	2911.7	-0.76675	0.39587	-0.48429
3.388	66.518	-41226	2911.5	-0.76743	0.39606	-0.48419
3.39	66.506	-41227	2911.2	-0.76811	0.39626	-0.4841
3.392	66.492	-41228	2911	-0.76782	0.39508	-0.48449
3.394	66.486	-41226	2910.7	-0.76753	0.39391	-0.48488
3.396	66.48	-41223	2910.5	-0.76723	0.39274	-0.48527
3.398	66.478	-41222	2910.3	-0.76694	0.39157	-0.48566
3.4	66.479	-41223	2910.1	-0.76665	0.3904	-0.48605
3.402	66.485	-41223	2909.9	-0.76675	0.39186	-0.48663
3.404	66.493	-41222	2909.7	-0.76684	0.39333	-0.48722
3.406	66.496	-41222	2909.5	-0.76694	0.39479	-0.4878
3.408	66.49	-41223	2909.4	-0.76704	0.39626	-0.48839
3.41	66.485	-41223	2909.3	-0.76714	0.39772	-0.48898
3.412	66.489	-41224	2909.2	-0.76772	0.39782	-0.48888
3.414	66.487	-41223	2909.1	-0.76831	0.39792	-0.48878
3.416	66.486	-41222	2909.1	-0.76889	0.39801	-0.48868
3.418	66.495	-41220	2909	-0.76948	0.39811	-0.48859
3.42	66.505	-41218	2908.9	-0.77006	0.39821	-0.48849
3.422	66.505	-41217	2908.9	-0.77045	0.39752	-0.4879
3.424	66.494	-41216	2908.9	-0.77084	0.39684	-0.48732
3.426	66.493	-41215	2908.9	-0.77124	0.39616	-0.48673
3.428	66.506	-41214	2908.9	-0.77163	0.39548	-0.48615
3.43	66.509	-41213	2908.8	-0.77202	0.39479	-0.48556
3.432	66.489	-41214	2908.8	-0.77065	0.39421	-0.48536
3.434	66.478	-41214	2908.8	-0.76928	0.39362	-0.48517
3.436	66.483	-41213	2908.8	-0.76792	0.39304	-0.48497
3.438	66.486	-41212	2908.8	-0.76655	0.39245	-0.48478
3.44	66.489	-41210	2908.8	-0.76518	0.39186	-0.48458
3.442	66.487	-41211	2908.8	-0.76606	0.39352	-0.48517
3.444	66.49	-41214	2908.7	-0.76694	0.39518	-0.48576
3.446	66.502	-41216	2908.7	-0.76782	0.39684	-0.48634
3.448	66.511	-41215	2908.7	-0.7687	0.3985	-0.48693
3.45	66.499	-41214	2908.7	-0.76958	0.40016	-0.48751
3.452	66.485	-41212	2908.7	-0.76967	0.39918	-0.48761
3.454	66.481	-41209	2908.7	-0.76977	0.39821	-0.48771
3.456	66.477	-41206	2908.6	-0.76987	0.39723	-0.4878
3.458	66.478	-41208	2908.6	-0.76997	0.39626	-0.4879
3.46	66.485	-41217	2908.5	-0.77006	0.39528	-0.488
3.462	66.496	-41219	2908.5	-0.76958	0.39567	-0.48868
3.464	66.498	-41214	2908.4	-0.76909	0.39606	-0.48937
3.466	66.492	-41214	2908.4	-0.7686	0.39645	-0.49005
3.468	66.487	-41217	2908.3	-0.76811	0.39684	-0.49073
3.47	66.483	-41217	2908.3	-0.76762	0.39723	-0.49142
3.472	66.483	-41215	2908.2	-0.76811	0.39762	-0.49103
3.474	66.484	-41216	2908.1	-0.7686	0.39801	-0.49064
3.476	66.488	-41220	2908.1	-0.76909	0.3984	-0.49024
3.478	66.497	-41221	2908	-0.76958	0.39879	-0.48985
3.48	66.509	-41219	2908	-0.77006	0.39918	-0.48946
3.482	66.512	-41215	2907.9	-0.76919	0.39831	-0.48985
3.484	66.508	-41208	2907.8	-0.76831	0.39743	-0.49024
3.486	66.503	-41205	2907.7	-0.76743	0.39655	-0.49064
3.488	66.498	-41206	2907.6	-0.76655	0.39567	-0.49103
3.49	66.5	-41207	2907.5	-0.76567	0.39479	-0.49142
3.492	66.5	-41209	2907.4	-0.76645	0.39528	-0.49024
3.494	66.499	-41211	2907.4	-0.76723	0.39577	-0.48907
3.496	66.505	-41213	2907.3	-0.76801	0.39626	-0.4879
3.498	66.497	-41212	2907.2	-0.7688	0.39674	-0.48673
3.5	66.51	-41208	2907.1	-0.76958	0.39723	-0.48556
3.502	66.533	-41207	2907	-0.77045	0.39723	-0.48595
3.504	66.53	-41207	2906.9	-0.77133	0.39723	-0.48634
3.506	66.505	-41209	2906.8	-0.77221	0.39723	-0.48673
3.508	66.485	-41212	2906.7	-0.77309	0.39723	-0.48712
3.51	66.495	-41213	2906.7	-0.77397	0.39723	-0.48751
3.512	66.488	-41214	2906.5	-0.7728	0.39792	-0.48849
3.514	66.475	-41215	2906.4	-0.77163	0.3986	-0.48946
3.516	66.474	-41216	2906.3	-0.77045	0.39928	-0.49044
3.518	66.488	-41214	2906.2	-0.76928	0.39996	-0.49142
3.52	66.503	-41209	2906.1	-0.76811	0.40065	-0.49239
3.522	66.51	-41203	2906	-0.76772	0.39967	-0.49044
3.524	66.515	-41195	2905.9	-0.76733	0.3987	-0.48849
3.526	66.51	-41196	2905.8	-0.76694	0.39772	-0.48654
3.528	66.507	-41207	2905.7	-0.76655	0.39674	-0.48458
3.53	66.497	-41209	2905.6	-0.76616	0.39577	-0.48263
3.532	66.481	-41204	2905.4	-0.76626	0.39518	-0.48312
3.534	66.472	-41201	2905.3	-0.76636	0.3946	-0.48361
3.536	66.475	-41202	2905.1	-0.76645	0.39401	-0.4841
3.538	66.474	-41202	2905	-0.76655	0.39343	-0.48458
3.54	66.473	-41203	2904.8	-0.76665	0.39284	-0.48507
3.542	66.476	-41202	2904.7	-0.76596	0.39294	-0.48478
3.544	66.477	-41198	2904.5	-0.76528	0.39304	-0.48449
3.546	66.473	-41198	2904.4	-0.7646	0.39313	-0.48419
3.548	66.474	-41201	2904.2	-0.76392	0.39323	-0.4839
3.55	66.474	-41205	2904	-0.76323	0.39333	-0.48361
3.552	66.475	-41207	2903.9	-0.76274	0.39323	-0.48322
3.554	66.476	-41206	2903.7	-0.76226	0.39313	-0.48283
3.556	66.47	-41203	2903.6	-0.76177	0.39304	-0.48244
3.558	66.463	-41203	2903.4	-0.76128	0.39294	-0.48205
3.56	66.457	-41205	2903.3	-0.76079	0.39284	-0.48166
3.562	66.44	-41204	2903.1	-0.75982	0.39333	-0.48146
3.564	66.416	-41199	2902.9	-0.75884	0.39382	-0.48127
3.566	66.39	-41197	2902.7	-0.75786	0.3943	-0.48107
3.568	66.375	-41200	2902.5	-0.75689	0.39479	-0.48088
3.57	66.385	-41202	2902.4	-0.75591	0.39528	-0.48068
3.572	66.409	-41204	2902.2	-0.75679	0.39528	-0.48088
3.574	66.431	-41202	2902	-0.75767	0.39528	-0.48107
3.576	66.444	-41196	2901.8	-0.75855	0.39528	-0.48127
3.578	66.456	-41196	2901.6	-0.75943	0.39528	-0.48146
3.58	66.457	-41201	2901.5	-0.7603	0.39528	-0.48166
3.582	66.442	-41202	2901.3	-0.75991	0.39518	-0.48127
3.584	66.435	-41199	2901	-0.75952	0.39508	-0.48088
3.586	66.442	-41197	2900.8	-0.75913	0.39499	-0.48048
3.588	66.446	-41196	2900.7	-0.75874	0.39489	-0.48009
3.59	66.458	-41195	2900.5	-0.75835	0.39479	-0.4797
3.592	66.482	-41194	2900.3	-0.76011	0.39577	-0.48117
3.594	66.515	-41196	2900.1	-0.76187	0.39674	-0.48263
3.596	66.524	-41202	2899.9	-0.76362	0.39772	-0.4841
3.598	66.527	-41201	2899.8	-0.76538	0.3987	-0.48556
3.6	66.534	-41195	2899.6	-0.76714	0.39967	-0.48702
3.602	66.528	-41190	2899.4	-0.76792	0.39977	-0.48732
3.604	66.521	-41186	2899.2	-0.7687	0.39987	-0.48761
3.606	66.521	-41188	2899	-0.76948	0.39996	-0.4879
3.608	66.514	-41194	2898.8	-0.77026	0.40006	-0.4882
3.61	66.501	-41195	2898.6	-0.77104	0.40016	-0.48849
3.612	66.49	-41189	2898.4	-0.77172	0.39909	-0.4879
3.614	66.487	-41188	2898.2	-0.77241	0.39801	-0.48732
3.616	66.488	-41193	2898.1	-0.77309	0.39694	-0.48673
3.618	66.5	-41194	2897.9	-0.77377	0.39587	-0.48615
3.62	66.519	-41194	2897.8	-0.77446	0.39479	-0.48556
3.622	66.52	-41195	2897.6	-0.77241	0.3946	-0.48478
3.624	66.52	-41199	2897.4	-0.77036	0.3944	-0.484
3.626	66.518	-41200	2897.2	-0.76831	0.39421	-0.48322
3.628	66.516	-41198	2897.1	-0.76626	0.39401	-0.48244
3.63	66.518	-41197	2897	-0.76421	0.39382	-0.48166
3.632	66.52	-41198	2896.8	-0.76372	0.39411	-0.48117
3.634	66.52	-41195	2896.6	-0.76323	0.3944	-0.48068
3.636	66.524	-41190	2896.5	-0.76274	0.39469	-0.48019
3.638	66.527	-41190	2896.3	-0.76226	0.39499	-0.4797
3.64	66.525	-41195	2896.1	-0.76177	0.39528	-0.47922
3.642	66.528	-41198	2895.9	-0.76148	0.39596	-0.48
3.644	66.539	-41199	2895.8	-0.76118	0.39665	-0.48078
3.646	66.547	-41200	2895.6	-0.76089	0.39733	-0.48156
3.648	66.537	-41201	2895.4	-0.7606	0.39801	-0.48234
3.65	66.521	-41201	2895.2	-0.7603	0.3987	-0.48312
3.652	66.513	-41201	2895	-0.76235	0.39879	-0.484
3.654	66.517	-41200	2894.9	-0.7644	0.39889	-0.48488
3.656	66.523	-41198	2894.7	-0.76645	0.39899	-0.48576
3.658	66.53	-41198	2894.5	-0.7685	0.39909	-0.48663
3.66	66.538	-41199	2894.4	-0.77055	0.39918	-0.48751
3.662	66.553	-41201	2894.3	-0.76967	0.39918	-0.48849
3.664	66.568	-41202	2894.1	-0.7688	0.39918	-0.48946
3.666	66.563	-41201	2894	-0.76792	0.39918	-0.49044
3.668	66.548	-41197	2893.8	-0.76704	0.39918	-0.49142
3.67	66.518	-41197	2893.7	-0.76616	0.39918	-0.49239
3.672	66.5	-41200	2893.5	-0.76694	0.40006	-0.49161
3.674	66.505	-41200	2893.4	-0.76772	0.40094	-0.49083
3.676	66.527	-41197	2893.2	-0.7685	0.40182	-0.49005
3.678	66.547	-41196	2893.1	-0.76928	0.4027	-0.48927
3.68	66.561	-41196	2893	-0.77006	0.40358	-0.48849
3.682	66.562	-41195	2892.9	-0.76938	0.4027	-0.48849
3.684	66.554	-41191	2892.8	-0.7687	0.40182	-0.48849
3.686	66.534	-41192	2892.7	-0.76801	0.40094	-0.48849
3.688	66.537	-41198	2892.6	-0.76733	0.40006	-0.48849
3.69	66.55	-41202	2892.4	-0.76665	0.39918	-0.48849
3.692	66.541	-41203	2892.4	-0.76694	0.39948	-0.48907
3.694	66.542	-41205	2892.3	-0.76723	0.39977	-0.48966
3.696	66.549	-41206	2892.2	-0.76753	0.40006	-0.49024
3.698	66.539	-41203	2892.1	-0.76782	0.40036	-0.49083
3.7	66.493	-41198	2892	-0.76811	0.40065	-0.49142
3.702	66.439	-41195	2891.9	-0.76831	0.40045	-0.49142
3.704	66.393	-41194	2891.8	-0.7685	0.40026	-0.49142
3.706	66.321	-41195	2891.7	-0.7687	0.40006	-0.49142
3.708	66.21	-41198	2891.6	-0.76889	0.39987	-0.49142
3.71	66.057	-41198	2891.5	-0.76909	0.39967	-0.49142
3.712	65.884	-41196	2891.4	-0.7688	0.39977	-0.49171
3.714	65.737	-41196	2891.3	-0.7685	0.39987	-0.492
3.716	65.632	-41198	2891.3	-0.76821	0.39996	-0.49229
3.718	65.568	-41200	2891.2	-0.76792	0.40006	-0.49259
3.72	65.569	-41201	2891.1	-0.76762	0.40016	-0.49288
3.722	65.642	-41200	2890.9	-0.76753	0.39977	-0.49239
3.724	65.785	-41199	2890.8	-0.76743	0.39938	-0.4919
3.726	65.986	-41199	2890.7	-0.76733	0.39899	-0.49142
3.728	66.19	-41200	2890.7	-0.76723	0.3986	-0.49093
3.73	66.332	-41199	2890.6	-0.76714	0.39821	-0.49044
3.732	66.4	-41197	2890.5	-0.76811	0.39831	-0.48946
3.734	66.426	-41196	2890.4	-0.76909	0.3984	-0.48849
3.736	66.437	-41196	2890.2	-0.77006	0.3985	-0.48751
3.738	66.458	-41198	2890.2	-0.77104	0.3986	-0.48654
3.74	66.492	-41202	2890.1	-0.77202	0.3987	-0.48556
3.742	66.507	-41203	2890	-0.77133	0.39938	-0.48673
3.744	66.514	-41199	2889.8	-0.77065	0.40006	-0.4879
3.746	66.528	-41193	2889.7	-0.76997	0.40075	-0.48907
3.748	66.536	-41185	2889.6	-0.76928	0.40143	-0.49024
3.75	66.552	-41186	2889.5	-0.7686	0.40211	-0.49142
3.752	66.565	-41195	2889.4	-0.76919	0.40221	-0.49064
3.754	66.567	-41200	2889.3	-0.76977	0.40231	-0.48985
3.756	66.564	-41199	2889.2	-0.77036	0.4024	-0.48907
3.758	66.553	-41198	2889.1	-0.77094	0.4025	-0.48829
3.76	66.538	-41196	2889	-0.77153	0.4026	-0.48751
3.762	66.531	-41196	2888.8	-0.77153	0.4026	-0.4878
3.764	66.537	-41196	2888.7	-0.77153	0.4026	-0.4881
3.766	66.56	-41196	2888.6	-0.77153	0.4026	-0.48839
3.768	66.575	-41195	2888.5	-0.77153	0.4026	-0.48868
3.77	66.575	-41194	2888.3	-0.77153	0.4026	-0.48898
3.772	66.563	-41194	2888.2	-0.77055	0.4027	-0.48868
3.774	66.542	-41193	2888.1	-0.76958	0.4028	-0.48839
3.776	66.532	-41192	2888	-0.7686	0.40289	-0.4881
3.778	66.524	-41191	2887.9	-0.76762	0.40299	-0.4878
3.78	66.54	-41190	2887.8	-0.76665	0.40309	-0.48751
3.782	66.562	-41192	2887.8	-0.76743	0.4027	-0.48761
3.784	66.57	-41196	2887.7	-0.76821	0.40231	-0.48771
3.786	66.563	-41196	2887.6	-0.76899	0.40192	-0.4878
3.788	66.557	-41192	2887.4	-0.76977	0.40153	-0.4879
3.79	66.554	-41190	2887.3	-0.77055	0.40114	-0.488
3.792	66.549	-41190	2887.2	-0.77045	0.40172	-0.48849
3.794	66.55	-41192	2887.1	-0.77036	0.40231	-0.48898
3.796	66.549	-41194	2886.9	-0.77026	0.40289	-0.48946
3.798	66.551	-41195	2886.8	-0.77016	0.40348	-0.48995
3.8	66.551	-41195	2886.7	-0.77006	0.40406	-0.49044
3.802	66.551	-41198	2886.6	-0.76997	0.40406	-0.48946
3.804	66.552	-41204	2886.4	-0.76987	0.40406	-0.48849
3.806	66.552	-41208	2886.3	-0.76977	0.40406	-0.48751
3.808	66.541	-41208	2886.2	-0.76967	0.40406	-0.48654
3.81	66.534	-41205	2886.1	-0.76958	0.40406	-0.48556
3.812	66.539	-41197	2886	-0.76967	0.40416	-0.48556
3.814	66.538	-41193	2885.8	-0.76977	0.40426	-0.48556
3.816	66.533	-41193	2885.7	-0.76987	0.40436	-0.48556
3.818	66.533	-41193	2885.6	-0.76997	0.40445	-0.48556
3.82	66.526	-41193	2885.4	-0.77006	0.40455	-0.48556
3.822	66.512	-41192	2885.3	-0.76987	0.40465	-0.48507
3.824	66.508	-41192	2885.2	-0.76967	0.40475	-0.48458
3.826	66.508	-41192	2885.1	-0.76948	0.40484	-0.4841
3.828	66.516	-41192	2885	-0.76928	0.40494	-0.48361
3.83	66.521	-41191	2884.8	-0.76909	0.40504	-0.48312
3.832	66.528	-41190	2884.7	-0.76919	0.40465	-0.48341
3.834	66.538	-41188	2884.6	-0.76928	0.40426	-0.48371
3.836	66.548	-41186	2884.5	-0.76938	0.40387	-0.484
3.838	66.548	-41187	2884.4	-0.76948	0.40348	-0.48429
3.84	66.524	-41191	2884.2	-0.76958	0.40309	-0.48458
3.842	66.504	-41194	2884.1	-0.76733	0.40162	-0.4841
3.844	66.5	-41198	2884	-0.76509	0.40016	-0.48361
3.846	66.51	-41199	2883.9	-0.76284	0.3987	-0.48312
3.848	66.525	-41197	2883.8	-0.7606	0.39723	-0.48263
3.85	66.542	-41196	2883.6	-0.75835	0.39577	-0.48214
3.852	66.554	-41196	2883.5	-0.75972	0.39635	-0.48127
3.854	66.545	-41195	2883.3	-0.76108	0.39694	-0.48039
3.856	66.529	-41193	2883.1	-0.76245	0.39752	-0.47951
3.858	66.517	-41192	2883	-0.76382	0.39811	-0.47863
3.86	66.52	-41191	2882.8	-0.76518	0.3987	-0.47775
3.862	66.522	-41192	2882.7	-0.76489	0.39743	-0.47765
3.864	66.519	-41194	2882.5	-0.7646	0.39616	-0.47756
3.866	66.515	-41198	2882.4	-0.76431	0.39489	-0.47746
3.868	66.513	-41203	2882.2	-0.76401	0.39362	-0.47736
3.87	66.504	-41205	2882.1	-0.76372	0.39235	-0.47726
3.872	66.495	-41203	2881.9	-0.76255	0.39304	-0.47814
3.874	66.498	-41200	2881.8	-0.76138	0.39372	-0.47902
3.876	66.506	-41193	2881.7	-0.76021	0.3944	-0.4799
3.878	66.499	-41191	2881.6	-0.75904	0.39508	-0.48078
3.88	66.503	-41192	2881.5	-0.75786	0.39577	-0.48166
3.882	66.502	-41195	2881.4	-0.75825	0.39577	-0.48146
3.884	66.492	-41199	2881.4	-0.75864	0.39577	-0.48127
3.886	66.484	-41201	2881.4	-0.75904	0.39577	-0.48107
3.888	66.483	-41201	2881.4	-0.75943	0.39577	-0.48088
3.89	66.49	-41201	2881.4	-0.75982	0.39577	-0.48068
3.892	66.498	-41202	2881.5	-0.75933	0.39635	-0.48117
3.894	66.498	-41202	2881.7	-0.75884	0.39694	-0.48166
3.896	66.489	-41200	2881.9	-0.75835	0.39752	-0.48214
3.898	66.48	-41197	2882.2	-0.75786	0.39811	-0.48263
3.9	66.469	-41195	2882.6	-0.75738	0.3987	-0.48312
3.902	66.452	-41197	2883	-0.75923	0.39948	-0.48507
3.904	66.442	-41203	2883.5	-0.76108	0.40026	-0.48702
3.906	66.434	-41204	2884.1	-0.76294	0.40104	-0.48898
3.908	66.433	-41201	2884.9	-0.76479	0.40182	-0.49093
3.91	66.441	-41198	2885.6	-0.76665	0.4026	-0.49288
3.912	66.435	-41195	2886.4	-0.76665	0.4027	-0.49239
3.914	66.424	-41196	2887.3	-0.76665	0.4028	-0.4919
3.916	66.419	-41202	2888.2	-0.76665	0.40289	-0.49142
3.918	66.41	-41205	2889.2	-0.76665	0.40299	-0.49093
3.92	66.396	-41206	2890.2	-0.76665	0.40309	-0.49044
3.922	66.392	-41205	2891.3	-0.76665	0.40221	-0.49015
3.924	66.393	-41202	2892.4	-0.76665	0.40133	-0.48985
3.926	66.398	-41201	2893.5	-0.76665	0.40045	-0.48956
3.928	66.407	-41202	2894.7	-0.76665	0.39957	-0.48927
3.93	66.404	-41203	2895.8	-0.76665	0.3987	-0.48898
3.932	66.382	-41205	2896.9	-0.76714	0.39918	-0.48976
3.934	66.373	-41205	2898.1	-0.76762	0.39967	-0.49054
3.936	66.366	-41204	2899.2	-0.76811	0.40016	-0.49132
3.938	66.35	-41203	2900.3	-0.7686	0.40065	-0.4921
3.94	66.337	-41202	2901.4	-0.76909	0.40114	-0.49288
3.942	66.325	-41203	2902.4	-0.7687	0.40075	-0.49268
3.944	66.315	-41206	2903.5	-0.76831	0.40036	-0.49249
3.946	66.298	-41208	2904.5	-0.76792	0.39996	-0.49229
3.948	66.293	-41209	2905.5	-0.76753	0.39957	-0.4921
3.95	66.3	-41209	2906.5	-0.76714	0.39918	-0.4919
3.952	66.305	-41209	2907.5	-0.76762	0.3987	-0.49054
3.954	66.307	-41206	2908.4	-0.76811	0.39821	-0.48917
3.956	66.302	-41200	2909.3	-0.7686	0.39772	-0.4878
3.958	66.309	-41196	2910.2	-0.76909	0.39723	-0.48644
3.96	66.313	-41194	2911.1	-0.76958	0.39674	-0.48507
3.962	66.311	-41192	2911.9	-0.77026	0.39782	-0.48527
3.964	66.313	-41190	2912.8	-0.77094	0.39889	-0.48546
3.966	66.316	-41190	2913.6	-0.77163	0.39996	-0.48566
3.968	66.321	-41193	2914.3	-0.77231	0.40104	-0.48585
3.97	66.335	-41191	2915	-0.77299	0.40211	-0.48605
3.972	66.342	-41185	2915.8	-0.77289	0.40211	-0.48644
3.974	66.336	-41183	2916.5	-0.7728	0.40211	-0.48683
3.976	66.323	-41184	2917.1	-0.7727	0.40211	-0.48722
3.978	66.316	-41185	2917.7	-0.7726	0.40211	-0.48761
3.98	66.32	-41187	2918.3	-0.7725	0.40211	-0.488
3.982	66.325	-41186	2918.9	-0.77192	0.40201	-0.48741
3.984	66.326	-41181	2919.4	-0.77133	0.40192	-0.48683
3.986	66.337	-41179	2920	-0.77075	0.40182	-0.48624
3.988	66.356	-41180	2920.4	-0.77016	0.40172	-0.48566
3.99	66.372	-41177	2920.9	-0.76958	0.40162	-0.48507
3.992	66.379	-41171	2921.3	-0.76889	0.40192	-0.48497
3.994	66.385	-41168	2921.8	-0.76821	0.40221	-0.48488
3.996	66.393	-41167	2922.2	-0.76753	0.4025	-0.48478
3.998	66.397	-41166	2922.6	-0.76684	0.4028	-0.48468
4	66.401	-41166	2923	-0.76616	0.40309	-0.48458
4.002	66.398	-41165	2923.3	-0.76655	0.40348	-0.48439
4.004	66.39	-41163	2923.6	-0.76694	0.40387	-0.48419
4.006	66.39	-41161	2923.9	-0.76733	0.40426	-0.484
4.008	66.403	-41158	2924.2	-0.76772	0.40465	-0.4838
4.01	66.427	-41158	2924.4	-0.76811	0.40504	-0.48361
4.012	66.458	-41161	2924.7	-0.76782	0.40475	-0.48322
4.014	66.476	-41161	2924.9	-0.76753	0.40445	-0.48283
4.016	66.47	-41159	2925.2	-0.76723	0.40416	-0.48244
4.018	66.465	-41154	2925.4	-0.76694	0.40387	-0.48205
4.02	66.469	-41147	2925.6	-0.76665	0.40358	-0.48166
4.022	66.47	-41144	2925.7	-0.76694	0.40348	-0.48214
4.024	66.477	-41145	2925.9	-0.76723	0.40338	-0.48263
4.026	66.472	-41148	2926	-0.76753	0.40328	-0.48312
4.028	66.465	-41153	2926.2	-0.76782	0.40319	-0.48361
4.03	66.449	-41153	2926.3	-0.76811	0.40309	-0.4841
4.032	66.435	-41148	2926.4	-0.76714	0.4024	-0.484
4.034	66.439	-41143	2926.5	-0.76616	0.40172	-0.4839
4.036	66.451	-41138	2926.6	-0.76518	0.40104	-0.4838
4.038	66.455	-41136	2926.7	-0.76421	0.40036	-0.48371
4.04	66.463	-41135	2926.8	-0.76323	0.39967	-0.48361
4.042	66.48	-41135	2926.9	-0.76392	0.40016	-0.4839
4.044	66.504	-41137	2927	-0.7646	0.40065	-0.48419
4.046	66.509	-41139	2927.1	-0.76528	0.40114	-0.48449
4.048	66.508	-41141	2927.2	-0.76596	0.40162	-0.48478
4.05	66.507	-41141	2927.3	-0.76665	0.40211	-0.48507
4.052	66.506	-41139	2927.4	-0.76714	0.4024	-0.48517
4.054	66.502	-41132	2927.5	-0.76762	0.4027	-0.48527
4.056	66.5	-41119	2927.5	-0.76811	0.40299	-0.48536
4.058	66.496	-41115	2927.6	-0.7686	0.40328	-0.48546
4.06	66.484	-41118	2927.7	-0.76909	0.40358	-0.48556
4.062	66.475	-41119	2927.8	-0.76811	0.40309	-0.48556
4.064	66.48	-41117	2927.8	-0.76714	0.4026	-0.48556
4.066	66.495	-41117	2927.9	-0.76616	0.40211	-0.48556
4.068	66.512	-41118	2927.9	-0.76518	0.40162	-0.48556
4.07	66.52	-41116	2928	-0.76421	0.40114	-0.48556
4.072	66.519	-41111	2928.1	-0.76587	0.40172	-0.48585
4.074	66.518	-41109	2928.1	-0.76753	0.40231	-0.48615
4.076	66.515	-41111	2928.2	-0.76919	0.40289	-0.48644
4.078	66.51	-41107	2928.2	-0.77084	0.40348	-0.48673
4.08	66.501	-41098	2928.3	-0.7725	0.40406	-0.48702
4.082	66.501	-41096	2928.3	-0.77221	0.40367	-0.48732
4.084	66.505	-41099	2928.4	-0.77192	0.40328	-0.48761
4.086	66.504	-41098	2928.4	-0.77163	0.40289	-0.4879
4.088	66.497	-41095	2928.4	-0.77133	0.4025	-0.4882
4.09	66.489	-41095	2928.4	-0.77104	0.40211	-0.48849
4.092	66.483	-41100	2928.3	-0.77104	0.40182	-0.48849
4.094	66.489	-41100	2928.3	-0.77104	0.40153	-0.48849
4.096	66.492	-41096	2928.3	-0.77104	0.40123	-0.48849
4.098	66.491	-41097	2928.3	-0.77104	0.40094	-0.48849
4.1	66.487	-41100	2928.2	-0.77104	0.40065	-0.48849
4.102	66.49	-41098	2928.1	-0.77094	0.40094	-0.4882
4.104	66.503	-41090	2928	-0.77084	0.40123	-0.4879
4.106	66.516	-41087	2927.9	-0.77075	0.40153	-0.48761
4.108	66.506	-41088	2927.7	-0.77065	0.40182	-0.48732
4.11	66.49	-41087	2927.5	-0.77055	0.40211	-0.48702
4.112	66.49	-41084	2927.4	-0.77114	0.40162	-0.48722
4.114	66.489	-41081	2927.2	-0.77172	0.40114	-0.48741
4.116	66.48	-41080	2927	-0.77231	0.40065	-0.48761
4.118	66.474	-41078	2926.7	-0.77289	0.40016	-0.4878
4.12	66.474	-41073	2926.5	-0.77348	0.39967	-0.488
4.122	66.473	-41070	2926.2	-0.77358	0.39967	-0.4878
4.124	66.472	-41069	2926	-0.77368	0.39967	-0.48761
4.126	66.46	-41071	2925.7	-0.77377	0.39967	-0.48741
4.128	66.45	-41075	2925.4	-0.77387	0.39967	-0.48722
4.13	66.464	-41078	2925.1	-0.77397	0.39967	-0.48702
4.132	66.489	-41079	2924.8	-0.77377	0.40036	-0.48712
4.134	66.513	-41078	2924.5	-0.77358	0.40104	-0.48722
4.136	66.518	-41074	2924.2	-0.77338	0.40172	-0.48732
4.138	66.504	-41073	2923.9	-0.77319	0.4024	-0.48741
4.14	66.495	-41073	2923.6	-0.77299	0.40309	-0.48751
4.142	66.493	-41073	2923.4	-0.77211	0.40309	-0.48761
4.144	66.496	-41072	2923.1	-0.77124	0.40309	-0.48771
4.146	66.498	-41069	2922.9	-0.77036	0.40309	-0.4878
4.148	66.496	-41063	2922.5	-0.76948	0.40309	-0.4879
4.15	66.498	-41062	2922.2	-0.7686	0.40309	-0.488
4.152	66.496	-41065	2922	-0.76899	0.40338	-0.4878
4.154	66.486	-41066	2921.8	-0.76938	0.40367	-0.48761
4.156	66.477	-41065	2921.6	-0.76977	0.40397	-0.48741
4.158	66.477	-41067	2921.3	-0.77016	0.40426	-0.48722
4.16	66.481	-41073	2921.1	-0.77055	0.40455	-0.48702
4.162	66.488	-41075	2920.9	-0.76958	0.40299	-0.48605
4.164	66.5	-41074	2920.7	-0.7686	0.40143	-0.48507
4.166	66.497	-41071	2920.5	-0.76762	0.39987	-0.4841
4.168	66.485	-41068	2920.3	-0.76665	0.39831	-0.48312
4.17	66.486	-41068	2920.1	-0.76567	0.39674	-0.48214
4.172	66.492	-41071	2920	-0.76626	0.39782	-0.48312
4.174	66.489	-41072	2919.8	-0.76684	0.39889	-0.4841
4.176	66.473	-41070	2919.6	-0.76743	0.39996	-0.48507
4.178	66.456	-41067	2919.5	-0.76801	0.40104	-0.48605
4.18	66.451	-41063	2919.4	-0.7686	0.40211	-0.48702
4.182	66.452	-41058	2919.2	-0.76889	0.40201	-0.48663
4.184	66.464	-41053	2919.1	-0.76919	0.40192	-0.48624
4.186	66.475	-41050	2919	-0.76948	0.40182	-0.48585
4.188	66.474	-41049	2918.9	-0.76977	0.40172	-0.48546
4.19	66.477	-41048	2918.9	-0.77006	0.40162	-0.48507
4.192	66.475	-41048	2918.8	-0.77026	0.40153	-0.48536
4.194	66.481	-41049	2918.8	-0.77045	0.40143	-0.48566
4.196	66.479	-41052	2918.7	-0.77065	0.40133	-0.48595
4.198	66.472	-41051	2918.7	-0.77084	0.40123	-0.48624
4.2	66.472	-41046	2918.7	-0.77104	0.40114	-0.48654
4.202	66.462	-41043	2918.6	-0.77143	0.40094	-0.48673
4.204	66.473	-41043	2918.6	-0.77182	0.40075	-0.48693
4.206	66.485	-41047	2918.6	-0.77221	0.40055	-0.48712
4.208	66.49	-41054	2918.6	-0.7726	0.40036	-0.48732
4.21	66.502	-41058	2918.6	-0.77299	0.40016	-0.48751
4.212	66.521	-41057	2918.6	-0.77289	0.39967	-0.48683
4.214	66.533	-41054	2918.5	-0.7728	0.39918	-0.48615
4.216	66.526	-41049	2918.5	-0.7727	0.3987	-0.48546
4.218	66.504	-41045	2918.5	-0.7726	0.39821	-0.48478
4.22	66.485	-41043	2918.5	-0.7725	0.39772	-0.4841
4.222	66.469	-41044	2918.5	-0.77241	0.3986	-0.48419
4.224	66.455	-41048	2918.5	-0.77231	0.39948	-0.48429
4.226	66.454	-41050	2918.5	-0.77221	0.40036	-0.48439
4.228	66.456	-41049	2918.5	-0.77211	0.40123	-0.48449
4.23	66.462	-41047	2918.5	-0.77202	0.40211	-0.48458
4.232	66.483	-41043	2918.6	-0.77202	0.40162	-0.48468
4.234	66.507	-41044	2918.6	-0.77202	0.40114	-0.48478
4.236	66.522	-41051	2918.6	-0.77202	0.40065	-0.48488
4.238	66.53	-41051	2918.6	-0.77202	0.40016	-0.48497
4.24	66.531	-41044	2918.6	-0.77202	0.39967	-0.48507
4.242	66.52	-41042	2918.6	-0.77114	0.39957	-0.48517
4.244	66.505	-41046	2918.6	-0.77026	0.39948	-0.48527
4.246	66.5	-41045	2918.6	-0.76938	0.39938	-0.48536
4.248	66.497	-41041	2918.6	-0.7685	0.39928	-0.48546
4.25	66.489	-41041	2918.7	-0.76762	0.39918	-0.48556
4.252	66.479	-41044	2918.7	-0.7685	0.39918	-0.48517
4.254	66.478	-41044	2918.7	-0.76938	0.39918	-0.48478
4.256	66.476	-41042	2918.7	-0.77026	0.39918	-0.48439
4.258	66.464	-41041	2918.7	-0.77114	0.39918	-0.484
4.26	66.464	-41043	2918.7	-0.77202	0.39918	-0.48361
4.262	66.472	-41048	2918.6	-0.77143	0.40055	-0.48302
4.264	66.472	-41056	2918.6	-0.77084	0.40192	-0.48244
4.266	66.465	-41061	2918.6	-0.77026	0.40328	-0.48185
4.268	66.459	-41063	2918.5	-0.76967	0.40465	-0.48127
4.27	66.461	-41064	2918.5	-0.76909	0.40602	-0.48068
4.272	66.448	-41065	2918.4	-0.76762	0.40406	-0.48019
4.274	66.444	-41065	2918.3	-0.76616	0.40211	-0.4797
4.276	66.446	-41064	2918.3	-0.7647	0.40016	-0.47922
4.278	66.428	-41060	2918.2	-0.76323	0.39821	-0.47873
4.28	66.421	-41052	2918.1	-0.76177	0.39626	-0.47824
4.282	66.43	-41049	2918	-0.76284	0.39713	-0.47883
4.284	66.431	-41051	2917.9	-0.76392	0.39801	-0.47941
4.286	66.413	-41053	2917.8	-0.76499	0.39889	-0.48
4.288	66.403	-41055	2917.6	-0.76606	0.39977	-0.48058
4.29	66.412	-41057	2917.5	-0.76714	0.40065	-0.48117
4.292	66.423	-41057	2917.3	-0.76655	0.39938	-0.48088
4.294	66.43	-41056	2917.2	-0.76596	0.39811	-0.48058
4.296	66.428	-41054	2917	-0.76538	0.39684	-0.48029
4.298	66.423	-41051	2916.8	-0.76479	0.39557	-0.48
4.3	66.428	-41048	2916.7	-0.76421	0.3943	-0.4797
4.302	66.427	-41045	2916.5	-0.76382	0.39469	-0.47922
4.304	66.418	-41043	2916.4	-0.76343	0.39508	-0.47873
4.306	66.406	-41042	2916.2	-0.76304	0.39548	-0.47824
4.308	66.41	-41042	2916	-0.76265	0.39587	-0.47775
4.31	66.433	-41042	2915.9	-0.76226	0.39626	-0.47726
4.312	66.45	-41044	2915.7	-0.76187	0.39616	-0.47726
4.314	66.457	-41046	2915.5	-0.76148	0.39606	-0.47726
4.316	66.47	-41047	2915.3	-0.76108	0.39596	-0.47726
4.318	66.481	-41046	2915.1	-0.76069	0.39587	-0.47726
4.32	66.487	-41042	2914.9	-0.7603	0.39577	-0.47726
4.322	66.493	-41037	2914.7	-0.76069	0.39548	-0.47707
4.324	66.498	-41033	2914.5	-0.76108	0.39518	-0.47687
4.326	66.497	-41031	2914.4	-0.76148	0.39489	-0.47668
4.328	66.491	-41032	2914.2	-0.76187	0.3946	-0.47648
4.33	66.489	-41036	2914.1	-0.76226	0.3943	-0.47629
4.332	66.491	-41042	2913.9	-0.76167	0.39538	-0.47736
4.334	66.501	-41046	2913.7	-0.76108	0.39645	-0.47844
4.336	66.513	-41048	2913.5	-0.7605	0.39752	-0.47951
4.338	66.52	-41047	2913.3	-0.75991	0.3986	-0.48058
4.34	66.523	-41042	2913.2	-0.75933	0.39967	-0.48166
4.342	66.528	-41040	2913	-0.75982	0.39889	-0.48097
4.344	66.536	-41041	2912.8	-0.7603	0.39811	-0.48029
4.346	66.535	-41042	2912.6	-0.76079	0.39733	-0.47961
4.348	66.519	-41042	2912.4	-0.76128	0.39655	-0.47892
4.35	66.507	-41042	2912.3	-0.76177	0.39577	-0.47824
4.352	66.497	-41042	2912.1	-0.76196	0.39577	-0.47824
4.354	66.495	-41040	2911.9	-0.76216	0.39577	-0.47824
4.356	66.498	-41038	2911.8	-0.76235	0.39577	-0.47824
4.358	66.504	-41037	2911.5	-0.76255	0.39577	-0.47824
4.36	66.509	-41038	2911.3	-0.76274	0.39577	-0.47824
4.362	66.514	-41037	2911.1	-0.76294	0.39548	-0.47863
4.364	66.514	-41036	2911	-0.76313	0.39518	-0.47902
4.366	66.505	-41036	2910.8	-0.76333	0.39489	-0.47941
4.368	66.505	-41037	2910.6	-0.76352	0.3946	-0.4798
4.37	66.511	-41038	2910.4	-0.76372	0.3943	-0.48019
4.372	66.52	-41040	2910.2	-0.76411	0.3946	-0.48048
4.374	66.526	-41043	2910	-0.7645	0.39489	-0.48078
4.376	66.522	-41048	2909.8	-0.76489	0.39518	-0.48107
4.378	66.513	-41049	2909.6	-0.76528	0.39548	-0.48136
4.38	66.496	-41047	2909.4	-0.76567	0.39577	-0.48166
4.382	66.478	-41044	2909.2	-0.76528	0.39557	-0.48088
4.384	66.486	-41040	2909	-0.76489	0.39538	-0.48009
4.386	66.513	-41037	2908.9	-0.7645	0.39518	-0.47931
4.388	66.523	-41033	2908.7	-0.76411	0.39499	-0.47853
4.39	66.517	-41031	2908.5	-0.76372	0.39479	-0.47775
4.392	66.511	-41030	2908.4	-0.76323	0.3945	-0.47804
4.394	66.512	-41031	2908.2	-0.76274	0.39421	-0.47834
4.396	66.508	-41034	2908	-0.76226	0.39391	-0.47863
4.398	66.498	-41037	2907.8	-0.76177	0.39362	-0.47892
4.4	66.497	-41041	2907.6	-0.76128	0.39333	-0.47922
4.402	66.515	-41042	2907.4	-0.76079	0.39421	-0.47912
4.404	66.534	-41042	2907.3	-0.7603	0.39508	-0.47902
4.406	66.534	-41041	2907.1	-0.75982	0.39596	-0.47892
4.408	66.526	-41041	2906.9	-0.75933	0.39684	-0.47883
4.41	66.523	-41041	2906.7	-0.75884	0.39772	-0.47873
4.412	66.526	-41042	2906.6	-0.75933	0.39743	-0.47892
4.414	66.531	-41041	2906.5	-0.75982	0.39713	-0.47912
4.416	66.532	-41038	2906.3	-0.7603	0.39684	-0.47931
4.418	66.521	-41036	2906.2	-0.76079	0.39655	-0.47951
4.42	66.512	-41035	2906	-0.76128	0.39626	-0.4797
4.422	66.506	-41034	2905.9	-0.76108	0.39626	-0.48009
4.424	66.492	-41035	2905.7	-0.76089	0.39626	-0.48048
4.426	66.459	-41036	2905.6	-0.76069	0.39626	-0.48088
4.428	66.409	-41038	2905.4	-0.7605	0.39626	-0.48127
4.43	66.33	-41039	2905.2	-0.7603	0.39626	-0.48166
4.432	66.217	-41038	2905.1	-0.75991	0.39694	-0.48195
4.434	66.067	-41037	2904.9	-0.75952	0.39762	-0.48224
4.436	65.913	-41034	2904.8	-0.75913	0.39831	-0.48253
4.438	65.777	-41036	2904.6	-0.75874	0.39899	-0.48283
4.44	65.69	-41042	2904.4	-0.75835	0.39967	-0.48312
4.442	65.65	-41045	2904.2	-0.75864	0.39879	-0.48244
4.444	65.645	-41045	2904	-0.75894	0.39792	-0.48175
4.446	65.708	-41043	2903.8	-0.75923	0.39704	-0.48107
4.448	65.847	-41039	2903.6	-0.75952	0.39616	-0.48039
4.45	66.051	-41039	2903.5	-0.75982	0.39528	-0.4797
4.452	66.235	-41044	2903.2	-0.75972	0.39499	-0.47931
4.454	66.335	-41045	2903	-0.75962	0.39469	-0.47892
4.456	66.377	-41042	2902.8	-0.75952	0.3944	-0.47853
4.458	66.401	-41040	2902.6	-0.75943	0.39411	-0.47814
4.46	66.42	-41039	2902.4	-0.75933	0.39382	-0.47775
4.462	66.458	-41042	2902.2	-0.75962	0.3944	-0.47785
4.464	66.506	-41051	2902	-0.75991	0.39499	-0.47795
4.466	66.558	-41052	2901.8	-0.76021	0.39557	-0.47804
4.468	66.588	-41046	2901.6	-0.7605	0.39616	-0.47814
4.47	66.575	-41042	2901.4	-0.76079	0.39674	-0.47824
4.472	66.553	-41040	2901.2	-0.76128	0.39665	-0.47844
4.474	66.55	-41038	2901.1	-0.76177	0.39655	-0.47863
4.476	66.55	-41037	2900.9	-0.76226	0.39645	-0.47883
4.478	66.544	-41038	2900.7	-0.76274	0.39635	-0.47902
4.48	66.536	-41041	2900.5	-0.76323	0.39626	-0.47922
4.482	66.529	-41041	2900.3	-0.76294	0.39655	-0.47961
4.484	66.522	-41040	2900.1	-0.76265	0.39684	-0.48
4.486	66.521	-41038	2899.8	-0.76235	0.39713	-0.48039
4.488	66.523	-41034	2899.6	-0.76206	0.39743	-0.48078
4.49	66.531	-41035	2899.3	-0.76177	0.39772	-0.48117
4.492	66.536	-41042	2899.1	-0.76265	0.39792	-0.48039
4.494	66.534	-41045	2898.9	-0.76352	0.39811	-0.47961
4.496	66.531	-41044	2898.7	-0.7644	0.39831	-0.47883
4.498	66.533	-41043	2898.5	-0.76528	0.3985	-0.47804
4.5	66.54	-41042	2898.2	-0.76616	0.3987	-0.47726
4.502	66.549	-41041	2898	-0.76567	0.3985	-0.47804
4.504	66.55	-41040	2897.7	-0.76518	0.39831	-0.47883
4.506	66.536	-41039	2897.5	-0.7647	0.39811	-0.47961
4.508	66.533	-41037	2897.3	-0.76421	0.39792	-0.48039
4.51	66.549	-41038	2897	-0.76372	0.39772	-0.48117
4.512	66.555	-41042	2896.8	-0.7644	0.39821	-0.48166
4.514	66.541	-41041	2896.5	-0.76509	0.3987	-0.48214
4.516	66.526	-41036	2896.3	-0.76577	0.39918	-0.48263
4.518	66.51	-41036	2896.1	-0.76645	0.39967	-0.48312
4.52	66.487	-41041	2895.8	-0.76714	0.40016	-0.48361
4.522	66.479	-41044	2895.6	-0.76821	0.40045	-0.484
4.524	66.486	-41045	2895.3	-0.76928	0.40075	-0.48439
4.526	66.504	-41045	2895	-0.77036	0.40104	-0.48478
4.528	66.521	-41046	2894.7	-0.77143	0.40133	-0.48517
4.53	66.523	-41045	2894.4	-0.7725	0.40162	-0.48556
4.532	66.51	-41044	2894.2	-0.77338	0.40065	-0.48556
4.534	66.498	-41046	2893.9	-0.77426	0.39967	-0.48556
4.536	66.499	-41049	2893.6	-0.77514	0.3987	-0.48556
4.538	66.495	-41046	2893.4	-0.77602	0.39772	-0.48556
4.54	66.494	-41039	2893.1	-0.7769	0.39674	-0.48556
4.542	66.49	-41035	2892.8	-0.77524	0.39879	-0.48449
4.544	66.488	-41033	2892.5	-0.77358	0.40084	-0.48341
4.546	66.497	-41033	2892.2	-0.77192	0.40289	-0.48234
4.548	66.504	-41036	2891.9	-0.77026	0.40494	-0.48127
4.55	66.503	-41035	2891.6	-0.7686	0.40699	-0.48019
4.552	66.499	-41030	2891.3	-0.76753	0.40524	-0.48107
4.554	66.492	-41031	2891	-0.76645	0.40348	-0.48195
4.556	66.485	-41038	2890.8	-0.76538	0.40172	-0.48283
4.558	66.479	-41042	2890.5	-0.76431	0.39996	-0.48371
4.56	66.483	-41043	2890.2	-0.76323	0.39821	-0.48458
4.562	66.491	-41045	2889.9	-0.76255	0.39782	-0.48322
4.564	66.497	-41047	2889.7	-0.76187	0.39743	-0.48185
4.566	66.499	-41046	2889.4	-0.76118	0.39704	-0.48048
4.568	66.501	-41040	2889.1	-0.7605	0.39665	-0.47912
4.57	66.501	-41042	2888.9	-0.75982	0.39626	-0.47775
4.572	66.498	-41049	2888.6	-0.7605	0.39626	-0.47834
4.574	66.493	-41052	2888.4	-0.76118	0.39626	-0.47892
4.576	66.486	-41050	2888.2	-0.76187	0.39626	-0.47951
4.578	66.484	-41049	2887.9	-0.76255	0.39626	-0.48009
4.58	66.486	-41049	2887.6	-0.76323	0.39626	-0.48068
4.582	66.486	-41048	2887.4	-0.76245	0.39674	-0.48088
4.584	66.488	-41047	2887.1	-0.76167	0.39723	-0.48107
4.586	66.489	-41045	2886.9	-0.76089	0.39772	-0.48127
4.588	66.486	-41042	2886.7	-0.76011	0.39821	-0.48146
4.59	66.479	-41041	2886.4	-0.75933	0.3987	-0.48166
4.592	66.47	-41040	2886.2	-0.75982	0.39811	-0.48146
4.594	66.468	-41043	2886	-0.7603	0.39752	-0.48127
4.596	66.473	-41048	2885.8	-0.76079	0.39694	-0.48107
4.598	66.482	-41049	2885.6	-0.76128	0.39635	-0.48088
4.6	66.492	-41046	2885.4	-0.76177	0.39577	-0.48068
4.602	66.498	-41046	2885.2	-0.76108	0.39616	-0.48097
