t	ekg	optical	pressure	accel_x	accel_y	accel_z
0	122.26	-3.0622e+05	3458.6	-0.73073	0.40094	-0.53172
0.002	122.25	-3.0622e+05	3458.5	-0.73112	0.40201	-0.53133
0.004	122.24	-3.0622e+05	3458.3	-0.73151	0.40309	-0.53094
0.006	122.23	-3.0622e+05	3458.1	-0.7319	0.40416	-0.53055
0.008	122.23	-3.0622e+05	3458	-0.73229	0.40524	-0.53016
0.01	122.23	-3.0622e+05	3457.8	-0.73268	0.40631	-0.52977
0.012	122.24	-3.0623e+05	3457.5	-0.73307	0.40738	-0.52938
0.014	122.25	-3.0622e+05	3457.2	-0.73346	0.40846	-0.52899
0.016	122.26	-3.0622e+05	3457	-0.73327	0.40787	-0.52899
0.018	122.27	-3.0622e+05	3456.7	-0.73307	0.40728	-0.52899
0.02	122.25	-3.0622e+05	3456.4	-0.73288	0.4067	-0.52899
0.022	122.23	-3.0622e+05	3456.1	-0.73268	0.40611	-0.52899
0.024	122.22	-3.0622e+05	3455.8	-0.73249	0.40553	-0.52899
0.026	122.23	-3.0622e+05	3455.4	-0.7322	0.40504	-0.52919
0.028	122.23	-3.0621e+05	3455	-0.7319	0.40455	-0.52938
0.03	122.23	-3.0622e+05	3454.6	-0.73161	0.40406	-0.52958
0.032	122.22	-3.0622e+05	3454.3	-0.73132	0.40358	-0.52977
0.034	122.21	-3.0622e+05	3453.9	-0.73102	0.40309	-0.52997
0.036	122.2	-3.0622e+05	3453.5	-0.73122	0.40387	-0.52997
0.038	122.21	-3.0622e+05	3453.1	-0.73141	0.40465	-0.52997
0.04	122.2	-3.0621e+05	3452.7	-0.73161	0.40543	-0.52997
0.042	122.19	-3.0622e+05	3452.2	-0.7318	0.40621	-0.52997
0.044	122.18	-3.0622e+05	3451.8	-0.732	0.40699	-0.52997
0.046	122.18	-3.0622e+05	3451.3	-0.73317	0.4068	-0.53055
0.048	122.17	-3.0622e+05	3450.9	-0.73434	0.4066	-0.53114
0.05	122.18	-3.0622e+05	3450.4	-0.73551	0.40641	-0.53172
0.052	122.18	-3.0622e+05	3449.9	-0.73668	0.40621	-0.53231
0.054	122.19	-3.0622e+05	3449.4	-0.73786	0.40602	-0.5329
0.056	122.2	-3.0622e+05	3448.9	-0.73698	0.40524	-0.5327
0.058	122.2	-3.0622e+05	3448.3	-0.7361	0.40445	-0.53251
0.06	122.19	-3.0622e+05	3447.8	-0.73522	0.40367	-0.53231
0.062	122.21	-3.0622e+05	3447.3	-0.73434	0.40289	-0.53212
0.064	122.23	-3.0622e+05	3446.8	-0.73346	0.40211	-0.53192
0.066	122.25	-3.0622e+05	3446.3	-0.73356	0.4027	-0.53143
0.068	122.27	-3.0623e+05	3445.7	-0.73366	0.40328	-0.53094
0.07	122.3	-3.0623e+05	3445.2	-0.73376	0.40387	-0.53046
0.072	122.3	-3.0623e+05	3444.7	-0.73385	0.40445	-0.52997
0.074	122.28	-3.0623e+05	3444.2	-0.73395	0.40504	-0.52948
0.076	122.28	-3.0622e+05	3443.6	-0.73483	0.40465	-0.53065
0.078	122.28	-3.0623e+05	3443.1	-0.73571	0.40426	-0.53182
0.08	122.28	-3.0623e+05	3442.5	-0.73659	0.40387	-0.53299
0.082	122.28	-3.0623e+05	3442	-0.73747	0.40348	-0.53416
0.084	122.27	-3.0623e+05	3441.4	-0.73834	0.40309	-0.53534
0.086	122.27	-3.0622e+05	3440.9	-0.73698	0.4028	-0.53446
0.088	122.27	-3.0622e+05	3440.3	-0.73561	0.4025	-0.53358
0.09	122.28	-3.0622e+05	3439.8	-0.73424	0.40221	-0.5327
0.092	122.28	-3.0622e+05	3439.2	-0.73288	0.40192	-0.53182
0.094	122.27	-3.0622e+05	3438.6	-0.73151	0.40162	-0.53094
0.096	122.27	-3.0622e+05	3438.1	-0.7321	0.40231	-0.53104
0.098	122.28	-3.0622e+05	3437.6	-0.73268	0.40299	-0.53114
0.1	122.3	-3.0622e+05	3437.1	-0.73327	0.40367	-0.53124
0.102	122.31	-3.0622e+05	3436.6	-0.73385	0.40436	-0.53133
0.104	122.32	-3.0622e+05	3436.1	-0.73444	0.40504	-0.53143
0.106	122.32	-3.0622e+05	3435.6	-0.73483	0.40543	-0.53094
0.108	122.33	-3.0622e+05	3435.1	-0.73522	0.40582	-0.53046
0.11	122.33	-3.0623e+05	3434.6	-0.73561	0.40621	-0.52997
0.112	122.33	-3.0623e+05	3434.2	-0.736	0.4066	-0.52948
0.114	122.33	-3.0623e+05	3433.7	-0.73639	0.40699	-0.52899
0.116	122.33	-3.0623e+05	3433.2	-0.73639	0.4066	-0.52958
0.118	122.33	-3.0622e+05	3432.7	-0.73639	0.40621	-0.53016
0.12	122.33	-3.0622e+05	3432.3	-0.73639	0.40582	-0.53075
0.122	122.33	-3.0622e+05	3432	-0.73639	0.40543	-0.53133
0.124	122.33	-3.0622e+05	3431.6	-0.73639	0.40504	-0.53192
0.126	122.32	-3.0622e+05	3431.2	-0.73483	0.40494	-0.53143
0.128	122.31	-3.0622e+05	3430.9	-0.73327	0.40484	-0.53094
0.13	122.3	-3.0622e+05	3430.5	-0.73171	0.40475	-0.53046
0.132	122.31	-3.0622e+05	3430.2	-0.73015	0.40465	-0.52997
0.134	122.31	-3.0622e+05	3429.8	-0.72858	0.40455	-0.52948
0.136	122.32	-3.0622e+05	3429.5	-0.72917	0.40494	-0.52928
0.138	122.32	-3.0622e+05	3429.2	-0.72976	0.40533	-0.52909
0.14	122.32	-3.0622e+05	3428.9	-0.73034	0.40572	-0.52889
0.142	122.33	-3.0622e+05	3428.6	-0.73093	0.40611	-0.5287
0.144	122.33	-3.0622e+05	3428.3	-0.73151	0.4065	-0.5285
0.146	122.32	-3.0622e+05	3428	-0.73268	0.40689	-0.52889
0.148	122.31	-3.0623e+05	3427.7	-0.73385	0.40728	-0.52928
0.15	122.32	-3.0623e+05	3427.4	-0.73503	0.40768	-0.52968
0.152	122.31	-3.0623e+05	3427.1	-0.7362	0.40807	-0.53007
0.154	122.31	-3.0622e+05	3426.8	-0.73737	0.40846	-0.53046
0.156	122.32	-3.0622e+05	3426.5	-0.73668	0.40768	-0.53114
0.158	122.32	-3.0622e+05	3426.2	-0.736	0.40689	-0.53182
0.16	122.33	-3.0622e+05	3426	-0.73532	0.40611	-0.53251
0.162	122.35	-3.0622e+05	3425.7	-0.73464	0.40533	-0.53319
0.164	122.35	-3.0622e+05	3425.4	-0.73395	0.40455	-0.53387
0.166	122.33	-3.0622e+05	3425.1	-0.73307	0.40504	-0.53212
0.168	122.31	-3.0622e+05	3424.8	-0.7322	0.40553	-0.53036
0.17	122.3	-3.0622e+05	3424.5	-0.73132	0.40602	-0.5286
0.172	122.28	-3.0622e+05	3424.2	-0.73044	0.4065	-0.52684
0.174	122.26	-3.0622e+05	3423.9	-0.72956	0.40699	-0.52509
0.176	122.23	-3.0622e+05	3423.7	-0.73034	0.40631	-0.52694
0.178	122.2	-3.0623e+05	3423.4	-0.73112	0.40563	-0.5288
0.18	122.14	-3.0623e+05	3423.1	-0.7319	0.40494	-0.53065
0.182	122.05	-3.0623e+05	3422.9	-0.73268	0.40426	-0.53251
0.184	121.9	-3.0623e+05	3422.6	-0.73346	0.40358	-0.53436
0.186	121.71	-3.0624e+05	3422.4	-0.73337	0.40387	-0.53377
0.188	121.53	-3.0624e+05	3422.2	-0.73327	0.40416	-0.53319
0.19	121.4	-3.0623e+05	3422	-0.73317	0.40445	-0.5326
0.192	121.32	-3.0622e+05	3421.7	-0.73307	0.40475	-0.53202
0.194	121.31	-3.0623e+05	3421.5	-0.73298	0.40504	-0.53143
0.196	121.38	-3.0623e+05	3421.2	-0.73327	0.40494	-0.53143
0.198	121.53	-3.0623e+05	3421	-0.73356	0.40484	-0.53143
0.2	121.74	-3.0623e+05	3420.8	-0.73385	0.40475	-0.53143
0.202	121.94	-3.0623e+05	3420.5	-0.73415	0.40465	-0.53143
0.204	122.09	-3.0622e+05	3420.3	-0.73444	0.40455	-0.53143
0.206	122.15	-3.0622e+05	3420.1	-0.73376	0.40445	-0.53133
0.208	122.18	-3.0622e+05	3419.9	-0.73307	0.40436	-0.53124
0.21	122.2	-3.0623e+05	3419.7	-0.73239	0.40426	-0.53114
0.212	122.21	-3.0623e+05	3419.4	-0.73171	0.40416	-0.53104
0.214	122.21	-3.0623e+05	3419.2	-0.73102	0.40406	-0.53094
0.216	122.21	-3.0622e+05	3418.9	-0.73112	0.40377	-0.53124
0.218	122.2	-3.0622e+05	3418.6	-0.73122	0.40348	-0.53153
0.22	122.21	-3.0622e+05	3418.3	-0.73132	0.40319	-0.53182
0.222	122.25	-3.0623e+05	3418	-0.73141	0.40289	-0.53212
0.224	122.28	-3.0623e+05	3417.8	-0.73151	0.4026	-0.53241
0.226	122.31	-3.0623e+05	3417.4	-0.7319	0.40309	-0.53202
0.228	122.33	-3.0623e+05	3417.1	-0.73229	0.40358	-0.53163
0.23	122.35	-3.0623e+05	3416.7	-0.73268	0.40406	-0.53124
0.232	122.36	-3.0623e+05	3416.4	-0.73307	0.40455	-0.53085
0.234	122.34	-3.0623e+05	3416.1	-0.73346	0.40504	-0.53046
0.236	122.33	-3.0623e+05	3415.8	-0.73376	0.40494	-0.53085
0.238	122.32	-3.0623e+05	3415.4	-0.73405	0.40484	-0.53124
0.24	122.32	-3.0623e+05	3415.1	-0.73434	0.40475	-0.53163
0.242	122.32	-3.0624e+05	3414.8	-0.73464	0.40465	-0.53202
0.244	122.33	-3.0624e+05	3414.4	-0.73493	0.40455	-0.53241
0.246	122.33	-3.0624e+05	3414	-0.73444	0.40387	-0.53221
0.248	122.34	-3.0623e+05	3413.6	-0.73395	0.40319	-0.53202
0.25	122.34	-3.0623e+05	3413.1	-0.73346	0.4025	-0.53182
0.252	122.33	-3.0623e+05	3412.7	-0.73298	0.40182	-0.53163
0.254	122.32	-3.0624e+05	3412.3	-0.73249	0.40114	-0.53143
0.256	122.32	-3.0624e+05	3412	-0.73307	0.40299	-0.53143
0.258	122.32	-3.0624e+05	3411.6	-0.73366	0.40484	-0.53143
0.26	122.32	-3.0624e+05	3411.2	-0.73424	0.4067	-0.53143
0.262	122.31	-3.0624e+05	3410.7	-0.73483	0.40855	-0.53143
0.264	122.3	-3.0623e+05	3410.2	-0.73542	0.41041	-0.53143
0.266	122.3	-3.0623e+05	3409.9	-0.73493	0.40933	-0.53182
0.268	122.3	-3.0623e+05	3409.5	-0.73444	0.40826	-0.53221
0.27	122.29	-3.0623e+05	3409.1	-0.73395	0.40719	-0.5326
0.272	122.29	-3.0623e+05	3408.7	-0.73346	0.40611	-0.53299
0.274	122.29	-3.0624e+05	3408.3	-0.73298	0.40504	-0.53338
0.276	122.31	-3.0625e+05	3407.9	-0.73356	0.40533	-0.53309
0.278	122.33	-3.0624e+05	3407.5	-0.73415	0.40563	-0.5328
0.28	122.34	-3.0623e+05	3407.1	-0.73473	0.40592	-0.53251
0.282	122.34	-3.0624e+05	3406.7	-0.73532	0.40621	-0.53221
0.284	122.34	-3.0624e+05	3406.3	-0.7359	0.4065	-0.53192
0.286	122.35	-3.0624e+05	3406	-0.73464	0.40621	-0.53124
0.288	122.34	-3.0624e+05	3405.6	-0.73337	0.40592	-0.53055
0.29	122.33	-3.0624e+05	3405.3	-0.7321	0.40563	-0.52987
0.292	122.32	-3.0623e+05	3405	-0.73083	0.40533	-0.52919
0.294	122.32	-3.0624e+05	3404.7	-0.72956	0.40504	-0.5285
0.296	122.33	-3.0625e+05	3404.3	-0.72966	0.40533	-0.52831
0.298	122.32	-3.0624e+05	3404	-0.72976	0.40563	-0.52811
0.3	122.31	-3.0624e+05	3403.7	-0.72985	0.40592	-0.52792
0.302	122.32	-3.0624e+05	3403.4	-0.72995	0.40621	-0.52772
0.304	122.33	-3.0624e+05	3403	-0.73005	0.4065	-0.52753
0.306	122.33	-3.0624e+05	3402.7	-0.72985	0.40592	-0.52792
0.308	122.33	-3.0624e+05	3402.3	-0.72966	0.40533	-0.52831
0.31	122.33	-3.0624e+05	3402	-0.72946	0.40475	-0.5287
0.312	122.32	-3.0624e+05	3401.8	-0.72927	0.40416	-0.52909
0.314	122.29	-3.0624e+05	3401.5	-0.72907	0.40358	-0.52948
0.316	122.28	-3.0625e+05	3401.2	-0.72907	0.40328	-0.52948
0.318	122.27	-3.0625e+05	3400.9	-0.72907	0.40299	-0.52948
0.32	122.28	-3.0625e+05	3400.6	-0.72907	0.4027	-0.52948
0.322	122.29	-3.0625e+05	3400.3	-0.72907	0.4024	-0.52948
0.324	122.32	-3.0625e+05	3400	-0.72907	0.40211	-0.52948
0.326	122.34	-3.0625e+05	3399.7	-0.72966	0.40182	-0.52948
0.328	122.36	-3.0625e+05	3399.4	-0.73024	0.40153	-0.52948
0.33	122.34	-3.0625e+05	3399.1	-0.73083	0.40123	-0.52948
0.332	122.34	-3.0625e+05	3398.9	-0.73141	0.40094	-0.52948
0.334	122.33	-3.0625e+05	3398.6	-0.732	0.40065	-0.52948
0.336	122.32	-3.0626e+05	3398.4	-0.7318	0.40006	-0.52968
0.338	122.33	-3.0626e+05	3398.2	-0.73161	0.39948	-0.52987
0.34	122.32	-3.0627e+05	3398	-0.73141	0.39889	-0.53007
0.342	122.31	-3.0626e+05	3397.8	-0.73122	0.39831	-0.53026
0.344	122.31	-3.0625e+05	3397.7	-0.73102	0.39772	-0.53046
0.346	122.32	-3.0625e+05	3397.7	-0.73093	0.39889	-0.53055
0.348	122.31	-3.0625e+05	3397.7	-0.73083	0.40006	-0.53065
0.35	122.3	-3.0625e+05	3397.7	-0.73073	0.40123	-0.53075
0.352	122.29	-3.0625e+05	3397.9	-0.73063	0.4024	-0.53085
0.354	122.29	-3.0625e+05	3398.1	-0.73054	0.40358	-0.53094
0.356	122.28	-3.0624e+05	3398.7	-0.73005	0.40397	-0.53026
0.358	122.28	-3.0625e+05	3399.2	-0.72956	0.40436	-0.52958
0.36	122.28	-3.0625e+05	3400	-0.72907	0.40475	-0.52889
0.362	122.28	-3.0625e+05	3401	-0.72858	0.40514	-0.52821
0.364	122.27	-3.0625e+05	3402	-0.7281	0.40553	-0.52753
0.366	122.26	-3.0625e+05	3403.6	-0.72985	0.40611	-0.52802
0.368	122.26	-3.0625e+05	3405.3	-0.73161	0.4067	-0.5285
0.37	122.28	-3.0625e+05	3407.2	-0.73337	0.40728	-0.52899
0.372	122.28	-3.0626e+05	3409.5	-0.73512	0.40787	-0.52948
0.374	122.28	-3.0627e+05	3411.7	-0.73688	0.40846	-0.52997
0.376	122.28	-3.0627e+05	3414.5	-0.736	0.40728	-0.53036
0.378	122.27	-3.0626e+05	3417.3	-0.73512	0.40611	-0.53075
0.38	122.26	-3.0626e+05	3420.4	-0.73424	0.40494	-0.53114
0.382	122.24	-3.0626e+05	3423.8	-0.73337	0.40377	-0.53153
0.384	122.24	-3.0625e+05	3427.1	-0.73249	0.4026	-0.53192
0.386	122.24	-3.0625e+05	3430.7	-0.73288	0.40348	-0.53153
0.388	122.23	-3.0625e+05	3434.4	-0.73327	0.40436	-0.53114
0.39	122.21	-3.0625e+05	3438.1	-0.73366	0.40524	-0.53075
0.392	122.2	-3.0625e+05	3441.9	-0.73405	0.40611	-0.53036
0.394	122.18	-3.0625e+05	3445.7	-0.73444	0.40699	-0.52997
0.396	122.16	-3.0626e+05	3449.6	-0.73385	0.40621	-0.53007
0.398	122.14	-3.0626e+05	3453.4	-0.73327	0.40543	-0.53016
0.4	122.13	-3.0626e+05	3457.2	-0.73268	0.40465	-0.53026
0.402	122.11	-3.0625e+05	3460.8	-0.7321	0.40387	-0.53036
0.404	122.1	-3.0624e+05	3464.5	-0.73151	0.40309	-0.53046
0.406	122.1	-3.0625e+05	3467.9	-0.73239	0.40387	-0.53046
0.408	122.1	-3.0626e+05	3471.4	-0.73327	0.40465	-0.53046
0.41	122.11	-3.0626e+05	3474.7	-0.73415	0.40543	-0.53046
0.412	122.11	-3.0626e+05	3477.8	-0.73503	0.40621	-0.53046
0.414	122.1	-3.0626e+05	3480.9	-0.7359	0.40699	-0.53046
0.416	122.08	-3.0626e+05	3483.6	-0.7361	0.4068	-0.53055
0.418	122.08	-3.0625e+05	3486.4	-0.73629	0.4066	-0.53065
0.42	122.08	-3.0625e+05	3489	-0.73649	0.40641	-0.53075
0.422	122.08	-3.0625e+05	3491.4	-0.73668	0.40621	-0.53085
0.424	122.07	-3.0626e+05	3493.8	-0.73688	0.40602	-0.53094
0.426	122.06	-3.0626e+05	3495.9	-0.73629	0.40582	-0.53124
0.428	122.07	-3.0626e+05	3498	-0.73571	0.40563	-0.53153
0.43	122.08	-3.0626e+05	3499.9	-0.73512	0.40543	-0.53182
0.432	122.1	-3.0626e+05	3501.7	-0.73454	0.40524	-0.53212
0.434	122.1	-3.0626e+05	3503.5	-0.73395	0.40504	-0.53241
0.436	122.07	-3.0626e+05	3505.1	-0.73415	0.40563	-0.53231
0.438	122.04	-3.0626e+05	3506.6	-0.73434	0.40621	-0.53221
0.44	122.03	-3.0626e+05	3508.1	-0.73454	0.4068	-0.53212
0.442	122.01	-3.0626e+05	3509.4	-0.73473	0.40738	-0.53202
0.444	122.01	-3.0626e+05	3510.7	-0.73493	0.40797	-0.53192
0.446	122	-3.0626e+05	3511.7	-0.73278	0.40855	-0.53094
0.448	122	-3.0625e+05	3512.7	-0.73063	0.40914	-0.52997
0.45	122.02	-3.0626e+05	3513.6	-0.72849	0.40972	-0.52899
0.452	122.04	-3.0626e+05	3514.4	-0.72634	0.41031	-0.52802
0.454	122.07	-3.0626e+05	3515.1	-0.72419	0.4109	-0.52704
0.456	122.08	-3.0625e+05	3515.6	-0.72478	0.41129	-0.52743
0.458	122.07	-3.0625e+05	3516.1	-0.72536	0.41168	-0.52782
0.46	122.07	-3.0625e+05	3516.5	-0.72595	0.41207	-0.52821
0.462	122.06	-3.0625e+05	3516.8	-0.72653	0.41246	-0.5286
0.464	122.07	-3.0624e+05	3517	-0.72712	0.41285	-0.52899
0.466	122.08	-3.0624e+05	3517.1	-0.72771	0.41119	-0.52811
0.468	122.09	-3.0625e+05	3517.3	-0.72829	0.40953	-0.52724
0.47	122.1	-3.0624e+05	3517.3	-0.72888	0.40787	-0.52636
0.472	122.1	-3.0624e+05	3517.1	-0.72946	0.40621	-0.52548
0.474	122.1	-3.0625e+05	3517	-0.73005	0.40455	-0.5246
0.476	122.1	-3.0625e+05	3516.9	-0.73044	0.40524	-0.52401
0.478	122.11	-3.0625e+05	3516.7	-0.73083	0.40592	-0.52343
0.48	122.12	-3.0625e+05	3516.5	-0.73122	0.4066	-0.52284
0.482	122.14	-3.0625e+05	3516.3	-0.73161	0.40728	-0.52226
0.484	122.15	-3.0624e+05	3516	-0.732	0.40797	-0.52167
0.486	122.15	-3.0624e+05	3515.7	-0.73073	0.40875	-0.52226
0.488	122.15	-3.0623e+05	3515.4	-0.72946	0.40953	-0.52284
0.49	122.15	-3.0623e+05	3515	-0.72819	0.41031	-0.52343
0.492	122.15	-3.0623e+05	3514.6	-0.72692	0.41109	-0.52401
0.494	122.16	-3.0623e+05	3514.3	-0.72566	0.41187	-0.5246
0.496	122.15	-3.0623e+05	3513.9	-0.72644	0.41041	-0.52587
0.498	122.15	-3.0623e+05	3513.5	-0.72722	0.40894	-0.52714
0.5	122.17	-3.0622e+05	3513	-0.728	0.40748	-0.52841
0.502	122.18	-3.0622e+05	3512.6	-0.72878	0.40602	-0.52968
0.504	122.17	-3.0622e+05	3512.1	-0.72956	0.40455	-0.53094
0.506	122.18	-3.0622e+05	3511.7	-0.72956	0.40445	-0.52997
0.508	122.17	-3.0621e+05	3511.3	-0.72956	0.40436	-0.52899
0.51	122.17	-3.0621e+05	3510.9	-0.72956	0.40426	-0.52802
0.512	122.18	-3.0621e+05	3510.5	-0.72956	0.40416	-0.52704
0.514	122.18	-3.0621e+05	3510.1	-0.72956	0.40406	-0.52606
0.516	122.18	-3.0621e+05	3509.7	-0.72907	0.40416	-0.52665
0.518	122.2	-3.0621e+05	3509.3	-0.72858	0.40426	-0.52724
0.52	122.22	-3.0621e+05	3508.9	-0.7281	0.40436	-0.52782
0.522	122.23	-3.062e+05	3508.5	-0.72761	0.40445	-0.52841
0.524	122.22	-3.062e+05	3508.2	-0.72712	0.40455	-0.52899
0.526	122.21	-3.062e+05	3507.8	-0.72868	0.40416	-0.53007
0.528	122.2	-3.0621e+05	3507.4	-0.73024	0.40377	-0.53114
0.53	122.18	-3.0621e+05	3507	-0.7318	0.40338	-0.53221
0.532	122.18	-3.062e+05	3506.6	-0.73337	0.40299	-0.53329
0.534	122.2	-3.0621e+05	3506.3	-0.73493	0.4026	-0.53436
0.536	122.2	-3.0621e+05	3505.9	-0.73327	0.40328	-0.5329
0.538	122.22	-3.062e+05	3505.5	-0.73161	0.40397	-0.53143
0.54	122.23	-3.062e+05	3505.1	-0.72995	0.40465	-0.52997
0.542	122.23	-3.0619e+05	3504.7	-0.72829	0.40533	-0.5285
0.544	122.22	-3.0618e+05	3504.4	-0.72663	0.40602	-0.52704
0.546	122.21	-3.0619e+05	3504	-0.72634	0.40563	-0.52714
0.548	122.21	-3.062e+05	3503.5	-0.72605	0.40524	-0.52724
0.55	122.21	-3.062e+05	3503.1	-0.72575	0.40484	-0.52733
0.552	122.21	-3.062e+05	3502.6	-0.72546	0.40445	-0.52743
0.554	122.22	-3.0619e+05	3502.1	-0.72517	0.40406	-0.52753
0.556	122.24	-3.0619e+05	3501.5	-0.72595	0.40514	-0.5286
0.558	122.24	-3.0619e+05	3500.9	-0.72673	0.40621	-0.52968
0.56	122.23	-3.0619e+05	3500.2	-0.72751	0.40728	-0.53075
0.562	122.23	-3.0619e+05	3499.6	-0.72829	0.40836	-0.53182
0.564	122.23	-3.0619e+05	3498.9	-0.72907	0.40943	-0.5329
0.566	122.22	-3.0619e+05	3498.1	-0.73054	0.40816	-0.53319
0.568	122.22	-3.0618e+05	3497.3	-0.732	0.40689	-0.53348
0.57	122.22	-3.0618e+05	3496.4	-0.73346	0.40563	-0.53377
0.572	122.22	-3.0617e+05	3495.5	-0.73493	0.40436	-0.53407
0.574	122.22	-3.0617e+05	3494.5	-0.73639	0.40309	-0.53436
0.576	122.22	-3.0617e+05	3493.4	-0.73522	0.4027	-0.53368
0.578	122.22	-3.0617e+05	3492.2	-0.73405	0.40231	-0.53299
0.58	122.22	-3.0617e+05	3491.1	-0.73288	0.40192	-0.53231
0.582	122.22	-3.0617e+05	3489.8	-0.73171	0.40153	-0.53163
0.584	122.23	-3.0617e+05	3488.6	-0.73054	0.40114	-0.53094
0.586	122.24	-3.0617e+05	3487.3	-0.73141	0.40133	-0.53182
0.588	122.24	-3.0617e+05	3485.9	-0.73229	0.40153	-0.5327
0.59	122.24	-3.0616e+05	3484.6	-0.73317	0.40172	-0.53358
0.592	122.24	-3.0616e+05	3483.2	-0.73405	0.40192	-0.53446
0.594	122.24	-3.0616e+05	3481.8	-0.73493	0.40211	-0.53534
0.596	122.25	-3.0616e+05	3480.5	-0.73493	0.40182	-0.53456
0.598	122.24	-3.0616e+05	3479.2	-0.73493	0.40153	-0.53377
0.6	122.24	-3.0616e+05	3477.9	-0.73493	0.40123	-0.53299
0.602	122.24	-3.0616e+05	3476.6	-0.73493	0.40094	-0.53221
0.604	122.25	-3.0615e+05	3475.4	-0.73493	0.40065	-0.53143
0.606	122.28	-3.0616e+05	3474.2	-0.73503	0.40133	-0.53192
0.608	122.29	-3.0616e+05	3473	-0.73512	0.40201	-0.53241
0.61	122.3	-3.0616e+05	3471.8	-0.73522	0.4027	-0.5329
0.612	122.3	-3.0616e+05	3470.5	-0.73532	0.40338	-0.53338
0.614	122.3	-3.0616e+05	3469.3	-0.73542	0.40406	-0.53387
0.616	122.3	-3.0616e+05	3468.3	-0.73405	0.40406	-0.5326
0.618	122.3	-3.0616e+05	3467.3	-0.73268	0.40406	-0.53133
0.62	122.29	-3.0616e+05	3466.3	-0.73132	0.40406	-0.53007
0.622	122.28	-3.0616e+05	3465.3	-0.72995	0.40406	-0.5288
0.624	122.25	-3.0616e+05	3464.4	-0.72858	0.40406	-0.52753
0.626	122.23	-3.0615e+05	3463.6	-0.72839	0.40465	-0.52704
0.628	122.23	-3.0615e+05	3462.8	-0.72819	0.40524	-0.52655
0.63	122.24	-3.0615e+05	3462.1	-0.728	0.40582	-0.52606
0.632	122.25	-3.0615e+05	3461.4	-0.7278	0.40641	-0.52558
0.634	122.27	-3.0615e+05	3460.8	-0.72761	0.40699	-0.52509
0.636	122.3	-3.0616e+05	3460.3	-0.72936	0.40621	-0.52645
0.638	122.32	-3.0615e+05	3459.8	-0.73112	0.40543	-0.52782
0.64	122.33	-3.0615e+05	3459.4	-0.73288	0.40465	-0.52919
0.642	122.32	-3.0615e+05	3459	-0.73464	0.40387	-0.53055
0.644	122.31	-3.0615e+05	3458.6	-0.73639	0.40309	-0.53192
0.646	122.31	-3.0615e+05	3458.3	-0.73473	0.40309	-0.53114
0.648	122.29	-3.0615e+05	3458	-0.73307	0.40309	-0.53036
0.65	122.28	-3.0615e+05	3457.8	-0.73141	0.40309	-0.52958
0.652	122.28	-3.0615e+05	3457.6	-0.72976	0.40309	-0.5288
0.654	122.27	-3.0615e+05	3457.4	-0.7281	0.40309	-0.52802
0.656	122.27	-3.0615e+05	3457.3	-0.72946	0.40436	-0.52782
0.658	122.27	-3.0614e+05	3457.1	-0.73083	0.40563	-0.52763
0.66	122.27	-3.0614e+05	3457	-0.7322	0.40689	-0.52743
0.662	122.27	-3.0614e+05	3456.9	-0.73356	0.40816	-0.52724
0.664	122.29	-3.0614e+05	3456.9	-0.73493	0.40943	-0.52704
0.666	122.29	-3.0614e+05	3456.9	-0.73551	0.40875	-0.52802
0.668	122.29	-3.0614e+05	3457	-0.7361	0.40807	-0.52899
0.67	122.27	-3.0615e+05	3457	-0.73668	0.40738	-0.52997
0.672	122.27	-3.0615e+05	3457.1	-0.73727	0.4067	-0.53094
0.674	122.28	-3.0615e+05	3457.1	-0.73786	0.40602	-0.53192
0.676	122.29	-3.0615e+05	3457.2	-0.73678	0.40592	-0.53124
0.678	122.28	-3.0615e+05	3457.2	-0.73571	0.40582	-0.53055
0.68	122.27	-3.0614e+05	3457.2	-0.73464	0.40572	-0.52987
0.682	122.27	-3.0614e+05	3457.3	-0.73356	0.40563	-0.52919
0.684	122.27	-3.0614e+05	3457.4	-0.73249	0.40553	-0.5285
0.686	122.29	-3.0614e+05	3457.4	-0.73366	0.40592	-0.52928
0.688	122.31	-3.0614e+05	3457.5	-0.73483	0.40631	-0.53007
0.69	122.32	-3.0615e+05	3457.5	-0.736	0.4067	-0.53085
0.692	122.32	-3.0615e+05	3457.5	-0.73717	0.40709	-0.53163
0.694	122.29	-3.0615e+05	3457.5	-0.73834	0.40748	-0.53241
0.696	122.28	-3.0615e+05	3457.5	-0.73834	0.40699	-0.5327
0.698	122.27	-3.0614e+05	3457.5	-0.73834	0.4065	-0.53299
0.7	122.26	-3.0614e+05	3457.5	-0.73834	0.40602	-0.53329
0.702	122.28	-3.0614e+05	3457.5	-0.73834	0.40553	-0.53358
0.704	122.3	-3.0614e+05	3457.5	-0.73834	0.40504	-0.53387
0.706	122.3	-3.0614e+05	3457.4	-0.73532	0.40563	-0.53241
0.708	122.3	-3.0614e+05	3457.4	-0.73229	0.40621	-0.53094
0.71	122.31	-3.0614e+05	3457.3	-0.72927	0.4068	-0.52948
0.712	122.3	-3.0614e+05	3457.3	-0.72624	0.40738	-0.52802
0.714	122.29	-3.0614e+05	3457.2	-0.72322	0.40797	-0.52655
0.716	122.28	-3.0614e+05	3457.1	-0.724	0.40758	-0.52684
0.718	122.27	-3.0614e+05	3456.9	-0.72478	0.40719	-0.52714
0.72	122.27	-3.0615e+05	3456.8	-0.72556	0.4068	-0.52743
0.722	122.28	-3.0614e+05	3456.6	-0.72634	0.40641	-0.52772
0.724	122.27	-3.0614e+05	3456.5	-0.72712	0.40602	-0.52802
0.726	122.28	-3.0613e+05	3456.2	-0.72712	0.40621	-0.52724
0.728	122.29	-3.0613e+05	3456	-0.72712	0.40641	-0.52645
0.73	122.28	-3.0614e+05	3455.7	-0.72712	0.4066	-0.52567
0.732	122.27	-3.0615e+05	3455.5	-0.72712	0.4068	-0.52489
0.734	122.27	-3.0615e+05	3455.2	-0.72712	0.40699	-0.52411
0.736	122.28	-3.0615e+05	3454.9	-0.72683	0.40709	-0.5245
0.738	122.3	-3.0614e+05	3454.6	-0.72653	0.40719	-0.52489
0.74	122.3	-3.0614e+05	3454.3	-0.72624	0.40728	-0.52528
0.742	122.3	-3.0614e+05	3454	-0.72595	0.40738	-0.52567
0.744	122.3	-3.0614e+05	3453.6	-0.72566	0.40748	-0.52606
0.746	122.28	-3.0614e+05	3453.2	-0.72595	0.40689	-0.52606
0.748	122.26	-3.0614e+05	3452.7	-0.72624	0.40631	-0.52606
0.75	122.26	-3.0614e+05	3452.3	-0.72653	0.40572	-0.52606
0.752	122.27	-3.0614e+05	3451.8	-0.72683	0.40514	-0.52606
0.754	122.25	-3.0614e+05	3451.3	-0.72712	0.40455	-0.52606
0.756	122.24	-3.0615e+05	3450.8	-0.72712	0.40475	-0.52655
0.758	122.23	-3.0614e+05	3450.4	-0.72712	0.40494	-0.52704
0.76	122.22	-3.0614e+05	3449.9	-0.72712	0.40514	-0.52753
0.762	122.21	-3.0614e+05	3449.4	-0.72712	0.40533	-0.52802
0.764	122.2	-3.0614e+05	3448.9	-0.72712	0.40553	-0.5285
0.766	122.19	-3.0614e+05	3448.3	-0.72732	0.40533	-0.52841
0.768	122.22	-3.0614e+05	3447.8	-0.72751	0.40514	-0.52831
0.77	122.27	-3.0614e+05	3447.2	-0.72771	0.40494	-0.52821
0.772	122.29	-3.0614e+05	3446.7	-0.7279	0.40475	-0.52811
0.774	122.27	-3.0613e+05	3446.2	-0.7281	0.40455	-0.52802
0.776	122.25	-3.0613e+05	3445.7	-0.72907	0.40416	-0.52889
0.778	122.23	-3.0613e+05	3445.2	-0.73005	0.40377	-0.52977
0.78	122.23	-3.0614e+05	3444.7	-0.73102	0.40338	-0.53065
0.782	122.24	-3.0614e+05	3444.2	-0.732	0.40299	-0.53153
0.784	122.25	-3.0614e+05	3443.7	-0.73298	0.4026	-0.53241
0.786	122.27	-3.0615e+05	3443.2	-0.73259	0.4028	-0.53085
0.788	122.29	-3.0615e+05	3442.6	-0.7322	0.40299	-0.52928
0.79	122.3	-3.0614e+05	3442.1	-0.7318	0.40319	-0.52772
0.792	122.3	-3.0613e+05	3441.6	-0.73141	0.40338	-0.52616
0.794	122.3	-3.0613e+05	3441.1	-0.73102	0.40358	-0.5246
0.796	122.3	-3.0614e+05	3440.6	-0.73151	0.40299	-0.52587
0.798	122.3	-3.0614e+05	3440	-0.732	0.4024	-0.52714
0.8	122.31	-3.0614e+05	3439.5	-0.73249	0.40182	-0.52841
0.802	122.31	-3.0614e+05	3439	-0.73298	0.40123	-0.52968
0.804	122.31	-3.0614e+05	3438.4	-0.73346	0.40065	-0.53094
0.806	122.31	-3.0614e+05	3437.9	-0.73376	0.40153	-0.53114
0.808	122.31	-3.0615e+05	3437.4	-0.73405	0.4024	-0.53133
0.81	122.32	-3.0614e+05	3436.8	-0.73434	0.40328	-0.53153
0.812	122.33	-3.0614e+05	3436.3	-0.73464	0.40416	-0.53172
0.814	122.34	-3.0613e+05	3435.8	-0.73493	0.40504	-0.53192
0.816	122.34	-3.0613e+05	3435.2	-0.73307	0.40592	-0.53046
0.818	122.35	-3.0613e+05	3434.7	-0.73122	0.4068	-0.52899
0.82	122.36	-3.0613e+05	3434.2	-0.72936	0.40768	-0.52753
0.822	122.35	-3.0613e+05	3433.6	-0.72751	0.40855	-0.52606
0.824	122.33	-3.0613e+05	3433.1	-0.72566	0.40943	-0.5246
0.826	122.34	-3.0614e+05	3432.6	-0.72595	0.40943	-0.5244
0.828	122.34	-3.0614e+05	3432	-0.72624	0.40943	-0.52421
0.83	122.33	-3.0614e+05	3431.5	-0.72653	0.40943	-0.52401
0.832	122.33	-3.0614e+05	3431	-0.72683	0.40943	-0.52382
0.834	122.33	-3.0614e+05	3430.5	-0.72712	0.40943	-0.52362
0.836	122.34	-3.0614e+05	3430	-0.72741	0.40865	-0.52431
0.838	122.36	-3.0613e+05	3429.5	-0.72771	0.40787	-0.52499
0.84	122.37	-3.0613e+05	3429	-0.728	0.40709	-0.52567
0.842	122.39	-3.0613e+05	3428.5	-0.72829	0.40631	-0.52636
0.844	122.4	-3.0613e+05	3428	-0.72858	0.40553	-0.52704
0.846	122.38	-3.0613e+05	3427.6	-0.73005	0.40563	-0.52733
0.848	122.36	-3.0614e+05	3427.1	-0.73151	0.40572	-0.52763
0.85	122.35	-3.0614e+05	3426.6	-0.73298	0.40582	-0.52792
0.852	122.35	-3.0613e+05	3426.2	-0.73444	0.40592	-0.52821
0.854	122.35	-3.0614e+05	3425.8	-0.7359	0.40602	-0.5285
0.856	122.35	-3.0614e+05	3425.4	-0.73512	0.40533	-0.52909
0.858	122.35	-3.0615e+05	3425	-0.73434	0.40465	-0.52968
0.86	122.36	-3.0615e+05	3424.6	-0.73356	0.40397	-0.53026
0.862	122.35	-3.0614e+05	3424.2	-0.73278	0.40328	-0.53085
0.864	122.35	-3.0614e+05	3423.7	-0.732	0.4026	-0.53143
0.866	122.34	-3.0614e+05	3423.4	-0.73102	0.40289	-0.53055
0.868	122.34	-3.0614e+05	3423	-0.73005	0.40319	-0.52968
0.87	122.34	-3.0614e+05	3422.7	-0.72907	0.40348	-0.5288
0.872	122.34	-3.0614e+05	3422.3	-0.7281	0.40377	-0.52792
0.874	122.34	-3.0614e+05	3421.9	-0.72712	0.40406	-0.52704
0.876	122.36	-3.0614e+05	3421.6	-0.72761	0.40397	-0.52733
0.878	122.37	-3.0614e+05	3421.2	-0.7281	0.40387	-0.52763
0.88	122.37	-3.0614e+05	3420.9	-0.72858	0.40377	-0.52792
0.882	122.37	-3.0614e+05	3420.6	-0.72907	0.40367	-0.52821
0.884	122.36	-3.0614e+05	3420.3	-0.72956	0.40358	-0.5285
0.886	122.36	-3.0615e+05	3420	-0.73054	0.40416	-0.52831
0.888	122.37	-3.0615e+05	3419.7	-0.73151	0.40475	-0.52811
0.89	122.37	-3.0615e+05	3419.4	-0.73249	0.40533	-0.52792
0.892	122.37	-3.0615e+05	3419.1	-0.73346	0.40592	-0.52772
0.894	122.36	-3.0615e+05	3418.7	-0.73444	0.4065	-0.52753
0.896	122.32	-3.0615e+05	3418.4	-0.73307	0.40611	-0.52772
0.898	122.27	-3.0615e+05	3418.1	-0.73171	0.40572	-0.52792
0.9	122.19	-3.0614e+05	3417.9	-0.73034	0.40533	-0.52811
0.902	122.1	-3.0614e+05	3417.6	-0.72897	0.40494	-0.52831
0.904	121.98	-3.0615e+05	3417.4	-0.72761	0.40455	-0.5285
0.906	121.84	-3.0615e+05	3417.2	-0.72712	0.40484	-0.52821
0.908	121.68	-3.0616e+05	3417	-0.72663	0.40514	-0.52792
0.91	121.54	-3.0615e+05	3416.8	-0.72614	0.40543	-0.52763
0.912	121.42	-3.0615e+05	3416.6	-0.72566	0.40572	-0.52733
0.914	121.37	-3.0615e+05	3416.4	-0.72517	0.40602	-0.52704
0.916	121.4	-3.0615e+05	3416.1	-0.72546	0.40631	-0.52675
0.918	121.52	-3.0615e+05	3415.9	-0.72575	0.4066	-0.52645
0.92	121.71	-3.0614e+05	3415.7	-0.72605	0.40689	-0.52616
0.922	121.93	-3.0614e+05	3415.5	-0.72634	0.40719	-0.52587
0.924	122.12	-3.0615e+05	3415.3	-0.72663	0.40748	-0.52558
0.926	122.23	-3.0615e+05	3415.1	-0.72644	0.40748	-0.52528
0.928	122.27	-3.0616e+05	3414.9	-0.72624	0.40748	-0.52499
0.93	122.28	-3.0616e+05	3414.7	-0.72605	0.40748	-0.5247
0.932	122.29	-3.0615e+05	3414.4	-0.72585	0.40748	-0.5244
0.934	122.31	-3.0615e+05	3414.1	-0.72566	0.40748	-0.52411
0.936	122.31	-3.0616e+05	3413.9	-0.72536	0.40885	-0.52499
0.938	122.29	-3.0615e+05	3413.7	-0.72507	0.41021	-0.52587
0.94	122.31	-3.0615e+05	3413.4	-0.72478	0.41158	-0.52675
0.942	122.33	-3.0615e+05	3413.1	-0.72448	0.41295	-0.52763
0.944	122.35	-3.0615e+05	3412.8	-0.72419	0.41431	-0.5285
0.946	122.37	-3.0615e+05	3412.5	-0.72536	0.41314	-0.52841
0.948	122.38	-3.0615e+05	3412.1	-0.72653	0.41197	-0.52831
0.95	122.38	-3.0615e+05	3411.8	-0.72771	0.4108	-0.52821
0.952	122.37	-3.0614e+05	3411.4	-0.72888	0.40963	-0.52811
0.954	122.36	-3.0614e+05	3411.1	-0.73005	0.40846	-0.52802
0.956	122.36	-3.0614e+05	3410.7	-0.72829	0.40894	-0.52772
0.958	122.35	-3.0615e+05	3410.4	-0.72653	0.40943	-0.52743
0.96	122.34	-3.0615e+05	3410	-0.72478	0.40992	-0.52714
0.962	122.34	-3.0615e+05	3409.7	-0.72302	0.41041	-0.52684
0.964	122.34	-3.0615e+05	3409.4	-0.72126	0.4109	-0.52655
0.966	122.33	-3.0615e+05	3409	-0.72263	0.4107	-0.52587
0.968	122.34	-3.0615e+05	3408.6	-0.724	0.41051	-0.52519
0.97	122.35	-3.0615e+05	3408.2	-0.72536	0.41031	-0.5245
0.972	122.36	-3.0616e+05	3407.8	-0.72673	0.41012	-0.52382
0.974	122.37	-3.0615e+05	3407.4	-0.7281	0.40992	-0.52314
0.976	122.37	-3.0615e+05	3407.1	-0.72829	0.40836	-0.5248
0.978	122.38	-3.0616e+05	3406.7	-0.72849	0.4068	-0.52645
0.98	122.38	-3.0616e+05	3406.4	-0.72868	0.40524	-0.52811
0.982	122.38	-3.0616e+05	3406	-0.72888	0.40367	-0.52977
0.984	122.38	-3.0616e+05	3405.7	-0.72907	0.40211	-0.53143
0.986	122.37	-3.0616e+05	3405.3	-0.73024	0.4024	-0.53163
0.988	122.37	-3.0616e+05	3404.9	-0.73141	0.4027	-0.53182
0.99	122.35	-3.0616e+05	3404.6	-0.73259	0.40299	-0.53202
0.992	122.34	-3.0616e+05	3404.3	-0.73376	0.40328	-0.53221
0.994	122.33	-3.0616e+05	3404	-0.73493	0.40358	-0.53241
0.996	122.32	-3.0616e+05	3403.6	-0.73346	0.40397	-0.53153
0.998	122.33	-3.0616e+05	3403.3	-0.732	0.40436	-0.53065
1	122.34	-3.0616e+05	3402.9	-0.73054	0.40475	-0.52977
1.002	122.36	-3.0617e+05	3402.6	-0.72907	0.40514	-0.52889
1.004	122.37	-3.0617e+05	3402.2	-0.72761	0.40553	-0.52802
1.006	122.37	-3.0617e+05	3401.9	-0.7281	0.40563	-0.52733
1.008	122.37	-3.0616e+05	3401.5	-0.72858	0.40572	-0.52665
1.01	122.37	-3.0616e+05	3401.2	-0.72907	0.40582	-0.52597
1.012	122.36	-3.0616e+05	3400.8	-0.72956	0.40592	-0.52528
1.014	122.34	-3.0617e+05	3400.5	-0.73005	0.40602	-0.5246
1.016	122.34	-3.0617e+05	3400.1	-0.73034	0.40563	-0.52489
1.018	122.33	-3.0617e+05	3399.8	-0.73063	0.40524	-0.52519
1.02	122.32	-3.0617e+05	3399.5	-0.73093	0.40484	-0.52548
1.022	122.33	-3.0617e+05	3399.1	-0.73122	0.40445	-0.52577
1.024	122.33	-3.0617e+05	3398.8	-0.73151	0.40406	-0.52606
1.026	122.33	-3.0617e+05	3398.5	-0.73083	0.40377	-0.52636
1.028	122.34	-3.0617e+05	3398.1	-0.73015	0.40348	-0.52665
1.03	122.35	-3.0617e+05	3397.8	-0.72946	0.40319	-0.52694
1.032	122.36	-3.0617e+05	3397.4	-0.72878	0.40289	-0.52724
1.034	122.37	-3.0618e+05	3397	-0.7281	0.4026	-0.52753
1.036	122.36	-3.0618e+05	3396.7	-0.7281	0.4026	-0.52763
1.038	122.35	-3.0617e+05	3396.3	-0.7281	0.4026	-0.52772
1.04	122.34	-3.0617e+05	3395.9	-0.7281	0.4026	-0.52782
1.042	122.34	-3.0617e+05	3395.6	-0.7281	0.4026	-0.52792
1.044	122.34	-3.0617e+05	3395.3	-0.7281	0.4026	-0.52802
1.046	122.33	-3.0616e+05	3394.9	-0.72878	0.4027	-0.52831
1.048	122.33	-3.0616e+05	3394.6	-0.72946	0.4028	-0.5286
1.05	122.34	-3.0617e+05	3394.3	-0.73015	0.40289	-0.52889
1.052	122.35	-3.0618e+05	3394	-0.73083	0.40299	-0.52919
1.054	122.34	-3.0618e+05	3393.7	-0.73151	0.40309	-0.52948
1.056	122.34	-3.0618e+05	3393.4	-0.73141	0.40289	-0.52968
1.058	122.33	-3.0618e+05	3393.2	-0.73132	0.4027	-0.52987
1.06	122.33	-3.0619e+05	3393	-0.73122	0.4025	-0.53007
1.062	122.31	-3.0618e+05	3392.7	-0.73112	0.40231	-0.53026
1.064	122.3	-3.0618e+05	3392.5	-0.73102	0.40211	-0.53046
1.066	122.29	-3.0618e+05	3392.3	-0.73093	0.4025	-0.53046
1.068	122.31	-3.0619e+05	3392.1	-0.73083	0.40289	-0.53046
1.07	122.32	-3.0619e+05	3392	-0.73073	0.40328	-0.53046
1.072	122.32	-3.0619e+05	3391.9	-0.73063	0.40367	-0.53046
1.074	122.33	-3.0619e+05	3391.9	-0.73054	0.40406	-0.53046
1.076	122.35	-3.0618e+05	3392	-0.72927	0.40484	-0.52958
1.078	122.35	-3.0618e+05	3392.2	-0.728	0.40563	-0.5287
1.08	122.34	-3.0619e+05	3392.6	-0.72673	0.40641	-0.52782
1.082	122.33	-3.0619e+05	3393.2	-0.72546	0.40719	-0.52694
1.084	122.32	-3.0619e+05	3393.8	-0.72419	0.40797	-0.52606
1.086	122.32	-3.0619e+05	3394.8	-0.72429	0.40924	-0.52684
1.088	122.31	-3.0619e+05	3395.9	-0.72439	0.41051	-0.52763
1.09	122.3	-3.0619e+05	3397.3	-0.72448	0.41177	-0.52841
1.092	122.3	-3.0619e+05	3399	-0.72458	0.41304	-0.52919
1.094	122.29	-3.0619e+05	3400.8	-0.72468	0.41431	-0.52997
1.096	122.27	-3.062e+05	3403.1	-0.72546	0.41295	-0.52899
1.098	122.27	-3.0619e+05	3405.5	-0.72624	0.41158	-0.52802
1.1	122.26	-3.0619e+05	3408.2	-0.72702	0.41021	-0.52704
1.102	122.26	-3.0619e+05	3411.3	-0.7278	0.40885	-0.52606
1.104	122.25	-3.062e+05	3414.3	-0.72858	0.40748	-0.52509
1.106	122.25	-3.0619e+05	3417.8	-0.728	0.40777	-0.52528
1.108	122.22	-3.0619e+05	3421.2	-0.72741	0.40807	-0.52548
1.11	122.2	-3.0619e+05	3424.9	-0.72683	0.40836	-0.52567
1.112	122.19	-3.0619e+05	3428.6	-0.72624	0.40865	-0.52587
1.114	122.19	-3.062e+05	3432.4	-0.72566	0.40894	-0.52606
1.116	122.19	-3.062e+05	3436.3	-0.72536	0.40943	-0.52665
1.118	122.19	-3.062e+05	3440.3	-0.72507	0.40992	-0.52724
1.12	122.19	-3.0619e+05	3444.2	-0.72478	0.41041	-0.52782
1.122	122.18	-3.0619e+05	3448.1	-0.72448	0.4109	-0.52841
1.124	122.16	-3.062e+05	3452.1	-0.72419	0.41138	-0.52899
1.126	122.14	-3.0619e+05	3455.9	-0.72488	0.41041	-0.52792
1.128	122.12	-3.0619e+05	3459.8	-0.72556	0.40943	-0.52684
1.13	122.11	-3.0619e+05	3463.5	-0.72624	0.40846	-0.52577
1.132	122.1	-3.0619e+05	3467	-0.72692	0.40748	-0.5247
1.134	122.1	-3.0619e+05	3470.5	-0.72761	0.4065	-0.52362
1.136	122.11	-3.0619e+05	3473.6	-0.72741	0.40699	-0.52372
1.138	122.1	-3.0619e+05	3476.8	-0.72722	0.40748	-0.52382
1.14	122.09	-3.0619e+05	3479.8	-0.72702	0.40797	-0.52392
1.142	122.07	-3.0619e+05	3482.6	-0.72683	0.40846	-0.52401
1.144	122.06	-3.0619e+05	3485.5	-0.72663	0.40894	-0.52411
1.146	122.06	-3.0619e+05	3487.9	-0.72702	0.40807	-0.5245
1.148	122.06	-3.0619e+05	3490.3	-0.72741	0.40719	-0.52489
1.15	122.05	-3.0619e+05	3492.5	-0.7278	0.40631	-0.52528
1.152	122.05	-3.0619e+05	3494.6	-0.72819	0.40543	-0.52567
1.154	122.05	-3.0619e+05	3496.7	-0.72858	0.40455	-0.52606
1.156	122.07	-3.0619e+05	3498.5	-0.728	0.40582	-0.52597
1.158	122.07	-3.0619e+05	3500.3	-0.72741	0.40709	-0.52587
1.16	122.05	-3.0619e+05	3501.9	-0.72683	0.40836	-0.52577
1.162	122.04	-3.0619e+05	3503.4	-0.72624	0.40963	-0.52567
1.164	122.04	-3.0619e+05	3504.8	-0.72566	0.4109	-0.52558
1.166	122.05	-3.0618e+05	3506	-0.72595	0.4109	-0.52509
1.168	122.04	-3.0618e+05	3507.3	-0.72624	0.4109	-0.5246
1.17	122.04	-3.0618e+05	3508.4	-0.72653	0.4109	-0.52411
1.172	122.06	-3.0619e+05	3509.4	-0.72683	0.4109	-0.52362
1.174	122.07	-3.0619e+05	3510.4	-0.72712	0.4109	-0.52314
1.176	122.07	-3.0619e+05	3511.1	-0.7279	0.41041	-0.52275
1.178	122.08	-3.0619e+05	3511.8	-0.72868	0.40992	-0.52236
1.18	122.11	-3.0619e+05	3512.4	-0.72946	0.40943	-0.52196
1.182	122.12	-3.0619e+05	3512.8	-0.73024	0.40894	-0.52157
1.184	122.11	-3.0619e+05	3513.3	-0.73102	0.40846	-0.52118
1.186	122.1	-3.0619e+05	3513.7	-0.73112	0.40728	-0.52362
1.188	122.1	-3.0619e+05	3514	-0.73122	0.40611	-0.52606
1.19	122.12	-3.0618e+05	3514.2	-0.73132	0.40494	-0.5285
1.192	122.11	-3.0618e+05	3514.3	-0.73141	0.40377	-0.53094
1.194	122.1	-3.0618e+05	3514.4	-0.73151	0.4026	-0.53338
1.196	122.12	-3.0618e+05	3514.3	-0.73063	0.40387	-0.53133
1.198	122.12	-3.0618e+05	3514.2	-0.72976	0.40514	-0.52928
1.2	122.11	-3.0618e+05	3514.1	-0.72888	0.40641	-0.52724
1.202	122.12	-3.0617e+05	3513.9	-0.728	0.40768	-0.52519
1.204	122.13	-3.0617e+05	3513.7	-0.72712	0.40894	-0.52314
1.206	122.13	-3.0617e+05	3513.3	-0.72751	0.40933	-0.52323
1.208	122.14	-3.0617e+05	3512.9	-0.7279	0.40972	-0.52333
1.21	122.16	-3.0617e+05	3512.6	-0.72829	0.41012	-0.52343
1.212	122.2	-3.0617e+05	3512.1	-0.72868	0.41051	-0.52353
1.214	122.22	-3.0618e+05	3511.7	-0.72907	0.4109	-0.52362
1.216	122.21	-3.0619e+05	3511.2	-0.72995	0.40972	-0.52382
1.218	122.18	-3.0619e+05	3510.7	-0.73083	0.40855	-0.52401
1.22	122.18	-3.0619e+05	3510.1	-0.73171	0.40738	-0.52421
1.222	122.18	-3.0619e+05	3509.6	-0.73259	0.40621	-0.5244
1.224	122.19	-3.0618e+05	3509	-0.73346	0.40504	-0.5246
1.226	122.18	-3.0618e+05	3508.4	-0.7322	0.40592	-0.5244
1.228	122.18	-3.0619e+05	3507.8	-0.73093	0.4068	-0.52421
1.23	122.18	-3.0618e+05	3507.3	-0.72966	0.40768	-0.52401
1.232	122.2	-3.0618e+05	3506.7	-0.72839	0.40855	-0.52382
1.234	122.22	-3.0618e+05	3506.1	-0.72712	0.40943	-0.52362
1.236	122.22	-3.0618e+05	3505.5	-0.72839	0.40933	-0.52314
1.238	122.22	-3.0618e+05	3504.9	-0.72966	0.40924	-0.52265
1.24	122.23	-3.0618e+05	3504.3	-0.73093	0.40914	-0.52216
1.242	122.24	-3.0618e+05	3503.7	-0.7322	0.40904	-0.52167
1.244	122.25	-3.0618e+05	3503	-0.73346	0.40894	-0.52118
1.246	122.26	-3.0618e+05	3502.4	-0.73278	0.40846	-0.52196
1.248	122.27	-3.0618e+05	3501.8	-0.7321	0.40797	-0.52275
1.25	122.26	-3.0618e+05	3501.2	-0.73141	0.40748	-0.52353
1.252	122.26	-3.0617e+05	3500.7	-0.73073	0.40699	-0.52431
1.254	122.25	-3.0618e+05	3500.1	-0.73005	0.4065	-0.52509
1.256	122.25	-3.0618e+05	3499.6	-0.72927	0.40748	-0.52509
1.258	122.24	-3.0617e+05	3499	-0.72849	0.40846	-0.52509
1.26	122.23	-3.0616e+05	3498.4	-0.72771	0.40943	-0.52509
1.262	122.22	-3.0615e+05	3497.9	-0.72692	0.41041	-0.52509
1.264	122.22	-3.0615e+05	3497.3	-0.72614	0.41138	-0.52509
1.266	122.21	-3.0615e+05	3496.7	-0.7278	0.41041	-0.5247
1.268	122.23	-3.0615e+05	3496.1	-0.72946	0.40943	-0.52431
1.27	122.24	-3.0615e+05	3495.5	-0.73112	0.40846	-0.52392
1.272	122.25	-3.0615e+05	3494.9	-0.73278	0.40748	-0.52353
1.274	122.27	-3.0615e+05	3494.3	-0.73444	0.4065	-0.52314
1.276	122.27	-3.0615e+05	3493.7	-0.73268	0.40728	-0.52353
1.278	122.25	-3.0614e+05	3493	-0.73093	0.40807	-0.52392
1.28	122.26	-3.0613e+05	3492.3	-0.72917	0.40885	-0.52431
1.282	122.25	-3.0614e+05	3491.6	-0.72741	0.40963	-0.5247
1.284	122.25	-3.0615e+05	3490.9	-0.72566	0.41041	-0.52509
1.286	122.26	-3.0614e+05	3490.1	-0.72624	0.40933	-0.52519
1.288	122.25	-3.0614e+05	3489.2	-0.72683	0.40826	-0.52528
1.29	122.26	-3.0614e+05	3488.4	-0.72741	0.40719	-0.52538
1.292	122.26	-3.0613e+05	3487.5	-0.728	0.40611	-0.52548
1.294	122.24	-3.0613e+05	3486.6	-0.72858	0.40504	-0.52558
1.296	122.25	-3.0613e+05	3485.6	-0.72878	0.40494	-0.52538
1.298	122.26	-3.0614e+05	3484.6	-0.72897	0.40484	-0.52519
1.3	122.26	-3.0614e+05	3483.4	-0.72917	0.40475	-0.52499
1.302	122.25	-3.0613e+05	3482.2	-0.72936	0.40465	-0.5248
1.304	122.24	-3.0613e+05	3481	-0.72956	0.40455	-0.5246
1.306	122.23	-3.0613e+05	3479.8	-0.72927	0.40475	-0.5245
1.308	122.21	-3.0613e+05	3478.5	-0.72897	0.40494	-0.5244
1.31	122.22	-3.0613e+05	3477.2	-0.72868	0.40514	-0.52431
1.312	122.25	-3.0613e+05	3475.9	-0.72839	0.40533	-0.52421
1.314	122.27	-3.0613e+05	3474.5	-0.7281	0.40553	-0.52411
1.316	122.29	-3.0613e+05	3473.2	-0.7278	0.40572	-0.5247
1.318	122.3	-3.0613e+05	3471.9	-0.72751	0.40592	-0.52528
1.32	122.32	-3.0612e+05	3470.6	-0.72722	0.40611	-0.52587
1.322	122.33	-3.0613e+05	3469.3	-0.72692	0.40631	-0.52645
1.324	122.33	-3.0613e+05	3468	-0.72663	0.4065	-0.52704
1.326	122.32	-3.0613e+05	3466.7	-0.72751	0.40709	-0.52636
1.328	122.31	-3.0612e+05	3465.5	-0.72839	0.40768	-0.52567
1.33	122.31	-3.0613e+05	3464.2	-0.72927	0.40826	-0.52499
1.332	122.31	-3.0613e+05	3463	-0.73015	0.40885	-0.52431
1.334	122.3	-3.0613e+05	3461.9	-0.73102	0.40943	-0.52362
1.336	122.28	-3.0613e+05	3460.8	-0.7318	0.40826	-0.52558
1.338	122.29	-3.0613e+05	3459.7	-0.73259	0.40709	-0.52753
1.34	122.28	-3.0613e+05	3458.7	-0.73337	0.40592	-0.52948
1.342	122.27	-3.0613e+05	3457.7	-0.73415	0.40475	-0.53143
1.344	122.28	-3.0612e+05	3456.8	-0.73493	0.40358	-0.53338
1.346	122.3	-3.0612e+05	3455.9	-0.73356	0.40436	-0.53143
1.348	122.3	-3.0612e+05	3455.1	-0.7322	0.40514	-0.52948
1.35	122.29	-3.0612e+05	3454.3	-0.73083	0.40592	-0.52753
1.352	122.28	-3.0612e+05	3453.6	-0.72946	0.4067	-0.52558
1.354	122.28	-3.0612e+05	3452.9	-0.7281	0.40748	-0.52362
1.356	122.29	-3.0613e+05	3452.3	-0.72956	0.40709	-0.5246
1.358	122.29	-3.0612e+05	3451.7	-0.73102	0.4067	-0.52558
1.36	122.29	-3.0612e+05	3451.2	-0.73249	0.40631	-0.52655
1.362	122.3	-3.0612e+05	3450.7	-0.73395	0.40592	-0.52753
1.364	122.31	-3.0612e+05	3450.3	-0.73542	0.40553	-0.5285
1.366	122.31	-3.0612e+05	3449.9	-0.73473	0.40582	-0.52792
1.368	122.3	-3.0612e+05	3449.6	-0.73405	0.40611	-0.52733
1.37	122.29	-3.0613e+05	3449.3	-0.73337	0.40641	-0.52675
1.372	122.28	-3.0613e+05	3449	-0.73268	0.4067	-0.52616
1.374	122.28	-3.0612e+05	3448.8	-0.732	0.40699	-0.52558
1.376	122.28	-3.0611e+05	3448.6	-0.73327	0.40758	-0.52645
1.378	122.29	-3.0612e+05	3448.3	-0.73454	0.40816	-0.52733
1.38	122.3	-3.0612e+05	3448.2	-0.73581	0.40875	-0.52821
1.382	122.3	-3.0612e+05	3448.1	-0.73708	0.40933	-0.52909
1.384	122.3	-3.0612e+05	3448	-0.73834	0.40992	-0.52997
1.386	122.31	-3.0611e+05	3448	-0.73756	0.40885	-0.53016
1.388	122.3	-3.0611e+05	3447.9	-0.73678	0.40777	-0.53036
1.39	122.28	-3.0612e+05	3447.8	-0.736	0.4067	-0.53055
1.392	122.28	-3.0612e+05	3447.8	-0.73522	0.40563	-0.53075
1.394	122.31	-3.0612e+05	3447.8	-0.73444	0.40455	-0.53094
1.396	122.34	-3.0611e+05	3447.8	-0.73503	0.40533	-0.53055
1.398	122.35	-3.0612e+05	3447.8	-0.73561	0.40611	-0.53016
1.4	122.34	-3.0613e+05	3447.9	-0.7362	0.40689	-0.52977
1.402	122.33	-3.0613e+05	3448	-0.73678	0.40768	-0.52938
1.404	122.32	-3.0612e+05	3448	-0.73737	0.40846	-0.52899
1.406	122.31	-3.0612e+05	3448.1	-0.73522	0.40836	-0.5286
1.408	122.3	-3.0612e+05	3448.1	-0.73307	0.40826	-0.52821
1.41	122.29	-3.0613e+05	3448.2	-0.73093	0.40816	-0.52782
1.412	122.29	-3.0613e+05	3448.2	-0.72878	0.40807	-0.52743
1.414	122.29	-3.0612e+05	3448.3	-0.72663	0.40797	-0.52704
1.416	122.29	-3.0612e+05	3448.3	-0.72653	0.40826	-0.52704
1.418	122.3	-3.0612e+05	3448.3	-0.72644	0.40855	-0.52704
1.42	122.31	-3.0613e+05	3448.3	-0.72634	0.40885	-0.52704
1.422	122.31	-3.0613e+05	3448.3	-0.72624	0.40914	-0.52704
1.424	122.3	-3.0613e+05	3448.4	-0.72614	0.40943	-0.52704
1.426	122.3	-3.0613e+05	3448.3	-0.72566	0.40992	-0.52724
1.428	122.3	-3.0612e+05	3448.3	-0.72517	0.41041	-0.52743
1.43	122.3	-3.0612e+05	3448.3	-0.72468	0.4109	-0.52763
1.432	122.28	-3.0612e+05	3448.2	-0.72419	0.41138	-0.52782
1.434	122.26	-3.0612e+05	3448.2	-0.7237	0.41187	-0.52802
1.436	122.24	-3.0612e+05	3448	-0.7237	0.41216	-0.52792
1.438	122.23	-3.0612e+05	3447.9	-0.7237	0.41246	-0.52782
1.44	122.24	-3.0611e+05	3447.7	-0.7237	0.41275	-0.52772
1.442	122.25	-3.0611e+05	3447.5	-0.7237	0.41304	-0.52763
1.444	122.25	-3.0611e+05	3447.3	-0.7237	0.41334	-0.52753
1.446	122.24	-3.0612e+05	3447.1	-0.7238	0.41314	-0.52724
1.448	122.22	-3.0613e+05	3446.9	-0.7239	0.41295	-0.52694
1.45	122.22	-3.0613e+05	3446.6	-0.724	0.41275	-0.52665
1.452	122.21	-3.0612e+05	3446.3	-0.72409	0.41256	-0.52636
1.454	122.21	-3.0613e+05	3446	-0.72419	0.41236	-0.52606
1.456	122.21	-3.0613e+05	3445.7	-0.72527	0.4108	-0.52538
1.458	122.23	-3.0612e+05	3445.4	-0.72634	0.40924	-0.5247
1.46	122.25	-3.0612e+05	3445	-0.72741	0.40768	-0.52401
1.462	122.27	-3.0611e+05	3444.6	-0.72849	0.40611	-0.52333
1.464	122.27	-3.0611e+05	3444.2	-0.72956	0.40455	-0.52265
1.466	122.26	-3.0612e+05	3443.8	-0.72858	0.40475	-0.52323
1.468	122.25	-3.0613e+05	3443.3	-0.72761	0.40494	-0.52382
1.47	122.26	-3.0612e+05	3442.9	-0.72663	0.40514	-0.5244
1.472	122.27	-3.0612e+05	3442.5	-0.72566	0.40533	-0.52499
1.474	122.28	-3.0612e+05	3442	-0.72468	0.40553	-0.52558
1.476	122.28	-3.0612e+05	3441.6	-0.72624	0.40572	-0.5247
1.478	122.29	-3.0612e+05	3441.1	-0.7278	0.40592	-0.52382
1.48	122.29	-3.0612e+05	3440.7	-0.72936	0.40611	-0.52294
1.482	122.29	-3.0612e+05	3440.2	-0.73093	0.40631	-0.52206
1.484	122.3	-3.0612e+05	3439.6	-0.73249	0.4065	-0.52118
1.486	122.3	-3.0613e+05	3439.1	-0.73405	0.40748	-0.5207
1.488	122.3	-3.0613e+05	3438.6	-0.73561	0.40846	-0.52021
1.49	122.31	-3.0613e+05	3438.1	-0.73717	0.40943	-0.51972
1.492	122.32	-3.0613e+05	3437.5	-0.73873	0.41041	-0.51923
1.494	122.34	-3.0612e+05	3437	-0.7403	0.41138	-0.51874
1.496	122.36	-3.0612e+05	3436.4	-0.73756	0.41051	-0.51952
1.498	122.35	-3.0612e+05	3435.7	-0.73483	0.40963	-0.52031
1.5	122.34	-3.0613e+05	3435.1	-0.7321	0.40875	-0.52109
1.502	122.34	-3.0612e+05	3434.5	-0.72936	0.40787	-0.52187
1.504	122.34	-3.0612e+05	3433.9	-0.72663	0.40699	-0.52265
1.506	122.34	-3.0612e+05	3433.3	-0.72663	0.40689	-0.52353
1.508	122.33	-3.0612e+05	3432.7	-0.72663	0.4068	-0.5244
1.51	122.31	-3.0613e+05	3432	-0.72663	0.4067	-0.52528
1.512	122.3	-3.0613e+05	3431.3	-0.72663	0.4066	-0.52616
1.514	122.29	-3.0613e+05	3430.7	-0.72663	0.4065	-0.52704
1.516	122.3	-3.0613e+05	3430	-0.72849	0.40719	-0.52606
1.518	122.3	-3.0613e+05	3429.4	-0.73034	0.40787	-0.52509
1.52	122.3	-3.0613e+05	3428.8	-0.7322	0.40855	-0.52411
1.522	122.33	-3.0613e+05	3428.1	-0.73405	0.40924	-0.52314
1.524	122.35	-3.0613e+05	3427.5	-0.7359	0.40992	-0.52216
1.526	122.36	-3.0613e+05	3426.8	-0.73542	0.40885	-0.52245
1.528	122.37	-3.0613e+05	3426.1	-0.73493	0.40777	-0.52275
1.53	122.36	-3.0613e+05	3425.5	-0.73444	0.4067	-0.52304
1.532	122.35	-3.0612e+05	3424.8	-0.73395	0.40563	-0.52333
1.534	122.33	-3.0613e+05	3424.1	-0.73346	0.40455	-0.52362
1.536	122.33	-3.0614e+05	3423.5	-0.7318	0.40465	-0.5244
1.538	122.34	-3.0614e+05	3422.8	-0.73015	0.40475	-0.52519
1.54	122.34	-3.0614e+05	3422.2	-0.72849	0.40484	-0.52597
1.542	122.34	-3.0614e+05	3421.5	-0.72683	0.40494	-0.52675
1.544	122.38	-3.0613e+05	3420.9	-0.72517	0.40504	-0.52753
1.546	122.38	-3.0614e+05	3420.3	-0.72546	0.40641	-0.52792
1.548	122.37	-3.0614e+05	3419.7	-0.72575	0.40777	-0.52831
1.55	122.36	-3.0614e+05	3419.1	-0.72605	0.40914	-0.5287
1.552	122.35	-3.0614e+05	3418.5	-0.72634	0.41051	-0.52909
1.554	122.36	-3.0614e+05	3417.9	-0.72663	0.41187	-0.52948
1.556	122.36	-3.0614e+05	3417.4	-0.72634	0.41168	-0.52831
1.558	122.35	-3.0615e+05	3416.9	-0.72605	0.41148	-0.52714
1.56	122.35	-3.0615e+05	3416.4	-0.72575	0.41129	-0.52597
1.562	122.36	-3.0615e+05	3416	-0.72546	0.41109	-0.5248
1.564	122.37	-3.0614e+05	3415.5	-0.72517	0.4109	-0.52362
1.566	122.36	-3.0614e+05	3415.1	-0.72683	0.41031	-0.52323
1.568	122.36	-3.0614e+05	3414.7	-0.72849	0.40972	-0.52284
1.57	122.36	-3.0614e+05	3414.3	-0.73015	0.40914	-0.52245
1.572	122.36	-3.0614e+05	3413.9	-0.7318	0.40855	-0.52206
1.574	122.36	-3.0615e+05	3413.6	-0.73346	0.40797	-0.52167
1.576	122.37	-3.0615e+05	3413.2	-0.73259	0.40748	-0.52196
1.578	122.37	-3.0614e+05	3412.9	-0.73171	0.40699	-0.52226
1.58	122.37	-3.0613e+05	3412.6	-0.73083	0.4065	-0.52255
1.582	122.35	-3.0614e+05	3412.2	-0.72995	0.40602	-0.52284
1.584	122.34	-3.0615e+05	3411.9	-0.72907	0.40553	-0.52314
1.586	122.33	-3.0615e+05	3411.6	-0.72956	0.40582	-0.52392
1.588	122.3	-3.0615e+05	3411.3	-0.73005	0.40611	-0.5247
1.59	122.26	-3.0615e+05	3411	-0.73054	0.40641	-0.52548
1.592	122.2	-3.0615e+05	3410.7	-0.73102	0.4067	-0.52626
1.594	122.11	-3.0616e+05	3410.3	-0.73151	0.40699	-0.52704
1.596	121.99	-3.0616e+05	3410	-0.73005	0.40787	-0.52714
1.598	121.84	-3.0616e+05	3409.7	-0.72858	0.40875	-0.52724
1.6	121.68	-3.0616e+05	3409.3	-0.72712	0.40963	-0.52733
1.602	121.53	-3.0616e+05	3409	-0.72566	0.41051	-0.52743
1.604	121.45	-3.0616e+05	3408.7	-0.72419	0.41138	-0.52753
1.606	121.43	-3.0616e+05	3408.4	-0.72429	0.41148	-0.52704
1.608	121.49	-3.0615e+05	3408.1	-0.72439	0.41158	-0.52655
1.61	121.64	-3.0616e+05	3407.7	-0.72448	0.41168	-0.52606
1.612	121.87	-3.0616e+05	3407.3	-0.72458	0.41177	-0.52558
1.614	122.1	-3.0616e+05	3407	-0.72468	0.41187	-0.52509
1.616	122.25	-3.0615e+05	3406.6	-0.72429	0.41207	-0.52567
1.618	122.3	-3.0615e+05	3406.2	-0.7239	0.41226	-0.52626
1.62	122.32	-3.0615e+05	3405.9	-0.72351	0.41246	-0.52684
1.622	122.33	-3.0615e+05	3405.5	-0.72312	0.41265	-0.52743
1.624	122.32	-3.0616e+05	3405	-0.72273	0.41285	-0.52802
1.626	122.35	-3.0616e+05	3404.7	-0.72409	0.41119	-0.52811
1.628	122.36	-3.0616e+05	3404.3	-0.72546	0.40953	-0.52821
1.63	122.37	-3.0616e+05	3403.9	-0.72683	0.40787	-0.52831
1.632	122.36	-3.0616e+05	3403.5	-0.72819	0.40621	-0.52841
1.634	122.36	-3.0615e+05	3403.2	-0.72956	0.40455	-0.5285
1.636	122.37	-3.0615e+05	3402.7	-0.72917	0.40494	-0.5286
1.638	122.4	-3.0616e+05	3402.3	-0.72878	0.40533	-0.5287
1.64	122.42	-3.0617e+05	3401.9	-0.72839	0.40572	-0.5288
1.642	122.4	-3.0616e+05	3401.6	-0.728	0.40611	-0.52889
1.644	122.39	-3.0616e+05	3401.2	-0.72761	0.4065	-0.52899
1.646	122.38	-3.0615e+05	3400.9	-0.72702	0.40689	-0.52782
1.648	122.38	-3.0615e+05	3400.5	-0.72644	0.40728	-0.52665
1.65	122.37	-3.0616e+05	3400.2	-0.72585	0.40768	-0.52548
1.652	122.35	-3.0616e+05	3399.8	-0.72527	0.40807	-0.52431
1.654	122.34	-3.0617e+05	3399.5	-0.72468	0.40846	-0.52314
1.656	122.33	-3.0617e+05	3399.2	-0.72458	0.40933	-0.52401
1.658	122.33	-3.0617e+05	3398.9	-0.72448	0.41021	-0.52489
1.66	122.34	-3.0618e+05	3398.5	-0.72439	0.41109	-0.52577
1.662	122.36	-3.0617e+05	3398.1	-0.72429	0.41197	-0.52665
1.664	122.38	-3.0616e+05	3397.8	-0.72419	0.41285	-0.52753
1.666	122.39	-3.0617e+05	3397.4	-0.72478	0.41168	-0.52763
1.668	122.38	-3.0617e+05	3397	-0.72536	0.41051	-0.52772
1.67	122.37	-3.0618e+05	3396.7	-0.72595	0.40933	-0.52782
1.672	122.36	-3.0618e+05	3396.2	-0.72653	0.40816	-0.52792
1.674	122.35	-3.0618e+05	3395.8	-0.72712	0.40699	-0.52802
1.676	122.34	-3.0618e+05	3395.4	-0.72917	0.4066	-0.52821
1.678	122.34	-3.0618e+05	3395.1	-0.73122	0.40621	-0.52841
1.68	122.33	-3.0618e+05	3394.6	-0.73327	0.40582	-0.5286
1.682	122.33	-3.0618e+05	3394.2	-0.73532	0.40543	-0.5288
1.684	122.34	-3.0618e+05	3393.7	-0.73737	0.40504	-0.52899
1.686	122.35	-3.0618e+05	3393.3	-0.73649	0.40553	-0.5287
1.688	122.34	-3.0618e+05	3392.8	-0.73561	0.40602	-0.52841
1.69	122.32	-3.0618e+05	3392.4	-0.73473	0.4065	-0.52811
1.692	122.32	-3.0618e+05	3392	-0.73385	0.40699	-0.52782
1.694	122.34	-3.0618e+05	3391.6	-0.73298	0.40748	-0.52753
1.696	122.34	-3.0619e+05	3391.1	-0.73141	0.40738	-0.52733
1.698	122.34	-3.0619e+05	3390.7	-0.72985	0.40728	-0.52714
1.7	122.34	-3.0619e+05	3390.3	-0.72829	0.40719	-0.52694
1.702	122.35	-3.0619e+05	3389.9	-0.72673	0.40709	-0.52675
1.704	122.34	-3.062e+05	3389.6	-0.72517	0.40699	-0.52655
1.706	122.37	-3.0619e+05	3389.2	-0.72644	0.4065	-0.52694
1.708	122.37	-3.0619e+05	3388.8	-0.72771	0.40602	-0.52733
1.71	122.36	-3.0619e+05	3388.4	-0.72897	0.40553	-0.52772
1.712	122.36	-3.0619e+05	3388	-0.73024	0.40504	-0.52811
1.714	122.35	-3.0619e+05	3387.6	-0.73151	0.40455	-0.5285
1.716	122.33	-3.062e+05	3387.1	-0.7319	0.40436	-0.5285
1.718	122.32	-3.062e+05	3386.6	-0.73229	0.40416	-0.5285
1.72	122.31	-3.062e+05	3386.2	-0.73268	0.40397	-0.5285
1.722	122.32	-3.062e+05	3385.9	-0.73307	0.40377	-0.5285
1.724	122.32	-3.062e+05	3385.5	-0.73346	0.40358	-0.5285
1.726	122.32	-3.062e+05	3385.1	-0.7322	0.40436	-0.52811
1.728	122.35	-3.062e+05	3384.8	-0.73093	0.40514	-0.52772
1.73	122.35	-3.062e+05	3384.4	-0.72966	0.40592	-0.52733
1.732	122.34	-3.062e+05	3384.1	-0.72839	0.4067	-0.52694
1.734	122.34	-3.062e+05	3383.8	-0.72712	0.40748	-0.52655
1.736	122.33	-3.0621e+05	3383.4	-0.72673	0.40728	-0.52655
1.738	122.33	-3.062e+05	3383	-0.72634	0.40709	-0.52655
1.74	122.33	-3.062e+05	3382.7	-0.72595	0.40689	-0.52655
1.742	122.34	-3.0621e+05	3382.3	-0.72556	0.4067	-0.52655
1.744	122.34	-3.0621e+05	3381.9	-0.72517	0.4065	-0.52655
1.746	122.33	-3.0621e+05	3381.5	-0.72634	0.40572	-0.52733
1.748	122.32	-3.0621e+05	3381.1	-0.72751	0.40494	-0.52811
1.75	122.31	-3.0621e+05	3380.7	-0.72868	0.40416	-0.52889
1.752	122.31	-3.0621e+05	3380.4	-0.72985	0.40338	-0.52968
1.754	122.29	-3.0621e+05	3380.1	-0.73102	0.4026	-0.53046
1.756	122.29	-3.0621e+05	3379.9	-0.73044	0.40348	-0.52899
1.758	122.3	-3.0621e+05	3379.7	-0.72985	0.40436	-0.52753
1.76	122.32	-3.0621e+05	3379.6	-0.72927	0.40524	-0.52606
1.762	122.33	-3.0621e+05	3379.4	-0.72868	0.40611	-0.5246
1.764	122.33	-3.0621e+05	3379.3	-0.7281	0.40699	-0.52314
1.766	122.32	-3.0621e+05	3379.3	-0.7278	0.40699	-0.52421
1.768	122.3	-3.0621e+05	3379.3	-0.72751	0.40699	-0.52528
1.77	122.3	-3.0622e+05	3379.5	-0.72722	0.40699	-0.52636
1.772	122.3	-3.0622e+05	3379.8	-0.72692	0.40699	-0.52743
1.774	122.31	-3.0622e+05	3380.1	-0.72663	0.40699	-0.5285
1.776	122.31	-3.0622e+05	3380.7	-0.72663	0.40787	-0.52763
1.778	122.32	-3.0622e+05	3381.4	-0.72663	0.40875	-0.52675
1.78	122.31	-3.0622e+05	3382.4	-0.72663	0.40963	-0.52587
1.782	122.3	-3.0622e+05	3383.5	-0.72663	0.41051	-0.52499
1.784	122.29	-3.0622e+05	3384.7	-0.72663	0.41138	-0.52411
1.786	122.28	-3.0622e+05	3386.6	-0.72702	0.41099	-0.5245
1.788	122.26	-3.0622e+05	3388.4	-0.72741	0.4106	-0.52489
1.79	122.25	-3.0622e+05	3390.5	-0.7278	0.41021	-0.52528
1.792	122.26	-3.0622e+05	3392.9	-0.72819	0.40982	-0.52567
1.794	122.27	-3.0622e+05	3395.3	-0.72858	0.40943	-0.52606
1.796	122.26	-3.0622e+05	3398.3	-0.72829	0.40943	-0.52626
1.798	122.25	-3.0622e+05	3401.3	-0.728	0.40943	-0.52645
1.8	122.23	-3.0622e+05	3404.6	-0.72771	0.40943	-0.52665
1.802	122.21	-3.0623e+05	3408	-0.72741	0.40943	-0.52684
1.804	122.19	-3.0623e+05	3411.4	-0.72712	0.40943	-0.52704
1.806	122.18	-3.0623e+05	3415.1	-0.72819	0.40855	-0.52763
1.808	122.17	-3.0624e+05	3418.7	-0.72927	0.40768	-0.52821
1.81	122.16	-3.0623e+05	3422.4	-0.73034	0.4068	-0.5288
1.812	122.16	-3.0623e+05	3426.2	-0.73141	0.40592	-0.52938
1.814	122.15	-3.0623e+05	3430	-0.73249	0.40504	-0.52997
1.816	122.15	-3.0623e+05	3433.7	-0.73337	0.40504	-0.53046
1.818	122.15	-3.0623e+05	3437.4	-0.73424	0.40504	-0.53094
1.82	122.15	-3.0623e+05	3441.1	-0.73512	0.40504	-0.53143
1.822	122.14	-3.0623e+05	3444.6	-0.736	0.40504	-0.53192
1.824	122.12	-3.0623e+05	3448.1	-0.73688	0.40504	-0.53241
1.826	122.1	-3.0624e+05	3451.4	-0.7362	0.40494	-0.53231
1.828	122.09	-3.0624e+05	3454.7	-0.73551	0.40484	-0.53221
1.83	122.09	-3.0623e+05	3457.8	-0.73483	0.40475	-0.53212
1.832	122.08	-3.0623e+05	3460.7	-0.73415	0.40465	-0.53202
1.834	122.06	-3.0624e+05	3463.6	-0.73346	0.40455	-0.53192
1.836	122.05	-3.0624e+05	3466.2	-0.73249	0.40524	-0.53094
1.838	122.05	-3.0624e+05	3468.8	-0.73151	0.40592	-0.52997
1.84	122.06	-3.0624e+05	3471.2	-0.73054	0.4066	-0.52899
1.842	122.08	-3.0624e+05	3473.5	-0.72956	0.40728	-0.52802
1.844	122.07	-3.0624e+05	3475.8	-0.72858	0.40797	-0.52704
1.846	122.05	-3.0624e+05	3477.7	-0.72761	0.40865	-0.52665
1.848	122.05	-3.0623e+05	3479.6	-0.72663	0.40933	-0.52626
1.85	122.04	-3.0624e+05	3481.4	-0.72566	0.41002	-0.52587
1.852	122.02	-3.0624e+05	3483.1	-0.72468	0.4107	-0.52548
1.854	122.01	-3.0624e+05	3484.7	-0.7237	0.41138	-0.52509
1.856	122.02	-3.0624e+05	3486.1	-0.72468	0.41197	-0.52645
1.858	122.04	-3.0624e+05	3487.5	-0.72566	0.41256	-0.52782
1.86	122.05	-3.0624e+05	3488.7	-0.72663	0.41314	-0.52919
1.862	122.09	-3.0624e+05	3489.9	-0.72761	0.41373	-0.53055
1.864	122.1	-3.0624e+05	3491	-0.72858	0.41431	-0.53192
1.866	122.09	-3.0624e+05	3491.9	-0.72888	0.41295	-0.53026
1.868	122.07	-3.0623e+05	3492.8	-0.72917	0.41158	-0.5286
1.87	122.07	-3.0623e+05	3493.5	-0.72946	0.41021	-0.52694
1.872	122.06	-3.0623e+05	3494.1	-0.72976	0.40885	-0.52528
1.874	122.07	-3.0623e+05	3494.8	-0.73005	0.40748	-0.52362
1.876	122.09	-3.0624e+05	3495.1	-0.72946	0.40777	-0.52372
1.878	122.11	-3.0624e+05	3495.5	-0.72888	0.40807	-0.52382
1.88	122.11	-3.0624e+05	3495.8	-0.72829	0.40836	-0.52392
1.882	122.11	-3.0624e+05	3496	-0.72771	0.40865	-0.52401
1.884	122.12	-3.0623e+05	3496.2	-0.72712	0.40894	-0.52411
1.886	122.13	-3.0624e+05	3496.2	-0.72732	0.40972	-0.52538
1.888	122.15	-3.0624e+05	3496.3	-0.72751	0.41051	-0.52665
1.89	122.14	-3.0624e+05	3496.2	-0.72771	0.41129	-0.52792
1.892	122.15	-3.0624e+05	3496.1	-0.7279	0.41207	-0.52919
1.894	122.14	-3.0624e+05	3496	-0.7281	0.41285	-0.53046
1.896	122.14	-3.0623e+05	3495.7	-0.72829	0.41226	-0.52919
1.898	122.16	-3.0623e+05	3495.4	-0.72849	0.41168	-0.52792
1.9	122.18	-3.0623e+05	3495.1	-0.72868	0.41109	-0.52665
1.902	122.19	-3.0624e+05	3494.8	-0.72888	0.41051	-0.52538
1.904	122.19	-3.0624e+05	3494.5	-0.72907	0.40992	-0.52411
1.906	122.19	-3.0623e+05	3494	-0.72849	0.41051	-0.52421
1.908	122.19	-3.0621e+05	3493.5	-0.7279	0.41109	-0.52431
1.91	122.19	-3.0622e+05	3493	-0.72732	0.41168	-0.5244
1.912	122.17	-3.0622e+05	3492.5	-0.72673	0.41226	-0.5245
1.914	122.17	-3.0623e+05	3492	-0.72614	0.41285	-0.5246
1.916	122.17	-3.0623e+05	3491.4	-0.72624	0.41265	-0.52548
1.918	122.17	-3.0623e+05	3490.9	-0.72634	0.41246	-0.52636
1.92	122.18	-3.0622e+05	3490.3	-0.72644	0.41226	-0.52724
1.922	122.21	-3.0622e+05	3489.8	-0.72653	0.41207	-0.52811
1.924	122.24	-3.0622e+05	3489.2	-0.72663	0.41187	-0.52899
1.926	122.25	-3.0622e+05	3488.6	-0.72712	0.41129	-0.5286
1.928	122.24	-3.0621e+05	3488	-0.72761	0.4107	-0.52821
1.93	122.22	-3.0621e+05	3487.4	-0.7281	0.41012	-0.52782
1.932	122.21	-3.0621e+05	3486.8	-0.72858	0.40953	-0.52743
1.934	122.22	-3.0621e+05	3486.2	-0.72907	0.40894	-0.52704
1.936	122.22	-3.0622e+05	3485.6	-0.72771	0.40953	-0.52733
1.938	122.21	-3.0622e+05	3485	-0.72634	0.41012	-0.52763
1.94	122.2	-3.0622e+05	3484.4	-0.72497	0.4107	-0.52792
1.942	122.23	-3.0622e+05	3483.8	-0.72361	0.41129	-0.52821
1.944	122.25	-3.0622e+05	3483.2	-0.72224	0.41187	-0.5285
1.946	122.26	-3.0622e+05	3482.6	-0.72312	0.41168	-0.52841
1.948	122.28	-3.0622e+05	3482	-0.724	0.41148	-0.52831
1.95	122.28	-3.0622e+05	3481.5	-0.72488	0.41129	-0.52821
1.952	122.26	-3.0621e+05	3480.9	-0.72575	0.41109	-0.52811
1.954	122.25	-3.0621e+05	3480.3	-0.72663	0.4109	-0.52802
1.956	122.26	-3.0621e+05	3479.8	-0.72732	0.40992	-0.52704
1.958	122.25	-3.062e+05	3479.3	-0.728	0.40894	-0.52606
1.96	122.23	-3.062e+05	3478.7	-0.72868	0.40797	-0.52509
1.962	122.22	-3.062e+05	3478.1	-0.72936	0.40699	-0.52411
1.964	122.23	-3.062e+05	3477.4	-0.73005	0.40602	-0.52314
1.966	122.23	-3.062e+05	3476.7	-0.72907	0.40621	-0.52343
1.968	122.24	-3.062e+05	3476.1	-0.7281	0.40641	-0.52372
1.97	122.25	-3.062e+05	3475.4	-0.72712	0.4066	-0.52401
1.972	122.25	-3.0621e+05	3474.6	-0.72614	0.4068	-0.52431
1.974	122.25	-3.0621e+05	3473.9	-0.72517	0.40699	-0.5246
1.976	122.27	-3.062e+05	3473	-0.72527	0.4068	-0.52431
1.978	122.27	-3.0621e+05	3472.2	-0.72536	0.4066	-0.52401
1.98	122.27	-3.0621e+05	3471.3	-0.72546	0.40641	-0.52372
1.982	122.26	-3.062e+05	3470.3	-0.72556	0.40621	-0.52343
1.984	122.26	-3.062e+05	3469.3	-0.72566	0.40602	-0.52314
1.986	122.27	-3.062e+05	3468.2	-0.72614	0.40553	-0.52401
1.988	122.27	-3.0619e+05	3467.2	-0.72663	0.40504	-0.52489
1.99	122.26	-3.062e+05	3466.1	-0.72712	0.40455	-0.52577
1.992	122.26	-3.062e+05	3464.9	-0.72761	0.40406	-0.52665
1.994	122.26	-3.062e+05	3463.7	-0.7281	0.40358	-0.52753
1.996	122.25	-3.0621e+05	3462.5	-0.7279	0.40416	-0.52675
1.998	122.25	-3.062e+05	3461.2	-0.72771	0.40475	-0.52597
2	122.24	-3.062e+05	3460	-0.72751	0.40533	-0.52519
2.002	122.26	-3.0619e+05	3458.7	-0.72732	0.40592	-0.5244
2.004	122.28	-3.0618e+05	3457.4	-0.72712	0.4065	-0.52362
2.006	122.29	-3.0619e+05	3456.2	-0.72673	0.4066	-0.52401
2.008	122.28	-3.0619e+05	3454.9	-0.72634	0.4067	-0.5244
2.01	122.27	-3.0619e+05	3453.6	-0.72595	0.4068	-0.5248
2.012	122.27	-3.062e+05	3452.4	-0.72556	0.40689	-0.52519
2.014	122.28	-3.062e+05	3451.2	-0.72517	0.40699	-0.52558
2.016	122.28	-3.062e+05	3450	-0.72527	0.40738	-0.52577
2.018	122.27	-3.062e+05	3448.8	-0.72536	0.40777	-0.52597
2.02	122.26	-3.062e+05	3447.6	-0.72546	0.40816	-0.52616
2.022	122.26	-3.062e+05	3446.4	-0.72556	0.40855	-0.52636
2.024	122.26	-3.062e+05	3445.3	-0.72566	0.40894	-0.52655
2.026	122.26	-3.0619e+05	3444.3	-0.72653	0.40846	-0.52587
2.028	122.26	-3.0619e+05	3443.3	-0.72741	0.40797	-0.52519
2.03	122.26	-3.0619e+05	3442.3	-0.72829	0.40748	-0.5245
2.032	122.26	-3.0618e+05	3441.4	-0.72917	0.40699	-0.52382
2.034	122.29	-3.0619e+05	3440.4	-0.73005	0.4065	-0.52314
2.036	122.29	-3.0619e+05	3439.6	-0.73132	0.4067	-0.5245
2.038	122.29	-3.0619e+05	3438.8	-0.73259	0.40689	-0.52587
2.04	122.28	-3.0619e+05	3438	-0.73385	0.40709	-0.52724
2.042	122.29	-3.0619e+05	3437.4	-0.73512	0.40728	-0.5286
2.044	122.3	-3.0619e+05	3436.7	-0.73639	0.40748	-0.52997
2.046	122.32	-3.0619e+05	3436.1	-0.73629	0.40748	-0.52997
2.048	122.33	-3.0619e+05	3435.6	-0.7362	0.40748	-0.52997
2.05	122.34	-3.0619e+05	3435.1	-0.7361	0.40748	-0.52997
2.052	122.31	-3.0619e+05	3434.7	-0.736	0.40748	-0.52997
2.054	122.3	-3.062e+05	3434.2	-0.7359	0.40748	-0.52997
2.056	122.28	-3.062e+05	3433.9	-0.7359	0.4065	-0.53075
2.058	122.27	-3.062e+05	3433.6	-0.7359	0.40553	-0.53153
2.06	122.28	-3.062e+05	3433.4	-0.7359	0.40455	-0.53231
2.062	122.28	-3.0619e+05	3433.2	-0.7359	0.40358	-0.53309
2.064	122.28	-3.0619e+05	3433	-0.7359	0.4026	-0.53387
2.066	122.27	-3.0619e+05	3432.9	-0.7361	0.40289	-0.53377
2.068	122.29	-3.062e+05	3432.7	-0.73629	0.40319	-0.53368
2.07	122.3	-3.062e+05	3432.6	-0.73649	0.40348	-0.53358
2.072	122.3	-3.0619e+05	3432.6	-0.73668	0.40377	-0.53348
2.074	122.29	-3.062e+05	3432.5	-0.73688	0.40406	-0.53338
2.076	122.29	-3.062e+05	3432.5	-0.73532	0.40377	-0.5328
2.078	122.31	-3.062e+05	3432.6	-0.73376	0.40348	-0.53221
2.08	122.32	-3.062e+05	3432.6	-0.7322	0.40319	-0.53163
2.082	122.31	-3.0619e+05	3432.6	-0.73063	0.40289	-0.53104
2.084	122.3	-3.0619e+05	3432.6	-0.72907	0.4026	-0.53046
2.086	122.3	-3.0619e+05	3432.7	-0.72907	0.40319	-0.52968
2.088	122.31	-3.062e+05	3432.8	-0.72907	0.40377	-0.52889
2.09	122.3	-3.0619e+05	3432.9	-0.72907	0.40436	-0.52811
2.092	122.29	-3.0619e+05	3433	-0.72907	0.40494	-0.52733
2.094	122.29	-3.0619e+05	3433.1	-0.72907	0.40553	-0.52655
2.096	122.29	-3.062e+05	3433.1	-0.73083	0.40572	-0.52753
2.098	122.3	-3.0619e+05	3433.2	-0.73259	0.40592	-0.5285
2.1	122.3	-3.0619e+05	3433.3	-0.73434	0.40611	-0.52948
2.102	122.3	-3.062e+05	3433.3	-0.7361	0.40631	-0.53046
2.104	122.28	-3.0621e+05	3433.3	-0.73786	0.4065	-0.53143
2.106	122.28	-3.062e+05	3433.3	-0.73542	0.40748	-0.53036
2.108	122.28	-3.062e+05	3433.3	-0.73298	0.40846	-0.52928
2.11	122.27	-3.062e+05	3433.3	-0.73054	0.40943	-0.52821
2.112	122.26	-3.062e+05	3433.3	-0.7281	0.41041	-0.52714
2.114	122.25	-3.062e+05	3433.3	-0.72566	0.41138	-0.52606
2.116	122.27	-3.062e+05	3433.2	-0.72585	0.41158	-0.52548
2.118	122.28	-3.0621e+05	3433.1	-0.72605	0.41177	-0.52489
2.12	122.31	-3.0621e+05	3433	-0.72624	0.41197	-0.52431
2.122	122.34	-3.062e+05	3432.9	-0.72644	0.41216	-0.52372
2.124	122.34	-3.062e+05	3432.8	-0.72663	0.41236	-0.52314
2.126	122.33	-3.062e+05	3432.6	-0.72634	0.41138	-0.52353
2.128	122.32	-3.0621e+05	3432.4	-0.72605	0.41041	-0.52392
2.13	122.31	-3.062e+05	3432.2	-0.72575	0.40943	-0.52431
2.132	122.31	-3.0619e+05	3432	-0.72546	0.40846	-0.5247
2.134	122.31	-3.0619e+05	3431.8	-0.72517	0.40748	-0.52509
2.136	122.29	-3.0619e+05	3431.6	-0.72653	0.40689	-0.52645
2.138	122.27	-3.062e+05	3431.3	-0.7279	0.40631	-0.52782
2.14	122.27	-3.062e+05	3431	-0.72927	0.40572	-0.52919
2.142	122.27	-3.062e+05	3430.7	-0.73063	0.40514	-0.53055
2.144	122.28	-3.062e+05	3430.4	-0.732	0.40455	-0.53192
2.146	122.29	-3.0621e+05	3430.1	-0.7319	0.40514	-0.53124
2.148	122.3	-3.0621e+05	3429.8	-0.7318	0.40572	-0.53055
2.15	122.28	-3.0621e+05	3429.4	-0.73171	0.40631	-0.52987
2.152	122.27	-3.0621e+05	3429.1	-0.73161	0.40689	-0.52919
2.154	122.25	-3.0621e+05	3428.7	-0.73151	0.40748	-0.5285
2.156	122.24	-3.0621e+05	3428.3	-0.7318	0.40699	-0.5285
2.158	122.24	-3.0621e+05	3427.9	-0.7321	0.4065	-0.5285
2.16	122.23	-3.0621e+05	3427.4	-0.73239	0.40602	-0.5285
2.162	122.23	-3.062e+05	3427	-0.73268	0.40553	-0.5285
2.164	122.24	-3.062e+05	3426.6	-0.73298	0.40504	-0.5285
2.166	122.25	-3.062e+05	3426	-0.73249	0.40397	-0.52928
2.168	122.25	-3.062e+05	3425.4	-0.732	0.40289	-0.53007
2.17	122.24	-3.062e+05	3424.9	-0.73151	0.40182	-0.53085
2.172	122.23	-3.0621e+05	3424.3	-0.73102	0.40075	-0.53163
2.174	122.23	-3.0621e+05	3423.8	-0.73054	0.39967	-0.53241
2.176	122.24	-3.0621e+05	3423.3	-0.73161	0.40114	-0.53163
2.178	122.24	-3.0621e+05	3422.8	-0.73268	0.4026	-0.53085
2.18	122.25	-3.0621e+05	3422.3	-0.73376	0.40406	-0.53007
2.182	122.25	-3.0621e+05	3421.7	-0.73483	0.40553	-0.52928
2.184	122.24	-3.0621e+05	3421.1	-0.7359	0.40699	-0.5285
2.186	122.23	-3.0621e+05	3420.5	-0.73571	0.40572	-0.52909
2.188	122.22	-3.062e+05	3420	-0.73551	0.40445	-0.52968
2.19	122.23	-3.062e+05	3419.4	-0.73532	0.40319	-0.53026
2.192	122.25	-3.0621e+05	3418.8	-0.73512	0.40192	-0.53085
2.194	122.27	-3.062e+05	3418.1	-0.73493	0.40065	-0.53143
2.196	122.31	-3.062e+05	3417.5	-0.73483	0.40143	-0.53143
2.198	122.33	-3.062e+05	3416.9	-0.73473	0.40221	-0.53143
2.2	122.33	-3.062e+05	3416.3	-0.73464	0.40299	-0.53143
2.202	122.33	-3.062e+05	3415.7	-0.73454	0.40377	-0.53143
2.204	122.33	-3.062e+05	3415.1	-0.73444	0.40455	-0.53143
2.206	122.32	-3.062e+05	3414.5	-0.73454	0.40406	-0.53172
2.208	122.33	-3.062e+05	3413.9	-0.73464	0.40358	-0.53202
2.21	122.35	-3.0621e+05	3413.3	-0.73473	0.40309	-0.53231
2.212	122.36	-3.0621e+05	3412.7	-0.73483	0.4026	-0.5326
2.214	122.36	-3.0621e+05	3412.1	-0.73493	0.40211	-0.5329
2.216	122.35	-3.062e+05	3411.5	-0.73376	0.4028	-0.53172
2.218	122.36	-3.0621e+05	3410.9	-0.73259	0.40348	-0.53055
2.22	122.36	-3.0621e+05	3410.4	-0.73141	0.40416	-0.52938
2.222	122.35	-3.0621e+05	3409.8	-0.73024	0.40484	-0.52821
2.224	122.35	-3.0621e+05	3409.3	-0.72907	0.40553	-0.52704
2.226	122.35	-3.0621e+05	3408.7	-0.72741	0.4066	-0.52665
2.228	122.34	-3.0622e+05	3408.2	-0.72575	0.40768	-0.52626
2.23	122.32	-3.0622e+05	3407.6	-0.72409	0.40875	-0.52587
2.232	122.32	-3.0623e+05	3407.1	-0.72244	0.40982	-0.52548
2.234	122.33	-3.0622e+05	3406.6	-0.72078	0.4109	-0.52509
2.236	122.35	-3.0622e+05	3406	-0.72126	0.41129	-0.5248
2.238	122.37	-3.0622e+05	3405.5	-0.72175	0.41168	-0.5245
2.24	122.38	-3.0621e+05	3405	-0.72224	0.41207	-0.52421
2.242	122.37	-3.0621e+05	3404.5	-0.72273	0.41246	-0.52392
2.244	122.36	-3.0621e+05	3403.9	-0.72322	0.41285	-0.52362
2.246	122.37	-3.0622e+05	3403.4	-0.72361	0.41246	-0.52431
2.248	122.37	-3.0622e+05	3402.9	-0.724	0.41207	-0.52499
2.25	122.37	-3.0622e+05	3402.4	-0.72439	0.41168	-0.52567
2.252	122.36	-3.0622e+05	3401.8	-0.72478	0.41129	-0.52636
2.254	122.36	-3.0622e+05	3401.3	-0.72517	0.4109	-0.52704
2.256	122.36	-3.0622e+05	3400.8	-0.72478	0.41148	-0.52714
2.258	122.35	-3.0622e+05	3400.2	-0.72439	0.41207	-0.52724
2.26	122.35	-3.0621e+05	3399.7	-0.724	0.41265	-0.52733
2.262	122.37	-3.0622e+05	3399.1	-0.72361	0.41324	-0.52743
2.264	122.38	-3.0622e+05	3398.5	-0.72322	0.41382	-0.52753
2.266	122.38	-3.0623e+05	3398	-0.72448	0.41207	-0.52763
2.268	122.36	-3.0623e+05	3397.4	-0.72575	0.41031	-0.52772
2.27	122.36	-3.0622e+05	3396.9	-0.72702	0.40855	-0.52782
2.272	122.35	-3.0622e+05	3396.4	-0.72829	0.4068	-0.52792
2.274	122.34	-3.0622e+05	3395.9	-0.72956	0.40504	-0.52802
2.276	122.34	-3.0622e+05	3395.4	-0.72868	0.40621	-0.52763
2.278	122.36	-3.0622e+05	3395	-0.7278	0.40738	-0.52724
2.28	122.38	-3.0623e+05	3394.5	-0.72692	0.40855	-0.52684
2.282	122.4	-3.0623e+05	3394.1	-0.72605	0.40972	-0.52645
2.284	122.41	-3.0623e+05	3393.7	-0.72517	0.4109	-0.52606
2.286	122.41	-3.0623e+05	3393.3	-0.72566	0.40963	-0.52645
2.288	122.42	-3.0623e+05	3392.9	-0.72614	0.40836	-0.52684
2.29	122.43	-3.0623e+05	3392.6	-0.72663	0.40709	-0.52724
2.292	122.42	-3.0623e+05	3392.2	-0.72712	0.40582	-0.52763
2.294	122.41	-3.0624e+05	3391.8	-0.72761	0.40455	-0.52802
2.296	122.39	-3.0624e+05	3391.4	-0.72868	0.40455	-0.52909
2.298	122.36	-3.0624e+05	3391	-0.72976	0.40455	-0.53016
2.3	122.33	-3.0624e+05	3390.7	-0.73083	0.40455	-0.53124
2.302	122.27	-3.0624e+05	3390.3	-0.7319	0.40455	-0.53231
2.304	122.22	-3.0624e+05	3390	-0.73298	0.40455	-0.53338
2.306	122.19	-3.0623e+05	3389.7	-0.73161	0.40533	-0.53212
2.308	122.12	-3.0622e+05	3389.4	-0.73024	0.40611	-0.53085
2.31	122.01	-3.0622e+05	3389.1	-0.72888	0.40689	-0.52958
2.312	121.83	-3.0622e+05	3388.8	-0.72751	0.40768	-0.52831
2.314	121.66	-3.0623e+05	3388.5	-0.72614	0.40846	-0.52704
2.316	121.51	-3.0624e+05	3388.2	-0.72605	0.40894	-0.52665
2.318	121.43	-3.0624e+05	3387.9	-0.72595	0.40943	-0.52626
2.32	121.42	-3.0624e+05	3387.6	-0.72585	0.40992	-0.52587
2.322	121.49	-3.0624e+05	3387.3	-0.72575	0.41041	-0.52548
2.324	121.62	-3.0624e+05	3387	-0.72566	0.4109	-0.52509
2.326	121.81	-3.0624e+05	3386.8	-0.72527	0.4106	-0.52528
2.328	122.02	-3.0624e+05	3386.6	-0.72488	0.41031	-0.52548
2.33	122.17	-3.0624e+05	3386.3	-0.72448	0.41002	-0.52567
2.332	122.23	-3.0625e+05	3386	-0.72409	0.40972	-0.52587
2.334	122.24	-3.0624e+05	3385.7	-0.7237	0.40943	-0.52606
2.336	122.24	-3.0624e+05	3385.4	-0.7237	0.40943	-0.52597
2.338	122.25	-3.0624e+05	3385.1	-0.7237	0.40943	-0.52587
2.34	122.28	-3.0624e+05	3384.8	-0.7237	0.40943	-0.52577
2.342	122.3	-3.0624e+05	3384.4	-0.7237	0.40943	-0.52567
2.344	122.34	-3.0625e+05	3384.1	-0.7237	0.40943	-0.52558
2.346	122.37	-3.0625e+05	3383.8	-0.72322	0.40963	-0.52538
2.348	122.39	-3.0625e+05	3383.5	-0.72273	0.40982	-0.52519
2.35	122.4	-3.0625e+05	3383.2	-0.72224	0.41002	-0.52499
2.352	122.41	-3.0625e+05	3382.8	-0.72175	0.41021	-0.5248
2.354	122.41	-3.0625e+05	3382.5	-0.72126	0.41041	-0.5246
2.356	122.4	-3.0625e+05	3382.2	-0.72175	0.4106	-0.52528
2.358	122.38	-3.0625e+05	3381.9	-0.72224	0.4108	-0.52597
2.36	122.36	-3.0625e+05	3381.6	-0.72273	0.41099	-0.52665
2.362	122.37	-3.0625e+05	3381.3	-0.72322	0.41119	-0.52733
2.364	122.35	-3.0625e+05	3380.9	-0.7237	0.41138	-0.52802
2.366	122.36	-3.0625e+05	3380.5	-0.7238	0.41129	-0.52821
2.368	122.38	-3.0626e+05	3380.1	-0.7239	0.41119	-0.52841
2.37	122.38	-3.0626e+05	3379.8	-0.724	0.41109	-0.5286
2.372	122.38	-3.0626e+05	3379.4	-0.72409	0.41099	-0.5288
2.374	122.38	-3.0625e+05	3379	-0.72419	0.4109	-0.52899
2.376	122.39	-3.0625e+05	3378.6	-0.7239	0.41099	-0.52889
2.378	122.39	-3.0626e+05	3378.2	-0.72361	0.41109	-0.5288
2.38	122.37	-3.0626e+05	3377.8	-0.72331	0.41119	-0.5287
2.382	122.36	-3.0626e+05	3377.4	-0.72302	0.41129	-0.5286
2.384	122.36	-3.0626e+05	3376.9	-0.72273	0.41138	-0.5285
2.386	122.36	-3.0627e+05	3376.5	-0.72351	0.41129	-0.5285
2.388	122.37	-3.0627e+05	3376.1	-0.72429	0.41119	-0.5285
2.39	122.4	-3.0627e+05	3375.7	-0.72507	0.41109	-0.5285
2.392	122.43	-3.0626e+05	3375.3	-0.72585	0.41099	-0.5285
2.394	122.42	-3.0626e+05	3374.9	-0.72663	0.4109	-0.5285
2.396	122.41	-3.0625e+05	3374.5	-0.72907	0.41041	-0.52928
2.398	122.41	-3.0626e+05	3374.1	-0.73151	0.40992	-0.53007
2.4	122.38	-3.0627e+05	3373.8	-0.73395	0.40943	-0.53085
2.402	122.37	-3.0627e+05	3373.4	-0.73639	0.40894	-0.53163
2.404	122.35	-3.0627e+05	3373.1	-0.73883	0.40846	-0.53241
2.406	122.34	-3.0627e+05	3372.7	-0.73727	0.40797	-0.53202
2.408	122.33	-3.0627e+05	3372.3	-0.73571	0.40748	-0.53163
2.41	122.36	-3.0627e+05	3372	-0.73415	0.40699	-0.53124
2.412	122.38	-3.0628e+05	3371.6	-0.73259	0.4065	-0.53085
2.414	122.39	-3.0628e+05	3371.3	-0.73102	0.40602	-0.53046
2.416	122.39	-3.0628e+05	3370.9	-0.73083	0.40631	-0.52977
2.418	122.39	-3.0628e+05	3370.6	-0.73063	0.4066	-0.52909
2.42	122.4	-3.0628e+05	3370.2	-0.73044	0.40689	-0.52841
2.422	122.4	-3.0628e+05	3369.9	-0.73024	0.40719	-0.52772
2.424	122.39	-3.0629e+05	3369.6	-0.73005	0.40748	-0.52704
2.426	122.38	-3.0628e+05	3369.1	-0.73122	0.40709	-0.52821
2.428	122.38	-3.0628e+05	3368.7	-0.73239	0.4067	-0.52938
2.43	122.38	-3.0628e+05	3368.3	-0.73356	0.40631	-0.53055
2.432	122.37	-3.0628e+05	3368	-0.73473	0.40592	-0.53172
2.434	122.37	-3.0628e+05	3367.6	-0.7359	0.40553	-0.5329
2.436	122.38	-3.0628e+05	3367.2	-0.73542	0.40484	-0.5326
2.438	122.39	-3.0628e+05	3366.8	-0.73493	0.40416	-0.53231
2.44	122.4	-3.0628e+05	3366.4	-0.73444	0.40348	-0.53202
2.442	122.4	-3.0628e+05	3366	-0.73395	0.4028	-0.53172
2.444	122.38	-3.0628e+05	3365.6	-0.73346	0.40211	-0.53143
2.446	122.37	-3.0629e+05	3365.2	-0.73337	0.4025	-0.53065
2.448	122.35	-3.0629e+05	3364.8	-0.73327	0.40289	-0.52987
2.45	122.33	-3.0629e+05	3364.3	-0.73317	0.40328	-0.52909
2.452	122.32	-3.0629e+05	3363.9	-0.73307	0.40367	-0.52831
2.454	122.33	-3.0629e+05	3363.5	-0.73298	0.40406	-0.52753
2.456	122.35	-3.0629e+05	3363.1	-0.73307	0.40358	-0.52821
2.458	122.36	-3.0629e+05	3362.7	-0.73317	0.40309	-0.52889
2.46	122.39	-3.0628e+05	3362.3	-0.73327	0.4026	-0.52958
2.462	122.38	-3.0628e+05	3361.9	-0.73337	0.40211	-0.53026
2.464	122.38	-3.0628e+05	3361.5	-0.73346	0.40162	-0.53094
2.466	122.39	-3.0628e+05	3361.2	-0.73327	0.40153	-0.53104
2.468	122.37	-3.0628e+05	3360.8	-0.73307	0.40143	-0.53114
2.47	122.37	-3.0628e+05	3360.6	-0.73288	0.40133	-0.53124
2.472	122.37	-3.0628e+05	3360.4	-0.73268	0.40123	-0.53133
2.474	122.34	-3.0628e+05	3360.3	-0.73249	0.40114	-0.53143
2.476	122.34	-3.0629e+05	3360.1	-0.73307	0.4024	-0.53133
2.478	122.32	-3.0629e+05	3360	-0.73366	0.40367	-0.53124
2.48	122.29	-3.0629e+05	3360	-0.73424	0.40494	-0.53114
2.482	122.29	-3.0629e+05	3360.2	-0.73483	0.40621	-0.53104
2.484	122.33	-3.0628e+05	3360.4	-0.73542	0.40748	-0.53094
2.486	122.38	-3.0629e+05	3361.1	-0.73571	0.40816	-0.53094
2.488	122.39	-3.063e+05	3361.7	-0.736	0.40885	-0.53094
2.49	122.39	-3.0629e+05	3362.6	-0.73629	0.40953	-0.53094
2.492	122.38	-3.0629e+05	3363.9	-0.73659	0.41021	-0.53094
2.494	122.37	-3.0629e+05	3365.1	-0.73688	0.4109	-0.53094
2.496	122.36	-3.063e+05	3367.1	-0.7359	0.40924	-0.53133
2.498	122.34	-3.063e+05	3369.1	-0.73493	0.40758	-0.53172
2.5	122.33	-3.063e+05	3371.4	-0.73395	0.40592	-0.53212
2.502	122.33	-3.063e+05	3374.1	-0.73298	0.40426	-0.53251
2.504	122.31	-3.0631e+05	3376.9	-0.732	0.4026	-0.5329
2.506	122.31	-3.063e+05	3380.1	-0.73151	0.40299	-0.53241
2.508	122.31	-3.063e+05	3383.4	-0.73102	0.40338	-0.53192
2.51	122.3	-3.063e+05	3386.9	-0.73054	0.40377	-0.53143
2.512	122.29	-3.063e+05	3390.7	-0.73005	0.40416	-0.53094
2.514	122.28	-3.063e+05	3394.5	-0.72956	0.40455	-0.53046
2.516	122.26	-3.063e+05	3398.5	-0.73034	0.40504	-0.52997
2.518	122.25	-3.063e+05	3402.4	-0.73112	0.40553	-0.52948
2.52	122.23	-3.0631e+05	3406.4	-0.7319	0.40602	-0.52899
2.522	122.21	-3.0631e+05	3410.5	-0.73268	0.4065	-0.5285
2.524	122.2	-3.063e+05	3414.6	-0.73346	0.40699	-0.52802
2.526	122.19	-3.063e+05	3418.6	-0.73337	0.40611	-0.52909
2.528	122.2	-3.063e+05	3422.6	-0.73327	0.40524	-0.53016
2.53	122.19	-3.063e+05	3426.5	-0.73317	0.40436	-0.53124
2.532	122.17	-3.063e+05	3430.3	-0.73307	0.40348	-0.53231
2.534	122.16	-3.063e+05	3434	-0.73298	0.4026	-0.53338
2.536	122.14	-3.063e+05	3437.5	-0.732	0.40367	-0.53212
2.538	122.14	-3.0631e+05	3440.9	-0.73102	0.40475	-0.53085
2.54	122.14	-3.0631e+05	3444.2	-0.73005	0.40582	-0.52958
2.542	122.16	-3.0631e+05	3447.3	-0.72907	0.40689	-0.52831
2.544	122.16	-3.063e+05	3450.3	-0.7281	0.40797	-0.52704
2.546	122.16	-3.0631e+05	3453	-0.72771	0.40797	-0.52724
2.548	122.14	-3.0632e+05	3455.7	-0.72732	0.40797	-0.52743
2.55	122.11	-3.0633e+05	3458.1	-0.72692	0.40797	-0.52763
2.552	122.08	-3.0633e+05	3460.5	-0.72653	0.40797	-0.52782
2.554	122.07	-3.0633e+05	3462.8	-0.72614	0.40797	-0.52802
2.556	122.07	-3.0632e+05	3464.7	-0.72566	0.40826	-0.52772
2.558	122.04	-3.0632e+05	3466.7	-0.72517	0.40855	-0.52743
2.56	122.03	-3.0632e+05	3468.5	-0.72468	0.40885	-0.52714
2.562	122.05	-3.0632e+05	3470.1	-0.72419	0.40914	-0.52684
2.564	122.09	-3.0632e+05	3471.8	-0.7237	0.40943	-0.52655
2.566	122.13	-3.0632e+05	3473.2	-0.724	0.40894	-0.52733
2.568	122.12	-3.0632e+05	3474.5	-0.72429	0.40846	-0.52811
2.57	122.09	-3.0633e+05	3475.8	-0.72458	0.40797	-0.52889
2.572	122.09	-3.0634e+05	3476.9	-0.72488	0.40748	-0.52968
2.574	122.09	-3.0633e+05	3478	-0.72517	0.40699	-0.53046
2.576	122.09	-3.0631e+05	3478.9	-0.72478	0.40768	-0.52997
2.578	122.09	-3.0631e+05	3479.7	-0.72439	0.40836	-0.52948
2.58	122.09	-3.0631e+05	3480.4	-0.724	0.40904	-0.52899
2.582	122.1	-3.0631e+05	3481.1	-0.72361	0.40972	-0.5285
2.584	122.11	-3.0631e+05	3481.7	-0.72322	0.41041	-0.52802
2.586	122.1	-3.0631e+05	3482.1	-0.72527	0.40982	-0.5285
2.588	122.12	-3.0631e+05	3482.4	-0.72732	0.40924	-0.52899
2.59	122.14	-3.0631e+05	3482.7	-0.72936	0.40865	-0.52948
2.592	122.15	-3.063e+05	3482.9	-0.73141	0.40807	-0.52997
2.594	122.16	-3.063e+05	3483.1	-0.73346	0.40748	-0.53046
2.596	122.15	-3.0629e+05	3483.1	-0.73278	0.40836	-0.53085
2.598	122.14	-3.063e+05	3483.1	-0.7321	0.40924	-0.53124
2.6	122.14	-3.0631e+05	3483	-0.73141	0.41012	-0.53163
2.602	122.13	-3.0631e+05	3482.9	-0.73073	0.41099	-0.53202
2.604	122.14	-3.0631e+05	3482.8	-0.73005	0.41187	-0.53241
2.606	122.15	-3.063e+05	3482.6	-0.73034	0.4109	-0.53221
2.608	122.18	-3.063e+05	3482.3	-0.73063	0.40992	-0.53202
2.61	122.19	-3.063e+05	3482	-0.73093	0.40894	-0.53182
2.612	122.18	-3.0631e+05	3481.6	-0.73122	0.40797	-0.53163
2.614	122.18	-3.063e+05	3481.3	-0.73151	0.40699	-0.53143
2.616	122.19	-3.0629e+05	3480.9	-0.73024	0.40777	-0.53046
2.618	122.2	-3.063e+05	3480.5	-0.72897	0.40855	-0.52948
2.62	122.21	-3.063e+05	3480.1	-0.72771	0.40933	-0.5285
2.622	122.21	-3.0629e+05	3479.6	-0.72644	0.41012	-0.52753
2.624	122.19	-3.0629e+05	3479.1	-0.72517	0.4109	-0.52655
2.626	122.18	-3.0629e+05	3478.7	-0.72527	0.4109	-0.52665
2.628	122.2	-3.063e+05	3478.2	-0.72536	0.4109	-0.52675
2.63	122.2	-3.0629e+05	3477.7	-0.72546	0.4109	-0.52684
2.632	122.19	-3.0629e+05	3477.1	-0.72556	0.4109	-0.52694
2.634	122.21	-3.063e+05	3476.5	-0.72566	0.4109	-0.52704
2.636	122.24	-3.0631e+05	3476	-0.72585	0.40992	-0.52704
2.638	122.25	-3.063e+05	3475.4	-0.72605	0.40894	-0.52704
2.64	122.26	-3.063e+05	3474.9	-0.72624	0.40797	-0.52704
2.642	122.26	-3.0629e+05	3474.4	-0.72644	0.40699	-0.52704
2.644	122.25	-3.0629e+05	3473.9	-0.72663	0.40602	-0.52704
2.646	122.22	-3.0629e+05	3473.3	-0.72624	0.40719	-0.52714
2.648	122.23	-3.0628e+05	3472.8	-0.72585	0.40836	-0.52724
2.65	122.25	-3.0629e+05	3472.3	-0.72546	0.40953	-0.52733
2.652	122.25	-3.0629e+05	3471.8	-0.72507	0.4107	-0.52743
2.654	122.25	-3.0629e+05	3471.2	-0.72468	0.41187	-0.52753
2.656	122.26	-3.0629e+05	3470.7	-0.72546	0.41119	-0.52743
2.658	122.26	-3.0628e+05	3470.2	-0.72624	0.41051	-0.52733
2.66	122.27	-3.0628e+05	3469.8	-0.72702	0.40982	-0.52724
2.662	122.28	-3.0628e+05	3469.3	-0.7278	0.40914	-0.52714
2.664	122.28	-3.0628e+05	3468.8	-0.72858	0.40846	-0.52704
2.666	122.27	-3.0628e+05	3468.4	-0.72732	0.40914	-0.52675
2.668	122.27	-3.0628e+05	3467.9	-0.72605	0.40982	-0.52645
2.67	122.27	-3.0628e+05	3467.5	-0.72478	0.41051	-0.52616
2.672	122.27	-3.0628e+05	3467	-0.72351	0.41119	-0.52587
2.674	122.27	-3.0628e+05	3466.5	-0.72224	0.41187	-0.52558
2.676	122.28	-3.0628e+05	3466	-0.72302	0.41099	-0.52597
2.678	122.28	-3.0629e+05	3465.5	-0.7238	0.41012	-0.52636
2.68	122.28	-3.0629e+05	3465	-0.72458	0.40924	-0.52675
2.682	122.28	-3.0628e+05	3464.5	-0.72536	0.40836	-0.52714
2.684	122.29	-3.0628e+05	3464	-0.72614	0.40748	-0.52753
2.686	122.29	-3.0628e+05	3463.4	-0.72585	0.40797	-0.52636
2.688	122.28	-3.0628e+05	3462.7	-0.72556	0.40846	-0.52519
2.69	122.28	-3.0628e+05	3462	-0.72527	0.40894	-0.52401
2.692	122.28	-3.0628e+05	3461.3	-0.72497	0.40943	-0.52284
2.694	122.27	-3.0627e+05	3460.5	-0.72468	0.40992	-0.52167
2.696	122.27	-3.0627e+05	3459.6	-0.72419	0.40963	-0.52265
2.698	122.26	-3.0627e+05	3458.7	-0.7237	0.40933	-0.52362
2.7	122.26	-3.0627e+05	3457.7	-0.72322	0.40904	-0.5246
2.702	122.27	-3.0627e+05	3456.7	-0.72273	0.40875	-0.52558
2.704	122.27	-3.0627e+05	3455.6	-0.72224	0.40846	-0.52655
2.706	122.27	-3.0628e+05	3454.5	-0.72214	0.40865	-0.52684
2.708	122.27	-3.0628e+05	3453.4	-0.72204	0.40885	-0.52714
2.71	122.25	-3.0628e+05	3452.3	-0.72195	0.40904	-0.52743
2.712	122.25	-3.0627e+05	3451	-0.72185	0.40924	-0.52772
2.714	122.25	-3.0627e+05	3449.8	-0.72175	0.40943	-0.52802
2.716	122.25	-3.0627e+05	3448.5	-0.72185	0.40992	-0.52831
2.718	122.26	-3.0627e+05	3447.3	-0.72195	0.41041	-0.5286
2.72	122.28	-3.0627e+05	3446	-0.72204	0.4109	-0.52889
2.722	122.31	-3.0627e+05	3444.7	-0.72214	0.41138	-0.52919
2.724	122.33	-3.0627e+05	3443.4	-0.72224	0.41187	-0.52948
2.726	122.34	-3.0627e+05	3442.2	-0.72253	0.41148	-0.52899
2.728	122.33	-3.0627e+05	3440.9	-0.72283	0.41109	-0.5285
2.73	122.32	-3.0627e+05	3439.7	-0.72312	0.4107	-0.52802
2.732	122.3	-3.0627e+05	3438.5	-0.72341	0.41031	-0.52753
2.734	122.3	-3.0627e+05	3437.3	-0.7237	0.40992	-0.52704
2.736	122.29	-3.0627e+05	3436.2	-0.72351	0.41031	-0.52724
2.738	122.29	-3.0627e+05	3435.1	-0.72331	0.4107	-0.52743
2.74	122.3	-3.0627e+05	3434	-0.72312	0.41109	-0.52763
2.742	122.3	-3.0626e+05	3432.9	-0.72292	0.41148	-0.52782
2.744	122.3	-3.0626e+05	3431.8	-0.72273	0.41187	-0.52802
2.746	122.31	-3.0626e+05	3430.8	-0.72361	0.4107	-0.52714
2.748	122.3	-3.0626e+05	3429.9	-0.72448	0.40953	-0.52626
2.75	122.3	-3.0626e+05	3429	-0.72536	0.40836	-0.52538
2.752	122.3	-3.0627e+05	3428.1	-0.72624	0.40719	-0.5245
2.754	122.3	-3.0626e+05	3427.3	-0.72712	0.40602	-0.52362
2.756	122.31	-3.0626e+05	3426.6	-0.72634	0.40748	-0.5247
2.758	122.33	-3.0626e+05	3425.9	-0.72556	0.40894	-0.52577
2.76	122.34	-3.0626e+05	3425.2	-0.72478	0.41041	-0.52684
2.762	122.33	-3.0626e+05	3424.6	-0.724	0.41187	-0.52792
2.764	122.34	-3.0626e+05	3424	-0.72322	0.41334	-0.52899
2.766	122.34	-3.0626e+05	3423.6	-0.72536	0.41158	-0.52938
2.768	122.34	-3.0626e+05	3423.1	-0.72751	0.40982	-0.52977
2.77	122.33	-3.0626e+05	3422.7	-0.72966	0.40807	-0.53016
2.772	122.33	-3.0626e+05	3422.3	-0.7318	0.40631	-0.53055
2.774	122.34	-3.0626e+05	3422	-0.73395	0.40455	-0.53094
2.776	122.33	-3.0625e+05	3421.7	-0.73424	0.40445	-0.53221
2.778	122.34	-3.0625e+05	3421.4	-0.73454	0.40436	-0.53348
2.78	122.34	-3.0625e+05	3421.1	-0.73483	0.40426	-0.53475
2.782	122.31	-3.0625e+05	3420.9	-0.73512	0.40416	-0.53602
2.784	122.29	-3.0625e+05	3420.6	-0.73542	0.40406	-0.53729
2.786	122.28	-3.0625e+05	3420.5	-0.73503	0.40406	-0.53729
2.788	122.28	-3.0625e+05	3420.4	-0.73464	0.40406	-0.53729
2.79	122.28	-3.0625e+05	3420.2	-0.73424	0.40406	-0.53729
2.792	122.31	-3.0625e+05	3420.1	-0.73385	0.40406	-0.53729
2.794	122.34	-3.0626e+05	3420	-0.73346	0.40406	-0.53729
2.796	122.36	-3.0626e+05	3420	-0.73337	0.40397	-0.53729
2.798	122.35	-3.0626e+05	3419.9	-0.73327	0.40387	-0.53729
2.8	122.33	-3.0626e+05	3419.9	-0.73317	0.40377	-0.53729
2.802	122.32	-3.0626e+05	3419.9	-0.73307	0.40367	-0.53729
2.804	122.31	-3.0626e+05	3419.9	-0.73298	0.40358	-0.53729
2.806	122.3	-3.0625e+05	3419.9	-0.73483	0.40367	-0.53641
2.808	122.3	-3.0625e+05	3419.9	-0.73668	0.40377	-0.53553
2.81	122.33	-3.0626e+05	3419.9	-0.73854	0.40387	-0.53465
2.812	122.35	-3.0626e+05	3419.8	-0.74039	0.40397	-0.53377
2.814	122.34	-3.0626e+05	3419.8	-0.74225	0.40406	-0.5329
2.816	122.33	-3.0625e+05	3419.8	-0.74039	0.40445	-0.5326
2.818	122.33	-3.0625e+05	3419.8	-0.73854	0.40484	-0.53231
2.82	122.33	-3.0625e+05	3419.8	-0.73668	0.40524	-0.53202
2.822	122.33	-3.0625e+05	3419.7	-0.73483	0.40563	-0.53172
2.824	122.33	-3.0625e+05	3419.7	-0.73298	0.40602	-0.53143
2.826	122.33	-3.0625e+05	3419.5	-0.73259	0.40563	-0.53309
2.828	122.33	-3.0625e+05	3419.4	-0.7322	0.40524	-0.53475
2.83	122.33	-3.0625e+05	3419.4	-0.7318	0.40484	-0.53641
2.832	122.33	-3.0626e+05	3419.3	-0.73141	0.40445	-0.53807
2.834	122.33	-3.0626e+05	3419.2	-0.73102	0.40406	-0.53973
2.836	122.33	-3.0626e+05	3419.2	-0.73063	0.40397	-0.53875
2.838	122.33	-3.0626e+05	3419.1	-0.73024	0.40387	-0.53778
2.84	122.33	-3.0626e+05	3419	-0.72985	0.40377	-0.5368
2.842	122.33	-3.0626e+05	3418.9	-0.72946	0.40367	-0.53582
2.844	122.33	-3.0626e+05	3418.9	-0.72907	0.40358	-0.53485
2.846	122.33	-3.0626e+05	3418.7	-0.73015	0.40377	-0.53465
2.848	122.34	-3.0626e+05	3418.5	-0.73122	0.40397	-0.53446
2.85	122.34	-3.0626e+05	3418.3	-0.73229	0.40416	-0.53426
2.852	122.35	-3.0625e+05	3418.1	-0.73337	0.40436	-0.53407
2.854	122.37	-3.0625e+05	3417.9	-0.73444	0.40455	-0.53387
2.856	122.37	-3.0625e+05	3417.7	-0.73532	0.40553	-0.53368
2.858	122.35	-3.0625e+05	3417.5	-0.7362	0.4065	-0.53348
2.86	122.33	-3.0625e+05	3417.2	-0.73708	0.40748	-0.53329
2.862	122.33	-3.0625e+05	3416.9	-0.73795	0.40846	-0.53309
2.864	122.34	-3.0625e+05	3416.6	-0.73883	0.40943	-0.5329
2.866	122.32	-3.0625e+05	3416.3	-0.73786	0.40797	-0.53368
2.868	122.31	-3.0625e+05	3416	-0.73688	0.4065	-0.53446
2.87	122.3	-3.0625e+05	3415.6	-0.7359	0.40504	-0.53524
2.872	122.31	-3.0625e+05	3415.2	-0.73493	0.40358	-0.53602
2.874	122.32	-3.0625e+05	3414.8	-0.73395	0.40211	-0.5368
2.876	122.32	-3.0625e+05	3414.4	-0.73424	0.40192	-0.5367
2.878	122.31	-3.0625e+05	3414	-0.73454	0.40172	-0.5366
2.88	122.3	-3.0626e+05	3413.6	-0.73483	0.40153	-0.53651
2.882	122.29	-3.0626e+05	3413.1	-0.73512	0.40133	-0.53641
2.884	122.29	-3.0626e+05	3412.6	-0.73542	0.40114	-0.53631
2.886	122.29	-3.0626e+05	3412.1	-0.73542	0.40162	-0.53543
2.888	122.3	-3.0626e+05	3411.7	-0.73542	0.40211	-0.53456
2.89	122.29	-3.0626e+05	3411.2	-0.73542	0.4026	-0.53368
2.892	122.28	-3.0626e+05	3410.6	-0.73542	0.40309	-0.5328
2.894	122.29	-3.0626e+05	3410.1	-0.73542	0.40358	-0.53192
2.896	122.29	-3.0626e+05	3409.5	-0.73532	0.40387	-0.53241
2.898	122.27	-3.0626e+05	3408.9	-0.73522	0.40416	-0.5329
2.9	122.24	-3.0626e+05	3408.3	-0.73512	0.40445	-0.53338
2.902	122.23	-3.0627e+05	3407.6	-0.73503	0.40475	-0.53387
2.904	122.27	-3.0627e+05	3407	-0.73493	0.40504	-0.53436
2.906	122.3	-3.0626e+05	3406.4	-0.73454	0.40387	-0.53446
2.908	122.3	-3.0626e+05	3405.8	-0.73415	0.4027	-0.53456
2.91	122.29	-3.0626e+05	3405.1	-0.73376	0.40153	-0.53465
2.912	122.3	-3.0626e+05	3404.5	-0.73337	0.40036	-0.53475
2.914	122.3	-3.0626e+05	3403.8	-0.73298	0.39918	-0.53485
2.916	122.3	-3.0626e+05	3403.1	-0.73395	0.40084	-0.53358
2.918	122.3	-3.0627e+05	3402.4	-0.73493	0.4025	-0.53231
2.92	122.3	-3.0627e+05	3401.8	-0.7359	0.40416	-0.53104
2.922	122.3	-3.0627e+05	3401.1	-0.73688	0.40582	-0.52977
2.924	122.31	-3.0627e+05	3400.4	-0.73786	0.40748	-0.5285
2.926	122.32	-3.0627e+05	3399.7	-0.73717	0.4068	-0.52958
2.928	122.34	-3.0627e+05	3399.1	-0.73649	0.40611	-0.53065
2.93	122.36	-3.0627e+05	3398.4	-0.73581	0.40543	-0.53172
2.932	122.38	-3.0627e+05	3397.7	-0.73512	0.40475	-0.5328
2.934	122.38	-3.0627e+05	3397.1	-0.73444	0.40406	-0.53387
2.936	122.37	-3.0627e+05	3396.4	-0.73405	0.40455	-0.53299
2.938	122.37	-3.0627e+05	3395.7	-0.73366	0.40504	-0.53212
2.94	122.37	-3.0626e+05	3395	-0.73327	0.40553	-0.53124
2.942	122.36	-3.0626e+05	3394.3	-0.73288	0.40602	-0.53036
2.944	122.37	-3.0626e+05	3393.7	-0.73249	0.4065	-0.52948
2.946	122.37	-3.0626e+05	3393	-0.732	0.40572	-0.53007
2.948	122.38	-3.0625e+05	3392.4	-0.73151	0.40494	-0.53065
2.95	122.38	-3.0626e+05	3391.8	-0.73102	0.40416	-0.53124
2.952	122.4	-3.0627e+05	3391.2	-0.73054	0.40338	-0.53182
2.954	122.42	-3.0628e+05	3390.6	-0.73005	0.4026	-0.53241
2.956	122.43	-3.0628e+05	3390	-0.73063	0.4025	-0.53212
2.958	122.43	-3.0628e+05	3389.4	-0.73122	0.4024	-0.53182
2.96	122.43	-3.0628e+05	3388.8	-0.7318	0.40231	-0.53153
2.962	122.42	-3.0627e+05	3388.3	-0.73239	0.40221	-0.53124
2.964	122.4	-3.0627e+05	3387.7	-0.73298	0.40211	-0.53094
2.966	122.38	-3.0627e+05	3387.2	-0.73317	0.4024	-0.53163
2.968	122.37	-3.0627e+05	3386.7	-0.73337	0.4027	-0.53231
2.97	122.35	-3.0628e+05	3386.1	-0.73356	0.40299	-0.53299
2.972	122.34	-3.0628e+05	3385.6	-0.73376	0.40328	-0.53368
2.974	122.35	-3.0628e+05	3385.1	-0.73395	0.40358	-0.53436
2.976	122.36	-3.0628e+05	3384.6	-0.73327	0.40475	-0.53299
2.978	122.39	-3.0628e+05	3384.1	-0.73259	0.40592	-0.53163
2.98	122.43	-3.0629e+05	3383.6	-0.7319	0.40709	-0.53026
2.982	122.42	-3.0628e+05	3383.1	-0.73122	0.40826	-0.52889
2.984	122.42	-3.0628e+05	3382.6	-0.73054	0.40943	-0.52753
2.986	122.42	-3.0628e+05	3382.1	-0.72897	0.40992	-0.52733
2.988	122.43	-3.0628e+05	3381.7	-0.72741	0.41041	-0.52714
2.99	122.42	-3.0628e+05	3381.3	-0.72585	0.4109	-0.52694
2.992	122.41	-3.0628e+05	3380.8	-0.72429	0.41138	-0.52675
2.994	122.4	-3.0628e+05	3380.4	-0.72273	0.41187	-0.52655
2.996	122.4	-3.0628e+05	3380	-0.72292	0.41138	-0.52684
2.998	122.4	-3.0628e+05	3379.6	-0.72312	0.4109	-0.52714
3	122.39	-3.0628e+05	3379.2	-0.72331	0.41041	-0.52743
3.002	122.39	-3.0628e+05	3378.9	-0.72351	0.40992	-0.52772
3.004	122.4	-3.0628e+05	3378.5	-0.7237	0.40943	-0.52802
3.006	122.4	-3.0628e+05	3378.2	-0.7237	0.40953	-0.52743
3.008	122.4	-3.0628e+05	3377.8	-0.7237	0.40963	-0.52684
3.01	122.4	-3.0629e+05	3377.5	-0.7237	0.40972	-0.52626
3.012	122.41	-3.0629e+05	3377.2	-0.7237	0.40982	-0.52567
3.014	122.44	-3.0629e+05	3376.9	-0.7237	0.40992	-0.52509
3.016	122.45	-3.0629e+05	3376.6	-0.72448	0.40982	-0.52567
3.018	122.44	-3.0629e+05	3376.3	-0.72527	0.40972	-0.52626
3.02	122.44	-3.0628e+05	3376	-0.72605	0.40963	-0.52684
3.022	122.44	-3.0628e+05	3375.7	-0.72683	0.40953	-0.52743
3.024	122.44	-3.0629e+05	3375.4	-0.72761	0.40943	-0.52802
3.026	122.43	-3.0629e+05	3375.1	-0.72722	0.40953	-0.52733
3.028	122.42	-3.0629e+05	3374.8	-0.72683	0.40963	-0.52665
3.03	122.4	-3.0629e+05	3374.5	-0.72644	0.40972	-0.52597
3.032	122.36	-3.0628e+05	3374.3	-0.72605	0.40982	-0.52528
3.034	122.32	-3.0628e+05	3374.1	-0.72566	0.40992	-0.5246
3.036	122.26	-3.0629e+05	3373.8	-0.72527	0.40982	-0.52489
3.038	122.18	-3.0628e+05	3373.6	-0.72488	0.40972	-0.52519
3.04	122.09	-3.0628e+05	3373.3	-0.72448	0.40963	-0.52548
3.042	121.96	-3.0629e+05	3373.1	-0.72409	0.40953	-0.52577
3.044	121.8	-3.063e+05	3372.8	-0.7237	0.40943	-0.52606
3.046	121.65	-3.063e+05	3372.5	-0.7237	0.41021	-0.52665
3.048	121.52	-3.063e+05	3372.2	-0.7237	0.41099	-0.52724
3.05	121.43	-3.063e+05	3372	-0.7237	0.41177	-0.52782
3.052	121.4	-3.0629e+05	3371.7	-0.7237	0.41256	-0.52841
3.054	121.44	-3.063e+05	3371.4	-0.7237	0.41334	-0.52899
3.056	121.58	-3.063e+05	3371.2	-0.724	0.41236	-0.5287
3.058	121.8	-3.063e+05	3371	-0.72429	0.41138	-0.52841
3.06	122.01	-3.0629e+05	3370.7	-0.72458	0.41041	-0.52811
3.062	122.17	-3.0629e+05	3370.4	-0.72488	0.40943	-0.52782
3.064	122.23	-3.063e+05	3370.1	-0.72517	0.40846	-0.52753
3.066	122.25	-3.063e+05	3369.8	-0.72546	0.40865	-0.52802
3.068	122.28	-3.063e+05	3369.5	-0.72575	0.40885	-0.5285
3.07	122.3	-3.063e+05	3369.2	-0.72605	0.40904	-0.52899
3.072	122.32	-3.063e+05	3368.8	-0.72634	0.40924	-0.52948
3.074	122.33	-3.0629e+05	3368.5	-0.72663	0.40943	-0.52997
3.076	122.36	-3.0629e+05	3368.2	-0.72888	0.40924	-0.53075
3.078	122.36	-3.0629e+05	3367.9	-0.73112	0.40904	-0.53153
3.08	122.36	-3.063e+05	3367.5	-0.73337	0.40885	-0.53231
3.082	122.38	-3.063e+05	3367.1	-0.73561	0.40865	-0.53309
3.084	122.41	-3.063e+05	3366.8	-0.73786	0.40846	-0.53387
3.086	122.43	-3.063e+05	3366.4	-0.73786	0.40787	-0.53358
3.088	122.44	-3.0631e+05	3366	-0.73786	0.40728	-0.53329
3.09	122.43	-3.0631e+05	3365.7	-0.73786	0.4067	-0.53299
3.092	122.42	-3.0631e+05	3365.3	-0.73786	0.40611	-0.5327
3.094	122.42	-3.0631e+05	3365	-0.73786	0.40553	-0.53241
3.096	122.42	-3.0631e+05	3364.7	-0.7361	0.40533	-0.53221
3.098	122.42	-3.0631e+05	3364.4	-0.73434	0.40514	-0.53202
3.1	122.41	-3.0631e+05	3364	-0.73259	0.40494	-0.53182
3.102	122.4	-3.0631e+05	3363.7	-0.73083	0.40475	-0.53163
3.104	122.4	-3.0631e+05	3363.3	-0.72907	0.40455	-0.53143
3.106	122.42	-3.0631e+05	3362.9	-0.73073	0.40533	-0.53114
3.108	122.43	-3.063e+05	3362.5	-0.73239	0.40611	-0.53085
3.11	122.43	-3.063e+05	3362.1	-0.73405	0.40689	-0.53055
3.112	122.43	-3.0631e+05	3361.7	-0.73571	0.40768	-0.53026
3.114	122.42	-3.0631e+05	3361.3	-0.73737	0.40846	-0.52997
3.116	122.42	-3.0631e+05	3360.9	-0.73688	0.40748	-0.53094
3.118	122.42	-3.0631e+05	3360.5	-0.73639	0.4065	-0.53192
3.12	122.43	-3.0631e+05	3360.1	-0.7359	0.40553	-0.5329
3.122	122.43	-3.0631e+05	3359.7	-0.73542	0.40455	-0.53387
3.124	122.43	-3.0632e+05	3359.3	-0.73493	0.40358	-0.53485
3.126	122.44	-3.0632e+05	3358.9	-0.73424	0.40367	-0.53397
3.128	122.44	-3.0632e+05	3358.5	-0.73356	0.40377	-0.53309
3.13	122.44	-3.0632e+05	3358	-0.73288	0.40387	-0.53221
3.132	122.43	-3.0632e+05	3357.6	-0.7322	0.40397	-0.53133
3.134	122.43	-3.0632e+05	3357.1	-0.73151	0.40406	-0.53046
3.136	122.4	-3.0632e+05	3356.7	-0.73171	0.40426	-0.53075
3.138	122.38	-3.0632e+05	3356.3	-0.7319	0.40445	-0.53104
3.14	122.37	-3.0632e+05	3355.9	-0.7321	0.40465	-0.53133
3.142	122.37	-3.0631e+05	3355.5	-0.73229	0.40484	-0.53163
3.144	122.36	-3.0631e+05	3355.1	-0.73249	0.40504	-0.53192
3.146	122.37	-3.0631e+05	3354.7	-0.732	0.40504	-0.53163
3.148	122.41	-3.0631e+05	3354.3	-0.73151	0.40504	-0.53133
3.15	122.45	-3.0632e+05	3354	-0.73102	0.40504	-0.53104
3.152	122.46	-3.0633e+05	3353.6	-0.73054	0.40504	-0.53075
3.154	122.44	-3.0633e+05	3353.2	-0.73005	0.40504	-0.53046
3.156	122.41	-3.0633e+05	3352.9	-0.73102	0.40504	-0.53036
3.158	122.39	-3.0632e+05	3352.5	-0.732	0.40504	-0.53026
3.16	122.38	-3.0631e+05	3352.1	-0.73298	0.40504	-0.53016
3.162	122.4	-3.0632e+05	3351.7	-0.73395	0.40504	-0.53007
3.164	122.41	-3.0632e+05	3351.3	-0.73493	0.40504	-0.52997
3.166	122.39	-3.0632e+05	3350.9	-0.73434	0.40387	-0.53114
3.168	122.39	-3.0632e+05	3350.5	-0.73376	0.4027	-0.53231
3.17	122.41	-3.0632e+05	3350.1	-0.73317	0.40153	-0.53348
3.172	122.44	-3.0633e+05	3349.8	-0.73259	0.40036	-0.53465
3.174	122.44	-3.0632e+05	3349.4	-0.732	0.39918	-0.53582
3.176	122.43	-3.0632e+05	3349.1	-0.7321	0.40016	-0.53543
3.178	122.41	-3.0632e+05	3348.8	-0.7322	0.40114	-0.53504
3.18	122.41	-3.0632e+05	3348.5	-0.73229	0.40211	-0.53465
3.182	122.41	-3.0632e+05	3348.2	-0.73239	0.40309	-0.53426
3.184	122.42	-3.0632e+05	3347.9	-0.73249	0.40406	-0.53387
3.186	122.42	-3.0633e+05	3347.6	-0.73327	0.40475	-0.53329
3.188	122.43	-3.0634e+05	3347.3	-0.73405	0.40543	-0.5327
3.19	122.42	-3.0633e+05	3347	-0.73483	0.40611	-0.53212
3.192	122.41	-3.0633e+05	3346.7	-0.73561	0.4068	-0.53153
3.194	122.41	-3.0633e+05	3346.5	-0.73639	0.40748	-0.53094
3.196	122.41	-3.0634e+05	3346.3	-0.73581	0.40631	-0.53192
3.198	122.4	-3.0634e+05	3346.1	-0.73522	0.40514	-0.5329
3.2	122.4	-3.0634e+05	3345.9	-0.73464	0.40397	-0.53387
3.202	122.4	-3.0634e+05	3345.8	-0.73405	0.4028	-0.53485
3.204	122.4	-3.0634e+05	3345.6	-0.73346	0.40162	-0.53582
3.206	122.41	-3.0634e+05	3345.6	-0.73249	0.40201	-0.53651
3.208	122.41	-3.0634e+05	3345.7	-0.73151	0.4024	-0.53719
3.21	122.41	-3.0634e+05	3345.8	-0.73054	0.4028	-0.53787
3.212	122.4	-3.0634e+05	3346	-0.72956	0.40319	-0.53856
3.214	122.39	-3.0634e+05	3346.2	-0.72858	0.40358	-0.53924
3.216	122.38	-3.0634e+05	3346.7	-0.72888	0.40406	-0.53826
3.218	122.37	-3.0634e+05	3347.3	-0.72917	0.40455	-0.53729
3.22	122.37	-3.0634e+05	3348.1	-0.72946	0.40504	-0.53631
3.222	122.35	-3.0635e+05	3349.3	-0.72976	0.40553	-0.53534
3.224	122.36	-3.0635e+05	3350.4	-0.73005	0.40602	-0.53436
3.226	122.35	-3.0634e+05	3352.1	-0.73132	0.40631	-0.53397
3.228	122.32	-3.0634e+05	3353.8	-0.73259	0.4066	-0.53358
3.23	122.3	-3.0634e+05	3355.8	-0.73385	0.40689	-0.53319
3.232	122.3	-3.0634e+05	3358.2	-0.73512	0.40719	-0.5328
3.234	122.32	-3.0634e+05	3360.6	-0.73639	0.40748	-0.53241
3.236	122.34	-3.0634e+05	3363.5	-0.7361	0.40748	-0.53221
3.238	122.36	-3.0634e+05	3366.4	-0.73581	0.40748	-0.53202
3.24	122.38	-3.0634e+05	3369.6	-0.73551	0.40748	-0.53182
3.242	122.37	-3.0634e+05	3373	-0.73522	0.40748	-0.53163
3.244	122.35	-3.0635e+05	3376.4	-0.73493	0.40748	-0.53143
3.246	122.32	-3.0635e+05	3380.1	-0.73551	0.40719	-0.53182
3.248	122.28	-3.0634e+05	3383.8	-0.7361	0.40689	-0.53221
3.25	122.25	-3.0635e+05	3387.6	-0.73668	0.4066	-0.5326
3.252	122.23	-3.0635e+05	3391.5	-0.73727	0.40631	-0.53299
3.254	122.23	-3.0635e+05	3395.3	-0.73786	0.40602	-0.53338
3.256	122.24	-3.0636e+05	3399.1	-0.73747	0.4065	-0.5329
3.258	122.24	-3.0636e+05	3402.9	-0.73708	0.40699	-0.53241
3.26	122.24	-3.0636e+05	3406.7	-0.73668	0.40748	-0.53192
3.262	122.22	-3.0636e+05	3410.3	-0.73629	0.40797	-0.53143
3.264	122.19	-3.0636e+05	3414	-0.7359	0.40846	-0.53094
3.266	122.18	-3.0636e+05	3417.4	-0.7359	0.40826	-0.53094
3.268	122.17	-3.0635e+05	3420.8	-0.7359	0.40807	-0.53094
3.27	122.17	-3.0636e+05	3424	-0.7359	0.40787	-0.53094
3.272	122.2	-3.0636e+05	3427.2	-0.7359	0.40768	-0.53094
3.274	122.21	-3.0636e+05	3430.4	-0.7359	0.40748	-0.53094
3.276	122.2	-3.0636e+05	3433.2	-0.73581	0.40748	-0.53085
3.278	122.18	-3.0636e+05	3436	-0.73571	0.40748	-0.53075
3.28	122.17	-3.0636e+05	3438.6	-0.73561	0.40748	-0.53065
3.282	122.16	-3.0636e+05	3441.1	-0.73551	0.40748	-0.53055
3.284	122.15	-3.0635e+05	3443.5	-0.73542	0.40748	-0.53046
3.286	122.15	-3.0635e+05	3445.6	-0.73581	0.40807	-0.53094
3.288	122.15	-3.0635e+05	3447.8	-0.7362	0.40865	-0.53143
3.29	122.14	-3.0635e+05	3449.7	-0.73659	0.40924	-0.53192
3.292	122.12	-3.0636e+05	3451.5	-0.73698	0.40982	-0.53241
3.294	122.11	-3.0636e+05	3453.3	-0.73737	0.41041	-0.5329
3.296	122.11	-3.0637e+05	3454.9	-0.73629	0.40953	-0.5327
3.298	122.11	-3.0636e+05	3456.5	-0.73522	0.40865	-0.53251
3.3	122.11	-3.0636e+05	3457.9	-0.73415	0.40777	-0.53231
3.302	122.1	-3.0636e+05	3459.1	-0.73307	0.40689	-0.53212
3.304	122.1	-3.0636e+05	3460.4	-0.732	0.40602	-0.53192
3.306	122.1	-3.0635e+05	3461.4	-0.7319	0.40533	-0.53231
3.308	122.1	-3.0635e+05	3462.3	-0.7318	0.40465	-0.5327
3.31	122.11	-3.0635e+05	3463.1	-0.73171	0.40397	-0.53309
3.312	122.1	-3.0635e+05	3463.8	-0.73161	0.40328	-0.53348
3.314	122.1	-3.0635e+05	3464.5	-0.73151	0.4026	-0.53387
3.316	122.12	-3.0635e+05	3465	-0.7321	0.40328	-0.53426
3.318	122.14	-3.0635e+05	3465.4	-0.73268	0.40397	-0.53465
3.32	122.17	-3.0635e+05	3465.8	-0.73327	0.40465	-0.53504
3.322	122.17	-3.0636e+05	3466	-0.73385	0.40533	-0.53543
3.324	122.16	-3.0636e+05	3466.2	-0.73444	0.40602	-0.53582
3.326	122.17	-3.0635e+05	3466.3	-0.73229	0.40709	-0.53416
3.328	122.18	-3.0635e+05	3466.3	-0.73015	0.40816	-0.53251
3.33	122.18	-3.0635e+05	3466.3	-0.728	0.40924	-0.53085
3.332	122.16	-3.0634e+05	3466.2	-0.72585	0.41031	-0.52919
3.334	122.17	-3.0635e+05	3466.1	-0.7237	0.41138	-0.52753
3.336	122.16	-3.0635e+05	3465.9	-0.72497	0.4107	-0.52753
3.338	122.16	-3.0635e+05	3465.7	-0.72624	0.41002	-0.52753
3.34	122.17	-3.0635e+05	3465.5	-0.72751	0.40933	-0.52753
3.342	122.19	-3.0635e+05	3465.2	-0.72878	0.40865	-0.52753
3.344	122.2	-3.0634e+05	3465	-0.73005	0.40797	-0.52753
3.346	122.2	-3.0635e+05	3464.8	-0.72995	0.40768	-0.52821
3.348	122.2	-3.0635e+05	3464.5	-0.72985	0.40738	-0.52889
3.35	122.22	-3.0635e+05	3464.2	-0.72976	0.40709	-0.52958
3.352	122.24	-3.0635e+05	3463.9	-0.72966	0.4068	-0.53026
3.354	122.26	-3.0634e+05	3463.5	-0.72956	0.4065	-0.53094
3.356	122.27	-3.0634e+05	3463.2	-0.73093	0.40738	-0.53124
3.358	122.27	-3.0634e+05	3462.8	-0.73229	0.40826	-0.53153
3.36	122.25	-3.0634e+05	3462.4	-0.73366	0.40914	-0.53182
3.362	122.26	-3.0634e+05	3462.1	-0.73503	0.41002	-0.53212
3.364	122.26	-3.0634e+05	3461.7	-0.73639	0.4109	-0.53241
3.366	122.25	-3.0634e+05	3461.4	-0.73405	0.4109	-0.53163
3.368	122.24	-3.0634e+05	3461	-0.73171	0.4109	-0.53085
3.37	122.25	-3.0634e+05	3460.6	-0.72936	0.4109	-0.53007
3.372	122.26	-3.0634e+05	3460.3	-0.72702	0.4109	-0.52928
3.374	122.27	-3.0633e+05	3459.9	-0.72468	0.4109	-0.5285
3.376	122.28	-3.0633e+05	3459.5	-0.72556	0.40972	-0.5287
3.378	122.28	-3.0633e+05	3459.2	-0.72644	0.40855	-0.52889
3.38	122.29	-3.0633e+05	3458.8	-0.72732	0.40738	-0.52909
3.382	122.29	-3.0633e+05	3458.4	-0.72819	0.40621	-0.52928
3.384	122.29	-3.0633e+05	3458	-0.72907	0.40504	-0.52948
3.386	122.29	-3.0633e+05	3457.7	-0.73093	0.40641	-0.53026
3.388	122.29	-3.0633e+05	3457.3	-0.73278	0.40777	-0.53104
3.39	122.28	-3.0633e+05	3456.9	-0.73464	0.40914	-0.53182
3.392	122.27	-3.0633e+05	3456.6	-0.73649	0.41051	-0.5326
3.394	122.27	-3.0633e+05	3456.2	-0.73834	0.41187	-0.53338
3.396	122.27	-3.0633e+05	3455.9	-0.73766	0.41109	-0.5328
3.398	122.27	-3.0633e+05	3455.5	-0.73698	0.41031	-0.53221
3.4	122.27	-3.0632e+05	3455.1	-0.73629	0.40953	-0.53163
3.402	122.28	-3.0632e+05	3454.7	-0.73561	0.40875	-0.53104
3.404	122.31	-3.0633e+05	3454.3	-0.73493	0.40797	-0.53046
3.406	122.33	-3.0633e+05	3453.8	-0.73434	0.40709	-0.53094
3.408	122.35	-3.0633e+05	3453.3	-0.73376	0.40621	-0.53143
3.41	122.33	-3.0632e+05	3452.8	-0.73317	0.40533	-0.53192
3.412	122.32	-3.0632e+05	3452.3	-0.73259	0.40445	-0.53241
3.414	122.31	-3.0632e+05	3451.7	-0.732	0.40358	-0.5329
3.416	122.3	-3.0632e+05	3451.1	-0.73298	0.40465	-0.53309
3.418	122.3	-3.0632e+05	3450.5	-0.73395	0.40572	-0.53329
3.42	122.28	-3.0632e+05	3449.8	-0.73493	0.4068	-0.53348
3.422	122.28	-3.0631e+05	3449.1	-0.7359	0.40787	-0.53368
3.424	122.28	-3.063e+05	3448.4	-0.73688	0.40894	-0.53387
3.426	122.29	-3.0631e+05	3447.5	-0.73415	0.40963	-0.53319
3.428	122.3	-3.0631e+05	3446.7	-0.73141	0.41031	-0.53251
3.43	122.31	-3.0631e+05	3445.8	-0.72868	0.41099	-0.53182
3.432	122.3	-3.0631e+05	3444.8	-0.72595	0.41168	-0.53114
3.434	122.3	-3.063e+05	3443.9	-0.72322	0.41236	-0.53046
3.436	122.3	-3.063e+05	3442.8	-0.72497	0.4108	-0.53114
3.438	122.32	-3.063e+05	3441.8	-0.72673	0.40924	-0.53182
3.44	122.34	-3.0629e+05	3440.7	-0.72849	0.40768	-0.53251
3.442	122.34	-3.063e+05	3439.6	-0.73024	0.40611	-0.53319
3.444	122.35	-3.063e+05	3438.4	-0.732	0.40455	-0.53387
3.446	122.35	-3.063e+05	3437.3	-0.73151	0.40406	-0.53504
3.448	122.35	-3.063e+05	3436.2	-0.73102	0.40358	-0.53621
3.45	122.35	-3.063e+05	3435	-0.73054	0.40309	-0.53739
3.452	122.34	-3.063e+05	3433.8	-0.73005	0.4026	-0.53856
3.454	122.34	-3.063e+05	3432.7	-0.72956	0.40211	-0.53973
3.456	122.34	-3.063e+05	3431.5	-0.73024	0.40201	-0.53944
3.458	122.35	-3.063e+05	3430.4	-0.73093	0.40192	-0.53914
3.46	122.35	-3.063e+05	3429.3	-0.73161	0.40182	-0.53885
3.462	122.34	-3.0629e+05	3428.2	-0.73229	0.40172	-0.53856
3.464	122.34	-3.0629e+05	3427.2	-0.73298	0.40162	-0.53826
3.466	122.34	-3.063e+05	3426.2	-0.73317	0.40201	-0.53797
3.468	122.34	-3.063e+05	3425.2	-0.73337	0.4024	-0.53768
3.47	122.34	-3.0629e+05	3424.3	-0.73356	0.4028	-0.53739
3.472	122.35	-3.0629e+05	3423.5	-0.73376	0.40319	-0.53709
3.474	122.36	-3.0629e+05	3422.6	-0.73395	0.40358	-0.5368
3.476	122.36	-3.0629e+05	3421.8	-0.73337	0.40367	-0.53612
3.478	122.37	-3.0629e+05	3421	-0.73278	0.40377	-0.53543
3.48	122.37	-3.0629e+05	3420.2	-0.7322	0.40387	-0.53475
3.482	122.37	-3.063e+05	3419.5	-0.73161	0.40397	-0.53407
3.484	122.37	-3.063e+05	3418.7	-0.73102	0.40406	-0.53338
3.486	122.37	-3.063e+05	3418.1	-0.73171	0.40436	-0.53299
3.488	122.37	-3.0629e+05	3417.5	-0.73239	0.40465	-0.5326
3.49	122.36	-3.0629e+05	3416.9	-0.73307	0.40494	-0.53221
3.492	122.35	-3.0629e+05	3416.4	-0.73376	0.40524	-0.53182
3.494	122.34	-3.0629e+05	3415.8	-0.73444	0.40553	-0.53143
3.496	122.33	-3.0628e+05	3415.4	-0.73581	0.40514	-0.53231
3.498	122.33	-3.0629e+05	3415	-0.73717	0.40475	-0.53319
3.5	122.35	-3.063e+05	3414.6	-0.73854	0.40436	-0.53407
3.502	122.37	-3.063e+05	3414.2	-0.73991	0.40397	-0.53495
3.504	122.39	-3.0629e+05	3413.8	-0.74127	0.40358	-0.53582
3.506	122.39	-3.0629e+05	3413.6	-0.74098	0.40504	-0.53475
3.508	122.39	-3.0629e+05	3413.3	-0.74069	0.4065	-0.53368
3.51	122.41	-3.063e+05	3413.1	-0.74039	0.40797	-0.5326
3.512	122.41	-3.063e+05	3412.9	-0.7401	0.40943	-0.53153
3.514	122.4	-3.0629e+05	3412.7	-0.73981	0.4109	-0.53046
3.516	122.39	-3.0629e+05	3412.6	-0.73942	0.41012	-0.53094
3.518	122.38	-3.0629e+05	3412.5	-0.73903	0.40933	-0.53143
3.52	122.38	-3.0628e+05	3412.4	-0.73864	0.40855	-0.53192
3.522	122.4	-3.0629e+05	3412.4	-0.73825	0.40777	-0.53241
3.524	122.41	-3.0629e+05	3412.3	-0.73786	0.40699	-0.5329
3.526	122.41	-3.0629e+05	3412.4	-0.73688	0.40641	-0.53299
3.528	122.4	-3.063e+05	3412.4	-0.7359	0.40582	-0.53309
3.53	122.38	-3.0629e+05	3412.4	-0.73493	0.40524	-0.53319
3.532	122.36	-3.0628e+05	3412.5	-0.73395	0.40465	-0.53329
3.534	122.34	-3.0628e+05	3412.5	-0.73298	0.40406	-0.53338
3.536	122.34	-3.0628e+05	3412.5	-0.73356	0.40514	-0.53251
3.538	122.35	-3.0628e+05	3412.6	-0.73415	0.40621	-0.53163
3.54	122.36	-3.0628e+05	3412.6	-0.73473	0.40728	-0.53075
3.542	122.38	-3.0629e+05	3412.6	-0.73532	0.40836	-0.52987
3.544	122.39	-3.0629e+05	3412.6	-0.7359	0.40943	-0.52899
3.546	122.4	-3.0629e+05	3412.6	-0.73493	0.40787	-0.53133
3.548	122.41	-3.0629e+05	3412.6	-0.73395	0.40631	-0.53368
3.55	122.4	-3.0629e+05	3412.6	-0.73298	0.40475	-0.53602
3.552	122.39	-3.0628e+05	3412.6	-0.732	0.40319	-0.53836
3.554	122.39	-3.0628e+05	3412.6	-0.73102	0.40162	-0.5407
3.556	122.38	-3.0628e+05	3412.7	-0.732	0.4026	-0.53875
3.558	122.36	-3.0629e+05	3412.7	-0.73298	0.40358	-0.5368
3.56	122.36	-3.0629e+05	3412.8	-0.73395	0.40455	-0.53485
3.562	122.35	-3.0629e+05	3412.8	-0.73493	0.40553	-0.5329
3.564	122.35	-3.0628e+05	3412.8	-0.7359	0.4065	-0.53094
3.566	122.38	-3.0628e+05	3412.8	-0.7359	0.40641	-0.53153
3.568	122.4	-3.0628e+05	3412.7	-0.7359	0.40631	-0.53212
3.57	122.41	-3.0628e+05	3412.7	-0.7359	0.40621	-0.5327
3.572	122.43	-3.0628e+05	3412.6	-0.7359	0.40611	-0.53329
3.574	122.44	-3.0628e+05	3412.6	-0.7359	0.40602	-0.53387
3.576	122.43	-3.0628e+05	3412.5	-0.73522	0.40514	-0.53387
3.578	122.41	-3.0628e+05	3412.4	-0.73454	0.40426	-0.53387
3.58	122.4	-3.0627e+05	3412.2	-0.73385	0.40338	-0.53387
3.582	122.4	-3.0628e+05	3412.1	-0.73317	0.4025	-0.53387
3.584	122.4	-3.0628e+05	3412	-0.73249	0.40162	-0.53387
3.586	122.4	-3.0628e+05	3411.8	-0.73249	0.4028	-0.5326
3.588	122.4	-3.0628e+05	3411.7	-0.73249	0.40397	-0.53133
3.59	122.39	-3.0628e+05	3411.5	-0.73249	0.40514	-0.53007
3.592	122.38	-3.0628e+05	3411.3	-0.73249	0.40631	-0.5288
3.594	122.36	-3.0628e+05	3411.2	-0.73249	0.40748	-0.52753
3.596	122.35	-3.0628e+05	3410.9	-0.7319	0.4068	-0.5288
3.598	122.35	-3.0628e+05	3410.7	-0.73132	0.40611	-0.53007
3.6	122.36	-3.0629e+05	3410.5	-0.73073	0.40543	-0.53133
3.602	122.36	-3.0629e+05	3410.2	-0.73015	0.40475	-0.5326
3.604	122.37	-3.0629e+05	3409.9	-0.72956	0.40406	-0.53387
3.606	122.39	-3.0629e+05	3409.6	-0.72956	0.40406	-0.5329
3.608	122.41	-3.0628e+05	3409.2	-0.72956	0.40406	-0.53192
3.61	122.41	-3.0628e+05	3408.8	-0.72956	0.40406	-0.53094
3.612	122.39	-3.0627e+05	3408.5	-0.72956	0.40406	-0.52997
3.614	122.38	-3.0627e+05	3408.1	-0.72956	0.40406	-0.52899
3.616	122.37	-3.0627e+05	3407.7	-0.73112	0.40416	-0.52958
3.618	122.36	-3.0627e+05	3407.3	-0.73268	0.40426	-0.53016
3.62	122.35	-3.0627e+05	3406.8	-0.73424	0.40436	-0.53075
3.622	122.35	-3.0627e+05	3406.4	-0.73581	0.40445	-0.53133
3.624	122.35	-3.0627e+05	3405.9	-0.73737	0.40455	-0.53192
3.626	122.34	-3.0627e+05	3405.5	-0.73698	0.40426	-0.5326
3.628	122.33	-3.0627e+05	3405	-0.73659	0.40397	-0.53329
3.63	122.32	-3.0627e+05	3404.5	-0.7362	0.40367	-0.53397
3.632	122.32	-3.0628e+05	3404	-0.73581	0.40338	-0.53465
3.634	122.32	-3.0628e+05	3403.5	-0.73542	0.40309	-0.53534
3.636	122.32	-3.0627e+05	3403	-0.73415	0.40299	-0.53416
3.638	122.32	-3.0628e+05	3402.5	-0.73288	0.40289	-0.53299
3.64	122.33	-3.0628e+05	3402	-0.73161	0.4028	-0.53182
3.642	122.34	-3.0628e+05	3401.5	-0.73034	0.4027	-0.53065
3.644	122.34	-3.0628e+05	3401	-0.72907	0.4026	-0.52948
3.646	122.35	-3.0628e+05	3400.4	-0.72985	0.4028	-0.53036
3.648	122.36	-3.0627e+05	3399.8	-0.73063	0.40299	-0.53124
3.65	122.37	-3.0627e+05	3399.2	-0.73141	0.40319	-0.53212
3.652	122.39	-3.0627e+05	3398.7	-0.7322	0.40338	-0.53299
3.654	122.4	-3.0628e+05	3398.1	-0.73298	0.40358	-0.53387
3.656	122.41	-3.0628e+05	3397.6	-0.73376	0.40358	-0.53397
3.658	122.43	-3.0628e+05	3397.1	-0.73454	0.40358	-0.53407
3.66	122.42	-3.0628e+05	3396.6	-0.73532	0.40358	-0.53416
3.662	122.4	-3.0628e+05	3396.1	-0.7361	0.40358	-0.53426
3.664	122.39	-3.0628e+05	3395.6	-0.73688	0.40358	-0.53436
3.666	122.38	-3.0628e+05	3395	-0.73405	0.40475	-0.5326
3.668	122.38	-3.0628e+05	3394.5	-0.73122	0.40592	-0.53085
3.67	122.42	-3.0628e+05	3394	-0.72839	0.40709	-0.52909
3.672	122.47	-3.0627e+05	3393.4	-0.72556	0.40826	-0.52733
3.674	122.48	-3.0627e+05	3392.9	-0.72273	0.40943	-0.52558
3.676	122.48	-3.0627e+05	3392.4	-0.724	0.40865	-0.52548
3.678	122.47	-3.0627e+05	3391.9	-0.72527	0.40787	-0.52538
3.68	122.45	-3.0627e+05	3391.4	-0.72653	0.40709	-0.52528
3.682	122.43	-3.0627e+05	3390.9	-0.7278	0.40631	-0.52519
3.684	122.42	-3.0627e+05	3390.4	-0.72907	0.40553	-0.52509
3.686	122.42	-3.0627e+05	3389.9	-0.72839	0.4067	-0.52528
3.688	122.44	-3.0627e+05	3389.5	-0.72771	0.40787	-0.52548
3.69	122.46	-3.0627e+05	3389	-0.72702	0.40904	-0.52567
3.692	122.47	-3.0627e+05	3388.5	-0.72634	0.41021	-0.52587
3.694	122.48	-3.0628e+05	3388	-0.72566	0.41138	-0.52606
3.696	122.48	-3.0628e+05	3387.5	-0.72566	0.4109	-0.52645
3.698	122.46	-3.0628e+05	3387.1	-0.72566	0.41041	-0.52684
3.7	122.47	-3.0627e+05	3386.7	-0.72566	0.40992	-0.52724
3.702	122.47	-3.0628e+05	3386.2	-0.72566	0.40943	-0.52763
3.704	122.47	-3.0628e+05	3385.8	-0.72566	0.40894	-0.52802
3.706	122.46	-3.0628e+05	3385.3	-0.72644	0.40846	-0.52841
3.708	122.45	-3.0628e+05	3384.9	-0.72722	0.40797	-0.5288
3.71	122.46	-3.0627e+05	3384.5	-0.728	0.40748	-0.52919
3.712	122.46	-3.0627e+05	3384	-0.72878	0.40699	-0.52958
3.714	122.45	-3.0627e+05	3383.6	-0.72956	0.4065	-0.52997
3.716	122.44	-3.0628e+05	3383.2	-0.72985	0.40689	-0.52968
3.718	122.44	-3.0628e+05	3382.9	-0.73015	0.40728	-0.52938
3.72	122.46	-3.0628e+05	3382.5	-0.73044	0.40768	-0.52909
3.722	122.46	-3.0628e+05	3382.1	-0.73073	0.40807	-0.5288
3.724	122.46	-3.0629e+05	3381.7	-0.73102	0.40846	-0.5285
3.726	122.47	-3.0629e+05	3381.4	-0.73044	0.40836	-0.5285
3.728	122.48	-3.0629e+05	3381.1	-0.72985	0.40826	-0.5285
3.73	122.48	-3.0629e+05	3380.7	-0.72927	0.40816	-0.5285
3.732	122.48	-3.0628e+05	3380.3	-0.72868	0.40807	-0.5285
3.734	122.47	-3.0628e+05	3380	-0.7281	0.40797	-0.5285
3.736	122.46	-3.0629e+05	3379.6	-0.72722	0.40885	-0.52841
3.738	122.46	-3.0629e+05	3379.3	-0.72634	0.40972	-0.52831
3.74	122.44	-3.0628e+05	3379	-0.72546	0.4106	-0.52821
3.742	122.44	-3.0629e+05	3378.7	-0.72458	0.41148	-0.52811
3.744	122.46	-3.0629e+05	3378.4	-0.7237	0.41236	-0.52802
3.746	122.49	-3.0629e+05	3378.2	-0.724	0.41226	-0.52831
3.748	122.5	-3.0629e+05	3377.9	-0.72429	0.41216	-0.5286
3.75	122.5	-3.0629e+05	3377.7	-0.72458	0.41207	-0.52889
3.752	122.49	-3.0628e+05	3377.4	-0.72488	0.41197	-0.52919
3.754	122.48	-3.0628e+05	3377.1	-0.72517	0.41187	-0.52948
3.756	122.46	-3.0628e+05	3376.9	-0.72536	0.41216	-0.52968
3.758	122.45	-3.0628e+05	3376.6	-0.72556	0.41246	-0.52987
3.76	122.45	-3.0628e+05	3376.4	-0.72575	0.41275	-0.53007
3.762	122.4	-3.0628e+05	3376.1	-0.72595	0.41304	-0.53026
3.764	122.34	-3.0628e+05	3375.8	-0.72614	0.41334	-0.53046
3.766	122.27	-3.0628e+05	3375.6	-0.72624	0.41295	-0.53026
3.768	122.18	-3.0628e+05	3375.3	-0.72634	0.41256	-0.53007
3.77	122.07	-3.0628e+05	3375.1	-0.72644	0.41216	-0.52987
3.772	121.92	-3.0628e+05	3374.9	-0.72653	0.41177	-0.52968
3.774	121.77	-3.0628e+05	3374.6	-0.72663	0.41138	-0.52948
3.776	121.63	-3.0628e+05	3374.4	-0.72692	0.4107	-0.52919
3.778	121.54	-3.0629e+05	3374.2	-0.72722	0.41002	-0.52889
3.78	121.52	-3.0629e+05	3373.9	-0.72751	0.40933	-0.5286
3.782	121.57	-3.0629e+05	3373.6	-0.7278	0.40865	-0.52831
3.784	121.69	-3.0629e+05	3373.4	-0.7281	0.40797	-0.52802
3.786	121.9	-3.0628e+05	3373.2	-0.7279	0.40855	-0.52841
3.788	122.12	-3.0627e+05	3373	-0.72771	0.40914	-0.5288
3.79	122.27	-3.0627e+05	3372.8	-0.72751	0.40972	-0.52919
3.792	122.36	-3.0627e+05	3372.6	-0.72732	0.41031	-0.52958
3.794	122.38	-3.0627e+05	3372.4	-0.72712	0.4109	-0.52997
3.796	122.4	-3.0628e+05	3372.2	-0.72732	0.41099	-0.52987
3.798	122.42	-3.0628e+05	3372	-0.72751	0.41109	-0.52977
3.8	122.45	-3.0628e+05	3371.7	-0.72771	0.41119	-0.52968
3.802	122.46	-3.0628e+05	3371.5	-0.7279	0.41129	-0.52958
3.804	122.46	-3.0627e+05	3371.2	-0.7281	0.41138	-0.52948
3.806	122.46	-3.0628e+05	3370.9	-0.72673	0.41187	-0.52948
3.808	122.47	-3.0628e+05	3370.6	-0.72536	0.41236	-0.52948
3.81	122.48	-3.0629e+05	3370.3	-0.724	0.41285	-0.52948
3.812	122.49	-3.0629e+05	3370	-0.72263	0.41334	-0.52948
3.814	122.49	-3.0629e+05	3369.7	-0.72126	0.41382	-0.52948
3.816	122.48	-3.0629e+05	3369.4	-0.72146	0.41343	-0.52889
3.818	122.48	-3.0629e+05	3369.1	-0.72165	0.41304	-0.52831
3.82	122.47	-3.0629e+05	3368.7	-0.72185	0.41265	-0.52772
3.822	122.47	-3.0629e+05	3368.4	-0.72204	0.41226	-0.52714
3.824	122.47	-3.0629e+05	3368	-0.72224	0.41187	-0.52655
3.826	122.49	-3.0629e+05	3367.7	-0.72283	0.41177	-0.52606
3.828	122.51	-3.0629e+05	3367.4	-0.72341	0.41168	-0.52558
3.83	122.5	-3.0629e+05	3367	-0.724	0.41158	-0.52509
3.832	122.49	-3.0629e+05	3366.6	-0.72458	0.41148	-0.5246
3.834	122.49	-3.0628e+05	3366.2	-0.72517	0.41138	-0.52411
3.836	122.48	-3.0628e+05	3365.9	-0.72556	0.4108	-0.5245
3.838	122.47	-3.0628e+05	3365.7	-0.72595	0.41021	-0.52489
3.84	122.46	-3.0628e+05	3365.4	-0.72634	0.40963	-0.52528
3.842	122.47	-3.0629e+05	3365.1	-0.72673	0.40904	-0.52567
3.844	122.45	-3.0629e+05	3364.8	-0.72712	0.40846	-0.52606
3.846	122.45	-3.063e+05	3364.5	-0.72663	0.40855	-0.52567
3.848	122.46	-3.0631e+05	3364.1	-0.72614	0.40865	-0.52528
3.85	122.47	-3.0631e+05	3363.8	-0.72566	0.40875	-0.52489
3.852	122.48	-3.0631e+05	3363.5	-0.72517	0.40885	-0.5245
3.854	122.47	-3.0631e+05	3363.2	-0.72468	0.40894	-0.52411
3.856	122.46	-3.0631e+05	3362.8	-0.72429	0.41002	-0.52509
3.858	122.45	-3.063e+05	3362.4	-0.7239	0.41109	-0.52606
3.86	122.44	-3.063e+05	3362.1	-0.72351	0.41216	-0.52704
3.862	122.44	-3.063e+05	3361.8	-0.72312	0.41324	-0.52802
3.864	122.44	-3.0631e+05	3361.4	-0.72273	0.41431	-0.52899
3.866	122.46	-3.0631e+05	3361.1	-0.72331	0.41373	-0.5286
3.868	122.49	-3.0631e+05	3360.8	-0.7239	0.41314	-0.52821
3.87	122.52	-3.0631e+05	3360.5	-0.72448	0.41256	-0.52782
3.872	122.51	-3.0631e+05	3360.1	-0.72507	0.41197	-0.52743
3.874	122.48	-3.0631e+05	3359.7	-0.72566	0.41138	-0.52704
3.876	122.47	-3.0632e+05	3359.4	-0.72566	0.41216	-0.52724
3.878	122.46	-3.0632e+05	3359.1	-0.72566	0.41295	-0.52743
3.88	122.46	-3.0632e+05	3358.7	-0.72566	0.41373	-0.52763
3.882	122.47	-3.0632e+05	3358.4	-0.72566	0.41451	-0.52782
3.884	122.48	-3.0632e+05	3358.1	-0.72566	0.41529	-0.52802
3.886	122.48	-3.0631e+05	3357.7	-0.72653	0.41353	-0.52831
3.888	122.49	-3.0631e+05	3357.3	-0.72741	0.41177	-0.5286
3.89	122.48	-3.0631e+05	3356.9	-0.72829	0.41002	-0.52889
3.892	122.48	-3.063e+05	3356.6	-0.72917	0.40826	-0.52919
3.894	122.48	-3.063e+05	3356.2	-0.73005	0.4065	-0.52948
3.896	122.49	-3.063e+05	3355.9	-0.72966	0.4066	-0.52811
3.898	122.49	-3.063e+05	3355.5	-0.72927	0.4067	-0.52675
3.9	122.47	-3.063e+05	3355.2	-0.72888	0.4068	-0.52538
3.902	122.46	-3.063e+05	3354.8	-0.72849	0.40689	-0.52401
3.904	122.45	-3.063e+05	3354.5	-0.7281	0.40699	-0.52265
3.906	122.45	-3.063e+05	3354.2	-0.72712	0.40787	-0.52314
3.908	122.45	-3.063e+05	3353.9	-0.72614	0.40875	-0.52362
3.91	122.44	-3.063e+05	3353.5	-0.72517	0.40963	-0.52411
3.912	122.43	-3.063e+05	3353.2	-0.72419	0.41051	-0.5246
3.914	122.44	-3.063e+05	3352.9	-0.72322	0.41138	-0.52509
3.916	122.46	-3.063e+05	3352.5	-0.7238	0.41158	-0.52528
3.918	122.47	-3.063e+05	3352.2	-0.72439	0.41177	-0.52548
3.92	122.46	-3.063e+05	3351.9	-0.72497	0.41197	-0.52567
3.922	122.44	-3.063e+05	3351.6	-0.72556	0.41216	-0.52587
3.924	122.45	-3.063e+05	3351.3	-0.72614	0.41236	-0.52606
3.926	122.45	-3.063e+05	3351	-0.72624	0.41168	-0.52567
3.928	122.45	-3.0631e+05	3350.7	-0.72634	0.41099	-0.52528
3.93	122.45	-3.0631e+05	3350.5	-0.72644	0.41031	-0.52489
3.932	122.44	-3.0631e+05	3350.3	-0.72653	0.40963	-0.5245
3.934	122.43	-3.063e+05	3350	-0.72663	0.40894	-0.52411
3.936	122.43	-3.063e+05	3349.9	-0.72605	0.40982	-0.5244
3.938	122.43	-3.0631e+05	3349.8	-0.72546	0.4107	-0.5247
3.94	122.44	-3.0631e+05	3349.8	-0.72488	0.41158	-0.52499
3.942	122.44	-3.0631e+05	3349.8	-0.72429	0.41246	-0.52528
3.944	122.43	-3.0631e+05	3349.9	-0.7237	0.41334	-0.52558
3.946	122.44	-3.0631e+05	3350.3	-0.72507	0.41226	-0.52645
3.948	122.43	-3.0631e+05	3350.6	-0.72644	0.41119	-0.52733
3.95	122.41	-3.0632e+05	3351.2	-0.7278	0.41012	-0.52821
3.952	122.4	-3.0633e+05	3352	-0.72917	0.40904	-0.52909
3.954	122.39	-3.0632e+05	3352.7	-0.73054	0.40797	-0.52997
3.956	122.38	-3.0632e+05	3354.1	-0.73024	0.40865	-0.52977
3.958	122.38	-3.0632e+05	3355.4	-0.72995	0.40933	-0.52958
3.96	122.39	-3.0631e+05	3357.1	-0.72966	0.41002	-0.52938
3.962	122.4	-3.0631e+05	3359.1	-0.72936	0.4107	-0.52919
3.964	122.42	-3.0631e+05	3361.1	-0.72907	0.41138	-0.52899
3.966	122.46	-3.0631e+05	3363.8	-0.72936	0.41012	-0.52889
3.968	122.46	-3.0632e+05	3366.5	-0.72966	0.40885	-0.5288
3.97	122.43	-3.0632e+05	3369.4	-0.72995	0.40758	-0.5287
3.972	122.4	-3.0633e+05	3372.6	-0.73024	0.40631	-0.5286
3.974	122.36	-3.0632e+05	3375.8	-0.73054	0.40504	-0.5285
3.976	122.34	-3.0632e+05	3379.4	-0.73239	0.40641	-0.52909
3.978	122.33	-3.0632e+05	3382.9	-0.73424	0.40777	-0.52968
3.98	122.31	-3.0633e+05	3386.7	-0.7361	0.40914	-0.53026
3.982	122.31	-3.0633e+05	3390.5	-0.73795	0.41051	-0.53085
3.984	122.3	-3.0634e+05	3394.4	-0.73981	0.41187	-0.53143
3.986	122.29	-3.0633e+05	3398.3	-0.73786	0.4107	-0.53124
3.988	122.27	-3.0633e+05	3402.2	-0.7359	0.40953	-0.53104
3.99	122.27	-3.0633e+05	3406	-0.73395	0.40836	-0.53085
3.992	122.28	-3.0632e+05	3409.8	-0.732	0.40719	-0.53065
3.994	122.28	-3.0632e+05	3413.6	-0.73005	0.40602	-0.53046
3.996	122.26	-3.0632e+05	3417.3	-0.73171	0.40709	-0.53094
3.998	122.25	-3.0632e+05	3420.9	-0.73337	0.40816	-0.53143
4	122.24	-3.0632e+05	3424.4	-0.73503	0.40924	-0.53192
4.002	122.21	-3.0633e+05	3427.8	-0.73668	0.41031	-0.53241
4.004	122.19	-3.0633e+05	3431.2	-0.73834	0.41138	-0.5329
4.006	122.19	-3.0633e+05	3434.2	-0.73717	0.40963	-0.53338
4.008	122.18	-3.0634e+05	3437.2	-0.736	0.40787	-0.53387
4.01	122.18	-3.0633e+05	3440	-0.73483	0.40611	-0.53436
4.012	122.2	-3.0632e+05	3442.6	-0.73366	0.40436	-0.53485
4.014	122.2	-3.0633e+05	3445.2	-0.73249	0.4026	-0.53534
4.016	122.18	-3.0633e+05	3447.5	-0.73122	0.40367	-0.53416
4.018	122.19	-3.0633e+05	3449.8	-0.72995	0.40475	-0.53299
4.02	122.18	-3.0633e+05	3451.9	-0.72868	0.40582	-0.53182
4.022	122.17	-3.0633e+05	3453.9	-0.72741	0.40689	-0.53065
4.024	122.17	-3.0633e+05	3455.9	-0.72614	0.40797	-0.52948
4.026	122.18	-3.0633e+05	3457.6	-0.72614	0.40885	-0.52948
4.028	122.18	-3.0633e+05	3459.4	-0.72614	0.40972	-0.52948
4.03	122.19	-3.0633e+05	3461	-0.72614	0.4106	-0.52948
4.032	122.19	-3.0632e+05	3462.5	-0.72614	0.41148	-0.52948
4.034	122.19	-3.0632e+05	3463.9	-0.72614	0.41236	-0.52948
4.036	122.19	-3.0632e+05	3465.2	-0.72546	0.41256	-0.52928
4.038	122.19	-3.0632e+05	3466.4	-0.72478	0.41275	-0.52909
4.04	122.18	-3.0633e+05	3467.6	-0.72409	0.41295	-0.52889
4.042	122.18	-3.0632e+05	3468.6	-0.72341	0.41314	-0.5287
4.044	122.2	-3.0631e+05	3469.6	-0.72273	0.41334	-0.5285
4.046	122.21	-3.0632e+05	3470.4	-0.724	0.41207	-0.52831
4.048	122.21	-3.0633e+05	3471.1	-0.72527	0.4108	-0.52811
4.05	122.19	-3.0633e+05	3471.8	-0.72653	0.40953	-0.52792
4.052	122.18	-3.0632e+05	3472.4	-0.7278	0.40826	-0.52772
4.054	122.18	-3.0632e+05	3473	-0.72907	0.40699	-0.52753
4.056	122.19	-3.0631e+05	3473.4	-0.72907	0.40748	-0.52753
4.058	122.21	-3.0632e+05	3473.8	-0.72907	0.40797	-0.52753
4.06	122.21	-3.0632e+05	3474.1	-0.72907	0.40846	-0.52753
4.062	122.21	-3.0632e+05	3474.3	-0.72907	0.40894	-0.52753
4.064	122.22	-3.0632e+05	3474.4	-0.72907	0.40943	-0.52753
4.066	122.22	-3.0632e+05	3474.5	-0.72976	0.41031	-0.52831
4.068	122.24	-3.0632e+05	3474.5	-0.73044	0.41119	-0.52909
4.07	122.26	-3.0632e+05	3474.5	-0.73112	0.41207	-0.52987
4.072	122.27	-3.0631e+05	3474.3	-0.7318	0.41295	-0.53065
4.074	122.28	-3.0631e+05	3474.2	-0.73249	0.41382	-0.53143
4.076	122.3	-3.0631e+05	3473.9	-0.73063	0.41421	-0.53094
4.078	122.31	-3.0631e+05	3473.7	-0.72878	0.4146	-0.53046
4.08	122.32	-3.063e+05	3473.4	-0.72692	0.415	-0.52997
4.082	122.33	-3.063e+05	3473	-0.72507	0.41539	-0.52948
4.084	122.31	-3.063e+05	3472.7	-0.72322	0.41578	-0.52899
4.086	122.31	-3.063e+05	3472.3	-0.72497	0.4147	-0.52889
4.088	122.31	-3.0631e+05	3471.9	-0.72673	0.41363	-0.5288
4.09	122.31	-3.0631e+05	3471.5	-0.72849	0.41256	-0.5287
4.092	122.31	-3.0631e+05	3471	-0.73024	0.41148	-0.5286
4.094	122.31	-3.063e+05	3470.6	-0.732	0.41041	-0.5285
4.096	122.32	-3.063e+05	3470.1	-0.73132	0.41119	-0.5288
4.098	122.32	-3.0629e+05	3469.6	-0.73063	0.41197	-0.52909
4.1	122.33	-3.0628e+05	3469.2	-0.72995	0.41275	-0.52938
4.102	122.35	-3.0629e+05	3468.7	-0.72927	0.41353	-0.52968
4.104	122.37	-3.0629e+05	3468.2	-0.72858	0.41431	-0.52997
4.106	122.36	-3.0629e+05	3467.7	-0.72917	0.41363	-0.52928
4.108	122.33	-3.0629e+05	3467.2	-0.72976	0.41295	-0.5286
4.11	122.33	-3.063e+05	3466.7	-0.73034	0.41226	-0.52792
4.112	122.33	-3.063e+05	3466.2	-0.73093	0.41158	-0.52724
4.114	122.34	-3.0629e+05	3465.7	-0.73151	0.4109	-0.52655
4.116	122.35	-3.0629e+05	3465.3	-0.73034	0.41129	-0.52665
4.118	122.34	-3.0629e+05	3464.8	-0.72917	0.41168	-0.52675
4.12	122.34	-3.0629e+05	3464.4	-0.728	0.41207	-0.52684
4.122	122.35	-3.0629e+05	3464	-0.72683	0.41246	-0.52694
4.124	122.35	-3.0629e+05	3463.6	-0.72566	0.41285	-0.52704
4.126	122.35	-3.063e+05	3463.1	-0.72536	0.41304	-0.52733
4.128	122.34	-3.063e+05	3462.6	-0.72507	0.41324	-0.52763
4.13	122.34	-3.063e+05	3462.1	-0.72478	0.41343	-0.52792
4.132	122.34	-3.0629e+05	3461.5	-0.72448	0.41363	-0.52821
4.134	122.36	-3.0629e+05	3461	-0.72419	0.41382	-0.5285
4.136	122.36	-3.0628e+05	3460.5	-0.72458	0.41353	-0.52753
4.138	122.36	-3.0628e+05	3460	-0.72497	0.41324	-0.52655
4.14	122.36	-3.0628e+05	3459.4	-0.72536	0.41295	-0.52558
4.142	122.36	-3.0628e+05	3458.8	-0.72575	0.41265	-0.5246
4.144	122.37	-3.0628e+05	3458.2	-0.72614	0.41236	-0.52362
4.146	122.38	-3.0628e+05	3457.5	-0.72644	0.41148	-0.52392
4.148	122.39	-3.0628e+05	3456.8	-0.72673	0.4106	-0.52421
4.15	122.38	-3.0628e+05	3456.1	-0.72702	0.40972	-0.5245
4.152	122.36	-3.0628e+05	3455.4	-0.72732	0.40885	-0.5248
4.154	122.35	-3.0627e+05	3454.7	-0.72761	0.40797	-0.52509
4.156	122.35	-3.0627e+05	3453.9	-0.72712	0.40836	-0.52509
4.158	122.37	-3.0626e+05	3453.2	-0.72663	0.40875	-0.52509
4.16	122.38	-3.0626e+05	3452.3	-0.72614	0.40914	-0.52509
4.162	122.38	-3.0627e+05	3451.3	-0.72566	0.40953	-0.52509
4.164	122.38	-3.0628e+05	3450.3	-0.72517	0.40992	-0.52509
4.166	122.39	-3.0628e+05	3449.3	-0.72536	0.40972	-0.52538
4.168	122.4	-3.0628e+05	3448.3	-0.72556	0.40953	-0.52567
4.17	122.39	-3.0627e+05	3447.3	-0.72575	0.40933	-0.52597
4.172	122.38	-3.0627e+05	3446.1	-0.72595	0.40914	-0.52626
4.174	122.37	-3.0627e+05	3445	-0.72614	0.40894	-0.52655
4.176	122.38	-3.0626e+05	3443.8	-0.72673	0.40885	-0.52636
4.178	122.37	-3.0626e+05	3442.7	-0.72732	0.40875	-0.52616
4.18	122.38	-3.0626e+05	3441.5	-0.7279	0.40865	-0.52597
4.182	122.39	-3.0627e+05	3440.3	-0.72849	0.40855	-0.52577
4.184	122.39	-3.0627e+05	3439.1	-0.72907	0.40846	-0.52558
4.186	122.41	-3.0628e+05	3437.9	-0.7279	0.40894	-0.52597
4.188	122.42	-3.0628e+05	3436.8	-0.72673	0.40943	-0.52636
4.19	122.4	-3.0627e+05	3435.6	-0.72556	0.40992	-0.52675
4.192	122.4	-3.0626e+05	3434.5	-0.72439	0.41041	-0.52714
4.194	122.4	-3.0627e+05	3433.4	-0.72322	0.4109	-0.52753
4.196	122.4	-3.0627e+05	3432.3	-0.7237	0.4106	-0.52704
4.198	122.4	-3.0626e+05	3431.2	-0.72419	0.41031	-0.52655
4.2	122.39	-3.0625e+05	3430.2	-0.72468	0.41002	-0.52606
4.202	122.4	-3.0626e+05	3429.3	-0.72517	0.40972	-0.52558
4.204	122.41	-3.0626e+05	3428.3	-0.72566	0.40943	-0.52509
4.206	122.4	-3.0626e+05	3427.4	-0.72614	0.40953	-0.52519
