t	ekg	optical	pressure	accel_x	accel_y	accel_z
0	79.779	-23092	2366.1	0.16397	-0.15772	0.99484
0.002	79.775	-23095	2366.1	0.16397	-0.15792	0.99396
0.004	79.771	-23098	2366.1	0.16397	-0.15811	0.99308
0.006	79.788	-23096	2366	0.16397	-0.15831	0.9922
0.008	79.771	-23094	2366	0.16397	-0.1585	0.99132
0.01	79.775	-23090	2365.9	0.16397	-0.1587	0.99044
0.012	79.789	-23087	2365.9	0.16397	-0.15889	0.98957
0.014	79.779	-23094	2365.9	0.16397	-0.15909	0.98869
0.016	79.775	-23102	2365.9	0.16309	-0.1588	0.99025
0.018	79.792	-23101	2365.8	0.16221	-0.1585	0.99181
0.02	79.783	-23099	2365.8	0.16133	-0.15821	0.99337
0.022	79.781	-23099	2365.7	0.16045	-0.15792	0.99493
0.024	79.781	-23098	2365.6	0.15958	-0.15762	0.9965
0.026	79.767	-23096	2365.6	0.16163	-0.15772	0.99503
0.028	79.756	-23094	2365.6	0.16368	-0.15782	0.99357
0.03	79.768	-23094	2365.5	0.16572	-0.15792	0.9921
0.032	79.764	-23094	2365.4	0.16777	-0.15801	0.99064
0.034	79.746	-23092	2365.3	0.16982	-0.15811	0.98918
0.036	79.76	-23090	2365.3	0.16973	-0.15801	0.98937
0.038	79.791	-23105	2365.2	0.16963	-0.15792	0.98957
0.04	79.826	-23120	2365.2	0.16953	-0.15782	0.98976
0.042	79.853	-23118	2365.1	0.16943	-0.15772	0.98996
0.044	79.885	-23116	2365.1	0.16934	-0.15762	0.99015
0.046	79.916	-23117	2365	0.16934	-0.15782	0.98898
0.048	79.928	-23119	2364.9	0.16934	-0.15801	0.98781
0.05	79.908	-23116	2364.8	0.16934	-0.15821	0.98664
0.052	79.88	-23112	2364.8	0.16934	-0.1584	0.98547
0.054	79.871	-23111	2364.7	0.16934	-0.1586	0.9843
0.056	79.859	-23111	2364.6	0.16914	-0.1588	0.9842
0.058	79.839	-23101	2364.6	0.16895	-0.15899	0.9841
0.06	79.829	-23091	2364.6	0.16875	-0.15919	0.984
0.062	79.833	-23089	2364.6	0.16856	-0.15938	0.98391
0.064	79.847	-23087	2364.5	0.16836	-0.15958	0.98381
0.066	79.851	-23092	2364.5	0.16865	-0.15889	0.98459
0.068	79.844	-23098	2364.4	0.16895	-0.15821	0.98537
0.07	79.84	-23097	2364.4	0.16924	-0.15753	0.98615
0.072	79.848	-23096	2364.5	0.16953	-0.15684	0.98693
0.074	79.873	-23099	2364.5	0.16982	-0.15616	0.98771
0.076	79.88	-23102	2364.5	0.16914	-0.15616	0.98742
0.078	79.843	-23105	2364.4	0.16846	-0.15616	0.98713
0.08	79.788	-23109	2364.4	0.16777	-0.15616	0.98683
0.082	79.793	-23106	2364.4	0.16709	-0.15616	0.98654
0.084	79.848	-23103	2364.4	0.16641	-0.15616	0.98625
0.086	79.896	-23113	2364.3	0.16758	-0.15675	0.98615
0.088	79.876	-23124	2364.3	0.16875	-0.15733	0.98605
0.09	79.835	-23118	2364.3	0.16992	-0.15792	0.98596
0.092	79.81	-23112	2364.3	0.17109	-0.1585	0.98586
0.094	79.845	-23108	2364.3	0.17226	-0.15909	0.98576
0.096	79.855	-23104	2364.2	0.17207	-0.15997	0.98508
0.098	79.838	-23111	2364.2	0.17187	-0.16084	0.98439
0.1	79.854	-23117	2364.1	0.17168	-0.16172	0.98371
0.102	79.923	-23114	2364.1	0.17148	-0.1626	0.98303
0.104	79.958	-23111	2364.1	0.17129	-0.16348	0.98234
0.106	79.976	-23111	2364.1	0.1708	-0.16241	0.98254
0.108	79.982	-23110	2364.1	0.17031	-0.16133	0.98273
0.11	79.976	-23117	2364	0.16982	-0.16026	0.98293
0.112	79.961	-23124	2364	0.16934	-0.15919	0.98312
0.114	79.936	-23120	2363.9	0.16885	-0.15811	0.98332
0.116	79.893	-23116	2363.9	0.16924	-0.15831	0.984
0.118	79.8	-23118	2363.8	0.16963	-0.1585	0.98469
0.12	79.689	-23120	2363.8	0.17002	-0.1587	0.98537
0.122	79.6	-23122	2363.7	0.17041	-0.15889	0.98605
0.124	79.516	-23125	2363.7	0.1708	-0.15909	0.98674
0.126	79.399	-23121	2363.6	0.1708	-0.15919	0.98605
0.128	79.271	-23116	2363.5	0.1708	-0.15928	0.98537
0.13	79.151	-23116	2363.5	0.1708	-0.15938	0.98469
0.132	79.038	-23116	2363.4	0.1708	-0.15948	0.984
0.134	78.932	-23116	2363.3	0.1708	-0.15958	0.98332
0.136	78.845	-23116	2363.2	0.171	-0.15987	0.9842
0.138	78.779	-23114	2363.2	0.17119	-0.16016	0.98508
0.14	78.733	-23111	2363.1	0.17139	-0.16045	0.98596
0.142	78.745	-23115	2362.9	0.17158	-0.16075	0.98683
0.144	78.856	-23119	2362.8	0.17178	-0.16104	0.98771
0.146	79.026	-23119	2362.7	0.1706	-0.16084	0.98859
0.148	79.203	-23119	2362.6	0.16943	-0.16065	0.98947
0.15	79.371	-23116	2362.6	0.16826	-0.16045	0.99035
0.152	79.493	-23113	2362.5	0.16709	-0.16026	0.99123
0.154	79.589	-23116	2362.4	0.16592	-0.16006	0.9921
0.156	79.704	-23118	2362.4	0.16612	-0.15948	0.9922
0.158	79.838	-23120	2362.4	0.16631	-0.15889	0.9923
0.16	79.954	-23123	2362.3	0.16651	-0.15831	0.9924
0.162	79.967	-23124	2362.2	0.1667	-0.15772	0.99249
0.164	79.95	-23126	2362.2	0.1669	-0.15714	0.99259
0.166	79.939	-23124	2362.1	0.16592	-0.1585	0.99259
0.168	79.907	-23123	2362.1	0.16494	-0.15987	0.99259
0.17	79.829	-23125	2362	0.16397	-0.16124	0.99259
0.172	79.804	-23127	2361.9	0.16299	-0.1626	0.99259
0.174	79.776	-23129	2361.9	0.16202	-0.16397	0.99259
0.176	79.745	-23131	2361.8	0.16172	-0.16455	0.99376
0.178	79.743	-23131	2361.8	0.16143	-0.16514	0.99493
0.18	79.802	-23132	2361.7	0.16114	-0.16572	0.99611
0.182	79.815	-23132	2361.7	0.16084	-0.16631	0.99728
0.184	79.774	-23132	2361.6	0.16055	-0.1669	0.99845
0.186	79.8	-23131	2361.6	0.16036	-0.16719	0.99855
0.188	79.805	-23129	2361.5	0.16016	-0.16748	0.99864
0.19	79.792	-23132	2361.4	0.15997	-0.16777	0.99874
0.192	79.808	-23135	2361.4	0.15977	-0.16807	0.99884
0.194	79.813	-23134	2361.3	0.15958	-0.16836	0.99894
0.196	79.801	-23133	2361.2	0.15928	-0.16826	0.99864
0.198	79.815	-23131	2361.2	0.15899	-0.16816	0.99835
0.2	79.81	-23129	2361.1	0.1587	-0.16807	0.99806
0.202	79.781	-23130	2361	0.1584	-0.16797	0.99776
0.204	79.765	-23131	2360.9	0.15811	-0.16787	0.99747
0.206	79.763	-23132	2360.8	0.15899	-0.16777	0.99796
0.208	79.786	-23134	2360.7	0.15987	-0.16768	0.99845
0.21	79.817	-23135	2360.6	0.16075	-0.16758	0.99894
0.212	79.815	-23136	2360.5	0.16163	-0.16748	0.99942
0.214	79.779	-23134	2360.5	0.1625	-0.16738	0.99991
0.216	79.772	-23131	2360.4	0.16241	-0.16719	1
0.218	79.797	-23134	2360.3	0.16231	-0.16699	1.0001
0.22	79.8	-23138	2360.2	0.16221	-0.1668	1.0002
0.222	79.785	-23140	2360.1	0.16211	-0.1666	1.0003
0.224	79.781	-23142	2360	0.16202	-0.16641	1.0004
0.226	79.799	-23147	2359.9	0.16133	-0.16572	0.99981
0.228	79.824	-23152	2359.8	0.16065	-0.16504	0.99923
0.23	79.818	-23154	2359.8	0.15997	-0.16436	0.99864
0.232	79.786	-23156	2359.7	0.15928	-0.16368	0.99806
0.234	79.765	-23152	2359.6	0.1586	-0.16299	0.99747
0.236	79.761	-23147	2359.5	0.15919	-0.16338	0.99776
0.238	79.77	-23145	2359.4	0.15977	-0.16377	0.99806
0.24	79.783	-23144	2359.4	0.16036	-0.16416	0.99835
0.242	79.763	-23145	2359.3	0.16094	-0.16455	0.99864
0.244	79.722	-23147	2359.3	0.16153	-0.16494	0.99894
0.246	79.754	-23148	2359.2	0.15997	-0.16377	0.99845
0.248	79.791	-23149	2359.2	0.1584	-0.1626	0.99796
0.25	79.761	-23152	2359.1	0.15684	-0.16143	0.99747
0.252	79.738	-23154	2359.1	0.15528	-0.16026	0.99698
0.254	79.768	-23153	2359	0.15372	-0.15909	0.9965
0.256	79.778	-23151	2359	0.15352	-0.1586	0.99698
0.258	79.756	-23149	2359	0.15333	-0.15811	0.99747
0.26	79.744	-23146	2359	0.15313	-0.15762	0.99796
0.262	79.779	-23148	2358.9	0.15294	-0.15714	0.99845
0.264	79.759	-23150	2358.9	0.15274	-0.15665	0.99894
0.266	79.722	-23154	2358.9	0.15304	-0.15694	0.99884
0.268	79.724	-23157	2358.8	0.15333	-0.15723	0.99874
0.27	79.74	-23153	2358.8	0.15362	-0.15753	0.99864
0.272	79.746	-23149	2358.8	0.15392	-0.15782	0.99855
0.274	79.738	-23157	2358.7	0.15421	-0.15811	0.99845
0.276	79.75	-23165	2358.7	0.15499	-0.1588	0.99806
0.278	79.766	-23166	2358.7	0.15577	-0.15948	0.99767
0.28	79.736	-23168	2358.6	0.15655	-0.16016	0.99728
0.282	79.729	-23163	2358.7	0.15733	-0.16084	0.99689
0.284	79.729	-23158	2358.7	0.15811	-0.16153	0.9965
0.286	79.727	-23157	2358.7	0.15723	-0.16114	0.99601
0.288	79.71	-23155	2358.6	0.15636	-0.16075	0.99552
0.29	79.706	-23155	2358.6	0.15548	-0.16036	0.99503
0.292	79.717	-23155	2358.7	0.1546	-0.15997	0.99454
0.294	79.706	-23162	2358.7	0.15372	-0.15958	0.99406
0.296	79.682	-23169	2358.8	0.15518	-0.16006	0.99376
0.298	79.672	-23168	2358.8	0.15665	-0.16055	0.99347
0.3	79.683	-23167	2358.9	0.15811	-0.16104	0.99318
0.302	79.695	-23167	2359	0.15958	-0.16153	0.99288
0.304	79.679	-23167	2359.1	0.16104	-0.16202	0.99259
0.306	79.669	-23164	2359.3	0.16114	-0.16172	0.99249
0.308	79.686	-23161	2359.5	0.16124	-0.16143	0.9924
0.31	79.694	-23165	2359.6	0.16133	-0.16114	0.9923
0.312	79.674	-23168	2359.8	0.16143	-0.16084	0.9922
0.314	79.651	-23170	2360	0.16153	-0.16055	0.9921
0.316	79.644	-23172	2360.3	0.16153	-0.16016	0.99318
0.318	79.639	-23167	2360.6	0.16153	-0.15977	0.99425
0.32	79.642	-23162	2360.9	0.16153	-0.15938	0.99532
0.322	79.65	-23163	2361.2	0.16153	-0.15899	0.9964
0.324	79.652	-23164	2361.5	0.16153	-0.1586	0.99747
0.326	79.662	-23169	2361.8	0.16211	-0.1584	0.99698
0.328	79.647	-23175	2362.1	0.1627	-0.15821	0.9965
0.33	79.64	-23175	2362.4	0.16328	-0.15801	0.99601
0.332	79.647	-23175	2362.7	0.16387	-0.15782	0.99552
0.334	79.653	-23175	2363	0.16446	-0.15762	0.99503
0.336	79.674	-23175	2363.4	0.16358	-0.15821	0.99445
0.338	79.652	-23177	2363.8	0.1627	-0.1588	0.99386
0.34	79.658	-23179	2364.1	0.16182	-0.15938	0.99328
0.342	79.662	-23174	2364.5	0.16094	-0.15997	0.99269
0.344	79.644	-23169	2364.9	0.16006	-0.16055	0.9921
0.346	79.655	-23168	2365.3	0.16055	-0.16094	0.99249
0.348	79.641	-23166	2365.6	0.16104	-0.16133	0.99288
0.35	79.652	-23170	2365.9	0.16153	-0.16172	0.99328
0.352	79.673	-23173	2366.3	0.16202	-0.16211	0.99367
0.354	79.698	-23167	2366.6	0.1625	-0.1625	0.99406
0.356	79.683	-23161	2366.9	0.16338	-0.16163	0.99376
0.358	79.636	-23163	2367.2	0.16426	-0.16075	0.99347
0.36	79.615	-23164	2367.5	0.16514	-0.15987	0.99318
0.362	79.622	-23160	2367.8	0.16602	-0.15899	0.99288
0.364	79.636	-23156	2368	0.1669	-0.15811	0.99259
0.366	79.635	-23154	2368.2	0.16846	-0.1588	0.9923
0.368	79.663	-23152	2368.4	0.17002	-0.15948	0.99201
0.37	79.677	-23159	2368.7	0.17158	-0.16016	0.99171
0.372	79.673	-23166	2368.9	0.17314	-0.16084	0.99142
0.374	79.691	-23160	2369.1	0.1747	-0.16153	0.99113
0.376	79.696	-23155	2369.3	0.17412	-0.16163	0.99123
0.378	79.666	-23153	2369.5	0.17353	-0.16172	0.99132
0.38	79.663	-23150	2369.7	0.17295	-0.16182	0.99142
0.382	79.698	-23147	2369.9	0.17236	-0.16192	0.99152
0.384	79.708	-23143	2370.1	0.17178	-0.16202	0.99162
0.386	79.698	-23142	2370.3	0.17148	-0.16172	0.99201
0.388	79.697	-23141	2370.4	0.17119	-0.16143	0.9924
0.39	79.717	-23137	2370.6	0.1709	-0.16114	0.99279
0.392	79.729	-23132	2370.8	0.1706	-0.16084	0.99318
0.394	79.726	-23139	2370.9	0.17031	-0.16055	0.99357
0.396	79.726	-23145	2371.1	0.17051	-0.16036	0.99357
0.398	79.719	-23147	2371.2	0.1707	-0.16016	0.99357
0.4	79.722	-23148	2371.3	0.1709	-0.15997	0.99357
0.402	79.756	-23143	2371.4	0.17109	-0.15977	0.99357
0.404	79.783	-23137	2371.5	0.17129	-0.15958	0.99357
0.406	79.778	-23134	2371.6	0.171	-0.15987	0.99308
0.408	79.755	-23131	2371.7	0.1707	-0.16016	0.99259
0.41	79.75	-23125	2371.7	0.17041	-0.16045	0.9921
0.412	79.75	-23118	2371.8	0.17012	-0.16075	0.99162
0.414	79.744	-23117	2371.8	0.16982	-0.16104	0.99113
0.416	79.752	-23116	2371.9	0.16934	-0.16104	0.99142
0.418	79.746	-23119	2371.9	0.16885	-0.16104	0.99171
0.42	79.741	-23122	2372	0.16836	-0.16104	0.99201
0.422	79.782	-23120	2372.1	0.16787	-0.16104	0.9923
0.424	79.818	-23118	2372.1	0.16738	-0.16104	0.99259
0.426	79.8	-23114	2372.2	0.16768	-0.16065	0.99191
0.428	79.796	-23111	2372.3	0.16797	-0.16026	0.99123
0.43	79.814	-23105	2372.3	0.16826	-0.15987	0.99054
0.432	79.805	-23099	2372.3	0.16856	-0.15948	0.98986
0.434	79.772	-23104	2372.4	0.16885	-0.15909	0.98918
0.436	79.781	-23110	2372.4	0.16904	-0.15909	0.98927
0.438	79.81	-23104	2372.4	0.16924	-0.15909	0.98937
0.44	79.819	-23098	2372.4	0.16943	-0.15909	0.98947
0.442	79.788	-23098	2372.4	0.16963	-0.15909	0.98957
0.444	79.789	-23097	2372.4	0.16982	-0.15909	0.98966
0.446	79.783	-23097	2372.4	0.16826	-0.1588	0.99064
0.448	79.765	-23097	2372.4	0.1667	-0.1585	0.99162
0.45	79.793	-23096	2372.4	0.16514	-0.15821	0.99259
0.452	79.807	-23094	2372.4	0.16358	-0.15792	0.99357
0.454	79.79	-23096	2372.4	0.16202	-0.15762	0.99454
0.456	79.76	-23097	2372.5	0.16163	-0.15958	0.99513
0.458	79.744	-23086	2372.5	0.16124	-0.16153	0.99572
0.46	79.753	-23076	2372.6	0.16084	-0.16348	0.9963
0.462	79.764	-23075	2372.6	0.16045	-0.16543	0.99689
0.464	79.794	-23073	2372.7	0.16006	-0.16738	0.99747
0.466	79.808	-23075	2372.6	0.16026	-0.16651	0.9963
0.468	79.808	-23076	2372.6	0.16045	-0.16563	0.99513
0.47	79.794	-23079	2372.5	0.16065	-0.16475	0.99396
0.472	79.8	-23083	2372.4	0.16084	-0.16387	0.99279
0.474	79.811	-23079	2372.4	0.16104	-0.16299	0.99162
0.476	79.8	-23075	2372.2	0.16182	-0.16309	0.99318
0.478	79.789	-23072	2372.1	0.1626	-0.16319	0.99474
0.48	79.796	-23070	2372	0.16338	-0.16328	0.9963
0.482	79.805	-23068	2371.9	0.16416	-0.16338	0.99786
0.484	79.811	-23067	2371.8	0.16494	-0.16348	0.99942
0.486	79.811	-23067	2371.6	0.16309	-0.16358	0.99923
0.488	79.79	-23067	2371.4	0.16124	-0.16368	0.99903
0.49	79.77	-23065	2371.2	0.15938	-0.16377	0.99884
0.492	79.773	-23063	2371.1	0.15753	-0.16387	0.99864
0.494	79.774	-23061	2371	0.15567	-0.16397	0.99845
0.496	79.776	-23058	2370.8	0.15636	-0.16377	0.99669
0.498	79.815	-23065	2370.6	0.15704	-0.16358	0.99493
0.5	79.845	-23071	2370.4	0.15772	-0.16338	0.99318
0.502	79.817	-23066	2370.2	0.1584	-0.16319	0.99142
0.504	79.792	-23061	2370.1	0.15909	-0.16299	0.98966
0.506	79.779	-23059	2369.9	0.15899	-0.16328	0.99035
0.508	79.79	-23056	2369.8	0.15889	-0.16358	0.99103
0.51	79.805	-23053	2369.6	0.1588	-0.16387	0.99171
0.512	79.772	-23049	2369.5	0.1587	-0.16416	0.9924
0.514	79.766	-23053	2369.3	0.1586	-0.16446	0.99308
0.516	79.783	-23057	2369.2	0.15919	-0.16416	0.99259
0.518	79.781	-23058	2369	0.15977	-0.16387	0.9921
0.52	79.758	-23060	2368.9	0.16036	-0.16358	0.99162
0.522	79.754	-23054	2368.8	0.16094	-0.16328	0.99113
0.524	79.781	-23049	2368.7	0.16153	-0.16299	0.99064
0.526	79.779	-23047	2368.6	0.16221	-0.16241	0.99025
0.528	79.767	-23045	2368.4	0.16289	-0.16182	0.98986
0.53	79.768	-23049	2368.3	0.16358	-0.16124	0.98947
0.532	79.79	-23052	2368.3	0.16426	-0.16065	0.98908
0.534	79.796	-23052	2368.2	0.16494	-0.16006	0.98869
0.536	79.789	-23051	2368.2	0.16514	-0.15967	0.98898
0.538	79.795	-23051	2368.1	0.16533	-0.15928	0.98927
0.54	79.759	-23050	2368.1	0.16553	-0.15889	0.98957
0.542	79.756	-23050	2368	0.16572	-0.1585	0.98986
0.544	79.773	-23049	2368	0.16592	-0.15811	0.99015
0.546	79.77	-23049	2367.9	0.16631	-0.15821	0.98996
0.548	79.753	-23048	2367.9	0.1667	-0.15831	0.98976
0.55	79.768	-23044	2367.8	0.16709	-0.1584	0.98957
0.552	79.792	-23039	2367.8	0.16748	-0.1585	0.98937
0.554	79.796	-23039	2367.8	0.16787	-0.1586	0.98918
0.556	79.796	-23039	2367.8	0.16807	-0.1585	0.98898
0.558	79.785	-23042	2367.8	0.16826	-0.1584	0.98879
0.56	79.771	-23044	2367.8	0.16846	-0.15831	0.98859
0.562	79.771	-23047	2367.8	0.16865	-0.15821	0.9884
0.564	79.767	-23049	2367.7	0.16885	-0.15811	0.9882
0.566	79.764	-23050	2367.7	0.16856	-0.1584	0.9884
0.568	79.764	-23050	2367.7	0.16826	-0.1587	0.98859
0.57	79.759	-23052	2367.7	0.16797	-0.15899	0.98879
0.572	79.761	-23053	2367.6	0.16768	-0.15928	0.98898
0.574	79.766	-23055	2367.6	0.16738	-0.15958	0.98918
0.576	79.767	-23058	2367.6	0.16846	-0.16006	0.98898
0.578	79.767	-23054	2367.6	0.16953	-0.16055	0.98879
0.58	79.775	-23051	2367.5	0.1706	-0.16104	0.98859
0.582	79.774	-23046	2367.5	0.17168	-0.16153	0.9884
0.584	79.763	-23041	2367.4	0.17275	-0.16202	0.9882
0.586	79.754	-23038	2367.4	0.17295	-0.1625	0.9884
0.588	79.766	-23035	2367.3	0.17314	-0.16299	0.98859
0.59	79.783	-23034	2367.3	0.17334	-0.16348	0.98879
0.592	79.799	-23033	2367.2	0.17353	-0.16397	0.98898
0.594	79.827	-23035	2367.1	0.17373	-0.16446	0.98918
0.596	79.808	-23038	2367.1	0.17441	-0.16426	0.98937
0.598	79.773	-23036	2367	0.17509	-0.16407	0.98957
0.6	79.754	-23034	2367	0.17578	-0.16387	0.98976
0.602	79.766	-23035	2366.9	0.17646	-0.16368	0.98996
0.604	79.776	-23037	2366.8	0.17714	-0.16348	0.99015
0.606	79.74	-23040	2366.8	0.17568	-0.1626	0.99054
0.608	79.75	-23043	2366.7	0.17422	-0.16172	0.99093
0.61	79.779	-23040	2366.7	0.17275	-0.16084	0.99132
0.612	79.768	-23037	2366.6	0.17129	-0.15997	0.99171
0.614	79.759	-23040	2366.6	0.16982	-0.15909	0.9921
0.616	79.763	-23042	2366.5	0.1708	-0.15997	0.99162
0.618	79.742	-23044	2366.4	0.17178	-0.16084	0.99113
0.62	79.744	-23046	2366.4	0.17275	-0.16172	0.99064
0.622	79.753	-23047	2366.4	0.17373	-0.1626	0.99015
0.624	79.733	-23047	2366.3	0.1747	-0.16348	0.98966
0.626	79.725	-23053	2366.3	0.17461	-0.16338	0.98957
0.628	79.714	-23060	2366.2	0.17451	-0.16328	0.98947
0.63	79.739	-23061	2366.2	0.17441	-0.16319	0.98937
0.632	79.766	-23062	2366.2	0.17431	-0.16309	0.98927
0.634	79.756	-23063	2366.2	0.17422	-0.16299	0.98918
0.636	79.745	-23063	2366.1	0.17422	-0.16231	0.98898
0.638	79.749	-23061	2366.1	0.17422	-0.16163	0.98879
0.64	79.729	-23058	2366	0.17422	-0.16094	0.98859
0.642	79.711	-23051	2365.9	0.17422	-0.16026	0.9884
0.644	79.699	-23043	2365.9	0.17422	-0.15958	0.9882
0.646	79.701	-23042	2365.8	0.17402	-0.15938	0.98859
0.648	79.712	-23041	2365.8	0.17383	-0.15919	0.98898
0.65	79.703	-23041	2365.7	0.17363	-0.15899	0.98937
0.652	79.7	-23042	2365.7	0.17344	-0.1588	0.98976
0.654	79.716	-23042	2365.7	0.17324	-0.1586	0.99015
0.656	79.735	-23042	2365.7	0.17129	-0.15889	0.99084
0.658	79.746	-23044	2365.6	0.16934	-0.15919	0.99152
0.66	79.721	-23046	2365.6	0.16738	-0.15948	0.9922
0.662	79.701	-23049	2365.6	0.16543	-0.15977	0.99288
0.664	79.702	-23052	2365.5	0.16348	-0.16006	0.99357
0.666	79.709	-23053	2365.4	0.16377	-0.15938	0.99503
0.668	79.731	-23053	2365.4	0.16407	-0.1587	0.9965
0.67	79.747	-23049	2365.3	0.16436	-0.15801	0.99796
0.672	79.729	-23044	2365.3	0.16465	-0.15733	0.99942
0.674	79.722	-23047	2365.2	0.16494	-0.15665	1.0009
0.676	79.741	-23050	2365.2	0.16485	-0.15675	1.0001
0.678	79.741	-23048	2365.1	0.16475	-0.15684	0.99933
0.68	79.716	-23046	2365	0.16465	-0.15694	0.99855
0.682	79.731	-23046	2364.9	0.16455	-0.15704	0.99776
0.684	79.774	-23047	2364.8	0.16446	-0.15714	0.99698
0.686	79.786	-23051	2364.7	0.16397	-0.15743	0.9964
0.688	79.804	-23054	2364.7	0.16348	-0.15772	0.99581
0.69	79.845	-23055	2364.6	0.16299	-0.15801	0.99523
0.692	79.855	-23055	2364.5	0.1625	-0.15831	0.99464
0.694	79.819	-23054	2364.4	0.16202	-0.1586	0.99406
0.696	79.805	-23052	2364.4	0.16192	-0.15899	0.99406
0.698	79.822	-23049	2364.4	0.16182	-0.15938	0.99406
0.7	79.808	-23045	2364.4	0.16172	-0.15977	0.99406
0.702	79.809	-23050	2364.3	0.16163	-0.16016	0.99406
0.704	79.806	-23056	2364.2	0.16153	-0.16055	0.99406
0.706	79.802	-23059	2364.2	0.16241	-0.15938	0.99415
0.708	79.8	-23061	2364.1	0.16328	-0.15821	0.99425
0.71	79.786	-23060	2364	0.16416	-0.15704	0.99435
0.712	79.785	-23059	2363.9	0.16504	-0.15587	0.99445
0.714	79.772	-23063	2363.9	0.16592	-0.1547	0.99454
0.716	79.782	-23067	2363.8	0.16426	-0.15567	0.99493
0.718	79.794	-23067	2363.8	0.1626	-0.15665	0.99532
0.72	79.79	-23068	2363.7	0.16094	-0.15762	0.99572
0.722	79.776	-23061	2363.7	0.15928	-0.1586	0.99611
0.724	79.784	-23055	2363.6	0.15762	-0.15958	0.9965
0.726	79.806	-23058	2363.5	0.15733	-0.15997	0.9963
0.728	79.809	-23061	2363.5	0.15704	-0.16036	0.99611
0.73	79.794	-23059	2363.4	0.15675	-0.16075	0.99591
0.732	79.769	-23058	2363.4	0.15645	-0.16114	0.99572
0.734	79.753	-23058	2363.3	0.15616	-0.16153	0.99552
0.736	79.776	-23058	2363.3	0.15684	-0.16133	0.99552
0.738	79.82	-23062	2363.3	0.15753	-0.16114	0.99552
0.74	79.843	-23067	2363.2	0.15821	-0.16094	0.99552
0.742	79.845	-23064	2363.1	0.15889	-0.16075	0.99552
0.744	79.845	-23061	2363.1	0.15958	-0.16055	0.99552
0.746	79.853	-23061	2363	0.16016	-0.16075	0.9964
0.748	79.871	-23061	2363	0.16075	-0.16094	0.99728
0.75	79.892	-23066	2363	0.16133	-0.16114	0.99816
0.752	79.909	-23072	2362.9	0.16192	-0.16133	0.99903
0.754	79.911	-23072	2362.8	0.1625	-0.16153	0.99991
0.756	79.891	-23072	2362.8	0.16202	-0.16163	0.99942
0.758	79.845	-23072	2362.7	0.16153	-0.16172	0.99894
0.76	79.788	-23072	2362.7	0.16104	-0.16182	0.99845
0.762	79.735	-23074	2362.6	0.16055	-0.16192	0.99796
0.764	79.66	-23075	2362.6	0.16006	-0.16202	0.99747
0.766	79.569	-23074	2362.5	0.15889	-0.16124	0.99718
0.768	79.463	-23073	2362.5	0.15772	-0.16045	0.99689
0.77	79.334	-23068	2362.5	0.15655	-0.15967	0.99659
0.772	79.21	-23062	2362.4	0.15538	-0.15889	0.9963
0.774	79.053	-23062	2362.4	0.15421	-0.15811	0.99601
0.776	78.921	-23063	2362.4	0.15499	-0.15831	0.99591
0.778	78.857	-23060	2362.4	0.15577	-0.1585	0.99581
0.78	78.753	-23057	2362.3	0.15655	-0.1587	0.99572
0.782	78.661	-23063	2362.3	0.15733	-0.15889	0.99562
0.784	78.662	-23069	2362.2	0.15811	-0.15909	0.99552
0.786	78.711	-23069	2362.2	0.1585	-0.15997	0.99581
0.788	78.84	-23069	2362.1	0.15889	-0.16084	0.99611
0.79	79.002	-23073	2362	0.15928	-0.16172	0.9964
0.792	79.185	-23077	2362	0.15967	-0.1626	0.99669
0.794	79.348	-23081	2361.9	0.16006	-0.16348	0.99698
0.796	79.439	-23085	2361.9	0.16084	-0.1626	0.9964
0.798	79.553	-23078	2361.8	0.16163	-0.16172	0.99581
0.8	79.693	-23071	2361.8	0.16241	-0.16084	0.99523
0.802	79.814	-23071	2361.8	0.16319	-0.15997	0.99464
0.804	79.884	-23072	2361.7	0.16397	-0.15909	0.99406
0.806	79.9	-23074	2361.7	0.16524	-0.15821	0.9964
0.808	79.882	-23077	2361.6	0.16651	-0.15733	0.99874
0.81	79.849	-23075	2361.6	0.16777	-0.15645	1.0011
0.812	79.822	-23073	2361.6	0.16904	-0.15557	1.0034
0.814	79.795	-23076	2361.6	0.17031	-0.1547	1.0058
0.816	79.766	-23078	2361.5	0.1707	-0.15489	1.005
0.818	79.745	-23077	2361.5	0.17109	-0.15509	1.0042
0.82	79.734	-23076	2361.4	0.17148	-0.15528	1.0034
0.822	79.727	-23079	2361.4	0.17187	-0.15548	1.0026
0.824	79.729	-23082	2361.3	0.17226	-0.15567	1.0019
0.826	79.732	-23085	2361.3	0.17158	-0.15557	1.0018
0.828	79.722	-23088	2361.2	0.1709	-0.15548	1.0017
0.83	79.738	-23084	2361.2	0.17021	-0.15538	1.0016
0.832	79.768	-23080	2361.2	0.16953	-0.15528	1.0015
0.834	79.767	-23081	2361.2	0.16885	-0.15518	1.0014
0.836	79.76	-23083	2361.1	0.16963	-0.15567	1.0011
0.838	79.762	-23082	2361.1	0.17041	-0.15616	1.0008
0.84	79.751	-23081	2361.1	0.17119	-0.15665	1.0005
0.842	79.751	-23086	2361	0.17197	-0.15714	1.0002
0.844	79.76	-23090	2361	0.17275	-0.15762	0.99991
0.846	79.752	-23094	2360.9	0.17139	-0.15723	0.99933
0.848	79.749	-23097	2360.9	0.17002	-0.15684	0.99874
0.85	79.732	-23098	2360.9	0.16865	-0.15645	0.99816
0.852	79.72	-23100	2360.8	0.16729	-0.15606	0.99757
0.854	79.716	-23097	2360.7	0.16592	-0.15567	0.99698
0.856	79.726	-23095	2360.6	0.16572	-0.15616	0.99689
0.858	79.762	-23096	2360.6	0.16553	-0.15665	0.99679
0.86	79.759	-23098	2360.5	0.16533	-0.15714	0.99669
0.862	79.73	-23099	2360.3	0.16514	-0.15762	0.99659
0.864	79.752	-23101	2360.2	0.16494	-0.15811	0.9965
0.866	79.765	-23094	2360.1	0.16592	-0.15811	0.99611
0.868	79.744	-23088	2360	0.1669	-0.15811	0.99572
0.87	79.737	-23091	2359.9	0.16787	-0.15811	0.99532
0.872	79.736	-23094	2359.9	0.16885	-0.15811	0.99493
0.874	79.736	-23097	2359.8	0.16982	-0.15811	0.99454
0.876	79.744	-23099	2359.7	0.16953	-0.1584	0.99523
0.878	79.753	-23104	2359.7	0.16924	-0.1587	0.99591
0.88	79.729	-23109	2359.6	0.16895	-0.15899	0.99659
0.882	79.72	-23107	2359.6	0.16865	-0.15928	0.99728
0.884	79.725	-23105	2359.5	0.16836	-0.15958	0.99796
0.886	79.736	-23105	2359.5	0.16885	-0.15899	0.99825
0.888	79.726	-23104	2359.4	0.16934	-0.1584	0.99855
0.89	79.708	-23098	2359.4	0.16982	-0.15782	0.99884
0.892	79.684	-23092	2359.4	0.17031	-0.15723	0.99913
0.894	79.67	-23101	2359.3	0.1708	-0.15665	0.99942
0.896	79.697	-23109	2359.3	0.16943	-0.15665	0.99894
0.898	79.716	-23111	2359.3	0.16807	-0.15665	0.99845
0.9	79.717	-23112	2359.2	0.1667	-0.15665	0.99796
0.902	79.706	-23110	2359.2	0.16533	-0.15665	0.99747
0.904	79.707	-23109	2359.2	0.16397	-0.15665	0.99698
0.906	79.713	-23110	2359.2	0.16446	-0.15645	0.9964
0.908	79.693	-23112	2359.2	0.16494	-0.15626	0.99581
0.91	79.677	-23112	2359.2	0.16543	-0.15606	0.99523
0.912	79.687	-23112	2359.2	0.16592	-0.15587	0.99464
0.914	79.7	-23117	2359.2	0.16641	-0.15567	0.99406
0.916	79.72	-23121	2359.2	0.16612	-0.15606	0.99415
0.918	79.742	-23118	2359.2	0.16582	-0.15645	0.99425
0.92	79.711	-23115	2359.2	0.16553	-0.15684	0.99435
0.922	79.677	-23115	2359.1	0.16524	-0.15723	0.99445
0.924	79.669	-23116	2359.1	0.16494	-0.15762	0.99454
0.926	79.662	-23117	2359.1	0.16719	-0.15801	0.99337
0.928	79.64	-23118	2359	0.16943	-0.1584	0.9922
0.93	79.626	-23118	2359	0.17168	-0.1588	0.99103
0.932	79.66	-23118	2359	0.17392	-0.15919	0.98986
0.934	79.699	-23120	2359.1	0.17617	-0.15958	0.98869
0.936	79.669	-23122	2359	0.17607	-0.15987	0.98849
0.938	79.643	-23119	2359	0.17597	-0.16016	0.9883
0.94	79.654	-23116	2359	0.17588	-0.16045	0.9881
0.942	79.674	-23122	2359.1	0.17578	-0.16075	0.98791
0.944	79.663	-23128	2359.2	0.17568	-0.16104	0.98771
0.946	79.619	-23127	2359.3	0.1749	-0.16094	0.988
0.948	79.596	-23126	2359.3	0.17412	-0.16084	0.9883
0.95	79.599	-23123	2359.5	0.17334	-0.16075	0.98859
0.952	79.607	-23120	2359.6	0.17256	-0.16065	0.98888
0.954	79.632	-23122	2359.7	0.17178	-0.16055	0.98918
0.956	79.645	-23123	2360	0.1706	-0.15938	0.99074
0.958	79.624	-23128	2360.2	0.16943	-0.15821	0.9923
0.96	79.627	-23132	2360.4	0.16826	-0.15704	0.99386
0.962	79.613	-23130	2360.7	0.16709	-0.15587	0.99542
0.964	79.603	-23128	2360.9	0.16592	-0.1547	0.99698
0.966	79.59	-23126	2361.2	0.16465	-0.15528	0.9963
0.968	79.594	-23124	2361.4	0.16338	-0.15587	0.99562
0.97	79.617	-23127	2361.7	0.16211	-0.15645	0.99493
0.972	79.613	-23131	2362	0.16084	-0.15704	0.99425
0.974	79.575	-23129	2362.3	0.15958	-0.15762	0.99357
0.976	79.584	-23126	2362.6	0.16055	-0.15743	0.99337
0.978	79.611	-23125	2362.9	0.16153	-0.15723	0.99318
0.98	79.607	-23124	2363.2	0.1625	-0.15704	0.99298
0.982	79.607	-23127	2363.5	0.16348	-0.15684	0.99279
0.984	79.615	-23129	2363.9	0.16446	-0.15665	0.99259
0.986	79.605	-23127	2364.2	0.16407	-0.15645	0.99308
0.988	79.588	-23124	2364.5	0.16368	-0.15626	0.99357
0.99	79.584	-23125	2364.8	0.16328	-0.15606	0.99406
0.992	79.586	-23126	2365.2	0.16289	-0.15587	0.99454
0.994	79.599	-23125	2365.5	0.1625	-0.15567	0.99503
0.996	79.616	-23123	2365.8	0.16299	-0.15528	0.99464
0.998	79.626	-23123	2366.1	0.16348	-0.15489	0.99425
1	79.627	-23123	2366.4	0.16397	-0.1545	0.99386
1.002	79.613	-23124	2366.6	0.16446	-0.15411	0.99347
1.004	79.611	-23125	2366.9	0.16494	-0.15372	0.99308
1.006	79.612	-23123	2367.1	0.16455	-0.1545	0.99269
1.008	79.623	-23121	2367.3	0.16416	-0.15528	0.9923
1.01	79.618	-23123	2367.6	0.16377	-0.15606	0.99191
1.012	79.598	-23125	2367.8	0.16338	-0.15684	0.99152
1.014	79.594	-23124	2368	0.16299	-0.15762	0.99113
1.016	79.615	-23123	2368.3	0.16494	-0.15772	0.99084
1.018	79.623	-23118	2368.5	0.1669	-0.15782	0.99054
1.02	79.599	-23114	2368.7	0.16885	-0.15792	0.99025
1.022	79.615	-23109	2368.8	0.1708	-0.15801	0.98996
1.024	79.664	-23105	2369	0.17275	-0.15811	0.98966
1.026	79.677	-23104	2369.1	0.17256	-0.1584	0.98898
1.028	79.667	-23104	2369.3	0.17236	-0.1587	0.9883
1.03	79.661	-23102	2369.5	0.17217	-0.15899	0.98761
1.032	79.663	-23101	2369.6	0.17197	-0.15928	0.98693
1.034	79.656	-23100	2369.7	0.17178	-0.15958	0.98625
1.036	79.681	-23100	2369.9	0.17236	-0.15948	0.98683
1.038	79.705	-23101	2370	0.17295	-0.15938	0.98742
1.04	79.679	-23102	2370.2	0.17353	-0.15928	0.988
1.042	79.652	-23102	2370.3	0.17412	-0.15919	0.98859
1.044	79.644	-23102	2370.4	0.1747	-0.15909	0.98918
1.046	79.671	-23102	2370.6	0.17412	-0.15928	0.98888
1.048	79.686	-23101	2370.7	0.17353	-0.15948	0.98859
1.05	79.689	-23100	2370.8	0.17295	-0.15967	0.9883
1.052	79.695	-23099	2370.9	0.17236	-0.15987	0.988
1.054	79.687	-23090	2371	0.17178	-0.16006	0.98771
1.056	79.712	-23082	2371.1	0.17197	-0.16006	0.98761
1.058	79.757	-23082	2371.2	0.17217	-0.16006	0.98752
1.06	79.771	-23082	2371.3	0.17236	-0.16006	0.98742
1.062	79.737	-23083	2371.3	0.17256	-0.16006	0.98732
1.064	79.716	-23085	2371.4	0.17275	-0.16006	0.98722
1.066	79.722	-23083	2371.5	0.17314	-0.16016	0.98752
1.068	79.732	-23081	2371.6	0.17353	-0.16026	0.98781
1.07	79.73	-23080	2371.6	0.17392	-0.16036	0.9881
1.072	79.726	-23079	2371.6	0.17431	-0.16045	0.9884
1.074	79.735	-23077	2371.6	0.1747	-0.16055	0.98869
1.076	79.751	-23075	2371.7	0.1748	-0.16114	0.98918
1.078	79.752	-23071	2371.7	0.1749	-0.16172	0.98966
1.08	79.734	-23068	2371.7	0.175	-0.16231	0.99015
1.082	79.719	-23067	2371.7	0.17509	-0.16289	0.99064
1.084	79.72	-23066	2371.6	0.17519	-0.16348	0.99113
1.086	79.716	-23065	2371.6	0.17461	-0.16368	0.99162
1.088	79.714	-23064	2371.6	0.17402	-0.16387	0.9921
1.09	79.732	-23065	2371.6	0.17344	-0.16407	0.99259
1.092	79.759	-23065	2371.6	0.17285	-0.16426	0.99308
1.094	79.754	-23064	2371.5	0.17226	-0.16446	0.99357
1.096	79.733	-23063	2371.5	0.17217	-0.16455	0.99367
1.098	79.752	-23058	2371.4	0.17207	-0.16465	0.99376
1.1	79.776	-23054	2371.4	0.17197	-0.16475	0.99386
1.102	79.78	-23048	2371.4	0.17187	-0.16485	0.99396
1.104	79.78	-23041	2371.4	0.17178	-0.16494	0.99406
1.106	79.762	-23040	2371.3	0.1708	-0.16387	0.99435
1.108	79.771	-23039	2371.3	0.16982	-0.1628	0.99464
1.11	79.756	-23039	2371.2	0.16885	-0.16172	0.99493
1.112	79.732	-23039	2371	0.16787	-0.16065	0.99523
1.114	79.72	-23046	2370.9	0.1669	-0.15958	0.99552
1.116	79.746	-23053	2370.8	0.1667	-0.1588	0.99611
1.118	79.739	-23049	2370.7	0.16651	-0.15801	0.99669
1.12	79.722	-23046	2370.6	0.16631	-0.15723	0.99728
1.122	79.724	-23043	2370.4	0.16612	-0.15645	0.99786
1.124	79.746	-23040	2370.2	0.16592	-0.15567	0.99845
1.126	79.765	-23038	2370.1	0.16582	-0.15587	0.99825
1.128	79.755	-23037	2369.9	0.16572	-0.15606	0.99806
1.13	79.751	-23031	2369.7	0.16563	-0.15626	0.99786
1.132	79.763	-23025	2369.5	0.16553	-0.15645	0.99767
1.134	79.747	-23028	2369.4	0.16543	-0.15665	0.99747
1.136	79.769	-23030	2369.2	0.16602	-0.15655	0.99689
1.138	79.787	-23029	2369	0.1666	-0.15645	0.9963
1.14	79.767	-23028	2368.8	0.16719	-0.15636	0.99572
1.142	79.709	-23024	2368.7	0.16777	-0.15626	0.99513
1.144	79.69	-23020	2368.5	0.16836	-0.15616	0.99454
1.146	79.725	-23019	2368.4	0.16826	-0.15636	0.99435
1.148	79.742	-23019	2368.2	0.16816	-0.15655	0.99415
1.15	79.732	-23023	2368.1	0.16807	-0.15675	0.99396
1.152	79.732	-23027	2367.9	0.16797	-0.15694	0.99376
1.154	79.739	-23028	2367.8	0.16787	-0.15714	0.99357
1.156	79.735	-23028	2367.7	0.16797	-0.15684	0.99445
1.158	79.745	-23028	2367.5	0.16807	-0.15655	0.99532
1.16	79.735	-23027	2367.4	0.16816	-0.15626	0.9962
1.162	79.703	-23016	2367.3	0.16826	-0.15596	0.99708
1.164	79.693	-23005	2367.2	0.16836	-0.15567	0.99796
1.166	79.699	-23007	2367.1	0.16846	-0.15587	0.99796
1.168	79.723	-23009	2367.1	0.16856	-0.15606	0.99796
1.17	79.749	-23014	2367	0.16865	-0.15626	0.99796
1.172	79.754	-23018	2367	0.16875	-0.15645	0.99796
1.174	79.755	-23012	2366.9	0.16885	-0.15665	0.99796
1.176	79.75	-23005	2366.9	0.16934	-0.15636	0.99884
1.178	79.731	-23013	2366.9	0.16982	-0.15606	0.99972
1.18	79.703	-23022	2366.8	0.17031	-0.15577	1.0006
1.182	79.703	-23017	2366.8	0.1708	-0.15548	1.0015
1.184	79.695	-23011	2366.8	0.17129	-0.15518	1.0024
1.186	79.714	-23013	2366.8	0.17002	-0.15528	1.0016
1.188	79.727	-23015	2366.9	0.16875	-0.15538	1.0008
1.19	79.753	-23016	2366.9	0.16748	-0.15548	1
1.192	79.742	-23018	2366.9	0.16621	-0.15557	0.99923
1.194	79.711	-23016	2366.9	0.16494	-0.15567	0.99845
1.196	79.689	-23014	2366.9	0.16485	-0.15538	0.99816
1.198	79.707	-23020	2366.9	0.16475	-0.15509	0.99786
1.2	79.725	-23025	2367	0.16465	-0.15479	0.99757
1.202	79.748	-23031	2367	0.16455	-0.1545	0.99728
1.204	79.768	-23036	2366.9	0.16446	-0.15421	0.99698
1.206	79.739	-23029	2366.9	0.16514	-0.15479	0.99718
1.208	79.741	-23022	2366.9	0.16582	-0.15538	0.99737
1.21	79.733	-23027	2366.9	0.16651	-0.15596	0.99757
1.212	79.704	-23031	2366.9	0.16719	-0.15655	0.99776
1.214	79.703	-23028	2366.9	0.16787	-0.15714	0.99796
1.216	79.718	-23025	2366.9	0.16826	-0.15694	0.99767
1.218	79.722	-23023	2366.9	0.16865	-0.15675	0.99737
1.22	79.708	-23020	2366.9	0.16904	-0.15655	0.99708
1.222	79.706	-23016	2366.9	0.16943	-0.15636	0.99679
1.224	79.715	-23013	2366.8	0.16982	-0.15616	0.9965
1.226	79.716	-23014	2366.8	0.16836	-0.15665	0.9965
1.228	79.715	-23015	2366.7	0.1669	-0.15714	0.9965
1.23	79.715	-23017	2366.7	0.16543	-0.15762	0.9965
1.232	79.695	-23019	2366.7	0.16397	-0.15811	0.9965
1.234	79.685	-23017	2366.7	0.1625	-0.1586	0.9965
1.236	79.673	-23015	2366.7	0.1628	-0.15831	0.99572
1.238	79.663	-23013	2366.6	0.16309	-0.15801	0.99493
1.24	79.696	-23012	2366.6	0.16338	-0.15772	0.99415
1.242	79.749	-23014	2366.5	0.16368	-0.15743	0.99337
1.244	79.759	-23015	2366.4	0.16397	-0.15714	0.99259
1.246	79.75	-23012	2366.4	0.16416	-0.15723	0.99269
1.248	79.747	-23010	2366.3	0.16436	-0.15733	0.99279
1.25	79.734	-23017	2366.3	0.16455	-0.15743	0.99288
1.252	79.729	-23024	2366.2	0.16475	-0.15753	0.99298
1.254	79.723	-23022	2366.2	0.16494	-0.15762	0.99308
1.256	79.703	-23019	2366.1	0.16543	-0.15704	0.99298
1.258	79.701	-23018	2366.1	0.16592	-0.15645	0.99288
1.26	79.717	-23017	2366.1	0.16641	-0.15587	0.99279
1.262	79.732	-23013	2366	0.1669	-0.15528	0.99269
1.264	79.74	-23010	2366	0.16738	-0.1547	0.99259
1.266	79.754	-23017	2365.9	0.16787	-0.15548	0.99201
1.268	79.74	-23024	2365.9	0.16836	-0.15626	0.99142
1.27	79.698	-23022	2365.9	0.16885	-0.15704	0.99084
1.272	79.679	-23020	2365.8	0.16934	-0.15782	0.99025
1.274	79.674	-23018	2365.8	0.16982	-0.1586	0.98966
1.276	79.678	-23016	2365.8	0.16953	-0.15928	0.99015
1.278	79.705	-23016	2365.7	0.16924	-0.15997	0.99064
1.28	79.723	-23017	2365.7	0.16895	-0.16065	0.99113
1.282	79.72	-23015	2365.7	0.16865	-0.16133	0.99162
1.284	79.701	-23014	2365.7	0.16836	-0.16202	0.9921
1.286	79.677	-23017	2365.7	0.16856	-0.16133	0.99191
1.288	79.657	-23020	2365.7	0.16875	-0.16065	0.99171
1.29	79.659	-23018	2365.7	0.16895	-0.15997	0.99152
1.292	79.68	-23016	2365.6	0.16914	-0.15928	0.99132
1.294	79.689	-23018	2365.6	0.16934	-0.1586	0.99113
1.296	79.678	-23021	2365.5	0.16836	-0.1588	0.99113
1.298	79.659	-23016	2365.4	0.16738	-0.15899	0.99113
1.3	79.65	-23012	2365.4	0.16641	-0.15919	0.99113
1.302	79.631	-23017	2365.3	0.16543	-0.15938	0.99113
1.304	79.652	-23022	2365.3	0.16446	-0.15958	0.99113
1.306	79.713	-23016	2365.2	0.16436	-0.15889	0.99162
1.308	79.72	-23009	2365.1	0.16426	-0.15821	0.9921
1.31	79.693	-23003	2365	0.16416	-0.15753	0.99259
1.312	79.689	-22996	2364.9	0.16407	-0.15684	0.99308
1.314	79.677	-23002	2364.8	0.16397	-0.15616	0.99357
1.316	79.674	-23007	2364.7	0.16397	-0.15714	0.99328
1.318	79.658	-23009	2364.6	0.16397	-0.15811	0.99298
1.32	79.618	-23010	2364.6	0.16397	-0.15909	0.99269
1.322	79.621	-23012	2364.5	0.16397	-0.16006	0.9924
1.324	79.647	-23014	2364.5	0.16397	-0.16104	0.9921
1.326	79.66	-23016	2364.4	0.16387	-0.16045	0.9924
1.328	79.662	-23017	2364.4	0.16377	-0.15987	0.99269
1.33	79.658	-23014	2364.3	0.16368	-0.15928	0.99298
1.332	79.67	-23012	2364.2	0.16358	-0.1587	0.99328
1.334	79.691	-23011	2364.2	0.16348	-0.15811	0.99357
1.336	79.691	-23011	2364.1	0.16465	-0.1585	0.99308
1.338	79.691	-23018	2364	0.16582	-0.15889	0.99259
1.34	79.693	-23024	2363.9	0.16699	-0.15928	0.9921
1.342	79.685	-23021	2363.9	0.16816	-0.15967	0.99162
1.344	79.704	-23018	2363.8	0.16934	-0.16006	0.99113
1.346	79.745	-23017	2363.8	0.16885	-0.15909	0.99191
1.348	79.763	-23016	2363.7	0.16836	-0.15811	0.99269
1.35	79.752	-23018	2363.6	0.16787	-0.15714	0.99347
1.352	79.748	-23019	2363.5	0.16738	-0.15616	0.99425
1.354	79.735	-23021	2363.4	0.1669	-0.15518	0.99503
1.356	79.726	-23022	2363.4	0.16651	-0.15587	0.99513
1.358	79.756	-23024	2363.3	0.16612	-0.15655	0.99523
1.36	79.759	-23025	2363.2	0.16572	-0.15723	0.99532
1.362	79.739	-23025	2363.2	0.16533	-0.15792	0.99542
1.364	79.737	-23024	2363.1	0.16494	-0.1586	0.99552
1.366	79.75	-23025	2363	0.16651	-0.15928	0.99591
1.368	79.743	-23025	2363	0.16807	-0.15997	0.9963
1.37	79.729	-23023	2363	0.16963	-0.16065	0.99669
1.372	79.727	-23021	2362.9	0.17119	-0.16133	0.99708
1.374	79.742	-23019	2362.9	0.17275	-0.16202	0.99747
1.376	79.76	-23017	2362.9	0.17129	-0.16143	0.99757
1.378	79.768	-23028	2362.9	0.16982	-0.16084	0.99767
1.38	79.749	-23040	2362.8	0.16836	-0.16026	0.99776
1.382	79.737	-23032	2362.7	0.1669	-0.15967	0.99786
1.384	79.727	-23024	2362.7	0.16543	-0.15909	0.99796
1.386	79.766	-23028	2362.6	0.16582	-0.1585	0.99718
1.388	79.767	-23032	2362.5	0.16621	-0.15792	0.9964
1.39	79.736	-23028	2362.5	0.1666	-0.15733	0.99562
1.392	79.734	-23023	2362.4	0.16699	-0.15675	0.99484
1.394	79.749	-23025	2362.4	0.16738	-0.15616	0.99406
1.396	79.765	-23027	2362.3	0.16768	-0.15675	0.99445
1.398	79.782	-23028	2362.3	0.16797	-0.15733	0.99484
1.4	79.769	-23029	2362.2	0.16826	-0.15792	0.99523
1.402	79.755	-23028	2362.1	0.16856	-0.1585	0.99562
1.404	79.791	-23028	2362.1	0.16885	-0.15909	0.99601
1.406	79.818	-23032	2362	0.16885	-0.15938	0.99581
1.408	79.821	-23036	2362	0.16885	-0.15967	0.99562
1.41	79.841	-23031	2362	0.16885	-0.15997	0.99542
1.412	79.84	-23026	2362	0.16885	-0.16026	0.99523
1.414	79.824	-23028	2362	0.16885	-0.16055	0.99503
1.416	79.807	-23029	2361.9	0.16856	-0.16026	0.99484
1.418	79.765	-23034	2361.9	0.16826	-0.15997	0.99464
1.42	79.701	-23039	2361.9	0.16797	-0.15967	0.99445
1.422	79.609	-23038	2361.9	0.16768	-0.15938	0.99425
1.424	79.497	-23037	2361.8	0.16738	-0.15909	0.99406
1.426	79.383	-23035	2361.8	0.16699	-0.15889	0.99386
1.428	79.275	-23033	2361.8	0.1666	-0.1587	0.99367
1.43	79.163	-23037	2361.8	0.16621	-0.1585	0.99347
1.432	79.022	-23040	2361.8	0.16582	-0.15831	0.99328
1.434	78.925	-23040	2361.7	0.16543	-0.15811	0.99308
1.436	78.84	-23040	2361.6	0.16485	-0.15909	0.99357
1.438	78.741	-23041	2361.6	0.16426	-0.16006	0.99406
1.44	78.619	-23042	2361.5	0.16368	-0.16104	0.99454
1.442	78.546	-23041	2361.4	0.16309	-0.16202	0.99503
1.444	78.578	-23040	2361.3	0.1625	-0.16299	0.99552
1.446	78.727	-23040	2361.3	0.16309	-0.1628	0.99562
1.448	78.902	-23039	2361.2	0.16368	-0.1626	0.99572
1.45	79.061	-23038	2361.1	0.16426	-0.16241	0.99581
1.452	79.278	-23037	2361.1	0.16485	-0.16221	0.99591
1.454	79.429	-23040	2361.1	0.16543	-0.16202	0.99601
1.456	79.528	-23043	2361	0.16524	-0.16133	0.9962
1.458	79.662	-23047	2360.9	0.16504	-0.16065	0.9964
1.46	79.78	-23051	2360.8	0.16485	-0.15997	0.99659
1.462	79.831	-23049	2360.8	0.16465	-0.15928	0.99679
1.464	79.857	-23047	2360.7	0.16446	-0.1586	0.99698
1.466	79.822	-23048	2360.6	0.16455	-0.15909	0.99659
1.468	79.801	-23049	2360.4	0.16465	-0.15958	0.9962
1.47	79.799	-23052	2360.4	0.16475	-0.16006	0.99581
1.472	79.785	-23054	2360.3	0.16485	-0.16055	0.99542
1.474	79.747	-23052	2360.2	0.16494	-0.16104	0.99503
1.476	79.715	-23051	2360.1	0.16416	-0.16182	0.99532
1.478	79.683	-23051	2360	0.16338	-0.1626	0.99562
1.48	79.67	-23050	2360	0.1626	-0.16338	0.99591
1.482	79.673	-23050	2359.9	0.16182	-0.16416	0.9962
1.484	79.684	-23050	2359.9	0.16104	-0.16494	0.9965
1.486	79.703	-23054	2359.8	0.16114	-0.16446	0.99601
1.488	79.714	-23057	2359.8	0.16124	-0.16397	0.99552
1.49	79.7	-23057	2359.7	0.16133	-0.16348	0.99503
1.492	79.677	-23056	2359.6	0.16143	-0.16299	0.99454
1.494	79.664	-23055	2359.6	0.16153	-0.1625	0.99406
1.496	79.675	-23054	2359.5	0.16163	-0.1626	0.99406
1.498	79.7	-23056	2359.4	0.16172	-0.1627	0.99406
1.5	79.717	-23058	2359.3	0.16182	-0.1628	0.99406
1.502	79.719	-23057	2359.3	0.16192	-0.16289	0.99406
1.504	79.711	-23055	2359.2	0.16202	-0.16299	0.99406
1.506	79.715	-23054	2359.1	0.16153	-0.16358	0.99513
1.508	79.72	-23053	2359.1	0.16104	-0.16416	0.9962
1.51	79.712	-23063	2359	0.16055	-0.16475	0.99728
1.512	79.696	-23073	2359	0.16006	-0.16533	0.99835
1.514	79.662	-23073	2359	0.15958	-0.16592	0.99942
1.516	79.674	-23074	2358.9	0.15909	-0.16533	0.99903
1.518	79.698	-23072	2358.8	0.1586	-0.16475	0.99864
1.52	79.675	-23069	2358.7	0.15811	-0.16416	0.99825
1.522	79.66	-23068	2358.7	0.15762	-0.16358	0.99786
1.524	79.683	-23067	2358.6	0.15714	-0.16299	0.99747
1.526	79.696	-23062	2358.5	0.15733	-0.1628	0.99728
1.528	79.682	-23056	2358.5	0.15753	-0.1626	0.99708
1.53	79.701	-23054	2358.4	0.15772	-0.16241	0.99689
1.532	79.707	-23051	2358.3	0.15792	-0.16221	0.99669
1.534	79.727	-23060	2358.2	0.15811	-0.16202	0.9965
1.536	79.713	-23069	2358.1	0.15772	-0.16143	0.9964
1.538	79.671	-23067	2358	0.15733	-0.16084	0.9963
1.54	79.649	-23066	2357.9	0.15694	-0.16026	0.9962
1.542	79.655	-23067	2357.9	0.15655	-0.15967	0.99611
1.544	79.644	-23069	2357.8	0.15616	-0.15909	0.99601
1.546	79.649	-23073	2357.8	0.15665	-0.15938	0.99572
1.548	79.67	-23078	2357.7	0.15714	-0.15967	0.99542
1.55	79.652	-23075	2357.6	0.15762	-0.15997	0.99513
1.552	79.639	-23072	2357.6	0.15811	-0.16026	0.99484
1.554	79.643	-23072	2357.5	0.1586	-0.16055	0.99454
1.556	79.663	-23073	2357.4	0.15928	-0.16006	0.99445
1.558	79.684	-23078	2357.3	0.15997	-0.15958	0.99435
1.56	79.702	-23083	2357.2	0.16065	-0.15909	0.99425
1.562	79.685	-23085	2357.2	0.16133	-0.1586	0.99415
1.564	79.666	-23088	2357.1	0.16202	-0.15811	0.99406
1.566	79.662	-23091	2357	0.1627	-0.15753	0.99406
1.568	79.652	-23093	2356.9	0.16338	-0.15694	0.99406
1.57	79.623	-23089	2356.9	0.16407	-0.15636	0.99406
1.572	79.629	-23086	2356.8	0.16475	-0.15577	0.99406
1.574	79.633	-23083	2356.8	0.16543	-0.15518	0.99406
1.576	79.627	-23081	2356.7	0.16572	-0.1546	0.99503
1.578	79.632	-23086	2356.6	0.16602	-0.15401	0.99601
1.58	79.61	-23091	2356.5	0.16631	-0.15343	0.99698
1.582	79.589	-23091	2356.5	0.1666	-0.15284	0.99796
1.584	79.595	-23092	2356.4	0.1669	-0.15226	0.99894
1.586	79.614	-23091	2356.4	0.1667	-0.15187	0.99845
1.588	79.621	-23091	2356.4	0.16651	-0.15148	0.99796
1.59	79.613	-23090	2356.4	0.16631	-0.15108	0.99747
1.592	79.613	-23089	2356.4	0.16612	-0.15069	0.99698
1.594	79.617	-23087	2356.4	0.16592	-0.1503	0.9965
1.596	79.611	-23085	2356.4	0.16612	-0.1505	0.9965
1.598	79.604	-23090	2356.4	0.16631	-0.15069	0.9965
1.6	79.61	-23095	2356.5	0.16651	-0.15089	0.9965
1.602	79.617	-23095	2356.5	0.1667	-0.15108	0.9965
1.604	79.61	-23094	2356.6	0.1669	-0.15128	0.9965
1.606	79.597	-23097	2356.7	0.1669	-0.15099	0.99611
1.608	79.577	-23100	2356.9	0.1669	-0.15069	0.99572
1.61	79.542	-23099	2357	0.1669	-0.1504	0.99532
1.612	79.515	-23099	2357.2	0.1669	-0.15011	0.99493
1.614	79.523	-23105	2357.5	0.1669	-0.14982	0.99454
1.616	79.55	-23110	2357.7	0.16748	-0.15001	0.99464
1.618	79.577	-23105	2357.9	0.16807	-0.15021	0.99474
1.62	79.608	-23100	2358.1	0.16865	-0.1504	0.99484
1.622	79.591	-23099	2358.3	0.16924	-0.1506	0.99493
1.624	79.538	-23098	2358.6	0.16982	-0.15079	0.99503
1.626	79.525	-23102	2358.8	0.1707	-0.15157	0.99532
1.628	79.547	-23106	2359.1	0.17158	-0.15235	0.99562
1.63	79.551	-23104	2359.4	0.17246	-0.15313	0.99591
1.632	79.538	-23103	2359.7	0.17334	-0.15392	0.9962
1.634	79.538	-23096	2360	0.17422	-0.1547	0.9965
1.636	79.557	-23090	2360.3	0.17568	-0.15479	0.99523
1.638	79.569	-23095	2360.7	0.17714	-0.15489	0.99396
1.64	79.564	-23101	2361	0.17861	-0.15499	0.99269
1.642	79.553	-23100	2361.3	0.18007	-0.15509	0.99142
1.644	79.54	-23100	2361.6	0.18154	-0.15518	0.99015
1.646	79.511	-23102	2361.9	0.18036	-0.15538	0.99123
1.648	79.513	-23104	2362.2	0.17919	-0.15557	0.9923
1.65	79.551	-23103	2362.5	0.17802	-0.15577	0.99337
1.652	79.565	-23102	2362.8	0.17685	-0.15596	0.99445
1.654	79.581	-23100	2363.2	0.17568	-0.15616	0.99552
1.656	79.579	-23098	2363.5	0.17646	-0.15567	0.99464
1.658	79.576	-23097	2363.8	0.17724	-0.15518	0.99376
1.66	79.571	-23096	2364.1	0.17802	-0.1547	0.99288
1.662	79.564	-23097	2364.4	0.1788	-0.15421	0.99201
1.664	79.562	-23098	2364.7	0.17958	-0.15372	0.99113
1.666	79.558	-23100	2364.9	0.18007	-0.15343	0.99152
1.668	79.547	-23101	2365.2	0.18056	-0.15313	0.99191
1.67	79.546	-23100	2365.5	0.18105	-0.15284	0.9923
1.672	79.534	-23100	2365.8	0.18154	-0.15255	0.99269
1.674	79.518	-23099	2366.1	0.18202	-0.15226	0.99308
1.676	79.536	-23099	2366.3	0.18202	-0.15304	0.99201
1.678	79.572	-23097	2366.5	0.18202	-0.15382	0.99093
1.68	79.585	-23095	2366.8	0.18202	-0.1546	0.98986
1.682	79.582	-23086	2367	0.18202	-0.15538	0.98879
1.684	79.592	-23076	2367.2	0.18202	-0.15616	0.98771
1.686	79.6	-23081	2367.4	0.18261	-0.15577	0.98869
1.688	79.599	-23086	2367.6	0.1832	-0.15538	0.98966
1.69	79.596	-23084	2367.7	0.18378	-0.15499	0.99064
1.692	79.607	-23082	2367.9	0.18437	-0.1546	0.99162
1.694	79.612	-23075	2368	0.18495	-0.15421	0.99259
1.696	79.608	-23069	2368.1	0.18261	-0.15548	0.99249
1.698	79.608	-23075	2368.2	0.18027	-0.15675	0.9924
1.7	79.62	-23082	2368.3	0.17792	-0.15801	0.9923
1.702	79.624	-23079	2368.4	0.17558	-0.15928	0.9922
1.704	79.613	-23077	2368.5	0.17324	-0.16055	0.9921
1.706	79.616	-23075	2368.6	0.17412	-0.16104	0.99123
1.708	79.637	-23074	2368.7	0.175	-0.16153	0.99035
1.71	79.651	-23071	2368.8	0.17588	-0.16202	0.98947
1.712	79.666	-23068	2368.9	0.17675	-0.1625	0.98859
1.714	79.665	-23065	2369	0.17763	-0.16299	0.98771
1.716	79.675	-23062	2369.1	0.17685	-0.16377	0.9881
1.718	79.679	-23062	2369.2	0.17607	-0.16455	0.98849
1.72	79.666	-23062	2369.3	0.17529	-0.16533	0.98888
1.722	79.633	-23060	2369.4	0.17451	-0.16612	0.98927
1.724	79.675	-23057	2369.6	0.17373	-0.1669	0.98966
1.726	79.702	-23060	2369.6	0.17353	-0.16582	0.98898
1.728	79.677	-23063	2369.7	0.17334	-0.16475	0.9883
1.73	79.654	-23060	2369.7	0.17314	-0.16368	0.98761
1.732	79.656	-23058	2369.7	0.17295	-0.1626	0.98693
1.734	79.689	-23054	2369.8	0.17275	-0.16153	0.98625
1.736	79.713	-23049	2369.8	0.17256	-0.16114	0.98654
1.738	79.688	-23047	2369.8	0.17236	-0.16075	0.98683
1.74	79.662	-23045	2369.8	0.17217	-0.16036	0.98713
1.742	79.705	-23044	2369.9	0.17197	-0.15997	0.98742
1.744	79.73	-23043	2369.9	0.17178	-0.15958	0.98771
1.746	79.706	-23045	2369.9	0.17051	-0.15938	0.98791
1.748	79.685	-23047	2369.9	0.16924	-0.15919	0.9881
1.75	79.699	-23046	2369.9	0.16797	-0.15899	0.9883
1.752	79.736	-23046	2369.8	0.1667	-0.1588	0.98849
1.754	79.737	-23039	2369.8	0.16543	-0.1586	0.98869
1.756	79.711	-23032	2369.8	0.16553	-0.15811	0.98957
1.758	79.696	-23032	2369.8	0.16563	-0.15762	0.99044
1.76	79.688	-23033	2369.7	0.16572	-0.15714	0.99132
1.762	79.687	-23030	2369.6	0.16582	-0.15665	0.9922
1.764	79.68	-23027	2369.6	0.16592	-0.15616	0.99308
1.766	79.661	-23025	2369.5	0.16397	-0.15753	0.99308
1.768	79.665	-23023	2369.5	0.16202	-0.15889	0.99308
1.77	79.696	-23019	2369.5	0.16006	-0.16026	0.99308
1.772	79.71	-23015	2369.4	0.15811	-0.16163	0.99308
1.774	79.7	-23015	2369.3	0.15616	-0.16299	0.99308
1.776	79.698	-23014	2369.2	0.15655	-0.16358	0.99298
1.778	79.715	-23011	2369.1	0.15694	-0.16416	0.99288
1.78	79.714	-23008	2369	0.15733	-0.16475	0.99279
1.782	79.698	-23015	2368.9	0.15772	-0.16533	0.99269
1.784	79.708	-23022	2368.9	0.15811	-0.16592	0.99259
1.786	79.687	-23023	2368.7	0.1586	-0.16572	0.9923
1.788	79.673	-23024	2368.6	0.15909	-0.16553	0.99201
1.79	79.651	-23017	2368.5	0.15958	-0.16533	0.99171
1.792	79.641	-23009	2368.4	0.16006	-0.16514	0.99142
1.794	79.668	-23011	2368.2	0.16055	-0.16494	0.99113
1.796	79.702	-23013	2368.1	0.15919	-0.16436	0.99201
1.798	79.702	-23013	2367.9	0.15782	-0.16377	0.99288
1.8	79.729	-23013	2367.8	0.15645	-0.16319	0.99376
1.802	79.741	-23006	2367.7	0.15509	-0.1626	0.99464
1.804	79.693	-22999	2367.6	0.15372	-0.16202	0.99552
1.806	79.679	-22999	2367.4	0.15655	-0.16153	0.99484
1.808	79.694	-22999	2367.3	0.15938	-0.16104	0.99415
1.81	79.689	-23000	2367.1	0.16221	-0.16055	0.99347
1.812	79.655	-23001	2367	0.16504	-0.16006	0.99279
1.814	79.64	-23004	2366.9	0.16787	-0.15958	0.9921
1.816	79.706	-23007	2366.7	0.16816	-0.15889	0.99386
1.818	79.72	-23001	2366.5	0.16846	-0.15821	0.99562
1.82	79.716	-22996	2366.4	0.16875	-0.15753	0.99737
1.822	79.713	-22992	2366.3	0.16904	-0.15684	0.99913
1.824	79.716	-22987	2366.1	0.16934	-0.15616	1.0009
1.826	79.706	-22995	2366	0.16924	-0.15587	1.002
1.828	79.691	-23002	2365.9	0.16914	-0.15557	1.003
1.83	79.669	-23000	2365.9	0.16904	-0.15528	1.0041
1.832	79.669	-22998	2365.8	0.16895	-0.15499	1.0052
1.834	79.656	-22998	2365.7	0.16885	-0.1547	1.0063
1.836	79.642	-22998	2365.6	0.16934	-0.15489	1.0059
1.838	79.658	-22999	2365.5	0.16982	-0.15509	1.0055
1.84	79.685	-23000	2365.4	0.17031	-0.15528	1.0051
1.842	79.688	-23000	2365.4	0.1708	-0.15548	1.0047
1.844	79.662	-23001	2365.3	0.17129	-0.15567	1.0043
1.846	79.641	-23003	2365.2	0.16992	-0.15567	1.0036
1.848	79.668	-23006	2365.2	0.16856	-0.15567	1.0029
1.85	79.699	-22997	2365.1	0.16719	-0.15567	1.0023
1.852	79.687	-22988	2365.1	0.16582	-0.15567	1.0016
1.854	79.669	-22989	2365	0.16446	-0.15567	1.0009
1.856	79.649	-22989	2365	0.16533	-0.15548	1.0019
1.858	79.64	-22994	2364.9	0.16621	-0.15528	1.0028
1.86	79.673	-22998	2364.9	0.16709	-0.15509	1.0038
1.862	79.693	-22995	2364.8	0.16797	-0.15489	1.0048
1.864	79.677	-22993	2364.8	0.16885	-0.1547	1.0058
1.866	79.665	-22994	2364.8	0.16924	-0.15518	1.0045
1.868	79.675	-22995	2364.8	0.16963	-0.15567	1.0032
1.87	79.686	-22994	2364.8	0.17002	-0.15616	1.002
1.872	79.689	-22992	2364.8	0.17041	-0.15665	1.0007
1.874	79.686	-22995	2364.8	0.1708	-0.15714	0.99942
1.876	79.662	-22997	2364.8	0.1708	-0.15714	0.99981
1.878	79.643	-22995	2364.8	0.1708	-0.15714	1.0002
1.88	79.672	-22993	2364.8	0.1708	-0.15714	1.0006
1.882	79.677	-22996	2364.8	0.1708	-0.15714	1.001
1.884	79.686	-22999	2364.8	0.1708	-0.15714	1.0014
1.886	79.708	-22996	2364.7	0.17041	-0.15655	1.0018
1.888	79.673	-22994	2364.7	0.17002	-0.15596	1.0022
1.89	79.651	-22991	2364.6	0.16963	-0.15538	1.0025
1.892	79.668	-22989	2364.6	0.16924	-0.15479	1.0029
1.894	79.702	-22993	2364.6	0.16885	-0.15421	1.0033
1.896	79.697	-22997	2364.5	0.16885	-0.15431	1.0042
1.898	79.694	-22998	2364.4	0.16885	-0.1544	1.0051
1.9	79.677	-22999	2364.4	0.16885	-0.1545	1.006
1.902	79.641	-22997	2364.3	0.16885	-0.1546	1.0068
1.904	79.659	-22995	2364.3	0.16885	-0.1547	1.0077
1.906	79.681	-22993	2364.2	0.16807	-0.15479	1.0078
1.908	79.685	-22991	2364.2	0.16729	-0.15489	1.0079
1.91	79.686	-22995	2364.1	0.16651	-0.15499	1.008
1.912	79.692	-22998	2364.1	0.16572	-0.15509	1.0081
1.914	79.697	-22998	2364.1	0.16494	-0.15518	1.0082
1.916	79.695	-22998	2364	0.16602	-0.15509	1.0072
1.918	79.66	-22994	2364	0.16709	-0.15499	1.0063
1.92	79.658	-22990	2364	0.16816	-0.15489	1.0053
1.922	79.683	-22987	2363.9	0.16924	-0.15479	1.0043
1.924	79.681	-22984	2363.9	0.17031	-0.1547	1.0033
1.926	79.677	-22984	2363.9	0.17041	-0.15518	1.0025
1.928	79.681	-22984	2363.8	0.17051	-0.15567	1.0018
1.93	79.687	-22992	2363.8	0.1706	-0.15616	1.001
1.932	79.717	-22999	2363.8	0.1707	-0.15665	1.0002
1.934	79.729	-22995	2363.8	0.1708	-0.15714	0.99942
1.936	79.697	-22991	2363.8	0.171	-0.15782	0.99933
1.938	79.674	-22989	2363.8	0.17119	-0.1585	0.99923
1.94	79.667	-22988	2363.8	0.17139	-0.15919	0.99913
1.942	79.658	-22990	2363.8	0.17158	-0.15987	0.99903
1.944	79.661	-22993	2363.8	0.17178	-0.16055	0.99894
1.946	79.662	-22993	2363.8	0.17041	-0.15967	0.99923
1.948	79.646	-22993	2363.8	0.16904	-0.1588	0.99952
1.95	79.629	-22992	2363.8	0.16768	-0.15792	0.99981
1.952	79.636	-22991	2363.7	0.16631	-0.15704	1.0001
1.954	79.65	-22990	2363.7	0.16494	-0.15616	1.0004
1.956	79.679	-22990	2363.7	0.16475	-0.15616	0.99962
1.958	79.676	-22991	2363.7	0.16455	-0.15616	0.99884
1.96	79.639	-22993	2363.7	0.16436	-0.15616	0.99806
1.962	79.602	-22995	2363.6	0.16416	-0.15616	0.99728
1.964	79.594	-22996	2363.5	0.16397	-0.15616	0.9965
1.966	79.609	-22997	2363.5	0.16553	-0.15567	0.99747
1.968	79.625	-22998	2363.4	0.16709	-0.15518	0.99845
1.97	79.67	-22997	2363.3	0.16865	-0.1547	0.99942
1.972	79.674	-22996	2363.2	0.17021	-0.15421	1.0004
1.974	79.666	-22995	2363.1	0.17178	-0.15372	1.0014
1.976	79.652	-22994	2363	0.17197	-0.15421	1.0011
1.978	79.63	-23000	2362.9	0.17217	-0.1547	1.0008
1.98	79.629	-23007	2362.8	0.17236	-0.15518	1.0005
1.982	79.608	-23008	2362.8	0.17256	-0.15567	1.0002
1.984	79.629	-23009	2362.7	0.17275	-0.15616	0.99991
1.986	79.634	-23008	2362.6	0.17129	-0.15616	0.99991
1.988	79.628	-23007	2362.5	0.16982	-0.15616	0.99991
1.99	79.615	-23001	2362.4	0.16836	-0.15616	0.99991
1.992	79.605	-22994	2362.4	0.1669	-0.15616	0.99991
1.994	79.619	-22995	2362.3	0.16543	-0.15616	0.99991
1.996	79.629	-22995	2362.2	0.16699	-0.15665	0.99962
1.998	79.63	-22997	2362.2	0.16856	-0.15714	0.99933
2	79.639	-22998	2362.2	0.17012	-0.15762	0.99903
2.002	79.642	-22997	2362.2	0.17168	-0.15811	0.99874
2.004	79.629	-22997	2362.1	0.17324	-0.1586	0.99845
2.006	79.632	-22996	2362.1	0.17129	-0.15801	0.99796
2.008	79.661	-22996	2362.1	0.16934	-0.15743	0.99747
2.01	79.667	-23004	2362.1	0.16738	-0.15684	0.99698
2.012	79.663	-23013	2362	0.16543	-0.15626	0.9965
2.014	79.657	-23008	2361.9	0.16348	-0.15567	0.99601
2.016	79.652	-23004	2361.9	0.16348	-0.15548	0.9964
2.018	79.681	-23003	2361.8	0.16348	-0.15528	0.99679
2.02	79.717	-23003	2361.8	0.16348	-0.15509	0.99718
2.022	79.729	-23006	2361.7	0.16348	-0.15489	0.99757
2.024	79.744	-23010	2361.6	0.16348	-0.1547	0.99796
2.026	79.745	-23010	2361.5	0.16338	-0.15548	0.99728
2.028	79.708	-23009	2361.5	0.16328	-0.15626	0.99659
2.03	79.684	-23006	2361.4	0.16319	-0.15704	0.99591
2.032	79.698	-23002	2361.4	0.16309	-0.15782	0.99523
2.034	79.717	-23005	2361.3	0.16299	-0.1586	0.99454
2.036	79.714	-23009	2361.3	0.16319	-0.1585	0.99464
2.038	79.715	-23009	2361.2	0.16338	-0.1584	0.99474
2.04	79.705	-23010	2361.1	0.16358	-0.15831	0.99484
2.042	79.686	-23008	2361.1	0.16377	-0.15821	0.99493
2.044	79.695	-23006	2361.1	0.16397	-0.15811	0.99503
2.046	79.727	-23007	2361.1	0.16446	-0.15801	0.99454
2.048	79.708	-23007	2361	0.16494	-0.15792	0.99406
2.05	79.693	-23010	2361	0.16543	-0.15782	0.99357
2.052	79.721	-23014	2361	0.16592	-0.15772	0.99308
2.054	79.697	-23014	2361	0.16641	-0.15762	0.99259
2.056	79.672	-23015	2361	0.16748	-0.15821	0.99201
2.058	79.683	-23015	2361	0.16856	-0.1588	0.99142
2.06	79.681	-23015	2361	0.16963	-0.15938	0.99084
2.062	79.689	-23016	2360.9	0.1707	-0.15997	0.99025
2.064	79.727	-23018	2360.9	0.17178	-0.16055	0.98966
2.066	79.74	-23018	2360.8	0.17207	-0.16094	0.98957
2.068	79.723	-23018	2360.8	0.17236	-0.16133	0.98947
2.07	79.727	-23014	2360.8	0.17265	-0.16172	0.98937
2.072	79.735	-23010	2360.8	0.17295	-0.16211	0.98927
2.074	79.738	-23012	2360.8	0.17324	-0.1625	0.98918
2.076	79.765	-23015	2360.8	0.17295	-0.16328	0.99025
2.078	79.787	-23018	2360.7	0.17265	-0.16407	0.99132
2.08	79.79	-23021	2360.7	0.17236	-0.16485	0.9924
2.082	79.799	-23022	2360.6	0.17207	-0.16563	0.99347
2.084	79.781	-23022	2360.6	0.17178	-0.16641	0.99454
2.086	79.769	-23023	2360.6	0.17187	-0.16621	0.99425
2.088	79.736	-23024	2360.6	0.17197	-0.16602	0.99396
2.09	79.671	-23025	2360.6	0.17207	-0.16582	0.99367
2.092	79.588	-23026	2360.6	0.17217	-0.16563	0.99337
2.094	79.494	-23030	2360.5	0.17226	-0.16543	0.99308
2.096	79.4	-23035	2360.5	0.17265	-0.16592	0.99288
2.098	79.295	-23032	2360.5	0.17304	-0.16641	0.99269
2.1	79.172	-23028	2360.5	0.17344	-0.1669	0.99249
2.102	79.051	-23027	2360.5	0.17383	-0.16738	0.9923
2.104	78.942	-23025	2360.4	0.17422	-0.16787	0.9921
2.106	78.838	-23029	2360.4	0.17363	-0.16748	0.9921
2.108	78.725	-23033	2360.4	0.17304	-0.16709	0.9921
2.11	78.606	-23035	2360.3	0.17246	-0.1667	0.9921
2.112	78.542	-23037	2360.2	0.17187	-0.16631	0.9921
2.114	78.552	-23034	2360.2	0.17129	-0.16592	0.9921
2.116	78.625	-23030	2360.1	0.17139	-0.16621	0.99249
2.118	78.774	-23027	2360.1	0.17148	-0.16651	0.99288
2.12	78.948	-23023	2360	0.17158	-0.1668	0.99328
2.122	79.118	-23024	2360	0.17168	-0.16709	0.99367
2.124	79.273	-23024	2359.9	0.17178	-0.16738	0.99406
2.126	79.396	-23029	2359.9	0.17148	-0.16748	0.99376
2.128	79.54	-23033	2359.8	0.17119	-0.16758	0.99347
2.13	79.712	-23042	2359.7	0.1709	-0.16768	0.99318
2.132	79.83	-23051	2359.7	0.1706	-0.16777	0.99288
2.134	79.861	-23045	2359.6	0.17031	-0.16787	0.99259
2.136	79.847	-23040	2359.5	0.16973	-0.16729	0.9924
2.138	79.809	-23041	2359.5	0.16914	-0.1667	0.9922
2.14	79.76	-23043	2359.4	0.16856	-0.16612	0.99201
2.142	79.722	-23049	2359.3	0.16797	-0.16553	0.99181
2.144	79.706	-23055	2359.3	0.16738	-0.16494	0.99162
2.146	79.665	-23051	2359.3	0.16787	-0.16533	0.99132
2.148	79.623	-23047	2359.3	0.16836	-0.16572	0.99103
2.15	79.594	-23046	2359.3	0.16885	-0.16612	0.99074
2.152	79.569	-23044	2359.2	0.16934	-0.16651	0.99044
2.154	79.569	-23050	2359.2	0.16982	-0.1669	0.99015
2.156	79.615	-23055	2359.1	0.17021	-0.16738	0.98986
2.158	79.68	-23052	2359.1	0.1706	-0.16787	0.98957
2.16	79.703	-23049	2359.1	0.171	-0.16836	0.98927
2.162	79.702	-23051	2359	0.17139	-0.16885	0.98898
2.164	79.689	-23054	2359	0.17178	-0.16934	0.98869
2.166	79.67	-23049	2358.9	0.17119	-0.16846	0.988
2.168	79.646	-23044	2358.9	0.1706	-0.16758	0.98732
2.17	79.651	-23046	2358.8	0.17002	-0.1667	0.98664
2.172	79.683	-23048	2358.8	0.16943	-0.16582	0.98596
2.174	79.705	-23057	2358.7	0.16885	-0.16494	0.98527
2.176	79.696	-23065	2358.7	0.16777	-0.16465	0.98508
2.178	79.666	-23063	2358.6	0.1667	-0.16436	0.98488
2.18	79.647	-23060	2358.6	0.16563	-0.16407	0.98469
2.182	79.63	-23056	2358.5	0.16455	-0.16377	0.98449
2.184	79.609	-23053	2358.5	0.16348	-0.16348	0.9843
2.186	79.614	-23059	2358.3	0.16436	-0.16319	0.98488
2.188	79.639	-23065	2358.2	0.16524	-0.16289	0.98547
2.19	79.655	-23064	2358.1	0.16612	-0.1626	0.98605
2.192	79.659	-23064	2358	0.16699	-0.16231	0.98664
2.194	79.644	-23063	2357.9	0.16787	-0.16202	0.98722
2.196	79.626	-23062	2357.7	0.16768	-0.1626	0.98722
2.198	79.636	-23061	2357.6	0.16748	-0.16319	0.98722
2.2	79.645	-23060	2357.5	0.16729	-0.16377	0.98722
2.202	79.64	-23062	2357.4	0.16709	-0.16436	0.98722
2.204	79.644	-23064	2357.3	0.1669	-0.16494	0.98722
2.206	79.652	-23068	2357.2	0.16563	-0.16524	0.98664
2.208	79.648	-23073	2357.2	0.16436	-0.16553	0.98605
2.21	79.64	-23069	2357	0.16309	-0.16582	0.98547
2.212	79.624	-23065	2356.9	0.16182	-0.16612	0.98488
2.214	79.599	-23065	2356.8	0.16055	-0.16641	0.9843
2.216	79.617	-23065	2356.7	0.16075	-0.16553	0.98469
2.218	79.636	-23069	2356.7	0.16094	-0.16465	0.98508
2.22	79.613	-23074	2356.6	0.16114	-0.16377	0.98547
2.222	79.615	-23071	2356.5	0.16133	-0.16289	0.98586
2.224	79.633	-23068	2356.4	0.16153	-0.16202	0.98625
2.226	79.637	-23075	2356.4	0.16299	-0.16182	0.98605
2.228	79.665	-23082	2356.3	0.16446	-0.16163	0.98586
2.23	79.627	-23078	2356.2	0.16592	-0.16143	0.98566
2.232	79.605	-23074	2356.1	0.16738	-0.16124	0.98547
2.234	79.604	-23075	2356	0.16885	-0.16104	0.98527
2.236	79.606	-23075	2355.9	0.16777	-0.16104	0.98625
2.238	79.634	-23075	2355.9	0.1667	-0.16104	0.98722
2.24	79.62	-23074	2355.8	0.16563	-0.16104	0.9882
2.242	79.588	-23075	2355.8	0.16455	-0.16104	0.98918
2.244	79.582	-23076	2355.7	0.16348	-0.16104	0.99015
2.246	79.59	-23082	2355.6	0.16211	-0.16124	0.99064
2.248	79.59	-23089	2355.6	0.16075	-0.16143	0.99113
2.25	79.576	-23089	2355.5	0.15938	-0.16163	0.99162
2.252	79.577	-23090	2355.4	0.15801	-0.16182	0.9921
2.254	79.602	-23085	2355.4	0.15665	-0.16202	0.99259
2.256	79.592	-23080	2355.3	0.15782	-0.16221	0.99249
2.258	79.559	-23082	2355.3	0.15899	-0.16241	0.9924
2.26	79.559	-23085	2355.2	0.16016	-0.1626	0.9923
2.262	79.57	-23089	2355.2	0.16133	-0.1628	0.9922
2.264	79.584	-23093	2355.2	0.1625	-0.16299	0.9921
2.266	79.583	-23093	2355.2	0.1626	-0.16153	0.99298
2.268	79.547	-23093	2355.2	0.1627	-0.16006	0.99386
2.27	79.522	-23094	2355.2	0.1628	-0.1586	0.99474
2.272	79.524	-23096	2355.2	0.16289	-0.15714	0.99562
2.274	79.529	-23096	2355.3	0.16299	-0.15567	0.9965
2.276	79.535	-23096	2355.4	0.16289	-0.15665	0.99542
2.278	79.55	-23097	2355.5	0.1628	-0.15762	0.99435
2.28	79.553	-23097	2355.6	0.1627	-0.1586	0.99328
2.282	79.535	-23095	2355.7	0.1626	-0.15958	0.9922
2.284	79.54	-23093	2355.9	0.1625	-0.16055	0.99113
2.286	79.556	-23096	2356	0.16338	-0.15899	0.99298
2.288	79.549	-23099	2356.2	0.16426	-0.15743	0.99484
2.29	79.532	-23106	2356.3	0.16514	-0.15587	0.99669
2.292	79.519	-23114	2356.5	0.16602	-0.15431	0.99855
2.294	79.483	-23116	2356.7	0.1669	-0.15274	1.0004
2.296	79.487	-23119	2356.9	0.16816	-0.15372	1.0008
2.298	79.526	-23117	2357.2	0.16943	-0.1547	1.0012
2.3	79.505	-23115	2357.4	0.1707	-0.15567	1.0016
2.302	79.485	-23112	2357.6	0.17197	-0.15665	1.002
2.304	79.499	-23109	2357.9	0.17324	-0.15762	1.0024
2.306	79.522	-23107	2358.2	0.17334	-0.15684	1.0027
2.308	79.559	-23104	2358.5	0.17344	-0.15606	1.0031
2.31	79.565	-23108	2358.7	0.17353	-0.15528	1.0035
2.312	79.556	-23111	2359.1	0.17363	-0.1545	1.0039
2.314	79.54	-23116	2359.4	0.17373	-0.15372	1.0043
2.316	79.521	-23120	2359.6	0.17236	-0.15343	1.0041
2.318	79.488	-23115	2359.9	0.171	-0.15313	1.0039
2.32	79.509	-23109	2360.2	0.16963	-0.15284	1.0037
2.322	79.512	-23105	2360.5	0.16826	-0.15255	1.0035
2.324	79.521	-23101	2360.8	0.1669	-0.15226	1.0033
2.326	79.52	-23105	2361.1	0.16709	-0.15313	1.0024
2.328	79.512	-23109	2361.5	0.16729	-0.15401	1.0016
2.33	79.506	-23106	2361.8	0.16748	-0.15489	1.0007
2.332	79.496	-23103	2362.1	0.16768	-0.15577	0.99981
2.334	79.503	-23102	2362.4	0.16787	-0.15665	0.99894
2.336	79.496	-23102	2362.7	0.16856	-0.15684	0.99942
2.338	79.511	-23102	2363	0.16924	-0.15704	0.99991
2.34	79.531	-23103	2363.2	0.16992	-0.15723	1.0004
2.342	79.536	-23104	2363.5	0.1706	-0.15743	1.0009
2.344	79.541	-23105	2363.7	0.17129	-0.15762	1.0014
2.346	79.554	-23107	2363.9	0.17187	-0.15792	1.0018
2.348	79.554	-23108	2364.1	0.17246	-0.15821	1.0022
2.35	79.545	-23103	2364.3	0.17304	-0.1585	1.0025
2.352	79.543	-23098	2364.5	0.17363	-0.1588	1.0029
2.354	79.54	-23095	2364.7	0.17422	-0.15909	1.0033
2.356	79.539	-23091	2364.8	0.17422	-0.15919	1.0028
2.358	79.535	-23089	2365	0.17422	-0.15928	1.0024
2.36	79.53	-23088	2365.1	0.17422	-0.15938	1.0019
2.362	79.554	-23095	2365.3	0.17422	-0.15948	1.0014
2.364	79.587	-23101	2365.4	0.17422	-0.15958	1.0009
2.366	79.583	-23107	2365.5	0.17451	-0.16006	1.0002
2.368	79.578	-23113	2365.7	0.1748	-0.16055	0.99952
2.37	79.604	-23113	2365.8	0.17509	-0.16104	0.99884
2.372	79.626	-23114	2365.9	0.17539	-0.16153	0.99816
2.374	79.639	-23108	2366	0.17568	-0.16202	0.99747
2.376	79.64	-23103	2366	0.17578	-0.16231	0.99825
2.378	79.627	-23097	2366.1	0.17588	-0.1626	0.99903
2.38	79.619	-23092	2366.2	0.17597	-0.16289	0.99981
2.382	79.635	-23088	2366.2	0.17607	-0.16319	1.0006
2.384	79.638	-23084	2366.2	0.17617	-0.16348	1.0014
2.386	79.62	-23087	2366.3	0.17461	-0.16211	1.0009
2.388	79.626	-23090	2366.3	0.17304	-0.16075	1.0004
2.39	79.633	-23086	2366.4	0.17148	-0.15938	0.99991
2.392	79.634	-23081	2366.5	0.16992	-0.15801	0.99942
2.394	79.647	-23073	2366.5	0.16836	-0.15665	0.99894
2.396	79.645	-23065	2366.6	0.16856	-0.15675	0.99884
2.398	79.634	-23068	2366.6	0.16875	-0.15684	0.99874
2.4	79.633	-23072	2366.6	0.16895	-0.15694	0.99864
2.402	79.678	-23071	2366.6	0.16914	-0.15704	0.99855
2.404	79.681	-23071	2366.6	0.16934	-0.15714	0.99845
2.406	79.68	-23069	2366.7	0.16924	-0.15714	0.99913
2.408	79.662	-23067	2366.7	0.16914	-0.15714	0.99981
2.41	79.652	-23066	2366.8	0.16904	-0.15714	1.0005
2.412	79.676	-23066	2366.9	0.16895	-0.15714	1.0012
2.414	79.675	-23063	2367	0.16885	-0.15714	1.0019
2.416	79.658	-23061	2367	0.16904	-0.15723	1.0023
2.418	79.664	-23058	2367.1	0.16924	-0.15733	1.0026
2.42	79.677	-23054	2367.1	0.16943	-0.15743	1.003
2.422	79.664	-23057	2367.1	0.16963	-0.15753	1.0034
2.424	79.664	-23060	2367.1	0.16982	-0.15762	1.0038
2.426	79.673	-23061	2367.1	0.16934	-0.15743	1.0034
2.428	79.704	-23062	2367.1	0.16885	-0.15723	1.003
2.43	79.7	-23058	2367.1	0.16836	-0.15704	1.0026
2.432	79.672	-23054	2367.1	0.16787	-0.15684	1.0023
2.434	79.653	-23049	2367.1	0.16738	-0.15665	1.0019
2.436	79.643	-23043	2367.1	0.16797	-0.15704	1.0024
2.438	79.653	-23041	2367	0.16856	-0.15743	1.003
2.44	79.653	-23038	2367	0.16914	-0.15782	1.0036
2.442	79.649	-23041	2367	0.16973	-0.15821	1.0042
2.444	79.667	-23044	2367	0.17031	-0.1586	1.0048
2.446	79.669	-23044	2366.8	0.17041	-0.15899	1.0039
2.448	79.652	-23044	2366.7	0.17051	-0.15938	1.003
2.45	79.652	-23044	2366.6	0.1706	-0.15977	1.0022
2.452	79.667	-23044	2366.5	0.1707	-0.16016	1.0013
2.454	79.676	-23042	2366.4	0.1708	-0.16055	1.0004
2.456	79.674	-23040	2366.2	0.1706	-0.16026	1.0008
2.458	79.664	-23036	2366.1	0.17041	-0.15997	1.0012
2.46	79.662	-23032	2365.9	0.17021	-0.15967	1.0016
2.462	79.671	-23029	2365.7	0.17002	-0.15938	1.002
2.464	79.684	-23025	2365.5	0.16982	-0.15909	1.0024
2.466	79.685	-23025	2365.3	0.16768	-0.16045	1.0015
2.468	79.671	-23026	2365.1	0.16553	-0.16182	1.0006
2.47	79.668	-23029	2364.9	0.16338	-0.16319	0.99972
2.472	79.692	-23032	2364.8	0.16124	-0.16455	0.99884
2.474	79.674	-23030	2364.6	0.15909	-0.16592	0.99796
2.476	79.65	-23027	2364.4	0.15958	-0.16582	0.99816
2.478	79.626	-23023	2364.2	0.16006	-0.16572	0.99835
2.48	79.637	-23020	2364	0.16055	-0.16563	0.99855
2.482	79.66	-23022	2363.7	0.16104	-0.16553	0.99874
2.484	79.678	-23024	2363.5	0.16153	-0.16543	0.99894
2.486	79.677	-23023	2363.4	0.16163	-0.16485	0.99923
2.488	79.65	-23022	2363.2	0.16172	-0.16426	0.99952
2.49	79.655	-23015	2363.1	0.16182	-0.16368	0.99981
2.492	79.642	-23009	2362.9	0.16192	-0.16309	1.0001
2.494	79.652	-23012	2362.8	0.16202	-0.1625	1.0004
2.496	79.683	-23016	2362.6	0.16065	-0.16202	0.99952
2.498	79.653	-23014	2362.5	0.15928	-0.16153	0.99864
2.5	79.635	-23013	2362.4	0.15792	-0.16104	0.99776
2.502	79.652	-23016	2362.4	0.15655	-0.16055	0.99689
2.504	79.634	-23019	2362.3	0.15518	-0.16006	0.99601
2.506	79.621	-23014	2362.3	0.15528	-0.15928	0.9963
2.508	79.615	-23009	2362.3	0.15538	-0.1585	0.99659
2.51	79.61	-23011	2362.2	0.15548	-0.15772	0.99689
2.512	79.62	-23012	2362.2	0.15557	-0.15694	0.99718
2.514	79.658	-23015	2362.2	0.15567	-0.15616	0.99747
2.516	79.679	-23018	2362.3	0.15538	-0.15636	0.9965
2.518	79.675	-23015	2362.3	0.15509	-0.15655	0.99552
2.52	79.638	-23013	2362.4	0.15479	-0.15675	0.99454
2.522	79.622	-23011	2362.4	0.1545	-0.15694	0.99357
2.524	79.647	-23008	2362.4	0.15421	-0.15714	0.99259
2.526	79.662	-23011	2362.4	0.15694	-0.15733	0.99132
2.528	79.658	-23013	2362.5	0.15967	-0.15753	0.99005
2.53	79.641	-23011	2362.5	0.16241	-0.15772	0.98879
2.532	79.619	-23008	2362.5	0.16514	-0.15792	0.98752
2.534	79.622	-23008	2362.6	0.16787	-0.15811	0.98625
2.536	79.631	-23008	2362.6	0.16846	-0.15909	0.98683
2.538	79.629	-23015	2362.6	0.16904	-0.16006	0.98742
2.54	79.635	-23023	2362.7	0.16963	-0.16104	0.988
2.542	79.647	-23021	2362.7	0.17021	-0.16202	0.98859
2.544	79.649	-23018	2362.7	0.1708	-0.16299	0.98918
2.546	79.646	-23018	2362.7	0.17119	-0.16309	0.98888
2.548	79.645	-23017	2362.7	0.17158	-0.16319	0.98859
2.55	79.649	-23015	2362.7	0.17197	-0.16328	0.9883
2.552	79.696	-23013	2362.7	0.17236	-0.16338	0.988
2.554	79.702	-23011	2362.7	0.17275	-0.16348	0.98771
2.556	79.657	-23008	2362.7	0.17207	-0.16299	0.988
2.558	79.631	-23012	2362.6	0.17139	-0.1625	0.9883
2.56	79.637	-23016	2362.6	0.1707	-0.16202	0.98859
2.562	79.652	-23013	2362.6	0.17002	-0.16153	0.98888
2.564	79.637	-23011	2362.5	0.16934	-0.16104	0.98918
2.566	79.641	-23017	2362.5	0.16904	-0.16026	0.98859
2.568	79.635	-23022	2362.5	0.16875	-0.15948	0.988
2.57	79.626	-23015	2362.5	0.16846	-0.1587	0.98742
2.572	79.641	-23008	2362.5	0.16816	-0.15792	0.98683
2.574	79.635	-23006	2362.5	0.16787	-0.15714	0.98625
2.576	79.631	-23004	2362.4	0.1667	-0.15801	0.98527
2.578	79.64	-23009	2362.4	0.16553	-0.15889	0.9843
2.58	79.644	-23013	2362.3	0.16436	-0.15977	0.98332
2.582	79.636	-23012	2362.3	0.16319	-0.16065	0.98234
2.584	79.666	-23011	2362.3	0.16202	-0.16153	0.98137
2.586	79.67	-23020	2362.3	0.1627	-0.16163	0.98195
2.588	79.643	-23029	2362.3	0.16338	-0.16172	0.98254
2.59	79.647	-23017	2362.3	0.16407	-0.16182	0.98312
2.592	79.639	-23006	2362.2	0.16475	-0.16192	0.98371
2.594	79.632	-23015	2362.2	0.16543	-0.16202	0.9843
2.596	79.628	-23023	2362.1	0.1669	-0.16192	0.98449
2.598	79.627	-23020	2362.1	0.16836	-0.16182	0.98469
2.6	79.61	-23017	2362.1	0.16982	-0.16172	0.98488
2.602	79.602	-23015	2362	0.17129	-0.16163	0.98508
2.604	79.601	-23013	2362	0.17275	-0.16153	0.98527
2.606	79.599	-23020	2361.9	0.17119	-0.16104	0.98469
2.608	79.607	-23027	2361.9	0.16963	-0.16055	0.9841
2.61	79.605	-23026	2361.9	0.16807	-0.16006	0.98352
2.612	79.585	-23025	2361.8	0.16651	-0.15958	0.98293
2.614	79.581	-23026	2361.8	0.16494	-0.15909	0.98234
2.616	79.589	-23026	2361.7	0.16446	-0.15987	0.98273
2.618	79.589	-23023	2361.7	0.16397	-0.16065	0.98312
2.62	79.594	-23021	2361.6	0.16348	-0.16143	0.98352
2.622	79.605	-23026	2361.5	0.16299	-0.16221	0.98391
2.624	79.604	-23031	2361.5	0.1625	-0.16299	0.9843
2.626	79.61	-23029	2361.4	0.16368	-0.16182	0.98439
2.628	79.625	-23027	2361.3	0.16485	-0.16065	0.98449
2.63	79.622	-23023	2361.3	0.16602	-0.15948	0.98459
2.632	79.616	-23018	2361.2	0.16719	-0.15831	0.98469
2.634	79.621	-23022	2361.1	0.16836	-0.15714	0.98478
2.636	79.623	-23026	2361	0.16856	-0.15772	0.98517
2.638	79.629	-23021	2360.9	0.16875	-0.15831	0.98556
2.64	79.611	-23015	2360.8	0.16895	-0.15889	0.98596
2.642	79.589	-23022	2360.7	0.16914	-0.15948	0.98635
2.644	79.584	-23030	2360.7	0.16934	-0.16006	0.98674
2.646	79.577	-23031	2360.6	0.16865	-0.15909	0.98732
2.648	79.571	-23033	2360.5	0.16797	-0.15811	0.98791
2.65	79.574	-23031	2360.4	0.16729	-0.15714	0.98849
2.652	79.579	-23029	2360.3	0.1666	-0.15616	0.98908
2.654	79.575	-23032	2360.2	0.16592	-0.15518	0.98966
2.656	79.59	-23034	2360.1	0.16592	-0.15616	0.98996
2.658	79.567	-23034	2360	0.16592	-0.15714	0.99025
2.66	79.564	-23033	2359.9	0.16592	-0.15811	0.99054
2.662	79.604	-23034	2359.8	0.16592	-0.15909	0.99084
2.664	79.635	-23034	2359.7	0.16592	-0.16006	0.99113
2.666	79.64	-23030	2359.6	0.16465	-0.16075	0.99103
2.668	79.637	-23027	2359.5	0.16338	-0.16143	0.99093
2.67	79.682	-23029	2359.4	0.16211	-0.16211	0.99084
2.672	79.7	-23030	2359.3	0.16084	-0.1628	0.99074
2.674	79.701	-23032	2359.1	0.15958	-0.16348	0.99064
2.676	79.674	-23033	2359	0.16006	-0.16221	0.99113
2.678	79.654	-23037	2358.9	0.16055	-0.16094	0.99162
2.68	79.655	-23040	2358.8	0.16104	-0.15967	0.9921
2.682	79.681	-23036	2358.7	0.16153	-0.1584	0.99259
2.684	79.68	-23032	2358.5	0.16202	-0.15714	0.99308
2.686	79.669	-23033	2358.4	0.16036	-0.15704	0.99376
2.688	79.671	-23034	2358.3	0.1587	-0.15694	0.99445
2.69	79.665	-23042	2358.2	0.15704	-0.15684	0.99513
2.692	79.647	-23050	2358.2	0.15538	-0.15675	0.99581
2.694	79.658	-23046	2358.1	0.15372	-0.15665	0.9965
2.696	79.691	-23042	2358.1	0.15411	-0.15675	0.99698
2.698	79.705	-23042	2358	0.1545	-0.15684	0.99747
2.7	79.693	-23041	2357.9	0.15489	-0.15694	0.99796
2.702	79.69	-23041	2357.8	0.15528	-0.15704	0.99845
2.704	79.707	-23041	2357.8	0.15567	-0.15714	0.99894
2.706	79.715	-23042	2357.7	0.15626	-0.15821	0.99796
2.708	79.693	-23044	2357.6	0.15684	-0.15928	0.99698
2.71	79.658	-23045	2357.6	0.15743	-0.16036	0.99601
2.712	79.652	-23046	2357.5	0.15801	-0.16143	0.99503
2.714	79.661	-23041	2357.5	0.1586	-0.1625	0.99406
2.716	79.681	-23037	2357.5	0.15782	-0.16192	0.99474
2.718	79.696	-23041	2357.5	0.15704	-0.16133	0.99542
2.72	79.677	-23045	2357.5	0.15626	-0.16075	0.99611
2.722	79.658	-23044	2357.4	0.15548	-0.16016	0.99679
2.724	79.657	-23043	2357.4	0.1547	-0.15958	0.99747
2.726	79.662	-23037	2357.3	0.15509	-0.15928	0.99776
2.728	79.685	-23031	2357.3	0.15548	-0.15899	0.99806
2.73	79.715	-23037	2357.3	0.15587	-0.1587	0.99835
2.732	79.741	-23043	2357.3	0.15626	-0.1584	0.99864
2.734	79.764	-23049	2357.2	0.15665	-0.15811	0.99894
2.736	79.773	-23055	2357.2	0.1586	-0.15782	0.99981
2.738	79.761	-23056	2357.2	0.16055	-0.15753	1.0007
2.74	79.715	-23058	2357.1	0.1625	-0.15723	1.0016
2.742	79.656	-23056	2357.1	0.16446	-0.15694	1.0024
2.744	79.617	-23054	2357	0.16641	-0.15665	1.0033
2.746	79.522	-23052	2357	0.16651	-0.15606	1.0045
2.748	79.428	-23050	2357	0.1666	-0.15548	1.0057
2.75	79.341	-23053	2357	0.1667	-0.15489	1.0068
2.752	79.252	-23055	2357	0.1668	-0.15431	1.008
2.754	79.16	-23054	2357	0.1669	-0.15372	1.0092
2.756	79.006	-23053	2357.1	0.16777	-0.15333	1.0083
2.758	78.854	-23054	2357.1	0.16865	-0.15294	1.0074
2.76	78.749	-23055	2357.1	0.16953	-0.15255	1.0065
2.762	78.683	-23055	2357.1	0.17041	-0.15216	1.0057
2.764	78.62	-23056	2357.1	0.17129	-0.15177	1.0048
2.766	78.599	-23057	2357.1	0.17168	-0.15284	1.0042
2.768	78.644	-23058	2357.1	0.17207	-0.15392	1.0036
2.77	78.76	-23059	2357.1	0.17246	-0.15499	1.003
2.772	78.887	-23061	2357.1	0.17285	-0.15606	1.0024
2.774	79.034	-23063	2357.1	0.17324	-0.15714	1.0019
2.776	79.201	-23066	2357	0.17187	-0.15675	1.0021
2.778	79.363	-23069	2356.9	0.17051	-0.15636	1.0023
2.78	79.52	-23073	2356.9	0.16914	-0.15596	1.0024
2.782	79.657	-23073	2356.8	0.16777	-0.15557	1.0026
2.784	79.737	-23073	2356.8	0.16641	-0.15518	1.0028
2.786	79.759	-23074	2356.7	0.1668	-0.15479	1.0039
2.788	79.763	-23075	2356.6	0.16719	-0.1544	1.005
2.79	79.753	-23076	2356.5	0.16758	-0.15401	1.0061
2.792	79.739	-23078	2356.4	0.16797	-0.15362	1.0071
2.794	79.741	-23080	2356.3	0.16836	-0.15323	1.0082
2.796	79.71	-23081	2356.3	0.16787	-0.15323	1.0089
2.798	79.676	-23079	2356.2	0.16738	-0.15323	1.0096
2.8	79.665	-23077	2356.2	0.1669	-0.15323	1.0103
2.802	79.658	-23076	2356	0.16641	-0.15323	1.0109
2.804	79.63	-23076	2355.9	0.16592	-0.15323	1.0116
2.806	79.611	-23077	2355.9	0.16612	-0.15343	1.0107
2.808	79.6	-23078	2355.9	0.16631	-0.15362	1.0099
2.81	79.582	-23080	2355.8	0.16651	-0.15382	1.009
2.812	79.586	-23082	2355.7	0.1667	-0.15401	1.0081
2.814	79.601	-23083	2355.7	0.1669	-0.15421	1.0072
2.816	79.615	-23084	2355.6	0.16816	-0.15499	1.006
2.818	79.632	-23085	2355.5	0.16943	-0.15577	1.0047
2.82	79.654	-23087	2355.5	0.1707	-0.15655	1.0034
2.822	79.644	-23088	2355.4	0.17197	-0.15733	1.0022
2.824	79.626	-23090	2355.3	0.17324	-0.15811	1.0009
2.826	79.603	-23089	2355.2	0.17324	-0.15762	1.001
2.828	79.633	-23089	2355.2	0.17324	-0.15714	1.0011
2.83	79.653	-23084	2355.1	0.17324	-0.15665	1.0012
2.832	79.636	-23079	2355.1	0.17324	-0.15616	1.0013
2.834	79.619	-23082	2355	0.17324	-0.15567	1.0014
2.836	79.626	-23085	2355	0.171	-0.15606	1.0008
2.838	79.622	-23086	2355	0.16875	-0.15645	1.0002
2.84	79.645	-23088	2354.9	0.16651	-0.15684	0.99962
2.842	79.621	-23089	2354.8	0.16426	-0.15723	0.99903
2.844	79.592	-23090	2354.8	0.16202	-0.15762	0.99845
2.846	79.603	-23091	2354.7	0.16416	-0.15714	0.99952
2.848	79.604	-23092	2354.7	0.16631	-0.15665	1.0006
2.85	79.592	-23091	2354.7	0.16846	-0.15616	1.0017
2.852	79.607	-23091	2354.7	0.1706	-0.15567	1.0027
2.854	79.622	-23093	2354.7	0.17275	-0.15518	1.0038
2.856	79.622	-23095	2354.7	0.17265	-0.15606	1.0025
2.858	79.603	-23093	2354.7	0.17256	-0.15694	1.0013
2.86	79.578	-23091	2354.7	0.17246	-0.15782	1
2.862	79.583	-23098	2354.7	0.17236	-0.1587	0.99874
2.864	79.587	-23105	2354.6	0.17226	-0.15958	0.99747
2.866	79.583	-23105	2354.6	0.17012	-0.15967	0.99737
2.868	79.592	-23104	2354.6	0.16797	-0.15977	0.99728
2.87	79.602	-23110	2354.5	0.16582	-0.15987	0.99718
2.872	79.618	-23115	2354.6	0.16368	-0.15997	0.99708
2.874	79.628	-23115	2354.6	0.16153	-0.16006	0.99698
2.876	79.617	-23116	2354.5	0.16211	-0.15958	0.99659
2.878	79.609	-23118	2354.5	0.1627	-0.15909	0.9962
2.88	79.605	-23120	2354.5	0.16328	-0.1586	0.99581
2.882	79.594	-23127	2354.5	0.16387	-0.15811	0.99542
2.884	79.583	-23134	2354.6	0.16446	-0.15762	0.99503
2.886	79.58	-23122	2354.6	0.16465	-0.15694	0.99552
2.888	79.565	-23110	2354.7	0.16485	-0.15626	0.99601
2.89	79.56	-23110	2354.6	0.16504	-0.15557	0.9965
2.892	79.553	-23110	2354.6	0.16524	-0.15489	0.99698
2.894	79.534	-23107	2354.5	0.16543	-0.15421	0.99747
2.896	79.529	-23103	2354.5	0.16651	-0.15479	0.9964
2.898	79.549	-23106	2354.5	0.16758	-0.15538	0.99532
2.9	79.574	-23109	2354.5	0.16865	-0.15596	0.99425
2.902	79.551	-23113	2354.5	0.16973	-0.15655	0.99318
2.904	79.55	-23116	2354.5	0.1708	-0.15714	0.9921
2.906	79.542	-23119	2354.5	0.17158	-0.15821	0.99171
2.908	79.524	-23123	2354.4	0.17236	-0.15928	0.99132
2.91	79.527	-23124	2354.4	0.17314	-0.16036	0.99093
2.912	79.539	-23124	2354.4	0.17392	-0.16143	0.99054
2.914	79.536	-23122	2354.3	0.1747	-0.1625	0.99015
2.916	79.518	-23121	2354.4	0.17402	-0.16328	0.99035
2.918	79.52	-23116	2354.4	0.17334	-0.16407	0.99054
2.92	79.507	-23111	2354.4	0.17265	-0.16485	0.99074
2.922	79.506	-23114	2354.5	0.17197	-0.16563	0.99093
2.924	79.508	-23116	2354.5	0.17129	-0.16641	0.99113
2.926	79.49	-23122	2354.6	0.17168	-0.16621	0.99015
2.928	79.485	-23128	2354.7	0.17207	-0.16602	0.98918
2.93	79.486	-23136	2354.8	0.17246	-0.16582	0.9882
2.932	79.475	-23144	2354.8	0.17285	-0.16563	0.98722
2.934	79.47	-23143	2354.9	0.17324	-0.16543	0.98625
2.936	79.489	-23142	2355	0.17139	-0.16465	0.98566
2.938	79.488	-23141	2355.1	0.16953	-0.16387	0.98508
2.94	79.504	-23139	2355.3	0.16768	-0.16309	0.98449
2.942	79.502	-23140	2355.4	0.16582	-0.16231	0.98391
2.944	79.472	-23141	2355.6	0.16397	-0.16153	0.98332
2.946	79.451	-23138	2355.8	0.16485	-0.16133	0.98332
2.948	79.473	-23134	2356	0.16572	-0.16114	0.98332
2.95	79.494	-23134	2356.2	0.1666	-0.16094	0.98332
2.952	79.475	-23133	2356.5	0.16748	-0.16075	0.98332
2.954	79.459	-23138	2356.8	0.16836	-0.16055	0.98332
2.956	79.453	-23142	2357.1	0.16816	-0.16036	0.98352
2.958	79.453	-23141	2357.4	0.16797	-0.16016	0.98371
2.96	79.469	-23139	2357.7	0.16777	-0.15997	0.98391
2.962	79.479	-23135	2358	0.16758	-0.15977	0.9841
2.964	79.476	-23132	2358.3	0.16738	-0.15958	0.9843
2.966	79.473	-23133	2358.6	0.16553	-0.16026	0.98352
2.968	79.455	-23135	2358.9	0.16368	-0.16094	0.98273
2.97	79.427	-23138	2359.3	0.16182	-0.16163	0.98195
2.972	79.413	-23141	2359.6	0.15997	-0.16231	0.98117
2.974	79.424	-23144	2360	0.15811	-0.16299	0.98039
2.976	79.438	-23147	2360.3	0.1588	-0.16407	0.98117
2.978	79.44	-23141	2360.7	0.15948	-0.16514	0.98195
2.98	79.47	-23135	2361	0.16016	-0.16621	0.98273
2.982	79.5	-23136	2361.2	0.16084	-0.16729	0.98352
2.984	79.5	-23137	2361.5	0.16153	-0.16836	0.9843
2.986	79.484	-23137	2361.8	0.16065	-0.16768	0.98391
2.988	79.469	-23136	2362.1	0.15977	-0.16699	0.98352
2.99	79.462	-23135	2362.3	0.15889	-0.16631	0.98312
2.992	79.467	-23134	2362.5	0.15801	-0.16563	0.98273
2.994	79.467	-23137	2362.7	0.15714	-0.16494	0.98234
2.996	79.434	-23140	2363	0.15714	-0.16533	0.98215
2.998	79.444	-23132	2363.2	0.15714	-0.16572	0.98195
3	79.471	-23124	2363.5	0.15714	-0.16612	0.98176
3.002	79.472	-23132	2363.7	0.15714	-0.16651	0.98156
3.004	79.49	-23139	2363.8	0.15714	-0.1669	0.98137
3.006	79.5	-23129	2364	0.1586	-0.1666	0.98254
3.008	79.505	-23119	2364.2	0.16006	-0.16631	0.98371
3.01	79.499	-23122	2364.4	0.16153	-0.16602	0.98488
3.012	79.505	-23125	2364.6	0.16299	-0.16572	0.98605
3.014	79.53	-23119	2364.7	0.16446	-0.16543	0.98722
3.016	79.559	-23114	2364.9	0.16368	-0.16572	0.98664
3.018	79.564	-23119	2365.1	0.16289	-0.16602	0.98605
3.02	79.558	-23124	2365.2	0.16211	-0.16631	0.98547
3.022	79.558	-23120	2365.3	0.16133	-0.1666	0.98488
3.024	79.559	-23116	2365.5	0.16055	-0.1669	0.9843
3.026	79.529	-23121	2365.5	0.16163	-0.16621	0.98488
3.028	79.513	-23127	2365.6	0.1627	-0.16553	0.98547
3.03	79.543	-23118	2365.7	0.16377	-0.16485	0.98605
3.032	79.577	-23110	2365.8	0.16485	-0.16416	0.98664
3.034	79.601	-23110	2365.9	0.16592	-0.16348	0.98722
3.036	79.616	-23110	2365.9	0.16543	-0.16416	0.98771
3.038	79.613	-23108	2366	0.16494	-0.16485	0.9882
3.04	79.595	-23106	2366.1	0.16446	-0.16553	0.98869
3.042	79.582	-23111	2366.1	0.16397	-0.16621	0.98918
3.044	79.586	-23116	2366.2	0.16348	-0.1669	0.98966
3.046	79.602	-23110	2366.3	0.16104	-0.1666	0.99093
3.048	79.611	-23104	2366.3	0.1586	-0.16631	0.9922
3.05	79.603	-23106	2366.4	0.15616	-0.16602	0.99347
3.052	79.602	-23107	2366.4	0.15372	-0.16572	0.99474
3.054	79.602	-23103	2366.5	0.15128	-0.16543	0.99601
3.056	79.609	-23098	2366.5	0.15421	-0.16592	0.99445
3.058	79.641	-23101	2366.6	0.15714	-0.16641	0.99288
3.06	79.647	-23103	2366.6	0.16006	-0.1669	0.99132
3.062	79.643	-23098	2366.6	0.16299	-0.16738	0.98976
3.064	79.627	-23093	2366.6	0.16592	-0.16787	0.9882
3.066	79.627	-23094	2366.6	0.16592	-0.1666	0.98879
3.068	79.618	-23094	2366.6	0.16592	-0.16533	0.98937
3.07	79.603	-23091	2366.6	0.16592	-0.16407	0.98996
3.072	79.598	-23088	2366.5	0.16592	-0.1628	0.99054
3.074	79.595	-23090	2366.5	0.16592	-0.16153	0.99113
3.076	79.622	-23092	2366.4	0.16494	-0.16319	0.9923
3.078	79.651	-23087	2366.4	0.16397	-0.16485	0.99347
3.08	79.661	-23082	2366.3	0.16299	-0.16651	0.99464
3.082	79.65	-23083	2366.3	0.16202	-0.16816	0.99581
3.084	79.623	-23083	2366.3	0.16104	-0.16982	0.99698
3.086	79.6	-23077	2366.3	0.15997	-0.16992	0.99708
3.088	79.604	-23072	2366.3	0.15889	-0.17002	0.99718
3.09	79.647	-23076	2366.2	0.15782	-0.17012	0.99728
3.092	79.638	-23081	2366.2	0.15675	-0.17021	0.99737
3.094	79.616	-23073	2366.1	0.15567	-0.17031	0.99747
3.096	79.627	-23065	2366	0.15655	-0.16963	0.99757
3.098	79.625	-23068	2365.9	0.15743	-0.16895	0.99767
3.1	79.629	-23071	2365.8	0.15831	-0.16826	0.99776
3.102	79.643	-23077	2365.6	0.15919	-0.16758	0.99786
3.104	79.642	-23084	2365.5	0.16006	-0.1669	0.99796
3.106	79.635	-23078	2365.3	0.16124	-0.16592	0.99845
3.108	79.654	-23072	2365.1	0.16241	-0.16494	0.99894
3.11	79.655	-23071	2365	0.16358	-0.16397	0.99942
3.112	79.636	-23070	2364.8	0.16475	-0.16299	0.99991
3.114	79.627	-23064	2364.6	0.16592	-0.16202	1.0004
3.116	79.633	-23058	2364.3	0.16651	-0.16299	1.0014
3.118	79.641	-23055	2364.1	0.16709	-0.16397	1.0024
3.12	79.641	-23052	2363.9	0.16768	-0.16494	1.0033
3.122	79.625	-23056	2363.7	0.16826	-0.16592	1.0043
3.124	79.609	-23060	2363.4	0.16885	-0.1669	1.0053
3.126	79.601	-23059	2363.2	0.16953	-0.16602	1.0044
3.128	79.589	-23057	2363	0.17021	-0.16514	1.0035
3.13	79.585	-23060	2362.8	0.1709	-0.16426	1.0026
3.132	79.601	-23063	2362.5	0.17158	-0.16338	1.0018
3.134	79.621	-23056	2362.3	0.17226	-0.1625	1.0009
3.136	79.636	-23049	2362.2	0.1706	-0.16202	1.0003
3.138	79.632	-23050	2362	0.16895	-0.16153	0.99972
3.14	79.621	-23051	2361.9	0.16729	-0.16104	0.99913
3.142	79.612	-23051	2361.7	0.16563	-0.16055	0.99855
3.144	79.616	-23051	2361.6	0.16397	-0.16006	0.99796
3.146	79.618	-23053	2361.4	0.16582	-0.16065	0.99835
3.148	79.622	-23054	2361.3	0.16768	-0.16124	0.99874
3.15	79.616	-23054	2361.2	0.16953	-0.16182	0.99913
3.152	79.589	-23054	2361.1	0.17139	-0.16241	0.99952
3.154	79.62	-23051	2361	0.17324	-0.16299	0.99991
3.156	79.622	-23048	2360.9	0.17334	-0.16319	1.0012
3.158	79.587	-23046	2360.8	0.17344	-0.16338	1.0024
3.16	79.582	-23043	2360.7	0.17353	-0.16358	1.0037
3.162	79.571	-23049	2360.6	0.17363	-0.16377	1.005
3.164	79.574	-23054	2360.6	0.17373	-0.16397	1.0063
3.166	79.59	-23053	2360.5	0.17373	-0.16446	1.0061
3.168	79.584	-23052	2360.4	0.17373	-0.16494	1.0059
3.17	79.552	-23047	2360.3	0.17373	-0.16543	1.0057
3.172	79.584	-23043	2360.3	0.17373	-0.16592	1.0055
3.174	79.613	-23043	2360.3	0.17373	-0.16641	1.0053
3.176	79.599	-23044	2360.3	0.17422	-0.16592	1.0052
3.178	79.594	-23047	2360.2	0.1747	-0.16543	1.0051
3.18	79.627	-23050	2360.2	0.17519	-0.16494	1.005
3.182	79.638	-23047	2360.2	0.17568	-0.16446	1.0049
3.184	79.64	-23043	2360.1	0.17617	-0.16397	1.0048
3.186	79.626	-23045	2360.1	0.17558	-0.16368	1.0048
3.188	79.612	-23047	2360.1	0.175	-0.16338	1.0048
3.19	79.62	-23053	2360	0.17441	-0.16309	1.0048
3.192	79.612	-23059	2360	0.17383	-0.1628	1.0048
3.194	79.611	-23054	2359.9	0.17324	-0.1625	1.0048
3.196	79.63	-23050	2359.9	0.17353	-0.16309	1.0042
3.198	79.641	-23051	2359.9	0.17383	-0.16368	1.0036
3.2	79.635	-23052	2359.9	0.17412	-0.16426	1.003
3.202	79.591	-23050	2360	0.17441	-0.16485	1.0024
3.204	79.567	-23049	2360	0.1747	-0.16543	1.0019
3.206	79.59	-23048	2360	0.17451	-0.16494	1.0016
3.208	79.619	-23048	2360	0.17431	-0.16446	1.0013
3.21	79.614	-23048	2360	0.17412	-0.16397	1.001
3.212	79.6	-23048	2360	0.17392	-0.16348	1.0007
3.214	79.589	-23053	2360	0.17373	-0.16299	1.0004
3.216	79.582	-23059	2360	0.17207	-0.16221	0.99962
3.218	79.583	-23057	2360	0.17041	-0.16143	0.99884
3.22	79.578	-23054	2360	0.16875	-0.16065	0.99806
3.222	79.607	-23052	2360	0.16709	-0.15987	0.99728
3.224	79.641	-23050	2360	0.16543	-0.15909	0.9965
3.226	79.64	-23055	2360	0.16612	-0.15919	0.99659
3.228	79.637	-23059	2360	0.1668	-0.15928	0.99669
3.23	79.616	-23054	2360	0.16748	-0.15938	0.99679
3.232	79.598	-23049	2360	0.16816	-0.15948	0.99689
3.234	79.607	-23048	2359.9	0.16885	-0.15958	0.99698
3.236	79.625	-23047	2359.9	0.16953	-0.16016	0.99757
3.238	79.608	-23048	2359.9	0.17021	-0.16075	0.99816
3.24	79.59	-23049	2359.9	0.1709	-0.16133	0.99874
3.242	79.609	-23049	2359.9	0.17158	-0.16192	0.99933
3.244	79.615	-23050	2359.9	0.17226	-0.1625	0.99991
3.246	79.6	-23050	2359.8	0.17041	-0.1625	0.99845
3.248	79.583	-23051	2359.8	0.16856	-0.1625	0.99698
3.25	79.575	-23054	2359.8	0.1667	-0.1625	0.99552
3.252	79.598	-23056	2359.8	0.16485	-0.1625	0.99406
3.254	79.626	-23060	2359.8	0.16299	-0.1625	0.99259
3.256	79.635	-23065	2359.7	0.16397	-0.16182	0.99279
3.258	79.587	-23063	2359.7	0.16494	-0.16114	0.99298
3.26	79.557	-23062	2359.7	0.16592	-0.16045	0.99318
3.262	79.567	-23057	2359.6	0.1669	-0.15977	0.99337
3.264	79.595	-23052	2359.6	0.16787	-0.15909	0.99357
3.266	79.577	-23053	2359.6	0.16797	-0.15919	0.99308
3.268	79.55	-23055	2359.5	0.16807	-0.15928	0.99259
3.27	79.567	-23056	2359.5	0.16816	-0.15938	0.9921
3.272	79.564	-23056	2359.4	0.16826	-0.15948	0.99162
3.274	79.58	-23056	2359.4	0.16836	-0.15958	0.99113
3.276	79.587	-23055	2359.3	0.16719	-0.16075	0.99132
3.278	79.593	-23054	2359.3	0.16602	-0.16192	0.99152
3.28	79.576	-23053	2359.3	0.16485	-0.16309	0.99171
3.282	79.572	-23053	2359.2	0.16368	-0.16426	0.99191
3.284	79.571	-23053	2359.1	0.1625	-0.16543	0.9921
3.286	79.557	-23057	2359	0.16426	-0.16416	0.99162
3.288	79.555	-23062	2359	0.16602	-0.16289	0.99113
3.29	79.547	-23061	2358.9	0.16777	-0.16163	0.99064
3.292	79.554	-23061	2358.9	0.16953	-0.16036	0.99015
3.294	79.574	-23060	2358.8	0.17129	-0.15909	0.98966
3.296	79.578	-23059	2358.7	0.17021	-0.15889	0.99005
3.298	79.578	-23055	2358.7	0.16914	-0.1587	0.99044
3.3	79.579	-23050	2358.6	0.16807	-0.1585	0.99084
3.302	79.561	-23052	2358.5	0.16699	-0.15831	0.99123
3.304	79.547	-23053	2358.5	0.16592	-0.15811	0.99162
3.306	79.556	-23057	2358.4	0.16387	-0.15977	0.99191
3.308	79.558	-23061	2358.4	0.16182	-0.16143	0.9922
3.31	79.557	-23061	2358.3	0.15977	-0.16309	0.99249
3.312	79.542	-23061	2358.2	0.15772	-0.16475	0.99279
3.314	79.542	-23059	2358.1	0.15567	-0.16641	0.99308
3.316	79.569	-23056	2358.1	0.15636	-0.16621	0.99288
3.318	79.585	-23061	2358	0.15704	-0.16602	0.99269
3.32	79.569	-23066	2358	0.15772	-0.16582	0.99249
3.322	79.564	-23065	2357.9	0.1584	-0.16563	0.9923
3.324	79.584	-23063	2357.8	0.15909	-0.16543	0.9921
3.326	79.595	-23064	2357.8	0.1588	-0.16563	0.9922
3.328	79.605	-23065	2357.8	0.1585	-0.16582	0.9923
3.33	79.612	-23066	2357.7	0.15821	-0.16602	0.9924
3.332	79.63	-23066	2357.7	0.15792	-0.16621	0.99249
3.334	79.648	-23070	2357.6	0.15762	-0.16641	0.99259
3.336	79.642	-23075	2357.6	0.15782	-0.16631	0.9924
3.338	79.622	-23075	2357.5	0.15801	-0.16621	0.9922
3.34	79.61	-23076	2357.5	0.15821	-0.16612	0.99201
3.342	79.636	-23069	2357.4	0.1584	-0.16602	0.99181
3.344	79.636	-23062	2357.4	0.1586	-0.16592	0.99162
3.346	79.626	-23065	2357.3	0.15782	-0.16514	0.99162
3.348	79.678	-23068	2357.3	0.15704	-0.16436	0.99162
3.35	79.697	-23065	2357.2	0.15626	-0.16358	0.99162
3.352	79.693	-23062	2357.1	0.15548	-0.1628	0.99162
3.354	79.661	-23064	2357.1	0.1547	-0.16202	0.99162
3.356	79.624	-23066	2357	0.15401	-0.16231	0.9923
3.358	79.627	-23065	2356.9	0.15333	-0.1626	0.99298
3.36	79.628	-23064	2356.9	0.15265	-0.16289	0.99367
3.362	79.621	-23068	2356.8	0.15196	-0.16319	0.99435
3.364	79.592	-23071	2356.7	0.15128	-0.16348	0.99503
3.366	79.587	-23071	2356.7	0.15304	-0.16377	0.99474
3.368	79.608	-23071	2356.7	0.15479	-0.16407	0.99445
3.37	79.638	-23071	2356.6	0.15655	-0.16436	0.99415
3.372	79.653	-23072	2356.6	0.15831	-0.16465	0.99386
3.374	79.65	-23074	2356.6	0.16006	-0.16494	0.99357
3.376	79.658	-23077	2356.6	0.15919	-0.16465	0.99337
3.378	79.66	-23076	2356.6	0.15831	-0.16436	0.99318
3.38	79.647	-23075	2356.5	0.15743	-0.16407	0.99298
3.382	79.649	-23077	2356.5	0.15655	-0.16377	0.99279
3.384	79.665	-23080	2356.4	0.15567	-0.16348	0.99259
3.386	79.686	-23082	2356.4	0.15626	-0.16387	0.99288
3.388	79.707	-23085	2356.4	0.15684	-0.16426	0.99318
3.39	79.723	-23085	2356.3	0.15743	-0.16465	0.99347
3.392	79.732	-23085	2356.2	0.15801	-0.16504	0.99376
3.394	79.73	-23082	2356.2	0.1586	-0.16543	0.99406
3.396	79.706	-23079	2356.1	0.15821	-0.16533	0.99415
3.398	79.673	-23079	2356	0.15782	-0.16524	0.99425
3.4	79.643	-23080	2356	0.15743	-0.16514	0.99435
3.402	79.617	-23081	2355.9	0.15704	-0.16504	0.99445
3.404	79.547	-23083	2355.9	0.15665	-0.16494	0.99454
3.406	79.409	-23087	2355.8	0.15704	-0.16543	0.99503
3.408	79.327	-23091	2355.7	0.15743	-0.16592	0.99552
3.41	79.254	-23088	2355.7	0.15782	-0.16641	0.99601
3.412	79.153	-23085	2355.6	0.15821	-0.1669	0.9965
3.414	79.014	-23087	2355.5	0.1586	-0.16738	0.99698
3.416	78.876	-23089	2355.5	0.1584	-0.1668	0.9964
3.418	78.765	-23080	2355.5	0.15821	-0.16621	0.99581
3.42	78.652	-23072	2355.4	0.15801	-0.16563	0.99523
3.422	78.55	-23085	2355.3	0.15782	-0.16504	0.99464
3.424	78.523	-23098	2355.2	0.15762	-0.16446	0.99406
3.426	78.508	-23093	2355.2	0.15743	-0.16455	0.99454
3.428	78.58	-23088	2355.1	0.15723	-0.16465	0.99503
3.43	78.755	-23085	2355	0.15704	-0.16475	0.99552
3.432	78.931	-23081	2354.9	0.15684	-0.16485	0.99601
3.434	79.107	-23094	2354.8	0.15665	-0.16494	0.9965
3.436	79.238	-23106	2354.7	0.15762	-0.16524	0.99669
3.438	79.395	-23108	2354.6	0.1586	-0.16553	0.99689
3.44	79.558	-23110	2354.5	0.15958	-0.16582	0.99708
3.442	79.663	-23111	2354.4	0.16055	-0.16612	0.99728
3.444	79.697	-23111	2354.3	0.16153	-0.16641	0.99747
3.446	79.739	-23107	2354.2	0.16172	-0.16631	0.99796
3.448	79.751	-23104	2354.2	0.16192	-0.16621	0.99845
3.45	79.723	-23108	2354.1	0.16211	-0.16612	0.99894
3.452	79.685	-23112	2354	0.16231	-0.16602	0.99942
3.454	79.656	-23113	2354	0.1625	-0.16592	0.99991
3.456	79.648	-23114	2353.9	0.16211	-0.16553	0.99942
3.458	79.602	-23105	2353.9	0.16172	-0.16514	0.99894
3.46	79.55	-23097	2353.8	0.16133	-0.16475	0.99845
3.462	79.544	-23097	2353.8	0.16094	-0.16436	0.99796
3.464	79.566	-23097	2353.8	0.16055	-0.16397	0.99747
3.466	79.594	-23103	2353.8	0.16133	-0.16416	0.99767
3.468	79.602	-23109	2353.7	0.16211	-0.16436	0.99786
3.47	79.596	-23103	2353.7	0.16289	-0.16455	0.99806
3.472	79.595	-23098	2353.7	0.16368	-0.16475	0.99825
3.474	79.58	-23103	2353.8	0.16446	-0.16494	0.99845
3.476	79.554	-23108	2353.7	0.16397	-0.16455	0.99737
3.478	79.546	-23099	2353.7	0.16348	-0.16416	0.9963
3.48	79.554	-23091	2353.6	0.16299	-0.16377	0.99523
3.482	79.59	-23095	2353.5	0.1625	-0.16338	0.99415
3.484	79.622	-23099	2353.4	0.16202	-0.16299	0.99308
3.486	79.607	-23105	2353.4	0.16241	-0.1626	0.99328
3.488	79.594	-23112	2353.3	0.1628	-0.16221	0.99347
3.49	79.628	-23111	2353.2	0.16319	-0.16182	0.99367
3.492	79.621	-23111	2353.2	0.16358	-0.16143	0.99386
3.494	79.594	-23116	2353.2	0.16397	-0.16104	0.99406
3.496	79.602	-23120	2353.1	0.16407	-0.16075	0.99493
3.498	79.611	-23132	2353	0.16416	-0.16045	0.99581
3.5	79.587	-23144	2353	0.16426	-0.16016	0.99669
3.502	79.562	-23142	2352.9	0.16436	-0.15987	0.99757
3.504	79.541	-23141	2352.8	0.16446	-0.15958	0.99845
3.506	79.54	-23140	2352.7	0.16328	-0.16016	0.99776
3.508	79.569	-23139	2352.6	0.16211	-0.16075	0.99708
3.51	79.628	-23139	2352.5	0.16094	-0.16133	0.9964
3.512	79.623	-23139	2352.4	0.15977	-0.16192	0.99572
3.514	79.608	-23141	2352.3	0.1586	-0.1625	0.99503
3.516	79.583	-23142	2352.2	0.1588	-0.16231	0.99464
3.518	79.614	-23137	2352.1	0.15899	-0.16211	0.99425
3.52	79.616	-23132	2352	0.15919	-0.16192	0.99386
3.522	79.593	-23129	2351.9	0.15938	-0.16172	0.99347
3.524	79.59	-23125	2351.8	0.15958	-0.16153	0.99308
3.526	79.583	-23129	2351.6	0.15967	-0.16143	0.99288
3.528	79.545	-23133	2351.5	0.15977	-0.16133	0.99269
3.53	79.521	-23133	2351.4	0.15987	-0.16124	0.99249
3.532	79.545	-23133	2351.3	0.15997	-0.16114	0.9923
3.534	79.556	-23133	2351.3	0.16006	-0.16104	0.9921
3.536	79.556	-23134	2351.2	0.16026	-0.15997	0.99328
3.538	79.557	-23138	2351.2	0.16045	-0.15889	0.99445
3.54	79.551	-23142	2351.2	0.16065	-0.15782	0.99562
3.542	79.552	-23149	2351.2	0.16084	-0.15675	0.99679
3.544	79.559	-23157	2351.2	0.16104	-0.15567	0.99796
3.546	79.542	-23153	2351.2	0.16143	-0.15596	0.99718
3.548	79.527	-23148	2351.2	0.16182	-0.15626	0.9964
3.55	79.537	-23149	2351.2	0.16221	-0.15655	0.99562
3.552	79.543	-23150	2351.2	0.1626	-0.15684	0.99484
3.554	79.535	-23154	2351.3	0.16299	-0.15714	0.99406
3.556	79.526	-23157	2351.3	0.1627	-0.15772	0.99376
3.558	79.524	-23154	2351.2	0.16241	-0.15831	0.99347
3.56	79.518	-23152	2351.2	0.16211	-0.15889	0.99318
3.562	79.506	-23157	2351.2	0.16182	-0.15948	0.99288
3.564	79.509	-23163	2351.2	0.16153	-0.16006	0.99259
3.566	79.518	-23159	2351.2	0.16114	-0.15928	0.99279
3.568	79.504	-23156	2351.2	0.16075	-0.1585	0.99298
3.57	79.496	-23157	2351.2	0.16036	-0.15772	0.99318
3.572	79.532	-23159	2351.2	0.15997	-0.15694	0.99337
3.574	79.551	-23161	2351.2	0.15958	-0.15616	0.99357
3.576	79.527	-23164	2351.2	0.16016	-0.15645	0.99318
3.578	79.516	-23160	2351.1	0.16075	-0.15675	0.99279
3.58	79.505	-23155	2351.1	0.16133	-0.15704	0.9924
3.582	79.526	-23159	2351.2	0.16192	-0.15733	0.99201
3.584	79.512	-23162	2351.2	0.1625	-0.15762	0.99162
3.586	79.504	-23161	2351.3	0.1625	-0.15733	0.99249
3.588	79.497	-23159	2351.3	0.1625	-0.15704	0.99337
3.59	79.49	-23161	2351.4	0.1625	-0.15675	0.99425
3.592	79.486	-23162	2351.5	0.1625	-0.15645	0.99513
3.594	79.485	-23169	2351.6	0.1625	-0.15616	0.99601
3.596	79.491	-23175	2351.8	0.1626	-0.15626	0.99503
3.598	79.49	-23174	2351.9	0.1627	-0.15636	0.99406
3.6	79.463	-23173	2352.1	0.1628	-0.15645	0.99308
3.602	79.45	-23164	2352.3	0.16289	-0.15655	0.9921
3.604	79.431	-23155	2352.5	0.16299	-0.15665	0.99113
3.606	79.43	-23157	2352.8	0.1628	-0.15694	0.99142
3.608	79.453	-23160	2353.1	0.1626	-0.15723	0.99171
3.61	79.446	-23163	2353.3	0.16241	-0.15753	0.99201
3.612	79.43	-23165	2353.6	0.16221	-0.15782	0.9923
3.614	79.415	-23164	2353.8	0.16202	-0.15811	0.99259
3.616	79.417	-23162	2354.2	0.16143	-0.15782	0.99318
3.618	79.428	-23164	2354.5	0.16084	-0.15753	0.99376
3.62	79.436	-23167	2354.9	0.16026	-0.15723	0.99435
3.622	79.439	-23170	2355.2	0.15967	-0.15694	0.99493
3.624	79.456	-23172	2355.6	0.15909	-0.15665	0.99552
3.626	79.446	-23169	2355.9	0.16055	-0.15655	0.99415
3.628	79.436	-23165	2356.3	0.16202	-0.15645	0.99279
3.63	79.439	-23168	2356.6	0.16348	-0.15636	0.99142
3.632	79.437	-23170	2357	0.16494	-0.15626	0.99005
3.634	79.415	-23170	2357.3	0.16641	-0.15616	0.98869
3.636	79.394	-23171	2357.7	0.16543	-0.15606	0.98937
3.638	79.416	-23171	2358.1	0.16446	-0.15596	0.99005
3.64	79.459	-23172	2358.4	0.16348	-0.15587	0.99074
3.642	79.468	-23171	2358.8	0.1625	-0.15577	0.99142
3.644	79.455	-23171	2359.1	0.16153	-0.15567	0.9921
3.646	79.478	-23168	2359.4	0.16289	-0.15528	0.99201
3.648	79.518	-23165	2359.7	0.16426	-0.15489	0.99191
3.65	79.51	-23167	2359.9	0.16563	-0.1545	0.99181
3.652	79.477	-23168	2360.2	0.16699	-0.15411	0.99171
3.654	79.461	-23168	2360.4	0.16836	-0.15372	0.99162
3.656	79.474	-23168	2360.6	0.1669	-0.15479	0.99249
3.658	79.473	-23164	2360.8	0.16543	-0.15587	0.99337
3.66	79.459	-23160	2361	0.16397	-0.15694	0.99425
3.662	79.471	-23161	2361.2	0.1625	-0.15801	0.99513
3.664	79.469	-23162	2361.3	0.16104	-0.15909	0.99601
3.666	79.465	-23161	2361.5	0.16143	-0.15821	0.99601
3.668	79.494	-23160	2361.6	0.16182	-0.15733	0.99601
3.67	79.485	-23159	2361.7	0.16221	-0.15645	0.99601
3.672	79.473	-23158	2361.8	0.1626	-0.15557	0.99601
3.674	79.52	-23156	2361.9	0.16299	-0.1547	0.99601
3.676	79.517	-23154	2362	0.16299	-0.15538	0.99601
3.678	79.496	-23151	2362.1	0.16299	-0.15606	0.99601
3.68	79.491	-23148	2362.2	0.16299	-0.15675	0.99601
3.682	79.511	-23149	2362.3	0.16299	-0.15743	0.99601
3.684	79.527	-23151	2362.3	0.16299	-0.15811	0.99601
3.686	79.547	-23149	2362.4	0.16328	-0.15792	0.99562
3.688	79.541	-23147	2362.4	0.16358	-0.15772	0.99523
3.69	79.513	-23145	2362.4	0.16387	-0.15753	0.99484
3.692	79.525	-23143	2362.4	0.16416	-0.15733	0.99445
3.694	79.559	-23142	2362.4	0.16446	-0.15714	0.99406
3.696	79.554	-23142	2362.4	0.16416	-0.15801	0.99376
3.698	79.518	-23137	2362.5	0.16387	-0.15889	0.99347
3.7	79.534	-23133	2362.5	0.16358	-0.15977	0.99318
3.702	79.578	-23132	2362.5	0.16328	-0.16065	0.99288
3.704	79.589	-23131	2362.5	0.16299	-0.16153	0.99259
3.706	79.585	-23127	2362.6	0.1626	-0.16094	0.99357
3.708	79.579	-23124	2362.6	0.16221	-0.16036	0.99454
3.71	79.599	-23121	2362.7	0.16182	-0.15977	0.99552
3.712	79.614	-23119	2362.8	0.16143	-0.15919	0.9965
3.714	79.609	-23118	2362.9	0.16104	-0.1586	0.99747
3.716	79.607	-23117	2362.9	0.16153	-0.15938	0.99679
3.718	79.606	-23118	2363	0.16202	-0.16016	0.99611
3.72	79.598	-23119	2363.1	0.1625	-0.16094	0.99542
3.722	79.585	-23119	2363.1	0.16299	-0.16172	0.99474
3.724	79.58	-23118	2363.2	0.16348	-0.1625	0.99406
3.726	79.581	-23117	2363.2	0.16319	-0.1627	0.99406
3.728	79.573	-23116	2363.3	0.16289	-0.16289	0.99406
3.73	79.569	-23114	2363.3	0.1626	-0.16309	0.99406
3.732	79.582	-23113	2363.3	0.16231	-0.16328	0.99406
3.734	79.609	-23109	2363.3	0.16202	-0.16348	0.99406
3.736	79.624	-23105	2363.4	0.16163	-0.16465	0.99513
3.738	79.605	-23103	2363.4	0.16124	-0.16582	0.9962
3.74	79.6	-23100	2363.4	0.16084	-0.16699	0.99728
3.742	79.602	-23097	2363.5	0.16045	-0.16816	0.99835
3.744	79.613	-23094	2363.5	0.16006	-0.16934	0.99942
3.746	79.617	-23091	2363.5	0.15997	-0.16846	0.99894
3.748	79.616	-23089	2363.5	0.15987	-0.16758	0.99845
3.75	79.607	-23089	2363.4	0.15977	-0.1667	0.99796
3.752	79.591	-23089	2363.4	0.15967	-0.16582	0.99747
3.754	79.563	-23089	2363.3	0.15958	-0.16494	0.99698
3.756	79.54	-23088	2363.2	0.16075	-0.16524	0.99796
3.758	79.561	-23089	2363.1	0.16192	-0.16553	0.99894
3.76	79.59	-23089	2363	0.16309	-0.16582	0.99991
3.762	79.611	-23088	2362.9	0.16426	-0.16612	1.0009
3.764	79.62	-23088	2362.8	0.16543	-0.16641	1.0019
3.766	79.617	-23088	2362.6	0.16358	-0.16621	1.001
3.768	79.612	-23088	2362.4	0.16172	-0.16602	1.0001
3.77	79.624	-23082	2362.3	0.15987	-0.16582	0.99923
3.772	79.614	-23077	2362.2	0.15801	-0.16563	0.99835
3.774	79.585	-23072	2362	0.15616	-0.16543	0.99747
3.776	79.586	-23067	2361.9	0.15792	-0.16494	0.99845
3.778	79.561	-23072	2361.7	0.15967	-0.16446	0.99942
3.78	79.533	-23077	2361.5	0.16143	-0.16397	1.0004
3.782	79.575	-23079	2361.4	0.16319	-0.16348	1.0014
3.784	79.623	-23081	2361.2	0.16494	-0.16299	1.0024
3.786	79.635	-23080	2361.1	0.16377	-0.16328	1.0021
3.788	79.604	-23078	2360.9	0.1626	-0.16358	1.0018
3.79	79.589	-23075	2360.8	0.16143	-0.16387	1.0015
3.792	79.601	-23072	2360.7	0.16026	-0.16416	1.0012
3.794	79.611	-23068	2360.6	0.15909	-0.16446	1.0009
3.796	79.583	-23064	2360.5	0.16016	-0.16416	1.0004
3.798	79.577	-23065	2360.3	0.16124	-0.16387	0.99991
3.8	79.598	-23065	2360.2	0.16231	-0.16358	0.99942
3.802	79.606	-23066	2360.1	0.16338	-0.16328	0.99894
3.804	79.585	-23067	2360	0.16446	-0.16299	0.99845
3.806	79.577	-23065	2359.9	0.16358	-0.1628	0.99864
3.808	79.572	-23063	2359.8	0.1627	-0.1626	0.99884
3.81	79.539	-23064	2359.7	0.16182	-0.16241	0.99903
3.812	79.529	-23065	2359.6	0.16094	-0.16221	0.99923
3.814	79.564	-23066	2359.5	0.16006	-0.16202	0.99942
3.816	79.596	-23068	2359.4	0.15948	-0.16241	0.99942
3.818	79.607	-23069	2359.3	0.15889	-0.1628	0.99942
3.82	79.604	-23071	2359.2	0.15831	-0.16319	0.99942
3.822	79.578	-23067	2359.1	0.15772	-0.16358	0.99942
3.824	79.567	-23064	2359.1	0.15714	-0.16397	0.99942
3.826	79.576	-23066	2359	0.15948	-0.16231	1.0002
3.828	79.586	-23068	2358.9	0.16182	-0.16065	1.001
3.83	79.582	-23068	2358.9	0.16416	-0.15899	1.0018
3.832	79.571	-23069	2358.8	0.16651	-0.15733	1.0025
3.834	79.568	-23069	2358.7	0.16885	-0.15567	1.0033
3.836	79.583	-23070	2358.7	0.16875	-0.15567	1.0034
3.838	79.597	-23067	2358.6	0.16865	-0.15567	1.0035
3.84	79.591	-23064	2358.6	0.16856	-0.15567	1.0036
3.842	79.6	-23068	2358.5	0.16846	-0.15567	1.0037
3.844	79.582	-23072	2358.4	0.16836	-0.15567	1.0038
3.846	79.557	-23064	2358.3	0.16914	-0.15577	1.0037
3.848	79.56	-23056	2358.3	0.16992	-0.15587	1.0036
3.85	79.559	-23058	2358.3	0.1707	-0.15596	1.0035
3.852	79.581	-23061	2358.2	0.17148	-0.15606	1.0034
3.854	79.61	-23061	2358.1	0.17226	-0.15616	1.0033
3.856	79.61	-23061	2358.1	0.17021	-0.15714	1.0018
3.858	79.579	-23061	2358.1	0.16816	-0.15811	1.0002
3.86	79.535	-23061	2358.1	0.16612	-0.15909	0.99864
3.862	79.532	-23058	2358	0.16407	-0.16006	0.99708
3.864	79.547	-23056	2358	0.16202	-0.16104	0.99552
3.866	79.551	-23058	2358	0.16163	-0.16143	0.99523
3.868	79.576	-23061	2357.9	0.16124	-0.16182	0.99493
3.87	79.596	-23067	2357.9	0.16084	-0.16221	0.99464
3.872	79.612	-23074	2357.9	0.16045	-0.1626	0.99435
3.874	79.609	-23071	2357.9	0.16006	-0.16299	0.99406
3.876	79.582	-23068	2357.8	0.16026	-0.16328	0.99445
3.878	79.566	-23072	2357.8	0.16045	-0.16358	0.99484
3.88	79.572	-23075	2357.7	0.16065	-0.16387	0.99523
3.882	79.572	-23070	2357.7	0.16084	-0.16416	0.99562
3.884	79.579	-23065	2357.7	0.16104	-0.16446	0.99601
3.886	79.592	-23062	2357.7	0.16163	-0.16309	0.99669
3.888	79.587	-23059	2357.6	0.16221	-0.16172	0.99737
3.89	79.565	-23058	2357.6	0.1628	-0.16036	0.99806
3.892	79.562	-23057	2357.6	0.16338	-0.15899	0.99874
3.894	79.573	-23062	2357.6	0.16397	-0.15762	0.99942
3.896	79.575	-23068	2357.6	0.16377	-0.1586	0.99816
3.898	79.575	-23061	2357.5	0.16358	-0.15958	0.99689
3.9	79.588	-23055	2357.5	0.16338	-0.16055	0.99562
3.902	79.612	-23056	2357.4	0.16319	-0.16153	0.99435
3.904	79.616	-23057	2357.4	0.16299	-0.1625	0.99308
3.906	79.587	-23059	2357.3	0.16348	-0.16172	0.99298
3.908	79.555	-23062	2357.3	0.16397	-0.16094	0.99288
3.91	79.563	-23059	2357.2	0.16446	-0.16016	0.99279
3.912	79.574	-23056	2357.2	0.16494	-0.15938	0.99269
3.914	79.585	-23060	2357.1	0.16543	-0.1586	0.99259
3.916	79.613	-23064	2357	0.16602	-0.15801	0.99308
3.918	79.611	-23061	2357	0.1666	-0.15743	0.99357
3.92	79.595	-23058	2357	0.16719	-0.15684	0.99406
3.922	79.562	-23060	2356.9	0.16777	-0.15626	0.99454
3.924	79.51	-23062	2356.9	0.16836	-0.15567	0.99503
3.926	79.509	-23064	2356.8	0.16856	-0.15587	0.99464
3.928	79.544	-23065	2356.7	0.16875	-0.15606	0.99425
3.93	79.541	-23059	2356.7	0.16895	-0.15626	0.99386
3.932	79.535	-23053	2356.6	0.16914	-0.15645	0.99347
3.934	79.55	-23056	2356.6	0.16934	-0.15665	0.99308
3.936	79.547	-23059	2356.5	0.17012	-0.15733	0.99191
3.938	79.564	-23059	2356.5	0.1709	-0.15801	0.99074
3.94	79.536	-23059	2356.4	0.17168	-0.1587	0.98957
3.942	79.499	-23064	2356.4	0.17246	-0.15938	0.9884
3.944	79.514	-23070	2356.3	0.17324	-0.16006	0.98722
3.946	79.523	-23072	2356.3	0.17344	-0.16084	0.98761
3.948	79.554	-23075	2356.4	0.17363	-0.16163	0.988
3.95	79.552	-23074	2356.3	0.17383	-0.16241	0.9884
3.952	79.534	-23073	2356.3	0.17402	-0.16319	0.98879
3.954	79.55	-23073	2356.2	0.17422	-0.16397	0.98918
3.956	79.552	-23074	2356.2	0.1748	-0.16358	0.98898
3.958	79.533	-23072	2356.1	0.17539	-0.16319	0.98879
3.96	79.482	-23071	2356.1	0.17597	-0.1628	0.98859
3.962	79.471	-23072	2356	0.17656	-0.16241	0.9884
3.964	79.512	-23073	2355.9	0.17714	-0.16202	0.9882
3.966	79.533	-23073	2355.9	0.17666	-0.16221	0.98849
3.968	79.538	-23073	2355.8	0.17617	-0.16241	0.98879
3.97	79.558	-23070	2355.7	0.17568	-0.1626	0.98908
3.972	79.554	-23067	2355.7	0.17519	-0.1628	0.98937
3.974	79.538	-23066	2355.7	0.1747	-0.16299	0.98966
3.976	79.536	-23066	2355.6	0.17431	-0.16299	0.98986
3.978	79.54	-23068	2355.5	0.17392	-0.16299	0.99005
3.98	79.542	-23069	2355.5	0.17353	-0.16299	0.99025
3.982	79.533	-23071	2355.4	0.17314	-0.16299	0.99044
3.984	79.518	-23073	2355.4	0.17275	-0.16299	0.99064
3.986	79.506	-23074	2355.3	0.17256	-0.1626	0.98937
3.988	79.489	-23075	2355.3	0.17236	-0.16221	0.9881
3.99	79.492	-23072	2355.2	0.17217	-0.16182	0.98683
3.992	79.527	-23068	2355.2	0.17197	-0.16143	0.98556
3.994	79.557	-23069	2355.1	0.17178	-0.16104	0.9843
3.996	79.578	-23069	2355.1	0.17217	-0.16163	0.98527
3.998	79.589	-23079	2355	0.17256	-0.16221	0.98625
4	79.637	-23088	2355	0.17295	-0.1628	0.98722
4.002	79.66	-23082	2354.9	0.17334	-0.16338	0.9882
4.004	79.639	-23077	2354.8	0.17373	-0.16397	0.98918
4.006	79.614	-23081	2354.7	0.17285	-0.16299	0.98927
4.008	79.594	-23084	2354.6	0.17197	-0.16202	0.98937
4.01	79.584	-23083	2354.6	0.17109	-0.16104	0.98947
4.012	79.573	-23082	2354.5	0.17021	-0.16006	0.98957
4.014	79.572	-23079	2354.5	0.16934	-0.15909	0.98966
4.016	79.594	-23077	2354.4	0.16748	-0.15958	0.99074
4.018	79.624	-23073	2354.4	0.16563	-0.16006	0.99181
4.02	79.62	-23070	2354.3	0.16377	-0.16055	0.99288
4.022	79.601	-23074	2354.2	0.16192	-0.16104	0.99396
4.024	79.594	-23078	2354.1	0.16006	-0.16153	0.99503
4.026	79.597	-23075	2354	0.15977	-0.16143	0.99532
4.028	79.601	-23073	2353.9	0.15948	-0.16133	0.99562
4.03	79.611	-23074	2353.8	0.15919	-0.16124	0.99591
4.032	79.614	-23075	2353.8	0.15889	-0.16114	0.9962
4.034	79.612	-23071	2353.7	0.1586	-0.16104	0.9965
4.036	79.605	-23067	2353.6	0.1584	-0.16104	0.99611
4.038	79.58	-23073	2353.5	0.15821	-0.16104	0.99572
4.04	79.598	-23078	2353.5	0.15801	-0.16104	0.99532
4.042	79.597	-23079	2353.4	0.15782	-0.16104	0.99493
4.044	79.593	-23080	2353.4	0.15762	-0.16104	0.99454
4.046	79.591	-23075	2353.3	0.1586	-0.16153	0.99425
4.048	79.625	-23071	2353.3	0.15958	-0.16202	0.99396
4.05	79.647	-23073	2353.2	0.16055	-0.1625	0.99367
4.052	79.652	-23075	2353.1	0.16153	-0.16299	0.99337
4.054	79.651	-23077	2353.1	0.1625	-0.16348	0.99308
4.056	79.658	-23079	2353	0.16182	-0.16309	0.99308
4.058	79.681	-23084	2353	0.16114	-0.1627	0.99308
4.06	79.68	-23089	2352.9	0.16045	-0.16231	0.99308
4.062	79.662	-23094	2352.9	0.15977	-0.16192	0.99308
4.064	79.655	-23099	2352.9	0.15909	-0.16153	0.99308
4.066	79.609	-23097	2352.9	0.15919	-0.16163	0.99318
4.068	79.533	-23095	2352.8	0.15928	-0.16172	0.99328
4.07	79.469	-23098	2352.8	0.15938	-0.16182	0.99337
4.072	79.398	-23101	2352.8	0.15948	-0.16192	0.99347
4.074	79.333	-23104	2352.7	0.15958	-0.16202	0.99357
4.076	79.268	-23107	2352.7	0.1588	-0.16163	0.99386
4.078	79.144	-23099	2352.7	0.15801	-0.16124	0.99415
4.08	78.976	-23091	2352.7	0.15723	-0.16084	0.99445
4.082	78.837	-23092	2352.6	0.15645	-0.16045	0.99474
4.084	78.758	-23093	2352.6	0.15567	-0.16006	0.99503
4.086	78.685	-23094	2352.5	0.15665	-0.16172	0.99591
4.088	78.573	-23095	2352.5	0.15762	-0.16338	0.99679
4.09	78.482	-23096	2352.4	0.1586	-0.16504	0.99767
4.092	78.453	-23097	2352.4	0.15958	-0.1667	0.99855
4.094	78.509	-23095	2352.3	0.16055	-0.16836	0.99942
4.096	78.661	-23093	2352.2	0.16026	-0.16816	0.99942
4.098	78.808	-23092	2352.1	0.15997	-0.16797	0.99942
4.1	78.996	-23091	2352	0.15967	-0.16777	0.99942
4.102	79.188	-23095	2351.9	0.15938	-0.16758	0.99942
4.104	79.295	-23099	2351.8	0.15909	-0.16738	0.99942
4.106	79.399	-23098	2351.7	0.15938	-0.1669	0.99923
4.108	79.526	-23097	2351.6	0.15967	-0.16641	0.99903
4.11	79.631	-23096	2351.5	0.15997	-0.16592	0.99884
4.112	79.656	-23094	2351.4	0.16026	-0.16543	0.99864
4.114	79.679	-23091	2351.2	0.16055	-0.16494	0.99845
4.116	79.698	-23089	2351.1	0.16036	-0.16485	0.99816
4.118	79.681	-23091	2351	0.16016	-0.16475	0.99786
4.12	79.641	-23093	2351	0.15997	-0.16465	0.99757
4.122	79.61	-23098	2350.9	0.15977	-0.16455	0.99728
4.124	79.561	-23103	2350.8	0.15958	-0.16446	0.99698
4.126	79.54	-23104	2350.8	0.15997	-0.16368	0.99601
4.128	79.526	-23104	2350.7	0.16036	-0.16289	0.99503
4.13	79.495	-23105	2350.7	0.16075	-0.16211	0.99406
4.132	79.506	-23105	2350.6	0.16114	-0.16133	0.99308
4.134	79.522	-23109	2350.5	0.16153	-0.16055	0.9921
4.136	79.51	-23112	2350.5	0.1627	-0.16016	0.99191
4.138	79.518	-23114	2350.4	0.16387	-0.15977	0.99171
4.14	79.557	-23115	2350.4	0.16504	-0.15938	0.99152
4.142	79.582	-23115	2350.3	0.16621	-0.15899	0.99132
4.144	79.584	-23114	2350.3	0.16738	-0.1586	0.99113
4.146	79.572	-23116	2350.2	0.1668	-0.1587	0.99142
4.148	79.558	-23118	2350.2	0.16621	-0.1588	0.99171
4.15	79.561	-23121	2350.2	0.16563	-0.15889	0.99201
4.152	79.56	-23124	2350.1	0.16504	-0.15899	0.9923
4.154	79.548	-23123	2350.1	0.16446	-0.15909	0.99259
4.156	79.544	-23123	2350	0.16514	-0.15909	0.99279
4.158	79.543	-23119	2350	0.16582	-0.15909	0.99298
4.16	79.546	-23116	2349.9	0.16651	-0.15909	0.99318
4.162	79.546	-23115	2349.9	0.16719	-0.15909	0.99337
4.164	79.539	-23114	2349.9	0.16787	-0.15909	0.99357
4.166	79.542	-23114	2349.8	0.16807	-0.15889	0.99298
4.168	79.572	-23113	2349.7	0.16826	-0.1587	0.9924
4.17	79.565	-23113	2349.7	0.16846	-0.1585	0.99181
4.172	79.532	-23113	2349.6	0.16865	-0.15831	0.99123
4.174	79.556	-23114	2349.6	0.16885	-0.15811	0.99064
4.176	79.566	-23116	2349.5	0.16982	-0.1587	0.99054
4.178	79.551	-23118	2349.4	0.1708	-0.15928	0.99044
4.18	79.534	-23121	2349.3	0.17178	-0.15987	0.99035
4.182	79.539	-23123	2349.3	0.17275	-0.16045	0.99025
4.184	79.554	-23125	2349.2	0.17373	-0.16104	0.99015
4.186	79.554	-23124	2349.1	0.17392	-0.16114	0.99025
4.188	79.544	-23122	2349.1	0.17412	-0.16124	0.99035
4.19	79.519	-23122	2349	0.17431	-0.16133	0.99044
4.192	79.525	-23122	2348.9	0.17451	-0.16143	0.99054
4.194	79.52	-23127	2348.9	0.1747	-0.16153	0.99064
4.196	79.499	-23131	2348.8	0.17451	-0.16182	0.99044
4.198	79.506	-23132	2348.7	0.17431	-0.16211	0.99025
4.2	79.489	-23132	2348.7	0.17412	-0.16241	0.99005
4.202	79.48	-23136	2348.6	0.17392	-0.1627	0.98986
4.204	79.523	-23139	2348.6	0.17373	-0.16299	0.98966
4.206	79.531	-23134	2348.6	0.17461	-0.16211	0.98927
4.208	79.511	-23129	2348.5	0.17548	-0.16124	0.98888
4.21	79.493	-23132	2348.5	0.17636	-0.16036	0.98849
4.212	79.471	-23136	2348.5	0.17724	-0.15948	0.9881
4.214	79.469	-23138	2348.5	0.17812	-0.1586	0.98771
4.216	79.507	-23141	2348.5	0.17763	-0.15958	0.9883
4.218	79.538	-23138	2348.5	0.17714	-0.16055	0.98888
4.22	79.52	-23135	2348.5	0.17666	-0.16153	0.98947
4.222	79.492	-23140	2348.5	0.17617	-0.1625	0.99005
4.224	79.506	-23145	2348.5	0.17568	-0.16348	0.99064
4.226	79.506	-23147	2348.5	0.17617	-0.16289	0.99005
4.228	79.474	-23150	2348.5	0.17666	-0.16231	0.98947
4.23	79.473	-23149	2348.4	0.17714	-0.16172	0.98888
4.232	79.494	-23149	2348.4	0.17763	-0.16114	0.9883
4.234	79.487	-23149	2348.4	0.17812	-0.16055	0.98771
4.236	79.468	-23150	2348.4	0.17812	-0.16045	0.988
4.238	79.461	-23152	2348.3	0.17812	-0.16036	0.9883
4.24	79.469	-23155	2348.3	0.17812	-0.16026	0.98859
4.242	79.486	-23153	2348.3	0.17812	-0.16016	0.98888
4.244	79.484	-23152	2348.3	0.17812	-0.16006	0.98918
4.246	79.465	-23152	2348.3	0.17783	-0.16065	0.98869
4.248	79.468	-23152	2348.4	0.17753	-0.16124	0.9882
4.25	79.47	-23155	2348.5	0.17724	-0.16182	0.98771
4.252	79.444	-23158	2348.5	0.17695	-0.16241	0.98722
4.254	79.428	-23153	2348.6	0.17666	-0.16299	0.98674
4.256	79.449	-23148	2348.7	0.17636	-0.1626	0.98693
4.258	79.44	-23147	2348.9	0.17607	-0.16221	0.98713
4.26	79.413	-23145	2349	0.17578	-0.16182	0.98732
4.262	79.433	-23149	2349.2	0.17548	-0.16143	0.98752
4.264	79.448	-23152	2349.4	0.17519	-0.16104	0.98771
4.266	79.442	-23153	2349.7	0.175	-0.16124	0.98791
4.268	79.446	-23155	2349.9	0.1748	-0.16143	0.9881
4.27	79.419	-23155	2350.2	0.17461	-0.16163	0.9883
4.272	79.411	-23155	2350.4	0.17441	-0.16182	0.98849
4.274	79.4	-23160	2350.7	0.17422	-0.16202	0.98869
4.276	79.398	-23166	2351	0.17363	-0.16133	0.98888
4.278	79.373	-23160	2351.3	0.17304	-0.16065	0.98908
4.28	79.383	-23154	2351.6	0.17246	-0.15997	0.98927
4.282	79.386	-23158	2352	0.17187	-0.15928	0.98947
4.284	79.363	-23162	2352.4	0.17129	-0.1586	0.98966
4.286	79.35	-23162	2352.7	0.16914	-0.15899	0.99005
4.288	79.397	-23162	2353	0.16699	-0.15938	0.99044
4.29	79.435	-23162	2353.4	0.16485	-0.15977	0.99084
4.292	79.421	-23162	2353.7	0.1627	-0.16016	0.99123
4.294	79.404	-23163	2354.1	0.16055	-0.16055	0.99162
4.296	79.404	-23164	2354.4	0.16163	-0.15967	0.99171
4.298	79.432	-23156	2354.8	0.1627	-0.1588	0.99181
4.3	79.418	-23149	2355.1	0.16377	-0.15792	0.99191
4.302	79.391	-23149	2355.4	0.16485	-0.15704	0.99201
4.304	79.393	-23150	2355.8	0.16592	-0.15616	0.9921
4.306	79.395	-23149	2356.1	0.16621	-0.15704	0.99181
4.308	79.386	-23148	2356.4	0.16651	-0.15792	0.99152
4.31	79.388	-23151	2356.7	0.1668	-0.1588	0.99123
4.312	79.407	-23154	2356.9	0.16709	-0.15967	0.99093
4.314	79.429	-23153	2357.2	0.16738	-0.16055	0.99064
4.316	79.439	-23152	2357.4	0.1669	-0.16026	0.99103
4.318	79.43	-23148	2357.7	0.16641	-0.15997	0.99142
4.32	79.421	-23145	2357.9	0.16592	-0.15967	0.99181
4.322	79.442	-23147	2358	0.16543	-0.15938	0.9922
4.324	79.458	-23149	2358.2	0.16494	-0.15909	0.99259
4.326	79.433	-23143	2358.3	0.16465	-0.15967	0.9924
4.328	79.403	-23136	2358.4	0.16436	-0.16026	0.9922
4.33	79.424	-23136	2358.6	0.16407	-0.16084	0.99201
4.332	79.464	-23137	2358.7	0.16377	-0.16143	0.99181
4.334	79.466	-23139	2358.9	0.16348	-0.16202	0.99162
4.336	79.474	-23141	2359	0.1627	-0.16221	0.99181
4.338	79.466	-23137	2359	0.16192	-0.16241	0.99201
4.34	79.451	-23134	2359.1	0.16114	-0.1626	0.9922
4.342	79.435	-23139	2359.1	0.16036	-0.1628	0.9924
4.344	79.428	-23143	2359.2	0.15958	-0.16299	0.99259
4.346	79.461	-23140	2359.2	0.15928	-0.16358	0.99347
4.348	79.492	-23136	2359.3	0.15899	-0.16416	0.99435
4.35	79.513	-23126	2359.3	0.1587	-0.16475	0.99523
4.352	79.507	-23117	2359.4	0.1584	-0.16533	0.99611
4.354	79.493	-23120	2359.5	0.15811	-0.16592	0.99698
4.356	79.482	-23124	2359.6	0.15801	-0.16563	0.99718
4.358	79.465	-23120	2359.7	0.15792	-0.16533	0.99737
4.36	79.48	-23116	2359.7	0.15782	-0.16504	0.99757
4.362	79.536	-23119	2359.8	0.15772	-0.16475	0.99776
4.364	79.557	-23123	2359.8	0.15762	-0.16446	0.99796
4.366	79.543	-23117	2359.9	0.15684	-0.16319	0.99747
4.368	79.546	-23111	2360	0.15606	-0.16192	0.99698
4.37	79.521	-23112	2360.1	0.15528	-0.16065	0.9965
4.372	79.52	-23112	2360.2	0.1545	-0.15938	0.99601
4.374	79.491	-23103	2360.3	0.15372	-0.15811	0.99552
4.376	79.499	-23095	2360.4	0.15431	-0.1585	0.99542
4.378	79.52	-23093	2360.5	0.15489	-0.15889	0.99532
4.38	79.504	-23091	2360.6	0.15548	-0.15928	0.99523
4.382	79.511	-23095	2360.6	0.15606	-0.15967	0.99513
4.384	79.542	-23099	2360.7	0.15665	-0.16006	0.99503
4.386	79.55	-23097	2360.8	0.15762	-0.16133	0.99601
4.388	79.555	-23095	2360.9	0.1586	-0.1626	0.99698
4.39	79.559	-23097	2361	0.15958	-0.16387	0.99796
4.392	79.558	-23099	2361	0.16055	-0.16514	0.99894
4.394	79.558	-23093	2361.1	0.16153	-0.16641	0.99991
4.396	79.564	-23087	2361.1	0.1627	-0.16621	1.0004
4.398	79.572	-23084	2361.2	0.16387	-0.16602	1.0009
4.4	79.587	-23080	2361.3	0.16504	-0.16582	1.0014
4.402	79.597	-23082	2361.3	0.16621	-0.16563	1.0019
4.404	79.583	-23084	2361.3	0.16738	-0.16543	1.0024
4.406	79.556	-23077	2361.3	0.1668	-0.16553	1.0025
4.408	79.55	-23070	2361.3	0.16621	-0.16563	1.0027
4.41	79.567	-23069	2361.3	0.16563	-0.16572	1.0029
4.412	79.579	-23068	2361.3	0.16504	-0.16582	1.0031
4.414	79.572	-23065	2361.3	0.16446	-0.16592	1.0033
4.416	79.561	-23062	2361.2	0.16504	-0.16494	1.0024
4.418	79.553	-23064	2361.1	0.16563	-0.16397	1.0016
4.42	79.542	-23066	2361	0.16621	-0.16299	1.0007
4.422	79.538	-23060	2361	0.1668	-0.16202	0.99981
4.424	79.545	-23055	2360.9	0.16738	-0.16104	0.99894
4.426	79.544	-23058	2360.8	0.16699	-0.16143	0.99894
4.428	79.538	-23061	2360.7	0.1666	-0.16182	0.99894
4.43	79.545	-23053	2360.6	0.16621	-0.16221	0.99894
4.432	79.531	-23044	2360.5	0.16582	-0.1626	0.99894
4.434	79.554	-23049	2360.3	0.16543	-0.16299	0.99894
4.436	79.566	-23054	2360.2	0.16494	-0.16348	0.99913
4.438	79.535	-23056	2360	0.16446	-0.16397	0.99933
4.44	79.53	-23058	2359.8	0.16397	-0.16446	0.99952
4.442	79.563	-23049	2359.6	0.16348	-0.16494	0.99972
4.444	79.577	-23041	2359.4	0.16299	-0.16543	0.99991
4.446	79.563	-23043	2359.3	0.16241	-0.16592	0.99962
4.448	79.555	-23045	2359.2	0.16182	-0.16641	0.99933
4.45	79.58	-23044	2359	0.16124	-0.1669	0.99903
4.452	79.551	-23044	2358.9	0.16065	-0.16738	0.99874
4.454	79.515	-23039	2358.8	0.16006	-0.16787	0.99845
4.456	79.52	-23034	2358.6	0.16075	-0.1668	0.99796
4.458	79.543	-23032	2358.5	0.16143	-0.16572	0.99747
4.46	79.555	-23031	2358.4	0.16211	-0.16465	0.99698
4.462	79.564	-23032	2358.2	0.1628	-0.16358	0.9965
4.464	79.565	-23033	2358.1	0.16348	-0.1625	0.99601
4.466	79.568	-23029	2358	0.16338	-0.16289	0.99708
4.468	79.559	-23026	2357.9	0.16328	-0.16328	0.99816
4.47	79.544	-23031	2357.8	0.16319	-0.16368	0.99923
4.472	79.523	-23036	2357.8	0.16309	-0.16407	1.0003
4.474	79.524	-23033	2357.7	0.16299	-0.16446	1.0014
4.476	79.526	-23031	2357.6	0.16358	-0.16338	1.0014
4.478	79.545	-23032	2357.5	0.16416	-0.16231	1.0014
4.48	79.545	-23034	2357.4	0.16475	-0.16124	1.0014
4.482	79.536	-23030	2357.4	0.16533	-0.16016	1.0014
4.484	79.562	-23027	2357.3	0.16592	-0.15909	1.0014
4.486	79.581	-23027	2357.2	0.16602	-0.15938	1.0006
4.488	79.567	-23027	2357.2	0.16612	-0.15967	0.99981
4.49	79.543	-23027	2357.1	0.16621	-0.15997	0.99903
4.492	79.534	-23028	2357	0.16631	-0.16026	0.99825
4.494	79.546	-23034	2357	0.16641	-0.16055	0.99747
4.496	79.547	-23040	2356.9	0.16533	-0.16026	0.99737
4.498	79.525	-23037	2356.9	0.16426	-0.15997	0.99728
4.5	79.512	-23034	2356.9	0.16319	-0.15967	0.99718
4.502	79.528	-23033	2356.8	0.16211	-0.15938	0.99708
4.504	79.547	-23032	2356.8	0.16104	-0.15909	0.99698
4.506	79.557	-23030	2356.7	0.16133	-0.15889	0.99669
4.508	79.538	-23029	2356.7	0.16163	-0.1587	0.9964
4.51	79.52	-23027	2356.6	0.16192	-0.1585	0.99611
4.512	79.517	-23026	2356.5	0.16221	-0.15831	0.99581
4.514	79.507	-23026	2356.5	0.1625	-0.15811	0.99552
4.516	79.501	-23026	2356.5	0.16309	-0.1585	0.99493
4.518	79.528	-23024	2356.5	0.16368	-0.15889	0.99435
4.52	79.558	-23022	2356.5	0.16426	-0.15928	0.99376
4.522	79.544	-23024	2356.4	0.16485	-0.15967	0.99318
4.524	79.517	-23026	2356.4	0.16543	-0.16006	0.99259
4.526	79.535	-23026	2356.4	0.16533	-0.15987	0.9924
4.528	79.541	-23025	2356.4	0.16524	-0.15967	0.9922
4.53	79.525	-23022	2356.3	0.16514	-0.15948	0.99201
4.532	79.529	-23018	2356.3	0.16504	-0.15928	0.99181
4.534	79.517	-23017	2356.3	0.16494	-0.15909	0.99162
4.536	79.505	-23017	2356.2	0.16455	-0.15948	0.99249
4.538	79.508	-23018	2356.2	0.16416	-0.15987	0.99337
4.54	79.522	-23020	2356.2	0.16377	-0.16026	0.99425
4.542	79.525	-23023	2356.1	0.16338	-0.16065	0.99513
4.544	79.561	-23025	2356.1	0.16299	-0.16104	0.99601
4.546	79.591	-23025	2356	0.16328	-0.16036	0.99542
4.548	79.562	-23026	2356	0.16358	-0.15967	0.99484
4.55	79.551	-23025	2355.9	0.16387	-0.15899	0.99425
4.552	79.56	-23025	2355.9	0.16416	-0.15831	0.99367
4.554	79.56	-23025	2355.8	0.16446	-0.15762	0.99308
4.556	79.545	-23025	2355.7	0.16377	-0.1584	0.99386
4.558	79.522	-23025	2355.7	0.16309	-0.15919	0.99464
4.56	79.506	-23025	2355.6	0.16241	-0.15997	0.99542
4.562	79.527	-23022	2355.5	0.16172	-0.16075	0.9962
4.564	79.539	-23019	2355.5	0.16104	-0.16153	0.99698
4.566	79.532	-23020	2355.4	0.16114	-0.16202	0.99737
4.568	79.543	-23020	2355.3	0.16124	-0.1625	0.99776
4.57	79.574	-23020	2355.3	0.16133	-0.16299	0.99816
4.572	79.576	-23021	2355.2	0.16143	-0.16348	0.99855
4.574	79.538	-23019	2355.2	0.16153	-0.16397	0.99894
4.576	79.499	-23018	2355.1	0.1627	-0.16231	0.99757
4.578	79.501	-23018	2355.1	0.16387	-0.16065	0.9962
4.58	79.53	-23019	2355	0.16504	-0.15899	0.99484
4.582	79.535	-23018	2355	0.16621	-0.15733	0.99347
4.584	79.533	-23018	2355	0.16738	-0.15567	0.9921
4.586	79.55	-23021	2354.9	0.16719	-0.15567	0.99191
4.588	79.539	-23025	2354.9	0.16699	-0.15567	0.99171
4.59	79.522	-23026	2354.9	0.1668	-0.15567	0.99152
4.592	79.525	-23027	2354.8	0.1666	-0.15567	0.99132
4.594	79.521	-23024	2354.7	0.16641	-0.15567	0.99113
4.596	79.533	-23021	2354.7	0.16563	-0.15636	0.99093
4.598	79.559	-23027	2354.7	0.16485	-0.15704	0.99074
4.6	79.513	-23032	2354.8	0.16407	-0.15772	0.99054
4.602	79.463	-23030	2354.8	0.16328	-0.1584	0.99035
4.604	79.46	-23028	2354.7	0.1625	-0.15909	0.99015
4.606	79.475	-23019	2354.7	0.16328	-0.1584	0.99064
4.608	79.513	-23010	2354.7	0.16407	-0.15772	0.99113
4.61	79.522	-23014	2354.6	0.16485	-0.15704	0.99162
4.612	79.521	-23018	2354.6	0.16563	-0.15636	0.9921
4.614	79.481	-23023	2354.6	0.16641	-0.15567	0.99259
4.616	79.457	-23028	2354.6	0.16651	-0.15587	0.99259
4.618	79.461	-23024	2354.5	0.1666	-0.15606	0.99259
4.62	79.494	-23020	2354.5	0.1667	-0.15626	0.99259
4.622	79.483	-23014	2354.4	0.1668	-0.15645	0.99259
4.624	79.472	-23007	2354.4	0.1669	-0.15665	0.99259
4.626	79.492	-23014	2354.3	0.16612	-0.15753	0.99249
4.628	79.528	-23020	2354.3	0.16533	-0.1584	0.9924
4.63	79.518	-23020	2354.2	0.16455	-0.15928	0.9923
4.632	79.517	-23020	2354.1	0.16377	-0.16016	0.9922
4.634	79.507	-23022	2354	0.16299	-0.16104	0.9921
4.636	79.498	-23025	2354	0.1628	-0.16133	0.99201
4.638	79.487	-23025	2353.9	0.1626	-0.16163	0.99191
4.64	79.479	-23026	2353.9	0.16241	-0.16192	0.99181
4.642	79.465	-23028	2353.8	0.16221	-0.16221	0.99171
4.644	79.45	-23030	2353.8	0.16202	-0.1625	0.99162
4.646	79.453	-23034	2353.7	0.16182	-0.16172	0.9923
4.648	79.447	-23037	2353.7	0.16163	-0.16094	0.99298
4.65	79.477	-23041	2353.6	0.16143	-0.16016	0.99367
4.652	79.517	-23046	2353.5	0.16124	-0.15938	0.99435
4.654	79.504	-23041	2353.4	0.16104	-0.1586	0.99503
4.656	79.483	-23037	2353.4	0.16231	-0.15762	0.99435
4.658	79.466	-23036	2353.3	0.16358	-0.15665	0.99367
4.66	79.465	-23035	2353.2	0.16485	-0.15567	0.99298
4.662	79.472	-23039	2353.2	0.16612	-0.1547	0.9923
4.664	79.466	-23043	2353.1	0.16738	-0.15372	0.99162
4.666	79.48	-23038	2353	0.16729	-0.15431	0.99064
4.668	79.517	-23032	2353	0.16719	-0.15489	0.98966
4.67	79.551	-23033	2352.9	0.16709	-0.15548	0.98869
4.672	79.557	-23033	2352.8	0.16699	-0.15606	0.98771
4.674	79.549	-23031	2352.7	0.1669	-0.15665	0.98674
4.676	79.559	-23030	2352.7	0.16738	-0.15665	0.98722
4.678	79.561	-23029	2352.7	0.16787	-0.15665	0.98771
4.68	79.57	-23028	2352.6	0.16836	-0.15665	0.9882
4.682	79.564	-23028	2352.5	0.16885	-0.15665	0.98869
4.684	79.585	-23027	2352.4	0.16934	-0.15665	0.98918
4.686	79.622	-23030	2352.4	0.16953	-0.15684	0.98957
4.688	79.599	-23032	2352.3	0.16973	-0.15704	0.98996
4.69	79.572	-23031	2352.2	0.16992	-0.15723	0.99035
4.692	79.574	-23031	2352.1	0.17012	-0.15743	0.99074
4.694	79.546	-23036	2352	0.17031	-0.15762	0.99113
4.696	79.533	-23041	2352	0.16992	-0.15821	0.99093
4.698	79.562	-23037	2351.9	0.16953	-0.1588	0.99074
4.7	79.581	-23034	2351.8	0.16914	-0.15938	0.99054
