t	ekg	optical	pressure	accel_x	accel_y	accel_z
0	69.627	-18797	2395	-0.34004	0.91334	0.28636
0.002	69.636	-18795	2395	-0.34082	0.91246	0.28714
0.004	69.644	-18794	2394.9	-0.3416	0.91158	0.28792
0.006	69.647	-18793	2394.9	-0.34238	0.91071	0.2887
0.008	69.648	-18794	2394.9	-0.34316	0.90983	0.28948
0.01	69.65	-18797	2394.8	-0.34394	0.90895	0.29026
0.012	69.655	-18796	2394.8	-0.34472	0.90807	0.29104
0.014	69.667	-18791	2394.8	-0.3455	0.90719	0.29182
0.016	69.683	-18788	2394.7	-0.34609	0.90836	0.29134
0.018	69.703	-18788	2394.7	-0.34668	0.90953	0.29085
0.02	69.724	-18791	2394.6	-0.34726	0.91071	0.29036
0.022	69.735	-18798	2394.6	-0.34785	0.91188	0.28987
0.024	69.737	-18801	2394.6	-0.34843	0.91305	0.28938
0.026	69.73	-18800	2394.6	-0.34716	0.91197	0.28968
0.028	69.718	-18800	2394.6	-0.34589	0.9109	0.28997
0.03	69.713	-18800	2394.6	-0.34463	0.90983	0.29026
0.032	69.716	-18800	2394.5	-0.34336	0.90875	0.29056
0.034	69.721	-18801	2394.5	-0.34209	0.90768	0.29085
0.036	69.725	-18801	2394.5	-0.34287	0.90856	0.29075
0.038	69.731	-18802	2394.5	-0.34365	0.90944	0.29065
0.04	69.733	-18801	2394.5	-0.34443	0.91032	0.29056
0.042	69.728	-18799	2394.5	-0.34521	0.91119	0.29046
0.044	69.72	-18798	2394.5	-0.34599	0.91207	0.29036
0.046	69.714	-18799	2394.4	-0.34658	0.91207	0.29036
0.048	69.712	-18800	2394.4	-0.34716	0.91207	0.29036
0.05	69.719	-18800	2394.4	-0.34775	0.91207	0.29036
0.052	69.73	-18799	2394.3	-0.34833	0.91207	0.29036
0.054	69.738	-18798	2394.3	-0.34892	0.91207	0.29036
0.056	69.74	-18799	2394.3	-0.34921	0.91207	0.29085
0.058	69.73	-18800	2394.3	-0.34951	0.91207	0.29134
0.06	69.715	-18800	2394.3	-0.3498	0.91207	0.29182
0.062	69.706	-18798	2394.2	-0.35009	0.91207	0.29231
0.064	69.709	-18799	2394.2	-0.35038	0.91207	0.2928
0.066	69.713	-18803	2394.2	-0.34912	0.91168	0.29221
0.068	69.722	-18805	2394.2	-0.34785	0.91129	0.29163
0.07	69.733	-18804	2394.1	-0.34658	0.9109	0.29104
0.072	69.739	-18803	2394.1	-0.34531	0.91051	0.29046
0.074	69.739	-18801	2394.1	-0.34404	0.91012	0.28987
0.076	69.736	-18801	2394.1	-0.34541	0.91041	0.29075
0.078	69.734	-18801	2394.1	-0.34677	0.91071	0.29163
0.08	69.751	-18803	2394	-0.34814	0.911	0.29251
0.082	69.781	-18808	2394	-0.34951	0.91129	0.29339
0.084	69.817	-18812	2394	-0.35087	0.91158	0.29426
0.086	69.858	-18814	2394	-0.35019	0.91217	0.29329
0.088	69.897	-18815	2394	-0.34951	0.91276	0.29231
0.09	69.908	-18814	2393.9	-0.34882	0.91334	0.29134
0.092	69.882	-18810	2393.9	-0.34814	0.91393	0.29036
0.094	69.832	-18805	2393.9	-0.34746	0.91451	0.28938
0.096	69.776	-18803	2393.8	-0.34668	0.91393	0.28948
0.098	69.712	-18805	2393.8	-0.34589	0.91334	0.28958
0.1	69.637	-18805	2393.8	-0.34511	0.91276	0.28968
0.102	69.558	-18805	2393.8	-0.34433	0.91217	0.28977
0.104	69.46	-18806	2393.8	-0.34355	0.91158	0.28987
0.106	69.347	-18809	2393.7	-0.34345	0.91149	0.28977
0.108	69.22	-18811	2393.7	-0.34336	0.91139	0.28968
0.11	69.06	-18812	2393.7	-0.34326	0.91129	0.28958
0.112	68.902	-18812	2393.6	-0.34316	0.91119	0.28948
0.114	68.756	-18812	2393.6	-0.34306	0.9111	0.28938
0.116	68.625	-18813	2393.6	-0.34384	0.91227	0.28958
0.118	68.526	-18817	2393.5	-0.34463	0.91344	0.28977
0.12	68.478	-18818	2393.5	-0.34541	0.91461	0.28997
0.122	68.474	-18817	2393.5	-0.34619	0.91578	0.29016
0.124	68.537	-18818	2393.5	-0.34697	0.91695	0.29036
0.126	68.665	-18822	2393.5	-0.34638	0.91588	0.29095
0.128	68.825	-18821	2393.4	-0.3458	0.9148	0.29153
0.13	68.999	-18817	2393.3	-0.34521	0.91373	0.29212
0.132	69.167	-18815	2393.3	-0.34463	0.91266	0.2927
0.134	69.316	-18814	2393.3	-0.34404	0.91158	0.29329
0.136	69.447	-18816	2393.2	-0.34463	0.91188	0.29251
0.138	69.552	-18821	2393.2	-0.34521	0.91217	0.29173
0.14	69.615	-18823	2393.2	-0.3458	0.91246	0.29095
0.142	69.657	-18821	2393.1	-0.34638	0.91276	0.29016
0.144	69.706	-18819	2393.1	-0.34697	0.91305	0.28938
0.146	69.74	-18817	2393	-0.3458	0.91285	0.28938
0.148	69.76	-18818	2393	-0.34463	0.91266	0.28938
0.15	69.763	-18821	2393	-0.34345	0.91246	0.28938
0.152	69.743	-18823	2393	-0.34228	0.91227	0.28938
0.154	69.717	-18824	2393	-0.34111	0.91207	0.28938
0.156	69.698	-18825	2393	-0.34189	0.91236	0.28909
0.158	69.679	-18826	2392.9	-0.34267	0.91266	0.2888
0.16	69.658	-18825	2392.9	-0.34345	0.91295	0.28851
0.162	69.646	-18824	2392.8	-0.34424	0.91324	0.28821
0.164	69.645	-18823	2392.8	-0.34502	0.91354	0.28792
0.166	69.654	-18821	2392.8	-0.3455	0.91324	0.2886
0.168	69.669	-18821	2392.7	-0.34599	0.91295	0.28929
0.17	69.685	-18821	2392.7	-0.34648	0.91266	0.28997
0.172	69.693	-18821	2392.7	-0.34697	0.91236	0.29065
0.174	69.694	-18821	2392.7	-0.34746	0.91207	0.29134
0.176	69.688	-18822	2392.7	-0.34687	0.91334	0.29075
0.178	69.679	-18826	2392.6	-0.34628	0.91461	0.29016
0.18	69.676	-18829	2392.6	-0.3457	0.91588	0.28958
0.182	69.677	-18832	2392.6	-0.34511	0.91715	0.28899
0.184	69.681	-18833	2392.6	-0.34453	0.91842	0.28841
0.186	69.686	-18832	2392.5	-0.34482	0.91724	0.28958
0.188	69.692	-18831	2392.5	-0.34511	0.91607	0.29075
0.19	69.694	-18829	2392.5	-0.34541	0.9149	0.29192
0.192	69.687	-18826	2392.5	-0.3457	0.91373	0.29309
0.194	69.676	-18822	2392.5	-0.34599	0.91256	0.29426
0.196	69.668	-18822	2392.4	-0.34677	0.91276	0.29378
0.198	69.663	-18826	2392.4	-0.34755	0.91295	0.29329
0.2	69.664	-18828	2392.4	-0.34833	0.91315	0.2928
0.202	69.674	-18828	2392.3	-0.34912	0.91334	0.29231
0.204	69.681	-18828	2392.3	-0.3499	0.91354	0.29182
0.206	69.682	-18828	2392.3	-0.34902	0.91344	0.29231
0.208	69.68	-18830	2392.3	-0.34814	0.91334	0.2928
0.21	69.669	-18835	2392.2	-0.34726	0.91324	0.29329
0.212	69.658	-18838	2392.2	-0.34638	0.91315	0.29378
0.214	69.654	-18838	2392.1	-0.3455	0.91305	0.29426
0.216	69.656	-18838	2392.1	-0.3455	0.91256	0.29368
0.218	69.66	-18838	2392.1	-0.3455	0.91207	0.29309
0.22	69.663	-18840	2392.1	-0.3455	0.91158	0.29251
0.222	69.663	-18844	2392	-0.3455	0.9111	0.29192
0.224	69.66	-18845	2392	-0.3455	0.91061	0.29134
0.226	69.651	-18843	2392	-0.34531	0.91032	0.29124
0.228	69.639	-18842	2392	-0.34511	0.91002	0.29114
0.23	69.633	-18841	2392	-0.34492	0.90973	0.29104
0.232	69.633	-18843	2392	-0.34472	0.90944	0.29095
0.234	69.64	-18848	2392	-0.34453	0.90914	0.29085
0.236	69.651	-18848	2392	-0.34404	0.90983	0.28968
0.238	69.655	-18842	2392	-0.34355	0.91051	0.28851
0.24	69.644	-18839	2391.9	-0.34306	0.91119	0.28733
0.242	69.632	-18839	2391.9	-0.34258	0.91188	0.28616
0.244	69.627	-18840	2391.8	-0.34209	0.91256	0.28499
0.246	69.625	-18842	2391.8	-0.34326	0.91285	0.28616
0.248	69.621	-18841	2391.8	-0.34443	0.91315	0.28733
0.25	69.617	-18836	2391.7	-0.3456	0.91344	0.28851
0.252	69.621	-18836	2391.7	-0.34677	0.91373	0.28968
0.254	69.623	-18839	2391.7	-0.34794	0.91402	0.29085
0.256	69.62	-18842	2391.7	-0.34677	0.91217	0.29065
0.258	69.617	-18844	2391.7	-0.3456	0.91032	0.29046
0.26	69.608	-18844	2391.7	-0.34443	0.90846	0.29026
0.262	69.594	-18841	2391.7	-0.34326	0.90661	0.29007
0.264	69.585	-18839	2391.7	-0.34209	0.90475	0.28987
0.266	69.589	-18839	2391.7	-0.34316	0.90602	0.29056
0.268	69.598	-18840	2391.7	-0.34424	0.90729	0.29124
0.27	69.601	-18843	2391.7	-0.34531	0.90856	0.29192
0.272	69.599	-18843	2391.8	-0.34638	0.90983	0.2926
0.274	69.591	-18841	2391.8	-0.34746	0.9111	0.29329
0.276	69.579	-18847	2391.9	-0.34658	0.91188	0.29231
0.278	69.569	-18860	2391.9	-0.3457	0.91266	0.29134
0.28	69.563	-18866	2392	-0.34482	0.91344	0.29036
0.282	69.561	-18865	2392.1	-0.34394	0.91422	0.28938
0.284	69.565	-18862	2392.3	-0.34306	0.915	0.28841
0.286	69.567	-18857	2392.4	-0.34336	0.915	0.28792
0.288	69.565	-18856	2392.5	-0.34365	0.915	0.28743
0.29	69.557	-18859	2392.6	-0.34394	0.915	0.28694
0.292	69.544	-18856	2392.7	-0.34424	0.915	0.28646
0.294	69.534	-18848	2392.8	-0.34453	0.915	0.28597
0.296	69.528	-18845	2393	-0.34492	0.91529	0.28655
0.298	69.524	-18847	2393.1	-0.34531	0.91559	0.28714
0.3	69.524	-18847	2393.2	-0.3457	0.91588	0.28772
0.302	69.527	-18846	2393.4	-0.34609	0.91617	0.28831
0.304	69.531	-18845	2393.5	-0.34648	0.91646	0.2889
0.306	69.535	-18845	2393.7	-0.34658	0.91549	0.28909
0.308	69.532	-18845	2393.9	-0.34668	0.91451	0.28929
0.31	69.522	-18844	2394.1	-0.34677	0.91354	0.28948
0.312	69.512	-18843	2394.2	-0.34687	0.91256	0.28968
0.314	69.507	-18843	2394.3	-0.34697	0.91158	0.28987
0.316	69.507	-18841	2394.5	-0.34619	0.91158	0.28968
0.318	69.516	-18839	2394.8	-0.34541	0.91158	0.28948
0.32	69.526	-18833	2394.9	-0.34463	0.91158	0.28929
0.322	69.53	-18824	2395.1	-0.34384	0.91158	0.28909
0.324	69.531	-18823	2395.3	-0.34306	0.91158	0.2889
0.326	69.526	-18830	2395.4	-0.34463	0.91149	0.29007
0.328	69.515	-18830	2395.6	-0.34619	0.91139	0.29124
0.33	69.512	-18826	2395.8	-0.34775	0.91129	0.29241
0.332	69.521	-18825	2396	-0.34931	0.91119	0.29358
0.334	69.53	-18828	2396.2	-0.35087	0.9111	0.29475
0.336	69.536	-18828	2396.3	-0.35195	0.91012	0.29387
0.338	69.543	-18824	2396.5	-0.35302	0.90914	0.293
0.34	69.543	-18820	2396.7	-0.35409	0.90817	0.29212
0.342	69.534	-18814	2396.9	-0.35517	0.90719	0.29124
0.344	69.528	-18810	2397.1	-0.35624	0.90622	0.29036
0.346	69.525	-18806	2397.2	-0.35556	0.90612	0.29075
0.348	69.523	-18805	2397.3	-0.35487	0.90602	0.29114
0.35	69.529	-18808	2397.4	-0.35419	0.90592	0.29153
0.352	69.542	-18808	2397.6	-0.35351	0.90583	0.29192
0.354	69.551	-18806	2397.8	-0.35282	0.90573	0.29231
0.356	69.556	-18802	2397.9	-0.35282	0.90661	0.29309
0.358	69.561	-18797	2398	-0.35282	0.90748	0.29387
0.36	69.562	-18795	2398.2	-0.35282	0.90836	0.29465
0.362	69.557	-18798	2398.3	-0.35282	0.90924	0.29544
0.364	69.563	-18798	2398.4	-0.35282	0.91012	0.29622
0.366	69.577	-18796	2398.5	-0.35263	0.91071	0.29544
0.368	69.589	-18793	2398.7	-0.35243	0.91129	0.29465
0.37	69.6	-18791	2398.8	-0.35224	0.91188	0.29387
0.372	69.61	-18788	2398.8	-0.35204	0.91246	0.29309
0.374	69.615	-18785	2398.9	-0.35185	0.91305	0.29231
0.376	69.612	-18783	2399	-0.35175	0.91276	0.29221
0.378	69.608	-18782	2399.2	-0.35165	0.91246	0.29212
0.38	69.612	-18780	2399.3	-0.35156	0.91217	0.29202
0.382	69.618	-18777	2399.3	-0.35146	0.91188	0.29192
0.384	69.627	-18775	2399.4	-0.35136	0.91158	0.29182
0.386	69.643	-18774	2399.5	-0.35029	0.91266	0.29124
0.388	69.651	-18773	2399.6	-0.34921	0.91373	0.29065
0.39	69.648	-18771	2399.7	-0.34814	0.9148	0.29007
0.392	69.645	-18770	2399.7	-0.34707	0.91588	0.28948
0.394	69.645	-18770	2399.8	-0.34599	0.91695	0.2889
0.396	69.646	-18767	2399.9	-0.3455	0.91588	0.28938
0.398	69.654	-18760	2400	-0.34502	0.9148	0.28987
0.4	69.666	-18758	2400	-0.34453	0.91373	0.29036
0.402	69.677	-18760	2400.1	-0.34404	0.91266	0.29085
0.404	69.684	-18762	2400.1	-0.34355	0.91158	0.29134
0.406	69.689	-18762	2400.2	-0.34404	0.91217	0.29124
0.408	69.692	-18762	2400.3	-0.34453	0.91276	0.29114
0.41	69.686	-18763	2400.3	-0.34502	0.91334	0.29104
0.412	69.68	-18763	2400.3	-0.3455	0.91393	0.29095
0.414	69.678	-18760	2400.3	-0.34599	0.91451	0.29085
0.416	69.682	-18761	2400.3	-0.34619	0.91451	0.29124
0.418	69.687	-18764	2400.3	-0.34638	0.91451	0.29163
0.42	69.695	-18761	2400.4	-0.34658	0.91451	0.29202
0.422	69.701	-18754	2400.5	-0.34677	0.91451	0.29241
0.424	69.707	-18753	2400.5	-0.34697	0.91451	0.2928
0.426	69.699	-18759	2400.5	-0.34619	0.91373	0.29212
0.428	69.685	-18761	2400.5	-0.34541	0.91295	0.29143
0.43	69.683	-18760	2400.5	-0.34463	0.91217	0.29075
0.432	69.693	-18759	2400.5	-0.34384	0.91139	0.29007
0.434	69.701	-18758	2400.5	-0.34306	0.91061	0.28938
0.436	69.709	-18757	2400.5	-0.34414	0.91129	0.28948
0.438	69.718	-18758	2400.5	-0.34521	0.91197	0.28958
0.44	69.716	-18754	2400.5	-0.34628	0.91266	0.28968
0.442	69.703	-18746	2400.4	-0.34736	0.91334	0.28977
0.444	69.694	-18746	2400.4	-0.34843	0.91402	0.28987
0.446	69.681	-18755	2400.4	-0.34814	0.91354	0.29036
0.448	69.677	-18758	2400.4	-0.34785	0.91305	0.29085
0.45	69.681	-18756	2400.3	-0.34755	0.91256	0.29134
0.452	69.687	-18752	2400.3	-0.34726	0.91207	0.29182
0.454	69.696	-18745	2400.2	-0.34697	0.91158	0.29231
0.456	69.696	-18739	2400.3	-0.34677	0.91227	0.29134
0.458	69.69	-18736	2400.3	-0.34658	0.91295	0.29036
0.46	69.685	-18738	2400.3	-0.34638	0.91363	0.28938
0.462	69.68	-18744	2400.3	-0.34619	0.91432	0.28841
0.464	69.677	-18749	2400.3	-0.34599	0.915	0.28743
0.466	69.679	-18754	2400.2	-0.3456	0.91412	0.28743
0.468	69.682	-18756	2400.2	-0.34521	0.91324	0.28743
0.47	69.683	-18756	2400.2	-0.34482	0.91236	0.28743
0.472	69.682	-18754	2400.2	-0.34443	0.91149	0.28743
0.474	69.679	-18751	2400.3	-0.34404	0.91061	0.28743
0.476	69.674	-18748	2400.2	-0.34433	0.91197	0.28733
0.478	69.668	-18746	2400.2	-0.34463	0.91334	0.28724
0.48	69.664	-18746	2400.2	-0.34492	0.91471	0.28714
0.482	69.662	-18747	2400.2	-0.34521	0.91607	0.28704
0.484	69.67	-18748	2400.2	-0.3455	0.91744	0.28694
0.486	69.677	-18750	2400.2	-0.3458	0.91646	0.28743
0.488	69.677	-18751	2400.2	-0.34609	0.91549	0.28792
0.49	69.677	-18751	2400.2	-0.34638	0.91451	0.28841
0.492	69.669	-18752	2400.2	-0.34668	0.91354	0.2889
0.494	69.659	-18753	2400.2	-0.34697	0.91256	0.28938
0.496	69.652	-18752	2400.2	-0.34746	0.91236	0.28987
0.498	69.651	-18749	2400.3	-0.34794	0.91217	0.29036
0.5	69.654	-18750	2400.3	-0.34843	0.91197	0.29085
0.502	69.659	-18753	2400.3	-0.34892	0.91178	0.29134
0.504	69.664	-18753	2400.3	-0.34941	0.91158	0.29182
0.506	69.665	-18749	2400.3	-0.3496	0.91071	0.29309
0.508	69.665	-18747	2400.3	-0.3498	0.90983	0.29436
0.51	69.655	-18747	2400.3	-0.34999	0.90895	0.29563
0.512	69.647	-18748	2400.3	-0.35019	0.90807	0.2969
0.514	69.645	-18748	2400.2	-0.35038	0.90719	0.29817
0.516	69.653	-18748	2400.3	-0.3497	0.90778	0.29758
0.518	69.663	-18749	2400.3	-0.34902	0.90836	0.297
0.52	69.669	-18748	2400.3	-0.34833	0.90895	0.29641
0.522	69.67	-18748	2400.2	-0.34765	0.90953	0.29583
0.524	69.668	-18750	2400.2	-0.34697	0.91012	0.29524
0.526	69.66	-18755	2400.1	-0.34765	0.9108	0.29495
0.528	69.652	-18757	2400.1	-0.34833	0.91149	0.29465
0.53	69.65	-18757	2400	-0.34902	0.91217	0.29436
0.532	69.652	-18756	2400	-0.3497	0.91285	0.29407
0.534	69.66	-18756	2400	-0.35038	0.91354	0.29378
0.536	69.672	-18757	2400	-0.34931	0.91266	0.29378
0.538	69.679	-18761	2400	-0.34824	0.91178	0.29378
0.54	69.68	-18759	2399.9	-0.34716	0.9109	0.29378
0.542	69.677	-18751	2399.9	-0.34609	0.91002	0.29378
0.544	69.669	-18749	2399.9	-0.34502	0.90914	0.29378
0.546	69.663	-18753	2399.9	-0.34541	0.91002	0.29319
0.548	69.661	-18756	2399.9	-0.3458	0.9109	0.2926
0.55	69.668	-18756	2399.9	-0.34619	0.91178	0.29202
0.552	69.678	-18757	2399.9	-0.34658	0.91266	0.29143
0.554	69.682	-18760	2399.9	-0.34697	0.91354	0.29085
0.556	69.682	-18761	2399.8	-0.34697	0.91393	0.29046
0.558	69.671	-18758	2399.8	-0.34697	0.91432	0.29007
0.56	69.651	-18758	2399.8	-0.34697	0.91471	0.28968
0.562	69.633	-18759	2399.8	-0.34697	0.9151	0.28929
0.564	69.628	-18759	2399.8	-0.34697	0.91549	0.2889
0.566	69.634	-18758	2399.9	-0.34677	0.91529	0.28909
0.568	69.643	-18755	2400	-0.34658	0.9151	0.28929
0.57	69.644	-18752	2400	-0.34638	0.9149	0.28948
0.572	69.641	-18749	2400	-0.34619	0.91471	0.28968
0.574	69.635	-18746	2399.9	-0.34599	0.91451	0.28987
0.576	69.628	-18748	2399.9	-0.3456	0.91412	0.28938
0.578	69.622	-18755	2399.9	-0.34521	0.91373	0.2889
0.58	69.62	-18758	2400	-0.34482	0.91334	0.28841
0.582	69.621	-18756	2400	-0.34443	0.91295	0.28792
0.584	69.62	-18754	2400.1	-0.34404	0.91256	0.28743
0.586	69.624	-18752	2400.1	-0.3457	0.91217	0.2888
0.588	69.617	-18751	2400.1	-0.34736	0.91178	0.29016
0.59	69.606	-18752	2400.1	-0.34902	0.91139	0.29153
0.592	69.595	-18755	2400.1	-0.35068	0.911	0.2929
0.594	69.586	-18758	2400.2	-0.35234	0.91061	0.29426
0.596	69.577	-18761	2400.2	-0.35214	0.911	0.29426
0.598	69.575	-18763	2400.2	-0.35195	0.91139	0.29426
0.6	69.586	-18763	2400.2	-0.35175	0.91178	0.29426
0.602	69.6	-18763	2400.2	-0.35156	0.91217	0.29426
0.604	69.603	-18760	2400.2	-0.35136	0.91256	0.29426
0.606	69.596	-18754	2400.2	-0.34931	0.91305	0.2929
0.608	69.582	-18754	2400.2	-0.34726	0.91354	0.29153
0.61	69.569	-18758	2400.2	-0.34521	0.91402	0.29016
0.612	69.569	-18760	2400.3	-0.34316	0.91451	0.2888
0.614	69.579	-18760	2400.3	-0.34111	0.915	0.28743
0.616	69.589	-18757	2400.3	-0.34248	0.91451	0.28792
0.618	69.6	-18751	2400.3	-0.34384	0.91402	0.28841
0.62	69.614	-18750	2400.3	-0.34521	0.91354	0.2889
0.622	69.613	-18753	2400.3	-0.34658	0.91305	0.28938
0.624	69.603	-18756	2400.4	-0.34794	0.91256	0.28987
0.626	69.595	-18759	2400.3	-0.34697	0.91246	0.28987
0.628	69.589	-18760	2400.3	-0.34599	0.91236	0.28987
0.63	69.589	-18759	2400.3	-0.34502	0.91227	0.28987
0.632	69.596	-18760	2400.3	-0.34404	0.91217	0.28987
0.634	69.605	-18762	2400.3	-0.34306	0.91207	0.28987
0.636	69.616	-18764	2400.3	-0.34384	0.91256	0.29026
0.638	69.625	-18764	2400.3	-0.34463	0.91305	0.29065
0.64	69.625	-18764	2400.3	-0.34541	0.91354	0.29104
0.642	69.621	-18762	2400.3	-0.34619	0.91402	0.29143
0.644	69.622	-18760	2400.2	-0.34697	0.91451	0.29182
0.646	69.625	-18758	2400.2	-0.34668	0.91393	0.29173
0.648	69.63	-18756	2400.2	-0.34638	0.91334	0.29163
0.65	69.647	-18755	2400.2	-0.34609	0.91276	0.29153
0.652	69.674	-18756	2400.2	-0.3458	0.91217	0.29143
0.654	69.698	-18760	2400.2	-0.3455	0.91158	0.29134
0.656	69.71	-18762	2400.1	-0.34628	0.91158	0.29182
0.658	69.711	-18762	2400.1	-0.34707	0.91158	0.29231
0.66	69.707	-18761	2400	-0.34785	0.91158	0.2928
0.662	69.701	-18759	2400	-0.34863	0.91158	0.29329
0.664	69.693	-18758	2400	-0.34941	0.91158	0.29378
0.666	69.691	-18758	2400	-0.34902	0.91188	0.29368
0.668	69.699	-18758	2399.9	-0.34863	0.91217	0.29358
0.67	69.709	-18756	2399.9	-0.34824	0.91246	0.29348
0.672	69.712	-18755	2399.9	-0.34785	0.91276	0.29339
0.674	69.708	-18756	2399.9	-0.34746	0.91305	0.29329
0.676	69.699	-18757	2399.9	-0.34746	0.91324	0.293
0.678	69.692	-18760	2399.9	-0.34746	0.91344	0.2927
0.68	69.687	-18763	2399.8	-0.34746	0.91363	0.29241
0.682	69.683	-18766	2399.8	-0.34746	0.91383	0.29212
0.684	69.687	-18769	2399.7	-0.34746	0.91402	0.29182
0.686	69.689	-18771	2399.7	-0.34765	0.91451	0.29163
0.688	69.691	-18770	2399.7	-0.34785	0.915	0.29143
0.69	69.69	-18766	2399.6	-0.34804	0.91549	0.29124
0.692	69.683	-18764	2399.6	-0.34824	0.91598	0.29104
0.694	69.676	-18764	2399.6	-0.34843	0.91646	0.29085
0.696	69.674	-18765	2399.6	-0.34902	0.91568	0.29075
0.698	69.677	-18767	2399.5	-0.3496	0.9149	0.29065
0.7	69.683	-18766	2399.5	-0.35019	0.91412	0.29056
0.702	69.688	-18762	2399.5	-0.35077	0.91334	0.29046
0.704	69.697	-18761	2399.5	-0.35136	0.91256	0.29036
0.706	69.699	-18764	2399.4	-0.35087	0.91256	0.29026
0.708	69.693	-18766	2399.4	-0.35038	0.91256	0.29016
0.71	69.691	-18769	2399.4	-0.3499	0.91256	0.29007
0.712	69.694	-18770	2399.4	-0.34941	0.91256	0.28997
0.714	69.713	-18768	2399.4	-0.34892	0.91256	0.28987
0.716	69.748	-18765	2399.3	-0.34999	0.91178	0.29104
0.718	69.787	-18762	2399.3	-0.35107	0.911	0.29221
0.72	69.824	-18760	2399.2	-0.35214	0.91022	0.29339
0.722	69.854	-18761	2399.2	-0.35321	0.90944	0.29456
0.724	69.856	-18762	2399.2	-0.35429	0.90866	0.29573
0.726	69.826	-18763	2399.2	-0.35331	0.90992	0.29446
0.728	69.778	-18765	2399.2	-0.35234	0.91119	0.29319
0.73	69.728	-18768	2399.2	-0.35136	0.91246	0.29192
0.732	69.671	-18768	2399.2	-0.35038	0.91373	0.29065
0.734	69.598	-18765	2399.1	-0.34941	0.915	0.28938
0.736	69.52	-18764	2399.1	-0.3496	0.9149	0.28958
0.738	69.435	-18766	2399	-0.3498	0.9148	0.28977
0.74	69.335	-18766	2399	-0.34999	0.91471	0.28997
0.742	69.215	-18765	2399	-0.35019	0.91461	0.29016
0.744	69.073	-18765	2399	-0.35038	0.91451	0.29036
0.746	68.917	-18764	2399	-0.35009	0.91412	0.29007
0.748	68.776	-18764	2399	-0.3498	0.91373	0.28977
0.75	68.648	-18764	2398.9	-0.34951	0.91334	0.28948
0.752	68.557	-18765	2398.9	-0.34921	0.91295	0.28919
0.754	68.522	-18767	2398.9	-0.34892	0.91256	0.2889
0.756	68.54	-18769	2398.9	-0.34863	0.91276	0.28919
0.758	68.614	-18771	2398.9	-0.34833	0.91295	0.28948
0.76	68.733	-18774	2398.8	-0.34804	0.91315	0.28977
0.762	68.868	-18778	2398.8	-0.34775	0.91334	0.29007
0.764	69.025	-18777	2398.8	-0.34746	0.91354	0.29036
0.766	69.179	-18771	2398.7	-0.34863	0.91217	0.29153
0.768	69.339	-18771	2398.6	-0.3498	0.9108	0.2927
0.77	69.483	-18776	2398.6	-0.35097	0.90944	0.29387
0.772	69.582	-18777	2398.6	-0.35214	0.90807	0.29504
0.774	69.629	-18773	2398.5	-0.35331	0.9067	0.29622
0.776	69.655	-18773	2398.5	-0.35331	0.90709	0.29612
0.778	69.681	-18776	2398.4	-0.35331	0.90748	0.29602
0.78	69.69	-18779	2398.4	-0.35331	0.90788	0.29592
0.782	69.726	-18781	2398.3	-0.35331	0.90827	0.29583
0.784	69.753	-18781	2398.3	-0.35331	0.90866	0.29573
0.786	69.746	-18780	2398.3	-0.35312	0.90914	0.29524
0.788	69.722	-18779	2398.3	-0.35292	0.90963	0.29475
0.79	69.696	-18779	2398.3	-0.35273	0.91012	0.29426
0.792	69.673	-18781	2398.3	-0.35253	0.91061	0.29378
0.794	69.651	-18784	2398.2	-0.35234	0.9111	0.29329
0.796	69.638	-18788	2398.1	-0.35068	0.91119	0.29446
0.798	69.639	-18792	2398.1	-0.34902	0.91129	0.29563
0.8	69.649	-18792	2398	-0.34736	0.91139	0.2968
0.802	69.661	-18787	2397.9	-0.3457	0.91149	0.29797
0.804	69.669	-18788	2397.9	-0.34404	0.91158	0.29914
0.806	69.673	-18794	2397.9	-0.3456	0.91129	0.29817
0.808	69.673	-18796	2398	-0.34716	0.911	0.29719
0.81	69.666	-18792	2398	-0.34872	0.91071	0.29622
0.812	69.66	-18792	2398	-0.35029	0.91041	0.29524
0.814	69.659	-18795	2397.9	-0.35185	0.91012	0.29426
0.816	69.665	-18792	2397.9	-0.35146	0.90992	0.29436
0.818	69.675	-18783	2397.9	-0.35107	0.90973	0.29446
0.82	69.682	-18779	2397.8	-0.35068	0.90953	0.29456
0.822	69.682	-18781	2397.8	-0.35029	0.90934	0.29465
0.824	69.68	-18782	2397.8	-0.3499	0.90914	0.29475
0.826	69.671	-18782	2397.7	-0.34902	0.90895	0.29446
0.828	69.659	-18781	2397.6	-0.34814	0.90875	0.29417
0.83	69.65	-18780	2397.5	-0.34726	0.90856	0.29387
0.832	69.645	-18782	2397.5	-0.34638	0.90836	0.29358
0.834	69.642	-18788	2397.5	-0.3455	0.90817	0.29329
0.836	69.644	-18793	2397.5	-0.34726	0.90807	0.29378
0.838	69.645	-18797	2397.5	-0.34902	0.90797	0.29426
0.84	69.64	-18796	2397.5	-0.35077	0.90788	0.29475
0.842	69.632	-18789	2397.5	-0.35253	0.90778	0.29524
0.844	69.623	-18783	2397.5	-0.35429	0.90768	0.29573
0.846	69.616	-18778	2397.5	-0.35312	0.90788	0.29504
0.848	69.614	-18777	2397.5	-0.35195	0.90807	0.29436
0.85	69.62	-18781	2397.4	-0.35077	0.90827	0.29368
0.852	69.628	-18785	2397.4	-0.3496	0.90846	0.293
0.854	69.633	-18789	2397.3	-0.34843	0.90866	0.29231
0.856	69.634	-18797	2397.3	-0.34843	0.90924	0.29231
0.858	69.626	-18807	2397.2	-0.34843	0.90983	0.29231
0.86	69.62	-18813	2397.1	-0.34843	0.91041	0.29231
0.862	69.615	-18813	2397	-0.34843	0.911	0.29231
0.864	69.614	-18812	2396.8	-0.34843	0.91158	0.29231
0.866	69.614	-18809	2396.9	-0.34863	0.91178	0.29241
0.868	69.619	-18807	2396.9	-0.34882	0.91197	0.29251
0.87	69.626	-18806	2396.9	-0.34902	0.91217	0.2926
0.872	69.627	-18805	2396.9	-0.34921	0.91236	0.2927
0.874	69.621	-18804	2396.9	-0.34941	0.91256	0.2928
0.876	69.614	-18803	2396.9	-0.34863	0.91207	0.29241
0.878	69.61	-18801	2396.9	-0.34785	0.91158	0.29202
0.88	69.603	-18801	2396.9	-0.34707	0.9111	0.29163
0.882	69.6	-18803	2396.9	-0.34628	0.91061	0.29124
0.884	69.605	-18803	2396.8	-0.3455	0.91012	0.29085
0.886	69.611	-18799	2396.8	-0.3457	0.91119	0.29085
0.888	69.615	-18798	2396.8	-0.34589	0.91227	0.29085
0.89	69.613	-18800	2396.8	-0.34609	0.91334	0.29085
0.892	69.606	-18803	2396.8	-0.34628	0.91441	0.29085
0.894	69.595	-18806	2396.8	-0.34648	0.91549	0.29085
0.896	69.588	-18808	2396.7	-0.34619	0.91432	0.29143
0.898	69.587	-18809	2396.6	-0.34589	0.91315	0.29202
0.9	69.588	-18811	2396.6	-0.3456	0.91197	0.2926
0.902	69.593	-18814	2396.7	-0.34531	0.9108	0.29319
0.904	69.595	-18814	2396.7	-0.34502	0.90963	0.29378
0.906	69.59	-18814	2396.7	-0.34531	0.90983	0.29339
0.908	69.582	-18809	2396.8	-0.3456	0.91002	0.293
0.91	69.572	-18799	2396.8	-0.34589	0.91022	0.2926
0.912	69.563	-18798	2396.9	-0.34619	0.91041	0.29221
0.914	69.556	-18807	2396.9	-0.34648	0.91061	0.29182
0.916	69.556	-18812	2397.1	-0.34736	0.91061	0.2929
0.918	69.558	-18814	2397.2	-0.34824	0.91061	0.29397
0.92	69.564	-18816	2397.3	-0.34912	0.91061	0.29504
0.922	69.563	-18817	2397.4	-0.34999	0.91061	0.29612
0.924	69.556	-18816	2397.5	-0.35087	0.91061	0.29719
0.926	69.547	-18812	2397.6	-0.34912	0.9109	0.29514
0.928	69.536	-18809	2397.8	-0.34736	0.91119	0.29309
0.93	69.525	-18808	2397.9	-0.3456	0.91149	0.29104
0.932	69.526	-18807	2398	-0.34384	0.91178	0.28899
0.934	69.527	-18806	2398.2	-0.34209	0.91207	0.28694
0.936	69.535	-18803	2398.3	-0.34306	0.91188	0.28772
0.938	69.537	-18799	2398.5	-0.34404	0.91168	0.28851
0.94	69.533	-18799	2398.6	-0.34502	0.91149	0.28929
0.942	69.528	-18803	2398.8	-0.34599	0.91129	0.29007
0.944	69.52	-18802	2398.9	-0.34697	0.9111	0.29085
0.946	69.514	-18798	2399.1	-0.34755	0.91061	0.29163
0.948	69.514	-18796	2399.2	-0.34814	0.91012	0.29241
0.95	69.515	-18795	2399.4	-0.34872	0.90963	0.29319
0.952	69.524	-18795	2399.5	-0.34931	0.90914	0.29397
0.954	69.534	-18796	2399.7	-0.3499	0.90866	0.29475
0.956	69.538	-18796	2399.8	-0.3496	0.90856	0.29426
0.958	69.532	-18795	2400	-0.34931	0.90846	0.29378
0.96	69.526	-18791	2400.1	-0.34902	0.90836	0.29329
0.962	69.525	-18784	2400.3	-0.34872	0.90827	0.2928
0.964	69.527	-18781	2400.5	-0.34843	0.90817	0.29231
0.966	69.531	-18781	2400.7	-0.34863	0.90875	0.29241
0.968	69.539	-18782	2400.8	-0.34882	0.90934	0.29251
0.97	69.545	-18783	2401	-0.34902	0.90992	0.2926
0.972	69.552	-18782	2401.1	-0.34921	0.91051	0.2927
0.974	69.553	-18779	2401.3	-0.34941	0.9111	0.2928
0.976	69.548	-18775	2401.5	-0.34951	0.9109	0.29309
0.978	69.54	-18769	2401.6	-0.3496	0.91071	0.29339
0.98	69.536	-18766	2401.7	-0.3497	0.91051	0.29368
0.982	69.541	-18766	2401.9	-0.3498	0.91032	0.29397
0.984	69.552	-18766	2402	-0.3499	0.91012	0.29426
0.986	69.565	-18767	2402.1	-0.3498	0.90983	0.29397
0.988	69.577	-18766	2402.2	-0.3497	0.90953	0.29368
0.99	69.583	-18763	2402.4	-0.3496	0.90924	0.29339
0.992	69.584	-18760	2402.5	-0.34951	0.90895	0.29309
0.994	69.585	-18757	2402.6	-0.34941	0.90866	0.2928
0.996	69.586	-18753	2402.8	-0.3499	0.90885	0.2929
0.998	69.588	-18750	2402.9	-0.35038	0.90905	0.293
1	69.597	-18750	2403	-0.35087	0.90924	0.29309
1.002	69.615	-18752	2403.1	-0.35136	0.90944	0.29319
1.004	69.629	-18750	2403.1	-0.35185	0.90963	0.29329
1.006	69.636	-18745	2403.2	-0.35097	0.9109	0.29241
1.008	69.637	-18743	2403.3	-0.35009	0.91217	0.29153
1.01	69.634	-18743	2403.4	-0.34921	0.91344	0.29065
1.012	69.634	-18741	2403.5	-0.34833	0.91471	0.28977
1.014	69.636	-18738	2403.6	-0.34746	0.91598	0.2889
1.016	69.64	-18732	2403.7	-0.34765	0.91539	0.28968
1.018	69.65	-18721	2403.8	-0.34785	0.9148	0.29046
1.02	69.664	-18718	2403.9	-0.34804	0.91422	0.29124
1.022	69.671	-18722	2404	-0.34824	0.91363	0.29202
1.024	69.674	-18726	2404.1	-0.34843	0.91305	0.2928
1.026	69.674	-18729	2404.1	-0.34755	0.91227	0.29153
1.028	69.673	-18733	2404.2	-0.34668	0.91149	0.29026
1.03	69.67	-18736	2404.2	-0.3458	0.91071	0.28899
1.032	69.675	-18738	2404.3	-0.34492	0.90992	0.28772
1.034	69.691	-18738	2404.4	-0.34404	0.90914	0.28646
1.036	69.701	-18736	2404.4	-0.34394	0.90856	0.28792
1.038	69.705	-18733	2404.5	-0.34384	0.90797	0.28938
1.04	69.708	-18730	2404.6	-0.34375	0.90739	0.29085
1.042	69.703	-18728	2404.6	-0.34365	0.9068	0.29231
1.044	69.693	-18726	2404.7	-0.34355	0.90622	0.29378
1.046	69.69	-18724	2404.8	-0.34316	0.90631	0.29417
1.048	69.694	-18723	2404.8	-0.34277	0.90641	0.29456
1.05	69.701	-18722	2404.8	-0.34238	0.90651	0.29495
1.052	69.709	-18722	2404.9	-0.34199	0.90661	0.29534
1.054	69.718	-18723	2404.9	-0.3416	0.9067	0.29573
1.056	69.722	-18723	2404.9	-0.34267	0.90807	0.29495
1.058	69.718	-18723	2404.9	-0.34375	0.90944	0.29417
1.06	69.713	-18719	2404.9	-0.34482	0.9108	0.29339
1.062	69.708	-18712	2405	-0.34589	0.91217	0.2926
1.064	69.708	-18709	2405	-0.34697	0.91354	0.29182
1.066	69.716	-18711	2405	-0.34599	0.91344	0.29124
1.068	69.724	-18712	2404.9	-0.34502	0.91334	0.29065
1.07	69.73	-18714	2404.9	-0.34404	0.91324	0.29007
1.072	69.733	-18716	2404.9	-0.34306	0.91315	0.28948
1.074	69.732	-18719	2404.9	-0.34209	0.91305	0.2889
1.076	69.727	-18718	2404.9	-0.34306	0.91305	0.29026
1.078	69.722	-18713	2404.9	-0.34404	0.91305	0.29163
1.08	69.717	-18708	2404.9	-0.34502	0.91305	0.293
1.082	69.719	-18703	2404.9	-0.34599	0.91305	0.29436
1.084	69.725	-18701	2404.9	-0.34697	0.91305	0.29573
1.086	69.732	-18704	2404.8	-0.34746	0.91324	0.29475
1.088	69.736	-18707	2404.8	-0.34794	0.91344	0.29378
1.09	69.733	-18712	2404.7	-0.34843	0.91363	0.2928
1.092	69.721	-18716	2404.7	-0.34892	0.91383	0.29182
1.094	69.715	-18719	2404.7	-0.34941	0.91402	0.29085
1.096	69.714	-18718	2404.7	-0.34931	0.91461	0.29046
1.098	69.714	-18714	2404.7	-0.34921	0.9152	0.29007
1.1	69.719	-18711	2404.7	-0.34912	0.91578	0.28968
1.102	69.729	-18710	2404.7	-0.34902	0.91637	0.28929
1.104	69.733	-18710	2404.7	-0.34892	0.91695	0.2889
1.106	69.735	-18710	2404.7	-0.34853	0.91676	0.28831
1.108	69.73	-18710	2404.6	-0.34814	0.91656	0.28772
1.11	69.717	-18710	2404.6	-0.34775	0.91637	0.28714
1.112	69.705	-18709	2404.6	-0.34736	0.91617	0.28655
1.114	69.704	-18706	2404.6	-0.34697	0.91598	0.28597
1.116	69.707	-18704	2404.6	-0.34814	0.91549	0.28704
1.118	69.71	-18704	2404.5	-0.34931	0.915	0.28812
1.12	69.714	-18704	2404.5	-0.35048	0.91451	0.28919
1.122	69.718	-18706	2404.5	-0.35165	0.91402	0.29026
1.124	69.715	-18708	2404.5	-0.35282	0.91354	0.29134
1.126	69.706	-18711	2404.5	-0.35214	0.91276	0.2928
1.128	69.697	-18712	2404.6	-0.35146	0.91197	0.29426
1.13	69.698	-18713	2404.6	-0.35077	0.91119	0.29573
1.132	69.697	-18712	2404.6	-0.35009	0.91041	0.29719
1.134	69.7	-18709	2404.6	-0.34941	0.90963	0.29866
1.136	69.708	-18710	2404.5	-0.34824	0.90807	0.29797
1.138	69.712	-18713	2404.5	-0.34707	0.90651	0.29729
1.14	69.707	-18717	2404.5	-0.34589	0.90495	0.29661
1.142	69.699	-18722	2404.5	-0.34472	0.90339	0.29592
1.144	69.691	-18723	2404.5	-0.34355	0.90182	0.29524
1.146	69.684	-18722	2404.5	-0.34355	0.9027	0.29612
1.148	69.684	-18721	2404.5	-0.34355	0.90358	0.297
1.15	69.691	-18719	2404.5	-0.34355	0.90446	0.29788
1.152	69.7	-18717	2404.5	-0.34355	0.90534	0.29875
1.154	69.709	-18715	2404.4	-0.34355	0.90622	0.29963
1.156	69.708	-18714	2404.4	-0.34345	0.90641	0.29973
1.158	69.697	-18715	2404.3	-0.34336	0.90661	0.29983
1.16	69.688	-18714	2404.3	-0.34326	0.9068	0.29992
1.162	69.685	-18709	2404.3	-0.34316	0.907	0.30002
1.164	69.684	-18708	2404.3	-0.34306	0.90719	0.30012
1.166	69.685	-18710	2404.2	-0.34297	0.90748	0.29973
1.168	69.69	-18711	2404.1	-0.34287	0.90778	0.29934
1.17	69.698	-18710	2404.1	-0.34277	0.90807	0.29895
1.172	69.702	-18712	2404.1	-0.34267	0.90836	0.29856
1.174	69.7	-18715	2404.1	-0.34258	0.90866	0.29817
1.176	69.695	-18717	2404.1	-0.34267	0.90885	0.29797
1.178	69.691	-18720	2404	-0.34277	0.90905	0.29778
1.18	69.692	-18721	2404	-0.34287	0.90924	0.29758
1.182	69.694	-18720	2404	-0.34297	0.90944	0.29739
1.184	69.701	-18719	2403.9	-0.34306	0.90963	0.29719
1.186	69.707	-18717	2403.9	-0.34414	0.90983	0.2969
1.188	69.714	-18716	2403.9	-0.34521	0.91002	0.29661
1.19	69.713	-18715	2403.9	-0.34628	0.91022	0.29631
1.192	69.701	-18713	2403.9	-0.34736	0.91041	0.29602
1.194	69.689	-18711	2403.8	-0.34843	0.91061	0.29573
1.196	69.676	-18712	2403.8	-0.34824	0.91178	0.29446
1.198	69.674	-18718	2403.8	-0.34804	0.91295	0.29319
1.2	69.677	-18719	2403.8	-0.34785	0.91412	0.29192
1.202	69.689	-18716	2403.8	-0.34765	0.91529	0.29065
1.204	69.695	-18716	2403.8	-0.34746	0.91646	0.28938
1.206	69.694	-18720	2403.9	-0.34677	0.91578	0.28929
1.208	69.684	-18723	2403.9	-0.34609	0.9151	0.28919
1.21	69.676	-18725	2403.9	-0.34541	0.91441	0.28909
1.212	69.67	-18724	2403.8	-0.34472	0.91373	0.28899
1.214	69.661	-18720	2403.8	-0.34404	0.91305	0.2889
1.216	69.659	-18717	2403.9	-0.34648	0.91256	0.29026
1.218	69.666	-18715	2403.9	-0.34892	0.91207	0.29163
1.22	69.67	-18714	2403.9	-0.35136	0.91158	0.293
1.222	69.667	-18715	2403.9	-0.3538	0.9111	0.29436
1.224	69.662	-18716	2404	-0.35624	0.91061	0.29573
1.226	69.656	-18719	2404	-0.35526	0.91071	0.29612
1.228	69.652	-18720	2404	-0.35429	0.9108	0.29651
1.23	69.65	-18721	2404	-0.35331	0.9109	0.2969
1.232	69.646	-18722	2404	-0.35234	0.911	0.29729
1.234	69.65	-18725	2404	-0.35136	0.9111	0.29768
1.236	69.659	-18726	2404.1	-0.35146	0.91139	0.2968
1.238	69.657	-18726	2404.1	-0.35156	0.91168	0.29592
1.24	69.642	-18726	2404.1	-0.35165	0.91197	0.29504
1.242	69.63	-18726	2404.1	-0.35175	0.91227	0.29417
1.244	69.626	-18726	2404.2	-0.35185	0.91256	0.29329
1.246	69.625	-18727	2404.2	-0.35126	0.91285	0.29241
1.248	69.633	-18724	2404.2	-0.35068	0.91315	0.29153
1.25	69.647	-18717	2404.2	-0.35009	0.91344	0.29065
1.252	69.659	-18717	2404.2	-0.34951	0.91373	0.28977
1.254	69.664	-18722	2404.2	-0.34892	0.91402	0.2889
1.256	69.661	-18723	2404.2	-0.34863	0.91412	0.2889
1.258	69.653	-18720	2404.3	-0.34833	0.91422	0.2889
1.26	69.643	-18718	2404.3	-0.34804	0.91432	0.2889
1.262	69.633	-18719	2404.3	-0.34775	0.91441	0.2889
1.264	69.63	-18717	2404.3	-0.34746	0.91451	0.2889
1.266	69.636	-18714	2404.3	-0.34726	0.91432	0.28929
1.268	69.647	-18714	2404.4	-0.34707	0.91412	0.28968
1.27	69.656	-18717	2404.3	-0.34687	0.91393	0.29007
1.272	69.662	-18721	2404.3	-0.34668	0.91373	0.29046
1.274	69.658	-18726	2404.3	-0.34648	0.91354	0.29085
1.276	69.654	-18727	2404.3	-0.34648	0.91305	0.29163
1.278	69.654	-18725	2404.3	-0.34648	0.91256	0.29241
1.28	69.662	-18721	2404.3	-0.34648	0.91207	0.29319
1.282	69.68	-18716	2404.3	-0.34648	0.91158	0.29397
1.284	69.703	-18718	2404.3	-0.34648	0.9111	0.29475
1.286	69.719	-18725	2404.2	-0.34648	0.91188	0.29407
1.288	69.73	-18726	2404.2	-0.34648	0.91266	0.29339
1.29	69.741	-18721	2404.1	-0.34648	0.91344	0.2927
1.292	69.739	-18718	2404.1	-0.34648	0.91422	0.29202
1.294	69.735	-18718	2404	-0.34648	0.915	0.29134
1.296	69.73	-18719	2404	-0.34648	0.91383	0.29231
1.298	69.727	-18721	2403.9	-0.34648	0.91266	0.29329
1.3	69.728	-18721	2403.9	-0.34648	0.91149	0.29426
1.302	69.731	-18717	2403.8	-0.34648	0.91032	0.29524
1.304	69.737	-18720	2403.8	-0.34648	0.90914	0.29622
1.306	69.739	-18729	2403.7	-0.34619	0.90953	0.29602
1.308	69.734	-18731	2403.7	-0.34589	0.90992	0.29583
1.31	69.728	-18725	2403.6	-0.3456	0.91032	0.29563
1.312	69.721	-18723	2403.5	-0.34531	0.91071	0.29544
1.314	69.718	-18724	2403.5	-0.34502	0.9111	0.29524
1.316	69.722	-18726	2403.4	-0.34502	0.91012	0.29514
1.318	69.728	-18731	2403.4	-0.34502	0.90914	0.29504
1.32	69.735	-18733	2403.3	-0.34502	0.90817	0.29495
1.322	69.739	-18734	2403.2	-0.34502	0.90719	0.29485
1.324	69.738	-18732	2403.2	-0.34502	0.90622	0.29475
1.326	69.73	-18727	2403.1	-0.3456	0.907	0.29465
1.328	69.723	-18726	2403.1	-0.34619	0.90778	0.29456
1.33	69.721	-18729	2403	-0.34677	0.90856	0.29446
1.332	69.725	-18731	2402.9	-0.34736	0.90934	0.29436
1.334	69.73	-18732	2402.8	-0.34794	0.91012	0.29426
1.336	69.732	-18734	2402.8	-0.34843	0.91061	0.29348
1.338	69.736	-18737	2402.7	-0.34892	0.9111	0.2927
1.34	69.741	-18738	2402.6	-0.34941	0.91158	0.29192
1.342	69.74	-18737	2402.6	-0.3499	0.91207	0.29114
1.344	69.735	-18732	2402.5	-0.35038	0.91256	0.29036
1.346	69.736	-18724	2402.5	-0.35077	0.91227	0.29134
1.348	69.752	-18725	2402.4	-0.35116	0.91197	0.29231
1.35	69.784	-18735	2402.4	-0.35156	0.91168	0.29329
1.352	69.822	-18737	2402.3	-0.35195	0.91139	0.29426
1.354	69.86	-18732	2402.2	-0.35234	0.9111	0.29524
1.356	69.893	-18731	2402.2	-0.35175	0.91119	0.29426
1.358	69.896	-18733	2402.2	-0.35116	0.91129	0.29329
1.36	69.871	-18734	2402.2	-0.35058	0.91139	0.29231
1.362	69.829	-18734	2402.1	-0.34999	0.91149	0.29134
1.364	69.786	-18736	2402.1	-0.34941	0.91158	0.29036
1.366	69.735	-18739	2402	-0.34833	0.91158	0.29046
1.368	69.668	-18739	2402	-0.34726	0.91158	0.29056
1.37	69.588	-18736	2402	-0.34619	0.91158	0.29065
1.372	69.497	-18736	2401.9	-0.34511	0.91158	0.29075
1.374	69.379	-18740	2401.9	-0.34404	0.91158	0.29085
1.376	69.258	-18739	2401.9	-0.34463	0.91188	0.29143
1.378	69.11	-18735	2401.9	-0.34521	0.91217	0.29202
1.38	68.962	-18733	2401.8	-0.3458	0.91246	0.2926
1.382	68.83	-18733	2401.8	-0.34638	0.91276	0.29319
1.384	68.707	-18736	2401.8	-0.34697	0.91305	0.29378
1.386	68.617	-18742	2401.8	-0.34736	0.91246	0.29339
1.388	68.571	-18747	2401.7	-0.34775	0.91188	0.293
1.39	68.558	-18752	2401.7	-0.34814	0.91129	0.2926
1.392	68.614	-18753	2401.6	-0.34853	0.91071	0.29221
1.394	68.732	-18750	2401.6	-0.34892	0.91012	0.29182
1.396	68.874	-18749	2401.6	-0.34833	0.91071	0.29173
1.398	69.038	-18750	2401.5	-0.34775	0.91129	0.29163
1.4	69.198	-18748	2401.5	-0.34716	0.91188	0.29153
1.402	69.345	-18744	2401.4	-0.34658	0.91246	0.29143
1.404	69.476	-18745	2401.4	-0.34599	0.91305	0.29134
1.406	69.576	-18750	2401.3	-0.34648	0.91246	0.29182
1.408	69.635	-18753	2401.3	-0.34697	0.91188	0.29231
1.41	69.676	-18753	2401.2	-0.34746	0.91129	0.2928
1.412	69.716	-18749	2401.1	-0.34794	0.91071	0.29329
1.414	69.748	-18742	2401.1	-0.34843	0.91012	0.29378
1.416	69.77	-18738	2401.1	-0.34843	0.9111	0.29348
1.418	69.774	-18739	2401	-0.34843	0.91207	0.29319
1.42	69.756	-18740	2401	-0.34843	0.91305	0.2929
1.422	69.731	-18742	2401	-0.34843	0.91402	0.2926
1.424	69.707	-18746	2401	-0.34843	0.915	0.29231
1.426	69.688	-18751	2400.9	-0.34863	0.91412	0.29309
1.428	69.67	-18752	2400.9	-0.34882	0.91324	0.29387
1.43	69.658	-18749	2400.8	-0.34902	0.91236	0.29465
1.432	69.659	-18746	2400.8	-0.34921	0.91149	0.29544
1.434	69.673	-18742	2400.7	-0.34941	0.91061	0.29622
1.436	69.689	-18742	2400.7	-0.34863	0.9108	0.29544
1.438	69.7	-18745	2400.6	-0.34785	0.911	0.29465
1.44	69.704	-18748	2400.6	-0.34707	0.91119	0.29387
1.442	69.702	-18752	2400.5	-0.34628	0.91139	0.29309
1.444	69.695	-18752	2400.5	-0.3455	0.91158	0.29231
1.446	69.691	-18750	2400.5	-0.3457	0.91217	0.29163
1.448	69.687	-18748	2400.5	-0.34589	0.91276	0.29095
1.45	69.692	-18747	2400.4	-0.34609	0.91334	0.29026
1.452	69.698	-18746	2400.4	-0.34628	0.91393	0.28958
1.454	69.704	-18747	2400.4	-0.34648	0.91451	0.2889
1.456	69.706	-18752	2400.3	-0.34716	0.91441	0.28997
1.458	69.703	-18763	2400.3	-0.34785	0.91432	0.29104
1.46	69.696	-18769	2400.2	-0.34853	0.91422	0.29212
1.462	69.688	-18771	2400.2	-0.34921	0.91412	0.29319
1.464	69.685	-18772	2400.2	-0.3499	0.91402	0.29426
1.466	69.685	-18772	2400.1	-0.34912	0.91285	0.29397
1.468	69.691	-18771	2400.1	-0.34833	0.91168	0.29368
1.47	69.696	-18769	2400.1	-0.34755	0.91051	0.29339
1.472	69.699	-18765	2400.1	-0.34677	0.90934	0.29309
1.474	69.696	-18760	2400	-0.34599	0.90817	0.2928
1.476	69.688	-18756	2400	-0.34668	0.90914	0.2928
1.478	69.679	-18753	2399.9	-0.34736	0.91012	0.2928
1.48	69.67	-18751	2399.9	-0.34804	0.9111	0.2928
1.482	69.668	-18749	2399.9	-0.34872	0.91207	0.2928
1.484	69.675	-18748	2399.9	-0.34941	0.91305	0.2928
1.486	69.68	-18749	2399.9	-0.34882	0.91295	0.29339
1.488	69.68	-18752	2399.8	-0.34824	0.91285	0.29397
1.49	69.678	-18757	2399.8	-0.34765	0.91276	0.29456
1.492	69.673	-18760	2399.8	-0.34707	0.91266	0.29514
1.494	69.666	-18762	2399.8	-0.34648	0.91256	0.29573
1.496	69.659	-18763	2399.7	-0.34589	0.91178	0.29622
1.498	69.655	-18764	2399.7	-0.34531	0.911	0.2967
1.5	69.656	-18765	2399.6	-0.34472	0.91022	0.29719
1.502	69.66	-18766	2399.6	-0.34414	0.90944	0.29768
1.504	69.664	-18767	2399.6	-0.34355	0.90866	0.29817
1.506	69.662	-18767	2399.6	-0.34443	0.90944	0.29661
1.508	69.655	-18767	2399.5	-0.34531	0.91022	0.29504
1.51	69.647	-18769	2399.5	-0.34619	0.911	0.29348
1.512	69.64	-18770	2399.5	-0.34707	0.91178	0.29192
1.514	69.636	-18771	2399.5	-0.34794	0.91256	0.29036
1.516	69.633	-18771	2399.5	-0.34716	0.91285	0.29007
1.518	69.633	-18770	2399.5	-0.34638	0.91315	0.28977
1.52	69.638	-18770	2399.4	-0.3456	0.91344	0.28948
1.522	69.639	-18773	2399.4	-0.34482	0.91373	0.28919
1.524	69.635	-18774	2399.4	-0.34404	0.91402	0.2889
1.526	69.627	-18774	2399.4	-0.34443	0.91344	0.28997
1.528	69.619	-18772	2399.3	-0.34482	0.91285	0.29104
1.53	69.608	-18769	2399.3	-0.34521	0.91227	0.29212
1.532	69.606	-18766	2399.3	-0.3456	0.91168	0.29319
1.534	69.609	-18765	2399.3	-0.34599	0.9111	0.29426
1.536	69.613	-18763	2399.3	-0.34648	0.911	0.29465
1.538	69.615	-18762	2399.3	-0.34697	0.9109	0.29504
1.54	69.611	-18765	2399.3	-0.34746	0.9108	0.29544
1.542	69.604	-18772	2399.3	-0.34794	0.91071	0.29583
1.544	69.592	-18776	2399.3	-0.34843	0.91061	0.29622
1.546	69.579	-18778	2399.4	-0.34726	0.91022	0.2968
1.548	69.573	-18779	2399.5	-0.34609	0.90983	0.29739
1.55	69.573	-18778	2399.5	-0.34492	0.90944	0.29797
1.552	69.577	-18776	2399.6	-0.34375	0.90905	0.29856
1.554	69.58	-18773	2399.7	-0.34258	0.90866	0.29914
1.556	69.578	-18770	2399.8	-0.34336	0.90885	0.29836
1.558	69.569	-18768	2399.9	-0.34414	0.90905	0.29758
1.56	69.558	-18764	2399.9	-0.34492	0.90924	0.2968
1.562	69.548	-18759	2400	-0.3457	0.90944	0.29602
1.564	69.542	-18760	2400.1	-0.34648	0.90963	0.29524
1.566	69.538	-18765	2400.2	-0.34726	0.91022	0.29465
1.568	69.54	-18769	2400.3	-0.34804	0.9108	0.29407
1.57	69.545	-18772	2400.4	-0.34882	0.91139	0.29348
1.572	69.545	-18772	2400.5	-0.3496	0.91197	0.2929
1.574	69.54	-18770	2400.6	-0.35038	0.91256	0.29231
1.576	69.531	-18769	2400.8	-0.34941	0.91168	0.29221
1.578	69.524	-18769	2400.9	-0.34843	0.9108	0.29212
1.58	69.519	-18769	2401	-0.34746	0.90992	0.29202
1.582	69.52	-18771	2401.2	-0.34648	0.90905	0.29192
1.584	69.525	-18768	2401.3	-0.3455	0.90817	0.29182
1.586	69.532	-18761	2401.5	-0.34628	0.90914	0.29202
1.588	69.537	-18758	2401.6	-0.34707	0.91012	0.29221
1.59	69.536	-18760	2401.8	-0.34785	0.9111	0.29241
1.592	69.532	-18759	2401.9	-0.34863	0.91207	0.2926
1.594	69.53	-18756	2402	-0.34941	0.91305	0.2928
1.596	69.527	-18752	2402.2	-0.34794	0.91149	0.29173
1.598	69.524	-18749	2402.4	-0.34648	0.90992	0.29065
1.6	69.528	-18746	2402.5	-0.34502	0.90836	0.28958
1.602	69.538	-18743	2402.7	-0.34355	0.9068	0.28851
1.604	69.544	-18743	2402.9	-0.34209	0.90524	0.28743
1.606	69.546	-18745	2403	-0.34219	0.90661	0.28753
1.608	69.544	-18743	2403.2	-0.34228	0.90797	0.28763
1.61	69.539	-18738	2403.3	-0.34238	0.90934	0.28772
1.612	69.537	-18736	2403.4	-0.34248	0.91071	0.28782
1.614	69.537	-18739	2403.6	-0.34258	0.91207	0.28792
1.616	69.544	-18739	2403.7	-0.34404	0.91246	0.28831
1.618	69.554	-18737	2403.9	-0.3455	0.91285	0.2887
1.62	69.565	-18734	2404.1	-0.34697	0.91324	0.28909
1.622	69.573	-18729	2404.2	-0.34843	0.91363	0.28948
1.624	69.576	-18725	2404.3	-0.3499	0.91402	0.28987
1.626	69.577	-18723	2404.4	-0.34941	0.91402	0.28929
1.628	69.575	-18722	2404.5	-0.34892	0.91402	0.2887
1.63	69.575	-18723	2404.6	-0.34843	0.91402	0.28812
1.632	69.582	-18721	2404.7	-0.34794	0.91402	0.28753
1.634	69.596	-18714	2404.8	-0.34746	0.91402	0.28694
1.636	69.611	-18712	2404.9	-0.34736	0.91461	0.28753
1.638	69.621	-18713	2405	-0.34726	0.9152	0.28812
1.64	69.626	-18714	2405.1	-0.34716	0.91578	0.2887
1.642	69.626	-18713	2405.2	-0.34707	0.91637	0.28929
1.644	69.624	-18711	2405.2	-0.34697	0.91695	0.28987
1.646	69.624	-18708	2405.3	-0.34628	0.91617	0.28938
1.648	69.63	-18704	2405.4	-0.3456	0.91539	0.2889
1.65	69.641	-18699	2405.5	-0.34492	0.91461	0.28841
1.652	69.652	-18697	2405.5	-0.34424	0.91383	0.28792
1.654	69.661	-18699	2405.6	-0.34355	0.91305	0.28743
1.656	69.668	-18701	2405.6	-0.34394	0.91295	0.2889
1.658	69.672	-18704	2405.7	-0.34433	0.91285	0.29036
1.66	69.669	-18705	2405.8	-0.34472	0.91276	0.29182
1.662	69.663	-18703	2405.8	-0.34511	0.91266	0.29329
1.664	69.661	-18699	2405.9	-0.3455	0.91256	0.29475
1.666	69.667	-18693	2405.9	-0.34511	0.91256	0.29387
1.668	69.678	-18692	2405.9	-0.34472	0.91256	0.293
1.67	69.687	-18696	2405.9	-0.34433	0.91256	0.29212
1.672	69.69	-18697	2406	-0.34394	0.91256	0.29124
1.674	69.689	-18694	2406	-0.34355	0.91256	0.29036
1.676	69.686	-18692	2406	-0.34443	0.91324	0.29065
1.678	69.68	-18691	2406.1	-0.34531	0.91393	0.29095
1.68	69.677	-18688	2406.1	-0.34619	0.91461	0.29124
1.682	69.679	-18683	2406.1	-0.34707	0.91529	0.29153
1.684	69.688	-18681	2406.1	-0.34794	0.91598	0.29182
1.686	69.699	-18684	2406.2	-0.34785	0.9152	0.29202
1.688	69.703	-18684	2406.2	-0.34775	0.91441	0.29221
1.69	69.701	-18681	2406.2	-0.34765	0.91363	0.29241
1.692	69.695	-18681	2406.2	-0.34755	0.91285	0.2926
1.694	69.689	-18682	2406.2	-0.34746	0.91207	0.2928
1.696	69.687	-18683	2406.2	-0.34687	0.91236	0.29173
1.698	69.686	-18684	2406.2	-0.34628	0.91266	0.29065
1.7	69.69	-18685	2406.2	-0.3457	0.91295	0.28958
1.702	69.697	-18684	2406.1	-0.34511	0.91324	0.28851
1.704	69.705	-18684	2406.1	-0.34453	0.91354	0.28743
1.706	69.709	-18685	2406	-0.34463	0.91285	0.28899
1.708	69.706	-18686	2406	-0.34472	0.91217	0.29056
1.71	69.701	-18687	2406	-0.34482	0.91149	0.29212
1.712	69.695	-18685	2406	-0.34492	0.9108	0.29368
1.714	69.689	-18680	2405.9	-0.34502	0.91012	0.29524
1.716	69.69	-18678	2405.9	-0.34531	0.91129	0.29378
1.718	69.698	-18680	2405.8	-0.3456	0.91246	0.29231
1.72	69.707	-18682	2405.7	-0.34589	0.91363	0.29085
1.722	69.711	-18683	2405.7	-0.34619	0.9148	0.28938
1.724	69.708	-18681	2405.6	-0.34648	0.91598	0.28792
1.726	69.7	-18678	2405.5	-0.34677	0.91607	0.2886
1.728	69.693	-18677	2405.5	-0.34707	0.91617	0.28929
1.73	69.69	-18680	2405.4	-0.34736	0.91627	0.28997
1.732	69.692	-18680	2405.3	-0.34765	0.91637	0.29065
1.734	69.696	-18678	2405.3	-0.34794	0.91646	0.29134
1.736	69.702	-18676	2405.2	-0.34687	0.91627	0.29026
1.738	69.706	-18675	2405.2	-0.3458	0.91607	0.28919
1.74	69.707	-18675	2405.2	-0.34472	0.91588	0.28812
1.742	69.703	-18676	2405.1	-0.34365	0.91568	0.28704
1.744	69.698	-18674	2405.1	-0.34258	0.91549	0.28597
1.746	69.693	-18670	2405	-0.34365	0.91559	0.28636
1.748	69.69	-18670	2405	-0.34472	0.91568	0.28675
1.75	69.692	-18674	2405	-0.3458	0.91578	0.28714
1.752	69.698	-18676	2404.9	-0.34687	0.91588	0.28753
1.754	69.704	-18675	2404.9	-0.34794	0.91598	0.28792
1.756	69.705	-18675	2404.9	-0.34746	0.91617	0.28821
1.758	69.698	-18675	2404.9	-0.34697	0.91637	0.28851
1.76	69.69	-18677	2404.8	-0.34648	0.91656	0.2888
1.762	69.685	-18680	2404.8	-0.34599	0.91676	0.28909
1.764	69.684	-18684	2404.8	-0.3455	0.91695	0.28938
1.766	69.686	-18690	2404.7	-0.34443	0.91588	0.28841
1.768	69.692	-18690	2404.7	-0.34336	0.9148	0.28743
1.77	69.699	-18681	2404.7	-0.34228	0.91373	0.28646
1.772	69.7	-18678	2404.7	-0.34121	0.91266	0.28548
1.774	69.694	-18678	2404.7	-0.34014	0.91158	0.2845
1.776	69.686	-18680	2404.7	-0.3416	0.91256	0.28538
1.778	69.68	-18684	2404.7	-0.34306	0.91354	0.28626
1.78	69.675	-18685	2404.7	-0.34453	0.91451	0.28714
1.782	69.676	-18682	2404.7	-0.34599	0.91549	0.28802
1.784	69.682	-18681	2404.6	-0.34746	0.91646	0.2889
1.786	69.689	-18683	2404.6	-0.34716	0.915	0.28987
1.788	69.693	-18682	2404.6	-0.34687	0.91354	0.29085
1.79	69.691	-18677	2404.5	-0.34658	0.91207	0.29182
1.792	69.684	-18677	2404.5	-0.34628	0.91061	0.2928
1.794	69.674	-18683	2404.4	-0.34599	0.90914	0.29378
1.796	69.668	-18685	2404.4	-0.34619	0.91012	0.29309
1.798	69.667	-18684	2404.4	-0.34638	0.9111	0.29241
1.8	69.672	-18686	2404.4	-0.34658	0.91207	0.29173
1.802	69.68	-18690	2404.3	-0.34677	0.91305	0.29104
1.804	69.685	-18690	2404.2	-0.34697	0.91402	0.29036
1.806	69.687	-18684	2404.2	-0.34638	0.91334	0.29036
1.808	69.682	-18683	2404.2	-0.3458	0.91266	0.29036
1.81	69.674	-18686	2404.1	-0.34521	0.91197	0.29036
1.812	69.669	-18686	2404.1	-0.34463	0.91129	0.29036
1.814	69.668	-18684	2404	-0.34404	0.91061	0.29036
1.816	69.673	-18683	2404	-0.34472	0.9111	0.29065
1.818	69.683	-18682	2403.9	-0.34541	0.91158	0.29095
1.82	69.691	-18684	2403.9	-0.34609	0.91207	0.29124
1.822	69.687	-18687	2403.9	-0.34677	0.91256	0.29153
1.824	69.678	-18689	2403.9	-0.34746	0.91305	0.29182
1.826	69.667	-18688	2403.8	-0.34746	0.91197	0.29192
1.828	69.657	-18688	2403.8	-0.34746	0.9109	0.29202
1.83	69.653	-18690	2403.7	-0.34746	0.90983	0.29212
1.832	69.651	-18692	2403.7	-0.34746	0.90875	0.29221
1.834	69.653	-18696	2403.6	-0.34746	0.90768	0.29231
1.836	69.66	-18697	2403.6	-0.34814	0.90817	0.29231
1.838	69.666	-18695	2403.6	-0.34882	0.90866	0.29231
1.84	69.663	-18693	2403.6	-0.34951	0.90914	0.29231
1.842	69.653	-18692	2403.6	-0.35019	0.90963	0.29231
1.844	69.646	-18692	2403.6	-0.35087	0.91012	0.29231
1.846	69.644	-18693	2403.6	-0.35068	0.91071	0.29182
1.848	69.64	-18690	2403.6	-0.35048	0.91129	0.29134
1.85	69.639	-18684	2403.6	-0.35029	0.91188	0.29085
1.852	69.645	-18682	2403.6	-0.35009	0.91246	0.29036
1.854	69.653	-18682	2403.5	-0.3499	0.91305	0.28987
1.856	69.659	-18685	2403.5	-0.34951	0.91285	0.29036
1.858	69.657	-18688	2403.5	-0.34912	0.91266	0.29085
1.86	69.647	-18689	2403.5	-0.34872	0.91246	0.29134
1.862	69.632	-18687	2403.5	-0.34833	0.91227	0.29182
1.864	69.619	-18687	2403.5	-0.34794	0.91207	0.29231
1.866	69.611	-18689	2403.5	-0.34775	0.91236	0.29182
1.868	69.606	-18692	2403.5	-0.34755	0.91266	0.29134
1.87	69.607	-18695	2403.5	-0.34736	0.91295	0.29085
1.872	69.614	-18696	2403.5	-0.34716	0.91324	0.29036
1.874	69.619	-18693	2403.5	-0.34697	0.91354	0.28987
1.876	69.623	-18691	2403.4	-0.34619	0.91236	0.29026
1.878	69.627	-18691	2403.4	-0.34541	0.91119	0.29065
1.88	69.627	-18693	2403.4	-0.34463	0.91002	0.29104
1.882	69.631	-18695	2403.4	-0.34384	0.90885	0.29143
1.884	69.634	-18696	2403.4	-0.34306	0.90768	0.29182
1.886	69.633	-18695	2403.4	-0.34355	0.90944	0.29114
1.888	69.633	-18692	2403.4	-0.34404	0.91119	0.29046
1.89	69.629	-18686	2403.4	-0.34453	0.91295	0.28977
1.892	69.625	-18686	2403.4	-0.34502	0.91471	0.28909
1.894	69.619	-18692	2403.4	-0.3455	0.91646	0.28841
1.896	69.616	-18693	2403.4	-0.34619	0.91637	0.28841
1.898	69.615	-18690	2403.3	-0.34687	0.91627	0.28841
1.9	69.619	-18688	2403.3	-0.34755	0.91617	0.28841
1.902	69.629	-18688	2403.3	-0.34824	0.91607	0.28841
1.904	69.64	-18694	2403.3	-0.34892	0.91598	0.28841
1.906	69.643	-18705	2403.3	-0.34863	0.9149	0.2888
1.908	69.647	-18707	2403.2	-0.34833	0.91383	0.28919
1.91	69.655	-18701	2403.2	-0.34804	0.91276	0.28958
1.912	69.666	-18697	2403.2	-0.34775	0.91168	0.28997
1.914	69.679	-18696	2403.2	-0.34746	0.91061	0.29036
1.916	69.692	-18695	2403.1	-0.34765	0.91119	0.29075
1.918	69.705	-18694	2403.1	-0.34785	0.91178	0.29114
1.92	69.716	-18693	2403	-0.34804	0.91236	0.29153
1.922	69.724	-18693	2403	-0.34824	0.91295	0.29192
1.924	69.723	-18694	2402.9	-0.34843	0.91354	0.29231
1.926	69.714	-18696	2402.9	-0.34746	0.91334	0.29124
1.928	69.705	-18697	2402.9	-0.34648	0.91315	0.29016
1.93	69.702	-18697	2402.9	-0.3455	0.91295	0.28909
1.932	69.703	-18698	2402.8	-0.34453	0.91276	0.28802
1.934	69.707	-18698	2402.7	-0.34355	0.91256	0.28694
1.936	69.713	-18697	2402.7	-0.34424	0.91285	0.28753
1.938	69.716	-18694	2402.7	-0.34492	0.91315	0.28812
1.94	69.715	-18692	2402.7	-0.3456	0.91344	0.2887
1.942	69.709	-18691	2402.6	-0.34628	0.91373	0.28929
1.944	69.701	-18691	2402.6	-0.34697	0.91402	0.28987
1.946	69.695	-18694	2402.6	-0.34609	0.91412	0.28938
1.948	69.695	-18698	2402.5	-0.34521	0.91422	0.2889
1.95	69.7	-18704	2402.5	-0.34433	0.91432	0.28841
1.952	69.708	-18708	2402.4	-0.34345	0.91441	0.28792
1.954	69.712	-18710	2402.4	-0.34258	0.91451	0.28743
1.956	69.711	-18711	2402.3	-0.34424	0.91432	0.28831
1.958	69.708	-18712	2402.3	-0.34589	0.91412	0.28919
1.96	69.702	-18710	2402.2	-0.34755	0.91393	0.29007
1.962	69.696	-18706	2402.2	-0.34921	0.91373	0.29095
1.964	69.692	-18705	2402.2	-0.35087	0.91354	0.29182
1.966	69.696	-18705	2402.1	-0.35029	0.91373	0.29153
1.968	69.705	-18705	2402.1	-0.3497	0.91393	0.29124
1.97	69.713	-18706	2402	-0.34912	0.91412	0.29095
1.972	69.714	-18706	2402	-0.34853	0.91432	0.29065
1.974	69.716	-18705	2402	-0.34794	0.91451	0.29036
1.976	69.729	-18704	2401.9	-0.34736	0.91441	0.29036
1.978	69.751	-18704	2401.8	-0.34677	0.91432	0.29036
1.98	69.779	-18703	2401.8	-0.34619	0.91422	0.29036
1.982	69.819	-18703	2401.8	-0.3456	0.91412	0.29036
1.984	69.863	-18702	2401.7	-0.34502	0.91402	0.29036
1.986	69.886	-18701	2401.7	-0.34628	0.91344	0.29095
1.988	69.878	-18703	2401.7	-0.34755	0.91285	0.29153
1.99	69.844	-18708	2401.7	-0.34882	0.91227	0.29212
1.992	69.795	-18712	2401.6	-0.35009	0.91168	0.2927
1.994	69.732	-18715	2401.5	-0.35136	0.9111	0.29329
1.996	69.654	-18718	2401.5	-0.35077	0.91139	0.2929
1.998	69.571	-18719	2401.5	-0.35019	0.91168	0.29251
2	69.479	-18721	2401.5	-0.3496	0.91197	0.29212
2.002	69.373	-18724	2401.4	-0.34902	0.91227	0.29173
2.004	69.258	-18726	2401.4	-0.34843	0.91256	0.29134
2.006	69.115	-18725	2401.3	-0.34843	0.91236	0.29114
2.008	68.959	-18720	2401.3	-0.34843	0.91217	0.29095
2.01	68.811	-18713	2401.3	-0.34843	0.91197	0.29075
2.012	68.677	-18708	2401.3	-0.34843	0.91178	0.29056
2.014	68.569	-18707	2401.2	-0.34843	0.91158	0.29036
2.016	68.498	-18709	2401.2	-0.3498	0.9109	0.29143
2.018	68.469	-18716	2401.2	-0.35116	0.91022	0.29251
2.02	68.508	-18718	2401.1	-0.35253	0.90953	0.29358
2.022	68.631	-18714	2401.1	-0.3539	0.90885	0.29465
2.024	68.79	-18711	2401.1	-0.35526	0.90817	0.29573
2.026	68.958	-18711	2401.1	-0.35439	0.90895	0.29504
2.028	69.122	-18709	2401.1	-0.35351	0.90973	0.29436
2.03	69.244	-18706	2401	-0.35263	0.91051	0.29368
2.032	69.364	-18705	2401	-0.35175	0.91129	0.293
2.034	69.485	-18705	2400.9	-0.35087	0.91207	0.29231
2.036	69.585	-18708	2400.9	-0.34931	0.91207	0.29163
2.038	69.653	-18714	2400.8	-0.34775	0.91207	0.29095
2.04	69.711	-18718	2400.8	-0.34619	0.91207	0.29026
2.042	69.746	-18721	2400.8	-0.34463	0.91207	0.28958
2.044	69.745	-18721	2400.8	-0.34306	0.91207	0.2889
2.046	69.72	-18719	2400.7	-0.34306	0.91207	0.2887
2.048	69.684	-18721	2400.7	-0.34306	0.91207	0.28851
2.05	69.658	-18726	2400.6	-0.34306	0.91207	0.28831
2.052	69.653	-18728	2400.6	-0.34306	0.91207	0.28812
2.054	69.65	-18726	2400.6	-0.34306	0.91207	0.28792
2.056	69.641	-18729	2400.5	-0.34306	0.91188	0.28792
2.058	69.633	-18737	2400.5	-0.34306	0.91168	0.28792
2.06	69.631	-18740	2400.4	-0.34306	0.91149	0.28792
2.062	69.633	-18739	2400.4	-0.34306	0.91129	0.28792
2.064	69.638	-18742	2400.3	-0.34306	0.9111	0.28792
2.066	69.65	-18750	2400.3	-0.34326	0.91149	0.28782
2.068	69.66	-18751	2400.2	-0.34345	0.91188	0.28772
2.07	69.666	-18745	2400.1	-0.34365	0.91227	0.28763
2.072	69.671	-18739	2400.1	-0.34384	0.91266	0.28753
2.074	69.672	-18733	2400.1	-0.34404	0.91305	0.28743
2.076	69.668	-18729	2400.1	-0.34443	0.91305	0.28782
2.078	69.662	-18726	2400	-0.34482	0.91305	0.28821
2.08	69.658	-18725	2400	-0.34521	0.91305	0.2886
2.082	69.66	-18728	2399.9	-0.3456	0.91305	0.28899
2.084	69.665	-18730	2399.9	-0.34599	0.91305	0.28938
2.086	69.672	-18729	2399.9	-0.34658	0.91373	0.28929
2.088	69.677	-18732	2399.8	-0.34716	0.91441	0.28919
2.09	69.674	-18739	2399.8	-0.34775	0.9151	0.28909
2.092	69.665	-18741	2399.7	-0.34833	0.91578	0.28899
2.094	69.657	-18741	2399.7	-0.34892	0.91646	0.2889
2.096	69.65	-18740	2399.6	-0.34912	0.91598	0.28958
2.098	69.648	-18739	2399.6	-0.34931	0.91549	0.29026
2.1	69.652	-18739	2399.6	-0.34951	0.915	0.29095
2.102	69.659	-18740	2399.5	-0.3497	0.91451	0.29163
2.104	69.665	-18739	2399.5	-0.3499	0.91402	0.29231
2.106	69.663	-18735	2399.5	-0.34912	0.91363	0.29182
2.108	69.657	-18735	2399.4	-0.34833	0.91324	0.29134
2.11	69.649	-18738	2399.4	-0.34755	0.91285	0.29085
2.112	69.64	-18741	2399.4	-0.34677	0.91246	0.29036
2.114	69.636	-18744	2399.4	-0.34599	0.91207	0.28987
2.116	69.637	-18746	2399.3	-0.3455	0.91256	0.28977
2.118	69.643	-18745	2399.3	-0.34502	0.91305	0.28968
2.12	69.65	-18747	2399.3	-0.34453	0.91354	0.28958
2.122	69.651	-18750	2399.3	-0.34404	0.91402	0.28948
2.124	69.643	-18751	2399.3	-0.34355	0.91451	0.28938
2.126	69.634	-18750	2399.3	-0.34345	0.91305	0.28977
2.128	69.627	-18749	2399.3	-0.34336	0.91158	0.29016
2.13	69.622	-18750	2399.3	-0.34326	0.91012	0.29056
2.132	69.622	-18750	2399.3	-0.34316	0.90866	0.29095
2.134	69.625	-18749	2399.3	-0.34306	0.90719	0.29134
2.136	69.626	-18749	2399.3	-0.34384	0.90797	0.29134
2.138	69.628	-18748	2399.3	-0.34463	0.90875	0.29134
2.14	69.626	-18752	2399.3	-0.34541	0.90953	0.29134
2.142	69.618	-18758	2399.3	-0.34619	0.91032	0.29134
2.144	69.609	-18762	2399.3	-0.34697	0.9111	0.29134
2.146	69.601	-18762	2399.3	-0.3458	0.91032	0.29163
2.148	69.598	-18757	2399.3	-0.34463	0.90953	0.29192
2.15	69.601	-18748	2399.3	-0.34345	0.90875	0.29221
2.152	69.606	-18746	2399.4	-0.34228	0.90797	0.29251
2.154	69.612	-18751	2399.4	-0.34111	0.90719	0.2928
2.156	69.612	-18750	2399.4	-0.34082	0.90719	0.29202
2.158	69.606	-18743	2399.4	-0.34053	0.90719	0.29124
2.16	69.595	-18742	2399.4	-0.34023	0.90719	0.29046
2.162	69.581	-18748	2399.4	-0.33994	0.90719	0.28968
2.164	69.572	-18750	2399.4	-0.33965	0.90719	0.2889
2.166	69.573	-18749	2399.4	-0.34072	0.90748	0.28938
2.168	69.578	-18748	2399.4	-0.3418	0.90778	0.28987
2.17	69.583	-18748	2399.5	-0.34287	0.90807	0.29036
2.172	69.584	-18751	2399.5	-0.34394	0.90836	0.29085
2.174	69.577	-18756	2399.6	-0.34502	0.90866	0.29134
2.176	69.566	-18758	2399.7	-0.34531	0.90934	0.29134
2.178	69.553	-18756	2399.7	-0.3456	0.91002	0.29134
2.18	69.544	-18753	2399.8	-0.34589	0.91071	0.29134
2.182	69.544	-18749	2399.9	-0.34619	0.91139	0.29134
2.184	69.547	-18748	2400	-0.34648	0.91207	0.29134
2.186	69.551	-18750	2400.1	-0.34511	0.91129	0.29075
2.188	69.55	-18751	2400.2	-0.34375	0.91051	0.29016
2.19	69.544	-18750	2400.3	-0.34238	0.90973	0.28958
2.192	69.533	-18749	2400.4	-0.34101	0.90895	0.28899
2.194	69.52	-18747	2400.5	-0.33965	0.90817	0.28841
2.196	69.508	-18748	2400.7	-0.34082	0.90924	0.2886
2.198	69.501	-18753	2400.8	-0.34199	0.91032	0.2888
2.2	69.502	-18753	2400.9	-0.34316	0.91139	0.28899
2.202	69.507	-18746	2401	-0.34433	0.91246	0.28919
2.204	69.508	-18745	2401.2	-0.3455	0.91354	0.28938
2.206	69.506	-18749	2401.3	-0.34619	0.91295	0.28997
2.208	69.501	-18751	2401.5	-0.34687	0.91236	0.29056
2.21	69.492	-18752	2401.6	-0.34755	0.91178	0.29114
2.212	69.483	-18752	2401.8	-0.34824	0.91119	0.29173
2.214	69.48	-18753	2402	-0.34892	0.91061	0.29231
2.216	69.484	-18749	2402.1	-0.34765	0.91012	0.29173
2.218	69.49	-18741	2402.3	-0.34638	0.90963	0.29114
2.22	69.498	-18737	2402.4	-0.34511	0.90914	0.29056
2.222	69.503	-18738	2402.6	-0.34384	0.90866	0.28997
2.224	69.505	-18737	2402.8	-0.34258	0.90817	0.28938
2.226	69.494	-18736	2403	-0.34336	0.90827	0.28968
2.228	69.484	-18732	2403.1	-0.34414	0.90836	0.28997
2.23	69.482	-18727	2403.3	-0.34492	0.90846	0.29026
2.232	69.486	-18724	2403.5	-0.3457	0.90856	0.29056
2.234	69.496	-18725	2403.7	-0.34648	0.90866	0.29085
2.236	69.504	-18724	2403.9	-0.34599	0.90944	0.29085
2.238	69.509	-18722	2404	-0.3455	0.91022	0.29085
2.24	69.512	-18720	2404.2	-0.34502	0.911	0.29085
2.242	69.508	-18719	2404.4	-0.34453	0.91178	0.29085
2.244	69.505	-18717	2404.5	-0.34404	0.91256	0.29085
2.246	69.503	-18714	2404.7	-0.34453	0.91266	0.29056
2.248	69.508	-18712	2404.8	-0.34502	0.91276	0.29026
2.25	69.521	-18712	2404.9	-0.3455	0.91285	0.28997
2.252	69.535	-18713	2405	-0.34599	0.91295	0.28968
2.254	69.546	-18715	2405.2	-0.34648	0.91305	0.28938
2.256	69.553	-18713	2405.3	-0.34668	0.91334	0.2889
2.258	69.554	-18707	2405.4	-0.34687	0.91363	0.28841
2.26	69.554	-18700	2405.5	-0.34707	0.91393	0.28792
2.262	69.555	-18691	2405.6	-0.34726	0.91422	0.28743
2.264	69.561	-18688	2405.7	-0.34746	0.91451	0.28694
2.266	69.572	-18693	2405.9	-0.34736	0.91471	0.28704
2.268	69.585	-18696	2406	-0.34726	0.9149	0.28714
2.27	69.598	-18699	2406.1	-0.34716	0.9151	0.28724
2.272	69.607	-18700	2406.2	-0.34707	0.91529	0.28733
2.274	69.609	-18700	2406.3	-0.34697	0.91549	0.28743
2.276	69.607	-18698	2406.4	-0.34726	0.9151	0.28841
2.278	69.604	-18695	2406.5	-0.34755	0.91471	0.28938
2.28	69.605	-18693	2406.6	-0.34785	0.91432	0.29036
2.282	69.612	-18691	2406.6	-0.34814	0.91393	0.29134
2.284	69.622	-18691	2406.7	-0.34843	0.91354	0.29231
2.286	69.633	-18693	2406.8	-0.34668	0.91393	0.29085
2.288	69.642	-18690	2406.9	-0.34492	0.91432	0.28938
2.29	69.645	-18683	2407	-0.34316	0.91471	0.28792
2.292	69.643	-18680	2407.1	-0.3414	0.9151	0.28646
2.294	69.64	-18680	2407.2	-0.33965	0.91549	0.28499
2.296	69.639	-18678	2407.2	-0.34131	0.91451	0.28655
2.298	69.639	-18675	2407.3	-0.34297	0.91354	0.28812
2.3	69.644	-18675	2407.4	-0.34463	0.91256	0.28968
2.302	69.651	-18679	2407.4	-0.34628	0.91158	0.29124
2.304	69.659	-18681	2407.5	-0.34794	0.91061	0.2928
2.306	69.662	-18680	2407.6	-0.34746	0.91041	0.29309
2.308	69.66	-18676	2407.6	-0.34697	0.91022	0.29339
2.31	69.651	-18671	2407.7	-0.34648	0.91002	0.29368
2.312	69.646	-18669	2407.7	-0.34599	0.90983	0.29397
2.314	69.648	-18672	2407.8	-0.3455	0.90963	0.29426
2.316	69.653	-18672	2407.8	-0.34589	0.90973	0.29446
2.318	69.66	-18668	2407.9	-0.34628	0.90983	0.29465
2.32	69.669	-18667	2407.9	-0.34668	0.90992	0.29485
2.322	69.675	-18669	2407.9	-0.34707	0.91002	0.29504
2.324	69.675	-18670	2407.9	-0.34746	0.91012	0.29524
2.326	69.667	-18670	2407.9	-0.34707	0.91061	0.29456
2.328	69.655	-18670	2407.9	-0.34668	0.9111	0.29387
2.33	69.651	-18669	2407.9	-0.34628	0.91158	0.29319
2.332	69.655	-18668	2407.9	-0.34589	0.91207	0.29251
2.334	69.663	-18666	2407.9	-0.3455	0.91256	0.29182
2.336	69.671	-18663	2407.8	-0.34492	0.91168	0.29134
2.338	69.677	-18660	2407.8	-0.34433	0.9108	0.29085
2.34	69.678	-18658	2407.8	-0.34375	0.90992	0.29036
2.342	69.674	-18657	2407.7	-0.34316	0.90905	0.28987
2.344	69.669	-18657	2407.6	-0.34258	0.90817	0.28938
2.346	69.666	-18657	2407.6	-0.34404	0.90905	0.28938
2.348	69.668	-18658	2407.5	-0.3455	0.90992	0.28938
2.35	69.674	-18659	2407.5	-0.34697	0.9108	0.28938
2.352	69.683	-18660	2407.5	-0.34843	0.91168	0.28938
2.354	69.691	-18661	2407.4	-0.3499	0.91256	0.28938
2.356	69.692	-18662	2407.4	-0.35068	0.91227	0.28997
2.358	69.689	-18663	2407.4	-0.35146	0.91197	0.29056
2.36	69.683	-18660	2407.4	-0.35224	0.91168	0.29114
2.362	69.679	-18654	2407.4	-0.35302	0.91139	0.29173
2.364	69.677	-18649	2407.4	-0.3538	0.9111	0.29231
2.366	69.68	-18645	2407.3	-0.3538	0.911	0.2929
2.368	69.689	-18647	2407.3	-0.3538	0.9109	0.29348
2.37	69.697	-18653	2407.3	-0.3538	0.9108	0.29407
2.372	69.699	-18655	2407.3	-0.3538	0.91071	0.29465
2.374	69.696	-18652	2407.3	-0.3538	0.91061	0.29524
2.376	69.688	-18650	2407.3	-0.354	0.91022	0.29504
2.378	69.682	-18649	2407.3	-0.35419	0.90983	0.29485
2.38	69.677	-18649	2407.3	-0.35439	0.90944	0.29465
2.382	69.678	-18651	2407.3	-0.35458	0.90905	0.29446
2.384	69.687	-18651	2407.3	-0.35478	0.90866	0.29426
2.386	69.695	-18651	2407.2	-0.35478	0.90924	0.29368
2.388	69.697	-18653	2407.2	-0.35478	0.90983	0.29309
2.39	69.695	-18656	2407.3	-0.35478	0.91041	0.29251
2.392	69.687	-18657	2407.3	-0.35478	0.911	0.29192
2.394	69.68	-18655	2407.3	-0.35478	0.91158	0.29134
2.396	69.676	-18654	2407.3	-0.35282	0.91188	0.29056
2.398	69.673	-18652	2407.3	-0.35087	0.91217	0.28977
2.4	69.678	-18651	2407.3	-0.34892	0.91246	0.28899
2.402	69.688	-18652	2407.3	-0.34697	0.91276	0.28821
2.404	69.694	-18654	2407.4	-0.34502	0.91305	0.28743
2.406	69.694	-18659	2407.4	-0.34531	0.91354	0.28753
2.408	69.685	-18662	2407.4	-0.3456	0.91402	0.28763
2.41	69.675	-18662	2407.3	-0.34589	0.91451	0.28772
2.412	69.67	-18662	2407.3	-0.34619	0.915	0.28782
2.414	69.668	-18662	2407.3	-0.34648	0.91549	0.28792
2.416	69.672	-18661	2407.2	-0.34628	0.91402	0.28909
2.418	69.678	-18659	2407.2	-0.34609	0.91256	0.29026
2.42	69.685	-18658	2407.1	-0.34589	0.9111	0.29143
2.422	69.687	-18658	2407.1	-0.3457	0.90963	0.2926
2.424	69.682	-18659	2407.1	-0.3455	0.90817	0.29378
2.426	69.674	-18662	2407	-0.3455	0.90914	0.2926
2.428	69.667	-18665	2407	-0.3455	0.91012	0.29143
2.43	69.664	-18670	2406.9	-0.3455	0.9111	0.29026
2.432	69.666	-18672	2406.9	-0.3455	0.91207	0.28909
2.434	69.672	-18671	2406.9	-0.3455	0.91305	0.28792
2.436	69.68	-18668	2406.9	-0.34619	0.91246	0.28919
2.438	69.683	-18665	2406.8	-0.34687	0.91188	0.29046
2.44	69.681	-18661	2406.8	-0.34755	0.91129	0.29173
2.442	69.678	-18657	2406.8	-0.34824	0.91071	0.293
2.444	69.675	-18656	2406.7	-0.34892	0.91012	0.29426
2.446	69.67	-18658	2406.7	-0.34921	0.91051	0.29446
2.448	69.664	-18660	2406.7	-0.34951	0.9109	0.29465
2.45	69.661	-18662	2406.7	-0.3498	0.91129	0.29485
2.452	69.66	-18665	2406.7	-0.35009	0.91168	0.29504
2.454	69.659	-18668	2406.7	-0.35038	0.91207	0.29524
2.456	69.656	-18669	2406.6	-0.34892	0.91178	0.29446
2.458	69.655	-18667	2406.6	-0.34746	0.91149	0.29368
2.46	69.649	-18665	2406.6	-0.34599	0.91119	0.2929
2.462	69.641	-18664	2406.6	-0.34453	0.9109	0.29212
2.464	69.636	-18667	2406.6	-0.34306	0.91061	0.29134
2.466	69.639	-18673	2406.6	-0.34306	0.91071	0.29085
2.468	69.643	-18677	2406.6	-0.34306	0.9108	0.29036
2.47	69.65	-18678	2406.7	-0.34306	0.9109	0.28987
2.472	69.661	-18673	2406.7	-0.34306	0.911	0.28938
2.474	69.655	-18662	2406.7	-0.34306	0.9111	0.2889
2.476	69.636	-18656	2406.7	-0.34365	0.91119	0.28997
2.478	69.625	-18653	2406.7	-0.34424	0.91129	0.29104
2.48	69.622	-18653	2406.7	-0.34482	0.91139	0.29212
2.482	69.63	-18654	2406.7	-0.34541	0.91149	0.29319
2.484	69.642	-18658	2406.8	-0.34599	0.91158	0.29426
2.486	69.646	-18664	2406.8	-0.34502	0.91129	0.29348
2.488	69.639	-18667	2406.9	-0.34404	0.911	0.2927
2.49	69.622	-18667	2406.9	-0.34306	0.91071	0.29192
2.492	69.6	-18667	2406.9	-0.34209	0.91041	0.29114
2.494	69.585	-18666	2406.9	-0.34111	0.91012	0.29036
2.496	69.577	-18667	2406.9	-0.34209	0.91129	0.28997
2.498	69.581	-18671	2406.9	-0.34306	0.91246	0.28958
2.5	69.596	-18673	2406.9	-0.34404	0.91363	0.28919
2.502	69.611	-18672	2406.9	-0.34502	0.9148	0.2888
2.504	69.627	-18672	2406.9	-0.34599	0.91598	0.28841
2.506	69.639	-18673	2407	-0.3455	0.9148	0.28851
2.508	69.635	-18671	2407	-0.34502	0.91363	0.2886
2.51	69.625	-18667	2407	-0.34453	0.91246	0.2887
2.512	69.617	-18666	2407	-0.34404	0.91129	0.2888
2.514	69.613	-18667	2407	-0.34355	0.91012	0.2889
2.516	69.613	-18670	2407	-0.34414	0.9108	0.28958
2.518	69.616	-18675	2407	-0.34472	0.91149	0.29026
2.52	69.622	-18675	2407	-0.34531	0.91217	0.29095
2.522	69.626	-18671	2407	-0.34589	0.91285	0.29163
2.524	69.626	-18670	2407	-0.34648	0.91354	0.29231
2.526	69.622	-18671	2407	-0.34599	0.91305	0.29153
2.528	69.616	-18672	2407	-0.3455	0.91256	0.29075
2.53	69.614	-18673	2407	-0.34502	0.91207	0.28997
2.532	69.619	-18672	2407	-0.34453	0.91158	0.28919
2.534	69.635	-18671	2407	-0.34404	0.9111	0.28841
2.536	69.657	-18669	2407	-0.34502	0.91246	0.2886
2.538	69.68	-18667	2407	-0.34599	0.91383	0.2888
2.54	69.695	-18669	2406.9	-0.34697	0.9152	0.28899
2.542	69.7	-18674	2406.9	-0.34794	0.91656	0.28919
2.544	69.699	-18675	2406.9	-0.34892	0.91793	0.28938
2.546	69.701	-18673	2406.9	-0.34853	0.91754	0.28938
2.548	69.708	-18672	2406.9	-0.34814	0.91715	0.28938
2.55	69.713	-18673	2406.9	-0.34775	0.91676	0.28938
2.552	69.715	-18673	2406.9	-0.34736	0.91637	0.28938
2.554	69.72	-18672	2406.9	-0.34697	0.91598	0.28938
2.556	69.72	-18672	2406.9	-0.34658	0.9152	0.28977
2.558	69.713	-18673	2406.9	-0.34619	0.91441	0.29016
2.56	69.706	-18672	2406.9	-0.3458	0.91363	0.29056
2.562	69.697	-18670	2406.9	-0.34541	0.91285	0.29095
2.564	69.696	-18668	2406.9	-0.34502	0.91207	0.29134
2.566	69.702	-18668	2406.9	-0.34628	0.91158	0.29231
2.568	69.71	-18669	2406.9	-0.34755	0.9111	0.29329
2.57	69.715	-18672	2406.8	-0.34882	0.91061	0.29426
2.572	69.718	-18675	2406.8	-0.35009	0.91012	0.29524
2.574	69.715	-18679	2406.8	-0.35136	0.90963	0.29622
2.576	69.711	-18680	2406.8	-0.35146	0.91012	0.29592
2.578	69.704	-18677	2406.8	-0.35156	0.91061	0.29563
2.58	69.698	-18676	2406.8	-0.35165	0.9111	0.29534
2.582	69.7	-18676	2406.8	-0.35175	0.91158	0.29504
2.584	69.707	-18678	2406.7	-0.35185	0.91207	0.29475
2.586	69.714	-18683	2406.7	-0.35185	0.91207	0.29514
2.588	69.72	-18681	2406.7	-0.35185	0.91207	0.29553
2.59	69.719	-18672	2406.7	-0.35185	0.91207	0.29592
2.592	69.715	-18676	2406.7	-0.35185	0.91207	0.29631
2.594	69.707	-18693	2406.6	-0.35185	0.91207	0.2967
2.596	69.703	-18698	2406.6	-0.35165	0.91168	0.29651
2.598	69.704	-18689	2406.6	-0.35146	0.91129	0.29631
2.6	69.717	-18686	2406.5	-0.35126	0.9109	0.29612
2.602	69.742	-18687	2406.6	-0.35107	0.91051	0.29592
2.604	69.775	-18688	2406.6	-0.35087	0.91012	0.29573
2.606	69.808	-18687	2406.5	-0.35029	0.9109	0.29514
2.608	69.839	-18688	2406.5	-0.3497	0.91168	0.29456
2.61	69.868	-18692	2406.5	-0.34912	0.91246	0.29397
2.612	69.884	-18692	2406.5	-0.34853	0.91324	0.29339
2.614	69.878	-18688	2406.5	-0.34794	0.91402	0.2928
2.616	69.851	-18686	2406.4	-0.34824	0.91344	0.29329
2.618	69.814	-18685	2406.4	-0.34853	0.91285	0.29378
2.62	69.767	-18686	2406.3	-0.34882	0.91227	0.29426
2.622	69.703	-18686	2406.4	-0.34912	0.91168	0.29475
2.624	69.62	-18687	2406.4	-0.34941	0.9111	0.29524
2.626	69.517	-18686	2406.3	-0.3497	0.91061	0.29514
2.628	69.392	-18687	2406.3	-0.34999	0.91012	0.29504
2.63	69.267	-18688	2406.2	-0.35029	0.90963	0.29495
2.632	69.129	-18690	2406.2	-0.35058	0.90914	0.29485
2.634	68.972	-18693	2406.2	-0.35087	0.90866	0.29475
2.636	68.83	-18692	2406.2	-0.3498	0.90914	0.29446
2.638	68.692	-18687	2406.1	-0.34872	0.90963	0.29417
2.64	68.572	-18693	2406.1	-0.34765	0.91012	0.29387
2.642	68.484	-18710	2406.1	-0.34658	0.91061	0.29358
2.644	68.436	-18714	2406.1	-0.3455	0.9111	0.29329
2.646	68.444	-18705	2406	-0.34521	0.91119	0.2929
2.648	68.562	-18700	2406	-0.34492	0.91129	0.29251
2.65	68.724	-18699	2405.9	-0.34463	0.91139	0.29212
2.652	68.913	-18702	2405.9	-0.34433	0.91149	0.29173
2.654	69.104	-18710	2405.8	-0.34404	0.91158	0.29134
2.656	69.232	-18716	2405.8	-0.34355	0.91139	0.29075
2.658	69.35	-18719	2405.8	-0.34306	0.91119	0.29016
2.66	69.46	-18713	2405.7	-0.34258	0.911	0.28958
2.662	69.546	-18698	2405.7	-0.34209	0.9108	0.28899
2.664	69.614	-18692	2405.7	-0.3416	0.91061	0.28841
2.666	69.693	-18694	2405.6	-0.34306	0.91158	0.2888
2.668	69.746	-18696	2405.6	-0.34453	0.91256	0.28919
2.67	69.763	-18698	2405.6	-0.34599	0.91354	0.28958
2.672	69.749	-18701	2405.5	-0.34746	0.91451	0.28997
2.674	69.712	-18706	2405.5	-0.34892	0.91549	0.29036
2.676	69.678	-18707	2405.5	-0.34833	0.915	0.28987
2.678	69.658	-18706	2405.5	-0.34775	0.91451	0.28938
2.68	69.643	-18704	2405.5	-0.34716	0.91402	0.2889
2.682	69.636	-18702	2405.4	-0.34658	0.91354	0.28841
2.684	69.638	-18700	2405.4	-0.34599	0.91305	0.28792
2.686	69.651	-18699	2405.4	-0.34619	0.91354	0.28841
2.688	69.666	-18701	2405.4	-0.34638	0.91402	0.2889
2.69	69.673	-18706	2405.3	-0.34658	0.91451	0.28938
2.692	69.672	-18708	2405.3	-0.34677	0.915	0.28987
2.694	69.67	-18706	2405.2	-0.34697	0.91549	0.29036
2.696	69.67	-18706	2405.3	-0.34619	0.91402	0.29085
2.698	69.672	-18707	2405.3	-0.34541	0.91256	0.29134
2.7	69.677	-18707	2405.3	-0.34463	0.9111	0.29182
2.702	69.684	-18707	2405.3	-0.34384	0.90963	0.29231
2.704	69.69	-18708	2405.2	-0.34306	0.90817	0.2928
2.706	69.691	-18709	2405.2	-0.34287	0.90866	0.29202
2.708	69.685	-18714	2405.2	-0.34267	0.90914	0.29124
2.71	69.677	-18722	2405.2	-0.34248	0.90963	0.29046
2.712	69.669	-18724	2405.2	-0.34228	0.91012	0.28968
2.714	69.666	-18720	2405.2	-0.34209	0.91061	0.2889
2.716	69.672	-18717	2405.2	-0.34228	0.91129	0.2889
2.718	69.678	-18716	2405.1	-0.34248	0.91197	0.2889
2.72	69.681	-18715	2405.1	-0.34267	0.91266	0.2889
2.722	69.682	-18716	2405.1	-0.34287	0.91334	0.2889
2.724	69.681	-18718	2405.1	-0.34306	0.91402	0.2889
2.726	69.675	-18723	2405.1	-0.34355	0.91432	0.28948
2.728	69.667	-18726	2405.1	-0.34404	0.91461	0.29007
2.73	69.661	-18727	2405.1	-0.34453	0.9149	0.29065
2.732	69.658	-18727	2405	-0.34502	0.9152	0.29124
2.734	69.664	-18727	2405	-0.3455	0.91549	0.29182
2.736	69.669	-18725	2405	-0.34463	0.91461	0.29182
2.738	69.673	-18720	2405	-0.34375	0.91373	0.29182
2.74	69.673	-18719	2405	-0.34287	0.91285	0.29182
2.742	69.665	-18723	2405	-0.34199	0.91197	0.29182
2.744	69.653	-18726	2405	-0.34111	0.9111	0.29182
2.746	69.646	-18729	2405	-0.3417	0.91061	0.29192
2.748	69.645	-18731	2404.9	-0.34228	0.91012	0.29202
2.75	69.646	-18731	2404.9	-0.34287	0.90963	0.29212
2.752	69.652	-18733	2404.9	-0.34345	0.90914	0.29221
2.754	69.655	-18735	2404.9	-0.34404	0.90866	0.29231
2.756	69.654	-18733	2404.9	-0.34433	0.90827	0.29212
2.758	69.642	-18728	2404.9	-0.34463	0.90788	0.29192
2.76	69.631	-18727	2404.9	-0.34492	0.90748	0.29173
2.762	69.625	-18730	2404.9	-0.34521	0.90709	0.29153
2.764	69.622	-18729	2404.9	-0.3455	0.9067	0.29134
2.766	69.625	-18723	2404.9	-0.34589	0.90827	0.29095
2.768	69.633	-18722	2404.9	-0.34628	0.90983	0.29056
2.77	69.638	-18727	2404.9	-0.34668	0.91139	0.29016
2.772	69.638	-18729	2405	-0.34707	0.91295	0.28977
2.774	69.634	-18728	2405	-0.34746	0.91451	0.28938
2.776	69.626	-18730	2405	-0.34726	0.91402	0.28958
2.778	69.618	-18737	2405	-0.34707	0.91354	0.28977
2.78	69.612	-18738	2405	-0.34687	0.91305	0.28997
2.782	69.61	-18733	2405	-0.34668	0.91256	0.29016
2.784	69.61	-18731	2405	-0.34648	0.91207	0.29036
2.786	69.613	-18730	2405	-0.34521	0.9111	0.29056
2.788	69.615	-18731	2405	-0.34394	0.91012	0.29075
2.79	69.612	-18733	2405	-0.34267	0.90914	0.29095
2.792	69.602	-18734	2405.1	-0.3414	0.90817	0.29114
2.794	69.591	-18733	2405.1	-0.34014	0.90719	0.29134
2.796	69.582	-18733	2405.1	-0.34111	0.90768	0.29221
2.798	69.577	-18734	2405.2	-0.34209	0.90817	0.29309
2.8	69.574	-18735	2405.3	-0.34306	0.90866	0.29397
2.802	69.576	-18738	2405.4	-0.34404	0.90914	0.29485
2.804	69.579	-18737	2405.4	-0.34502	0.90963	0.29573
2.806	69.576	-18733	2405.5	-0.3456	0.91012	0.29524
2.808	69.569	-18732	2405.6	-0.34619	0.91061	0.29475
2.81	69.555	-18732	2405.7	-0.34677	0.9111	0.29426
2.812	69.543	-18735	2405.8	-0.34736	0.91158	0.29378
2.814	69.537	-18741	2405.9	-0.34794	0.91207	0.29329
2.816	69.535	-18741	2406	-0.34775	0.91246	0.29241
2.818	69.538	-18734	2406.1	-0.34755	0.91285	0.29153
2.82	69.54	-18730	2406.2	-0.34736	0.91324	0.29065
2.822	69.539	-18726	2406.3	-0.34716	0.91363	0.28977
2.824	69.534	-18726	2406.4	-0.34697	0.91402	0.2889
2.826	69.527	-18730	2406.6	-0.34658	0.91324	0.28977
2.828	69.516	-18732	2406.7	-0.34619	0.91246	0.29065
2.83	69.506	-18732	2406.9	-0.3458	0.91168	0.29153
2.832	69.503	-18732	2407	-0.34541	0.9109	0.29241
2.834	69.509	-18731	2407.1	-0.34502	0.91012	0.29329
2.836	69.519	-18730	2407.3	-0.34589	0.91051	0.2928
2.838	69.525	-18727	2407.5	-0.34677	0.9109	0.29231
2.84	69.522	-18725	2407.7	-0.34765	0.91129	0.29182
2.842	69.514	-18725	2407.9	-0.34853	0.91168	0.29134
2.844	69.511	-18724	2408.1	-0.34941	0.91207	0.29085
2.846	69.507	-18723	2408.3	-0.34785	0.9108	0.29046
2.848	69.506	-18722	2408.5	-0.34628	0.90953	0.29007
2.85	69.51	-18722	2408.7	-0.34472	0.90827	0.28968
2.852	69.517	-18722	2408.9	-0.34316	0.907	0.28929
2.854	69.527	-18720	2409	-0.3416	0.90573	0.2889
2.856	69.53	-18718	2409.2	-0.34209	0.90563	0.2889
2.858	69.527	-18716	2409.4	-0.34258	0.90553	0.2889
2.86	69.519	-18713	2409.6	-0.34306	0.90544	0.2889
2.862	69.512	-18709	2409.8	-0.34355	0.90534	0.2889
2.864	69.514	-18707	2409.9	-0.34404	0.90524	0.2889
2.866	69.522	-18706	2410.1	-0.34599	0.90602	0.28987
2.868	69.53	-18706	2410.2	-0.34794	0.9068	0.29085
2.87	69.537	-18707	2410.4	-0.3499	0.90758	0.29182
2.872	69.543	-18707	2410.6	-0.35185	0.90836	0.2928
2.874	69.546	-18706	2410.7	-0.3538	0.90914	0.29378
2.876	69.545	-18704	2410.9	-0.35341	0.90953	0.29378
2.878	69.544	-18699	2411	-0.35302	0.90992	0.29378
2.88	69.546	-18695	2411.1	-0.35263	0.91032	0.29378
2.882	69.554	-18690	2411.3	-0.35224	0.91071	0.29378
2.884	69.565	-18689	2411.4	-0.35185	0.9111	0.29378
2.886	69.58	-18690	2411.6	-0.35146	0.91119	0.29465
2.888	69.592	-18689	2411.7	-0.35107	0.91129	0.29553
2.89	69.598	-18684	2411.8	-0.35068	0.91139	0.29641
2.892	69.598	-18679	2411.9	-0.35029	0.91149	0.29729
2.894	69.597	-18675	2412.1	-0.3499	0.91158	0.29817
2.896	69.602	-18674	2412.1	-0.35019	0.91158	0.29758
2.898	69.607	-18676	2412.2	-0.35048	0.91158	0.297
2.9	69.619	-18678	2412.4	-0.35077	0.91158	0.29641
2.902	69.63	-18679	2412.5	-0.35107	0.91158	0.29583
2.904	69.643	-18681	2412.7	-0.35136	0.91158	0.29524
2.906	69.654	-18686	2412.7	-0.35068	0.91188	0.29426
2.908	69.654	-18685	2412.8	-0.34999	0.91217	0.29329
2.91	69.648	-18677	2412.9	-0.34931	0.91246	0.29231
2.912	69.643	-18676	2413	-0.34863	0.91276	0.29134
2.914	69.644	-18681	2413.1	-0.34794	0.91305	0.29036
2.916	69.651	-18680	2413.2	-0.34814	0.91324	0.29095
2.918	69.66	-18671	2413.3	-0.34833	0.91344	0.29153
2.92	69.671	-18669	2413.4	-0.34853	0.91363	0.29212
2.922	69.676	-18674	2413.5	-0.34872	0.91383	0.2927
2.924	69.678	-18675	2413.5	-0.34892	0.91402	0.29329
2.926	69.674	-18673	2413.6	-0.34814	0.91305	0.293
2.928	69.669	-18671	2413.7	-0.34736	0.91207	0.2927
2.93	69.667	-18668	2413.8	-0.34658	0.9111	0.29241
2.932	69.672	-18667	2413.8	-0.3458	0.91012	0.29212
2.934	69.678	-18669	2413.9	-0.34502	0.90914	0.29182
2.936	69.687	-18667	2414	-0.34521	0.91022	0.29173
2.938	69.697	-18662	2414	-0.34541	0.91129	0.29163
2.94	69.699	-18660	2414.1	-0.3456	0.91236	0.29153
2.942	69.695	-18659	2414.1	-0.3458	0.91344	0.29143
2.944	69.688	-18658	2414.2	-0.34599	0.91451	0.29134
2.946	69.682	-18657	2414.2	-0.34541	0.91354	0.29143
2.948	69.68	-18654	2414.2	-0.34482	0.91256	0.29153
2.95	69.683	-18649	2414.3	-0.34424	0.91158	0.29163
2.952	69.692	-18649	2414.3	-0.34365	0.91061	0.29173
2.954	69.699	-18654	2414.3	-0.34306	0.90963	0.29182
2.956	69.699	-18653	2414.3	-0.34297	0.91022	0.29124
2.958	69.696	-18647	2414.3	-0.34287	0.9108	0.29065
2.96	69.693	-18643	2414.3	-0.34277	0.91139	0.29007
2.962	69.687	-18640	2414.2	-0.34267	0.91197	0.28948
2.964	69.684	-18642	2414.2	-0.34258	0.91256	0.2889
2.966	69.688	-18649	2414.2	-0.34238	0.91246	0.2888
2.968	69.7	-18653	2414.1	-0.34219	0.91236	0.2887
2.97	69.708	-18653	2414.1	-0.34199	0.91227	0.2886
2.972	69.711	-18653	2414.1	-0.3418	0.91217	0.28851
2.974	69.708	-18652	2414.1	-0.3416	0.91207	0.28841
2.976	69.705	-18650	2414	-0.34316	0.91266	0.28851
2.978	69.696	-18647	2413.9	-0.34472	0.91324	0.2886
2.98	69.695	-18643	2413.9	-0.34628	0.91383	0.2887
2.982	69.696	-18640	2413.9	-0.34785	0.91441	0.2888
2.984	69.703	-18637	2413.9	-0.34941	0.915	0.2889
2.986	69.707	-18636	2413.9	-0.34863	0.91539	0.28821
2.988	69.71	-18638	2413.8	-0.34785	0.91578	0.28753
2.99	69.71	-18643	2413.8	-0.34707	0.91617	0.28685
2.992	69.703	-18646	2413.8	-0.34628	0.91656	0.28616
2.994	69.698	-18648	2413.8	-0.3455	0.91695	0.28548
2.996	69.693	-18646	2413.8	-0.34511	0.91607	0.28587
2.998	69.692	-18641	2413.8	-0.34472	0.9152	0.28626
3	69.696	-18640	2413.8	-0.34433	0.91432	0.28665
3.002	69.705	-18643	2413.9	-0.34394	0.91344	0.28704
3.004	69.712	-18644	2413.9	-0.34355	0.91256	0.28743
3.006	69.713	-18642	2413.9	-0.34336	0.91207	0.28792
3.008	69.707	-18641	2413.9	-0.34316	0.91158	0.28841
3.01	69.699	-18641	2413.9	-0.34297	0.9111	0.2889
3.012	69.69	-18641	2413.9	-0.34277	0.91061	0.28938
3.014	69.687	-18642	2413.9	-0.34258	0.91012	0.28987
3.016	69.686	-18643	2414	-0.34277	0.91022	0.28977
3.018	69.695	-18644	2414	-0.34297	0.91032	0.28968
3.02	69.702	-18646	2414	-0.34316	0.91041	0.28958
3.022	69.703	-18650	2414	-0.34336	0.91051	0.28948
3.024	69.7	-18651	2414	-0.34355	0.91061	0.28938
3.026	69.692	-18650	2414	-0.34414	0.91041	0.28987
3.028	69.682	-18650	2414	-0.34472	0.91022	0.29036
3.03	69.681	-18653	2414	-0.34531	0.91002	0.29085
3.032	69.686	-18658	2414	-0.34589	0.90983	0.29134
3.034	69.691	-18665	2414	-0.34648	0.90963	0.29182
3.036	69.697	-18665	2414	-0.34687	0.91022	0.29182
3.038	69.701	-18656	2414	-0.34726	0.9108	0.29182
3.04	69.697	-18651	2414	-0.34765	0.91139	0.29182
3.042	69.689	-18649	2413.9	-0.34804	0.91197	0.29182
3.044	69.679	-18652	2413.9	-0.34843	0.91256	0.29182
3.046	69.672	-18659	2413.9	-0.34775	0.91266	0.29212
3.048	69.673	-18661	2413.9	-0.34707	0.91276	0.29241
3.05	69.68	-18658	2413.9	-0.34638	0.91285	0.2927
3.052	69.686	-18654	2413.9	-0.3457	0.91295	0.293
3.054	69.69	-18650	2413.8	-0.34502	0.91305	0.29329
3.056	69.691	-18648	2413.8	-0.34521	0.91295	0.29348
3.058	69.686	-18648	2413.8	-0.34541	0.91285	0.29368
3.06	69.678	-18649	2413.7	-0.3456	0.91276	0.29387
3.062	69.674	-18651	2413.7	-0.3458	0.91266	0.29407
3.064	69.672	-18652	2413.7	-0.34599	0.91256	0.29426
3.066	69.675	-18653	2413.7	-0.34609	0.91295	0.29358
3.068	69.68	-18652	2413.7	-0.34619	0.91334	0.2929
3.07	69.678	-18650	2413.6	-0.34628	0.91373	0.29221
3.072	69.672	-18649	2413.6	-0.34638	0.91412	0.29153
3.074	69.669	-18649	2413.5	-0.34648	0.91451	0.29085
3.076	69.657	-18650	2413.5	-0.3456	0.91295	0.29173
3.078	69.651	-18652	2413.5	-0.34472	0.91139	0.2926
3.08	69.645	-18652	2413.5	-0.34384	0.90983	0.29348
3.082	69.645	-18651	2413.5	-0.34297	0.90827	0.29436
3.084	69.647	-18652	2413.5	-0.34209	0.9067	0.29524
3.086	69.65	-18656	2413.5	-0.34238	0.90729	0.29553
3.088	69.655	-18658	2413.5	-0.34267	0.90788	0.29583
3.09	69.647	-18659	2413.5	-0.34297	0.90846	0.29612
3.092	69.636	-18658	2413.5	-0.34326	0.90905	0.29641
3.094	69.628	-18657	2413.5	-0.34355	0.90963	0.2967
3.096	69.62	-18656	2413.5	-0.34463	0.91022	0.29553
3.098	69.617	-18657	2413.5	-0.3457	0.9108	0.29436
3.1	69.618	-18660	2413.5	-0.34677	0.91139	0.29319
3.102	69.627	-18667	2413.5	-0.34785	0.91197	0.29202
3.104	69.633	-18664	2413.5	-0.34892	0.91256	0.29085
3.106	69.637	-18652	2413.5	-0.34912	0.91256	0.29143
3.108	69.636	-18650	2413.5	-0.34931	0.91256	0.29202
3.11	69.623	-18657	2413.6	-0.34951	0.91256	0.2926
3.112	69.611	-18660	2413.6	-0.3497	0.91256	0.29319
3.114	69.602	-18659	2413.7	-0.3499	0.91256	0.29378
3.116	69.594	-18657	2413.7	-0.34951	0.91285	0.2926
3.118	69.592	-18653	2413.6	-0.34912	0.91315	0.29143
3.12	69.599	-18653	2413.6	-0.34872	0.91344	0.29026
3.122	69.608	-18656	2413.7	-0.34833	0.91373	0.28909
3.124	69.611	-18659	2413.7	-0.34794	0.91402	0.28792
3.126	69.61	-18662	2413.7	-0.34726	0.91354	0.2889
3.128	69.61	-18662	2413.7	-0.34658	0.91305	0.28987
3.13	69.612	-18658	2413.7	-0.34589	0.91256	0.29085
3.132	69.616	-18659	2413.6	-0.34521	0.91207	0.29182
3.134	69.624	-18665	2413.6	-0.34453	0.91158	0.2928
3.136	69.628	-18665	2413.7	-0.34453	0.91119	0.29212
3.138	69.626	-18660	2413.7	-0.34453	0.9108	0.29143
3.14	69.621	-18660	2413.7	-0.34453	0.91041	0.29075
3.142	69.611	-18663	2413.7	-0.34453	0.91002	0.29007
3.144	69.602	-18667	2413.7	-0.34453	0.90963	0.28938
3.146	69.603	-18672	2413.7	-0.34472	0.9108	0.28919
3.148	69.608	-18670	2413.7	-0.34492	0.91197	0.28899
3.15	69.62	-18662	2413.7	-0.34511	0.91315	0.2888
3.152	69.632	-18661	2413.7	-0.34531	0.91432	0.2886
3.154	69.639	-18666	2413.7	-0.3455	0.91549	0.28841
3.156	69.643	-18667	2413.7	-0.34638	0.9149	0.28977
3.158	69.65	-18663	2413.7	-0.34726	0.91432	0.29114
3.16	69.662	-18663	2413.7	-0.34814	0.91373	0.29251
3.162	69.667	-18666	2413.7	-0.34902	0.91315	0.29387
3.164	69.672	-18667	2413.7	-0.3499	0.91256	0.29524
3.166	69.688	-18665	2413.7	-0.34775	0.91197	0.29387
3.168	69.706	-18665	2413.7	-0.3456	0.91139	0.29251
3.17	69.721	-18668	2413.6	-0.34345	0.9108	0.29114
3.172	69.726	-18670	2413.6	-0.34131	0.91022	0.28977
3.174	69.718	-18671	2413.6	-0.33916	0.90963	0.28841
3.176	69.709	-18671	2413.5	-0.34004	0.90973	0.28919
3.178	69.7	-18669	2413.5	-0.34092	0.90983	0.28997
3.18	69.696	-18669	2413.5	-0.3418	0.90992	0.29075
3.182	69.699	-18671	2413.4	-0.34267	0.91002	0.29153
3.184	69.706	-18674	2413.4	-0.34355	0.91012	0.29231
3.186	69.71	-18676	2413.4	-0.34394	0.91061	0.293
3.188	69.715	-18674	2413.4	-0.34433	0.9111	0.29368
3.19	69.716	-18667	2413.3	-0.34472	0.91158	0.29436
3.192	69.709	-18663	2413.3	-0.34511	0.91207	0.29504
3.194	69.702	-18664	2413.2	-0.3455	0.91256	0.29573
3.196	69.697	-18664	2413.2	-0.34658	0.91236	0.29573
3.198	69.699	-18664	2413.2	-0.34765	0.91217	0.29573
3.2	69.705	-18665	2413.2	-0.34872	0.91197	0.29573
3.202	69.709	-18666	2413.1	-0.3498	0.91178	0.29573
3.204	69.71	-18669	2413.1	-0.35087	0.91158	0.29573
3.206	69.71	-18674	2413	-0.35029	0.91197	0.29475
3.208	69.705	-18677	2413	-0.3497	0.91236	0.29378
3.21	69.696	-18677	2413	-0.34912	0.91276	0.2928
3.212	69.691	-18675	2412.9	-0.34853	0.91315	0.29182
3.214	69.692	-18672	2412.9	-0.34794	0.91354	0.29085
3.216	69.698	-18670	2412.9	-0.34833	0.91334	0.29202
3.218	69.707	-18670	2412.8	-0.34872	0.91315	0.29319
3.22	69.715	-18671	2412.8	-0.34912	0.91295	0.29436
3.222	69.719	-18673	2412.7	-0.34951	0.91276	0.29553
3.224	69.724	-18675	2412.7	-0.3499	0.91256	0.2967
3.226	69.736	-18676	2412.6	-0.34999	0.91236	0.29602
3.228	69.756	-18676	2412.6	-0.35009	0.91217	0.29534
3.23	69.786	-18675	2412.6	-0.35019	0.91197	0.29465
3.232	69.821	-18677	2412.6	-0.35029	0.91178	0.29397
3.234	69.859	-18681	2412.6	-0.35038	0.91158	0.29329
3.236	69.88	-18687	2412.6	-0.35048	0.91197	0.2929
3.238	69.874	-18696	2412.5	-0.35058	0.91236	0.29251
3.24	69.837	-18700	2412.5	-0.35068	0.91276	0.29212
3.242	69.788	-18700	2412.5	-0.35077	0.91315	0.29173
3.244	69.734	-18699	2412.4	-0.35087	0.91354	0.29134
3.246	69.655	-18695	2412.4	-0.35068	0.91354	0.29085
3.248	69.565	-18691	2412.4	-0.35048	0.91354	0.29036
3.25	69.476	-18686	2412.4	-0.35029	0.91354	0.28987
3.252	69.382	-18681	2412.4	-0.35009	0.91354	0.28938
3.254	69.269	-18675	2412.4	-0.3499	0.91354	0.2889
3.256	69.132	-18674	2412.4	-0.34921	0.91334	0.28929
3.258	68.975	-18678	2412.3	-0.34853	0.91315	0.28968
3.26	68.826	-18682	2412.3	-0.34785	0.91295	0.29007
3.262	68.684	-18685	2412.3	-0.34716	0.91276	0.29046
3.264	68.563	-18687	2412.3	-0.34648	0.91256	0.29085
3.266	68.504	-18688	2412.3	-0.34609	0.91315	0.29016
3.268	68.498	-18688	2412.3	-0.3457	0.91373	0.28948
3.27	68.562	-18688	2412.3	-0.34531	0.91432	0.2888
3.272	68.674	-18688	2412.2	-0.34492	0.9149	0.28812
3.274	68.805	-18688	2412.2	-0.34453	0.91549	0.28743
3.276	68.954	-18689	2412.2	-0.34492	0.9149	0.28772
3.278	69.104	-18689	2412.2	-0.34531	0.91432	0.28802
3.28	69.259	-18688	2412.2	-0.3457	0.91373	0.28831
3.282	69.404	-18686	2412.1	-0.34609	0.91315	0.2886
3.284	69.52	-18684	2412	-0.34648	0.91256	0.2889
3.286	69.593	-18684	2412	-0.34687	0.91246	0.28968
3.288	69.638	-18684	2411.9	-0.34726	0.91236	0.29046
3.29	69.674	-18684	2411.9	-0.34765	0.91227	0.29124
3.292	69.695	-18687	2411.9	-0.34804	0.91217	0.29202
3.294	69.714	-18690	2411.8	-0.34843	0.91207	0.2928
3.296	69.736	-18692	2411.8	-0.34853	0.91236	0.2926
3.298	69.738	-18691	2411.8	-0.34863	0.91266	0.29241
3.3	69.719	-18689	2411.8	-0.34872	0.91295	0.29221
3.302	69.696	-18683	2411.8	-0.34882	0.91324	0.29202
3.304	69.68	-18683	2411.8	-0.34892	0.91354	0.29182
3.306	69.67	-18688	2411.8	-0.34853	0.91402	0.29075
3.308	69.653	-18692	2411.8	-0.34814	0.91451	0.28968
3.31	69.638	-18697	2411.8	-0.34775	0.915	0.2886
3.312	69.629	-18698	2411.8	-0.34736	0.91549	0.28753
3.314	69.637	-18697	2411.7	-0.34697	0.91598	0.28646
3.316	69.652	-18696	2411.7	-0.34804	0.91539	0.28743
3.318	69.656	-18695	2411.6	-0.34912	0.9148	0.28841
3.32	69.664	-18695	2411.6	-0.35019	0.91422	0.28938
3.322	69.673	-18696	2411.5	-0.35126	0.91363	0.29036
3.324	69.672	-18696	2411.5	-0.35234	0.91305	0.29134
3.326	69.664	-18694	2411.5	-0.35087	0.91344	0.29065
3.328	69.654	-18695	2411.5	-0.34941	0.91383	0.28997
3.33	69.645	-18699	2411.5	-0.34794	0.91422	0.28929
3.332	69.646	-18702	2411.5	-0.34648	0.91461	0.2886
3.334	69.653	-18702	2411.5	-0.34502	0.915	0.28792
3.336	69.656	-18701	2411.5	-0.3458	0.91461	0.2889
3.338	69.659	-18699	2411.5	-0.34658	0.91422	0.28987
3.34	69.66	-18698	2411.5	-0.34736	0.91383	0.29085
3.342	69.653	-18699	2411.4	-0.34814	0.91344	0.29182
3.344	69.643	-18699	2411.4	-0.34892	0.91305	0.2928
3.346	69.638	-18700	2411.4	-0.34902	0.91285	0.293
3.348	69.638	-18700	2411.4	-0.34912	0.91266	0.29319
3.35	69.639	-18699	2411.4	-0.34921	0.91246	0.29339
3.352	69.64	-18700	2411.4	-0.34931	0.91227	0.29358
3.354	69.642	-18703	2411.4	-0.34941	0.91207	0.29378
3.356	69.645	-18704	2411.4	-0.34921	0.91256	0.29358
3.358	69.64	-18705	2411.4	-0.34902	0.91305	0.29339
3.36	69.63	-18704	2411.3	-0.34882	0.91354	0.29319
3.362	69.624	-18701	2411.3	-0.34863	0.91402	0.293
3.364	69.623	-18701	2411.3	-0.34843	0.91451	0.2928
3.366	69.625	-18704	2411.3	-0.34726	0.91363	0.29309
3.368	69.626	-18705	2411.2	-0.34609	0.91276	0.29339
3.37	69.631	-18704	2411.2	-0.34492	0.91188	0.29368
3.372	69.637	-18705	2411.2	-0.34375	0.911	0.29397
3.374	69.633	-18710	2411.2	-0.34258	0.91012	0.29426
3.376	69.623	-18711	2411.1	-0.34297	0.91002	0.29504
3.378	69.615	-18709	2411.1	-0.34336	0.90992	0.29583
3.38	69.609	-18706	2411.1	-0.34375	0.90983	0.29661
3.382	69.609	-18702	2411	-0.34414	0.90973	0.29739
3.384	69.612	-18702	2411	-0.34453	0.90963	0.29817
3.386	69.62	-18707	2411	-0.34511	0.90983	0.2968
3.388	69.63	-18710	2411	-0.3457	0.91002	0.29544
3.39	69.628	-18710	2411	-0.34628	0.91022	0.29407
3.392	69.614	-18708	2411	-0.34687	0.91041	0.2927
3.394	69.6	-18703	2411	-0.34746	0.91061	0.29134
3.396	69.593	-18706	2410.9	-0.34648	0.9111	0.29085
3.398	69.594	-18715	2410.9	-0.3455	0.91158	0.29036
3.4	69.595	-18721	2410.9	-0.34453	0.91207	0.28987
3.402	69.599	-18725	2410.8	-0.34355	0.91256	0.28938
3.404	69.603	-18725	2410.8	-0.34258	0.91305	0.2889
3.406	69.602	-18720	2410.8	-0.34267	0.91363	0.28821
3.408	69.588	-18716	2410.8	-0.34277	0.91422	0.28753
3.41	69.582	-18711	2410.8	-0.34287	0.9148	0.28685
3.412	69.579	-18710	2410.8	-0.34297	0.91539	0.28616
3.414	69.568	-18714	2410.8	-0.34306	0.91598	0.28548
3.416	69.567	-18715	2410.8	-0.34433	0.9151	0.28646
3.418	69.571	-18714	2410.9	-0.3456	0.91422	0.28743
3.42	69.569	-18713	2410.9	-0.34687	0.91334	0.28841
3.422	69.565	-18713	2411	-0.34814	0.91246	0.28938
3.424	69.556	-18715	2411.1	-0.34941	0.91158	0.29036
3.426	69.544	-18719	2411.1	-0.34814	0.91236	0.28968
3.428	69.532	-18722	2411.2	-0.34687	0.91315	0.28899
3.43	69.519	-18724	2411.3	-0.3456	0.91393	0.28831
3.432	69.511	-18724	2411.4	-0.34433	0.91471	0.28763
3.434	69.507	-18721	2411.4	-0.34306	0.91549	0.28694
3.436	69.51	-18720	2411.6	-0.34404	0.9152	0.28763
3.438	69.513	-18721	2411.7	-0.34502	0.9149	0.28831
3.44	69.507	-18722	2411.8	-0.34599	0.91461	0.28899
3.442	69.497	-18723	2412	-0.34697	0.91432	0.28968
3.444	69.488	-18722	2412.1	-0.34794	0.91402	0.29036
3.446	69.482	-18720	2412.2	-0.34814	0.91412	0.29065
3.448	69.482	-18719	2412.4	-0.34833	0.91422	0.29095
3.45	69.486	-18720	2412.5	-0.34853	0.91432	0.29124
3.452	69.49	-18718	2412.6	-0.34872	0.91441	0.29153
3.454	69.496	-18713	2412.8	-0.34892	0.91451	0.29182
3.456	69.498	-18711	2412.9	-0.34853	0.91373	0.29153
3.458	69.492	-18712	2413.1	-0.34814	0.91295	0.29124
3.46	69.48	-18712	2413.2	-0.34775	0.91217	0.29095
3.462	69.473	-18712	2413.4	-0.34736	0.91139	0.29065
3.464	69.473	-18711	2413.5	-0.34697	0.91061	0.29036
3.466	69.476	-18710	2413.6	-0.34687	0.911	0.29036
3.468	69.483	-18707	2413.8	-0.34677	0.91139	0.29036
3.47	69.492	-18700	2413.9	-0.34668	0.91178	0.29036
3.472	69.498	-18698	2414.1	-0.34658	0.91217	0.29036
3.474	69.496	-18700	2414.4	-0.34648	0.91256	0.29036
3.476	69.49	-18702	2414.5	-0.34668	0.91256	0.29065
3.478	69.48	-18702	2414.7	-0.34687	0.91256	0.29095
3.48	69.478	-18700	2414.9	-0.34707	0.91256	0.29124
3.482	69.485	-18697	2415	-0.34726	0.91256	0.29153
3.484	69.493	-18695	2415.2	-0.34746	0.91256	0.29182
3.486	69.503	-18694	2415.3	-0.34687	0.91168	0.29134
3.488	69.512	-18692	2415.5	-0.34628	0.9108	0.29085
3.49	69.516	-18689	2415.7	-0.3457	0.90992	0.29036
3.492	69.511	-18686	2415.8	-0.34511	0.90905	0.28987
3.494	69.507	-18683	2416	-0.34453	0.90817	0.28938
3.496	69.504	-18681	2416.2	-0.3458	0.90846	0.29016
3.498	69.511	-18680	2416.4	-0.34707	0.90875	0.29095
3.5	69.519	-18681	2416.5	-0.34833	0.90905	0.29173
3.502	69.538	-18684	2416.7	-0.3496	0.90934	0.29251
3.504	69.552	-18683	2416.8	-0.35087	0.90963	0.29329
3.506	69.55	-18678	2416.9	-0.35087	0.91032	0.29368
3.508	69.54	-18677	2417	-0.35087	0.911	0.29407
3.51	69.533	-18680	2417.2	-0.35087	0.91168	0.29446
3.512	69.531	-18679	2417.3	-0.35087	0.91236	0.29485
3.514	69.54	-18675	2417.5	-0.35087	0.91305	0.29524
3.516	69.552	-18671	2417.6	-0.3497	0.91315	0.29417
3.518	69.57	-18668	2417.7	-0.34853	0.91324	0.29309
3.52	69.582	-18667	2417.9	-0.34736	0.91334	0.29202
3.522	69.592	-18667	2418	-0.34619	0.91344	0.29095
3.524	69.598	-18665	2418.1	-0.34502	0.91354	0.28987
3.526	69.596	-18660	2418.2	-0.34541	0.91373	0.29007
3.528	69.595	-18660	2418.3	-0.3458	0.91393	0.29026
3.53	69.6	-18665	2418.4	-0.34619	0.91412	0.29046
3.532	69.607	-18663	2418.4	-0.34658	0.91432	0.29065
3.534	69.619	-18655	2418.5	-0.34697	0.91451	0.29085
3.536	69.632	-18650	2418.6	-0.34746	0.91432	0.29104
3.538	69.639	-18649	2418.7	-0.34794	0.91412	0.29124
3.54	69.643	-18647	2418.8	-0.34843	0.91393	0.29143
3.542	69.643	-18644	2418.9	-0.34892	0.91373	0.29163
3.544	69.636	-18646	2419	-0.34941	0.91354	0.29182
3.546	69.63	-18653	2419	-0.34785	0.91266	0.29124
3.548	69.631	-18655	2419.1	-0.34628	0.91178	0.29065
3.55	69.645	-18654	2419.2	-0.34472	0.9109	0.29007
3.552	69.661	-18653	2419.3	-0.34316	0.91002	0.28948
3.554	69.671	-18651	2419.3	-0.3416	0.90914	0.2889
3.556	69.676	-18647	2419.4	-0.34121	0.90797	0.2889
3.558	69.675	-18640	2419.4	-0.34082	0.9068	0.2889
3.56	69.669	-18638	2419.4	-0.34043	0.90563	0.2889
3.562	69.667	-18641	2419.5	-0.34004	0.90446	0.2889
3.564	69.666	-18643	2419.6	-0.33965	0.90329	0.2889
3.566	69.67	-18644	2419.6	-0.34053	0.90417	0.28909
3.568	69.68	-18644	2419.7	-0.3414	0.90504	0.28929
3.57	69.687	-18644	2419.7	-0.34228	0.90592	0.28948
3.572	69.694	-18642	2419.7	-0.34316	0.9068	0.28968
3.574	69.693	-18639	2419.7	-0.34404	0.90768	0.28987
3.576	69.685	-18636	2419.7	-0.34453	0.90866	0.29016
3.578	69.679	-18634	2419.8	-0.34502	0.90963	0.29046
3.58	69.678	-18635	2419.8	-0.3455	0.91061	0.29075
3.582	69.683	-18636	2419.8	-0.34599	0.91158	0.29104
3.584	69.69	-18637	2419.8	-0.34648	0.91256	0.29134
3.586	69.703	-18636	2419.7	-0.34658	0.91246	0.29173
3.588	69.707	-18634	2419.7	-0.34668	0.91236	0.29212
3.59	69.704	-18632	2419.7	-0.34677	0.91227	0.29251
3.592	69.7	-18631	2419.7	-0.34687	0.91217	0.2929
3.594	69.696	-18630	2419.6	-0.34697	0.91207	0.29329
3.596	69.691	-18630	2419.6	-0.34755	0.91188	0.29329
3.598	69.693	-18631	2419.6	-0.34814	0.91168	0.29329
3.6	69.699	-18631	2419.6	-0.34872	0.91149	0.29329
3.602	69.704	-18631	2419.5	-0.34931	0.91129	0.29329
3.604	69.712	-18629	2419.5	-0.3499	0.9111	0.29329
3.606	69.714	-18627	2419.5	-0.34882	0.91178	0.29241
3.608	69.706	-18627	2419.5	-0.34775	0.91246	0.29153
3.61	69.7	-18630	2419.5	-0.34668	0.91315	0.29065
3.612	69.694	-18632	2419.5	-0.3456	0.91383	0.28977
3.614	69.693	-18635	2419.5	-0.34453	0.91451	0.2889
3.616	69.697	-18636	2419.5	-0.34472	0.91383	0.28958
3.618	69.704	-18635	2419.4	-0.34492	0.91315	0.29026
3.62	69.708	-18633	2419.4	-0.34511	0.91246	0.29095
3.622	69.708	-18632	2419.4	-0.34531	0.91178	0.29163
3.624	69.703	-18631	2419.4	-0.3455	0.9111	0.29231
3.626	69.696	-18630	2419.4	-0.34707	0.911	0.29231
3.628	69.69	-18628	2419.4	-0.34863	0.9109	0.29231
3.63	69.684	-18627	2419.4	-0.35019	0.9108	0.29231
3.632	69.682	-18628	2419.4	-0.35175	0.91071	0.29231
3.634	69.687	-18631	2419.5	-0.35331	0.91061	0.29231
3.636	69.692	-18631	2419.4	-0.35243	0.91139	0.2926
3.638	69.695	-18629	2419.4	-0.35156	0.91217	0.2929
3.64	69.691	-18629	2419.4	-0.35068	0.91295	0.29319
3.642	69.685	-18630	2419.4	-0.3498	0.91373	0.29348
3.644	69.678	-18628	2419.4	-0.34892	0.91451	0.29378
3.646	69.67	-18625	2419.4	-0.34902	0.91383	0.29407
3.648	69.665	-18625	2419.4	-0.34912	0.91315	0.29436
3.65	69.67	-18628	2419.4	-0.34921	0.91246	0.29465
3.652	69.678	-18630	2419.4	-0.34931	0.91178	0.29495
3.654	69.68	-18629	2419.4	-0.34941	0.9111	0.29524
3.656	69.681	-18629	2419.4	-0.34863	0.91002	0.29456
3.658	69.679	-18632	2419.3	-0.34785	0.90895	0.29387
3.66	69.67	-18632	2419.3	-0.34707	0.90788	0.29319
3.662	69.661	-18631	2419.3	-0.34628	0.9068	0.29251
3.664	69.658	-18633	2419.4	-0.3455	0.90573	0.29182
3.666	69.663	-18638	2419.3	-0.3458	0.90592	0.2926
3.668	69.67	-18637	2419.3	-0.34609	0.90612	0.29339
3.67	69.674	-18628	2419.2	-0.34638	0.90631	0.29417
3.672	69.678	-18625	2419.2	-0.34668	0.90651	0.29495
3.674	69.678	-18626	2419.2	-0.34697	0.9067	0.29573
3.676	69.667	-18630	2419.1	-0.34707	0.9068	0.29553
3.678	69.659	-18636	2419.1	-0.34716	0.9069	0.29534
3.68	69.657	-18641	2419	-0.34726	0.907	0.29514
3.682	69.659	-18642	2419	-0.34736	0.90709	0.29495
3.684	69.665	-18642	2419	-0.34746	0.90719	0.29475
3.686	69.676	-18641	2418.9	-0.34628	0.9069	0.29504
3.688	69.682	-18640	2418.8	-0.34511	0.90661	0.29534
3.69	69.684	-18639	2418.8	-0.34394	0.90631	0.29563
3.692	69.677	-18639	2418.8	-0.34277	0.90602	0.29592
3.694	69.665	-18639	2418.8	-0.3416	0.90573	0.29622
3.696	69.658	-18639	2418.8	-0.34326	0.9067	0.29563
3.698	69.652	-18637	2418.8	-0.34492	0.90768	0.29504
3.7	69.653	-18635	2418.8	-0.34658	0.90866	0.29446
3.702	69.661	-18632	2418.7	-0.34824	0.90963	0.29387
3.704	69.666	-18632	2418.7	-0.3499	0.91061	0.29329
3.706	69.666	-18634	2418.7	-0.34814	0.91061	0.2927
3.708	69.66	-18636	2418.7	-0.34638	0.91061	0.29212
3.71	69.652	-18637	2418.7	-0.34463	0.91061	0.29153
3.712	69.643	-18636	2418.7	-0.34287	0.91061	0.29095
3.714	69.64	-18635	2418.7	-0.34111	0.91061	0.29036
3.716	69.639	-18635	2418.7	-0.34297	0.911	0.29007
3.718	69.637	-18637	2418.7	-0.34482	0.91139	0.28977
3.72	69.637	-18639	2418.7	-0.34668	0.91178	0.28948
3.722	69.642	-18641	2418.7	-0.34853	0.91217	0.28919
3.724	69.639	-18642	2418.7	-0.35038	0.91256	0.2889
3.726	69.628	-18642	2418.7	-0.35009	0.91305	0.2886
3.728	69.619	-18643	2418.7	-0.3498	0.91354	0.28831
3.73	69.614	-18644	2418.7	-0.34951	0.91402	0.28802
3.732	69.616	-18645	2418.7	-0.34921	0.91451	0.28772
3.734	69.625	-18646	2418.8	-0.34892	0.915	0.28743
3.736	69.637	-18645	2418.8	-0.34882	0.91451	0.28821
3.738	69.637	-18642	2418.8	-0.34872	0.91402	0.28899
3.74	69.631	-18640	2418.8	-0.34863	0.91354	0.28977
3.742	69.622	-18640	2418.7	-0.34853	0.91305	0.29056
3.744	69.606	-18639	2418.7	-0.34843	0.91256	0.29134
3.746	69.594	-18639	2418.8	-0.34843	0.91256	0.29114
3.748	69.594	-18640	2418.8	-0.34843	0.91256	0.29095
3.75	69.6	-18643	2418.8	-0.34843	0.91256	0.29075
3.752	69.616	-18644	2418.8	-0.34843	0.91256	0.29056
3.754	69.632	-18644	2418.8	-0.34843	0.91256	0.29036
3.756	69.639	-18644	2418.8	-0.34824	0.91266	0.29056
3.758	69.638	-18642	2418.9	-0.34804	0.91276	0.29075
3.76	69.63	-18643	2418.9	-0.34785	0.91285	0.29095
3.762	69.621	-18644	2418.8	-0.34765	0.91295	0.29114
3.764	69.618	-18645	2418.8	-0.34746	0.91305	0.29134
3.766	69.617	-18644	2418.8	-0.34726	0.91246	0.29134
3.768	69.626	-18643	2418.8	-0.34707	0.91188	0.29134
3.77	69.633	-18641	2418.8	-0.34687	0.91129	0.29134
3.772	69.639	-18641	2418.8	-0.34668	0.91071	0.29134
3.774	69.638	-18642	2418.9	-0.34648	0.91012	0.29134
3.776	69.632	-18642	2418.8	-0.34609	0.91061	0.29143
3.778	69.626	-18642	2418.8	-0.3457	0.9111	0.29153
3.78	69.623	-18641	2418.8	-0.34531	0.91158	0.29163
3.782	69.626	-18640	2418.8	-0.34492	0.91207	0.29173
3.784	69.639	-18638	2418.8	-0.34453	0.91256	0.29182
3.786	69.662	-18636	2418.8	-0.34404	0.91266	0.29104
3.788	69.684	-18634	2418.8	-0.34355	0.91276	0.29026
3.79	69.696	-18632	2418.8	-0.34306	0.91285	0.28948
3.792	69.7	-18631	2418.7	-0.34258	0.91295	0.2887
3.794	69.704	-18632	2418.7	-0.34209	0.91305	0.28792
3.796	69.706	-18631	2418.6	-0.34267	0.91305	0.2888
3.798	69.709	-18628	2418.6	-0.34326	0.91305	0.28968
3.8	69.717	-18628	2418.6	-0.34384	0.91305	0.29056
3.802	69.723	-18632	2418.5	-0.34443	0.91305	0.29143
3.804	69.723	-18634	2418.5	-0.34502	0.91305	0.29231
3.806	69.72	-18635	2418.5	-0.34482	0.91217	0.29251
3.808	69.717	-18638	2418.5	-0.34463	0.91129	0.2927
3.81	69.71	-18641	2418.4	-0.34443	0.91041	0.2929
3.812	69.702	-18641	2418.4	-0.34424	0.90953	0.29309
3.814	69.701	-18636	2418.3	-0.34404	0.90866	0.29329
3.816	69.705	-18638	2418.3	-0.34277	0.90836	0.29397
3.818	69.709	-18647	2418.2	-0.3415	0.90807	0.29465
3.82	69.716	-18654	2418.2	-0.34023	0.90778	0.29534
3.822	69.721	-18661	2418.1	-0.33896	0.90748	0.29602
3.824	69.715	-18665	2418.1	-0.3377	0.90719	0.2967
3.826	69.711	-18666	2418.1	-0.33926	0.90768	0.29592
3.828	69.706	-18665	2418	-0.34082	0.90817	0.29514
3.83	69.7	-18664	2418	-0.34238	0.90866	0.29436
3.832	69.703	-18666	2418	-0.34394	0.90914	0.29358
3.834	69.712	-18670	2417.9	-0.3455	0.90963	0.2928
3.836	69.719	-18671	2417.9	-0.34609	0.90983	0.29348
3.838	69.725	-18668	2417.8	-0.34668	0.91002	0.29417
3.84	69.727	-18665	2417.8	-0.34726	0.91022	0.29485
3.842	69.718	-18662	2417.8	-0.34785	0.91041	0.29553
3.844	69.705	-18657	2417.7	-0.34843	0.91061	0.29622
3.846	69.7	-18651	2417.7	-0.34824	0.91149	0.29475
3.848	69.702	-18647	2417.7	-0.34804	0.91236	0.29329
3.85	69.717	-18646	2417.6	-0.34785	0.91324	0.29182
3.852	69.734	-18646	2417.6	-0.34765	0.91412	0.29036
3.854	69.754	-18647	2417.6	-0.34746	0.915	0.2889
3.856	69.782	-18645	2417.6	-0.34716	0.9149	0.28948
3.858	69.808	-18641	2417.6	-0.34687	0.9148	0.29007
3.86	69.834	-18643	2417.5	-0.34658	0.91471	0.29065
3.862	69.854	-18651	2417.5	-0.34628	0.91461	0.29124
3.864	69.865	-18658	2417.4	-0.34599	0.91451	0.29182
3.866	69.853	-18663	2417.4	-0.34599	0.91344	0.29202
3.868	69.822	-18665	2417.4	-0.34599	0.91236	0.29221
3.87	69.786	-18662	2417.4	-0.34599	0.91129	0.29241
3.872	69.731	-18661	2417.4	-0.34599	0.91022	0.2926
3.874	69.651	-18662	2417.4	-0.34599	0.90914	0.2928
3.876	69.56	-18662	2417.4	-0.34599	0.91022	0.29202
3.878	69.46	-18661	2417.4	-0.34599	0.91129	0.29124
3.88	69.353	-18662	2417.3	-0.34599	0.91236	0.29046
3.882	69.241	-18665	2417.3	-0.34599	0.91344	0.28968
3.884	69.112	-18666	2417.2	-0.34599	0.91451	0.2889
3.886	68.975	-18663	2417.2	-0.34609	0.91363	0.28958
3.888	68.845	-18663	2417.2	-0.34619	0.91276	0.29026
3.89	68.717	-18666	2417.2	-0.34628	0.91188	0.29095
3.892	68.608	-18669	2417.2	-0.34638	0.911	0.29163
3.894	68.551	-18670	2417.1	-0.34648	0.91012	0.29231
3.896	68.552	-18671	2417.1	-0.34638	0.91129	0.29153
3.898	68.618	-18671	2417.1	-0.34628	0.91246	0.29075
3.9	68.742	-18669	2417	-0.34619	0.91363	0.28997
3.902	68.886	-18664	2417	-0.34609	0.9148	0.28919
3.904	69.041	-18661	2416.9	-0.34599	0.91598	0.28841
3.906	69.191	-18660	2416.9	-0.34648	0.91539	0.28987
3.908	69.325	-18660	2416.9	-0.34697	0.9148	0.29134
3.91	69.448	-18663	2416.8	-0.34746	0.91422	0.2928
3.912	69.54	-18667	2416.8	-0.34794	0.91363	0.29426
3.914	69.6	-18672	2416.7	-0.34843	0.91305	0.29573
3.916	69.638	-18671	2416.7	-0.34902	0.91256	0.29553
3.918	69.691	-18666	2416.7	-0.3496	0.91207	0.29534
3.92	69.724	-18665	2416.6	-0.35019	0.91158	0.29514
3.922	69.756	-18668	2416.6	-0.35077	0.9111	0.29495
3.924	69.771	-18670	2416.5	-0.35136	0.91061	0.29475
3.926	69.747	-18671	2416.5	-0.35097	0.9108	0.29504
3.928	69.712	-18671	2416.4	-0.35058	0.911	0.29534
3.93	69.681	-18672	2416.4	-0.35019	0.91119	0.29563
3.932	69.663	-18672	2416.4	-0.3498	0.91139	0.29592
3.934	69.654	-18673	2416.3	-0.34941	0.91158	0.29622
3.936	69.654	-18673	2416.3	-0.3498	0.9111	0.29602
3.938	69.657	-18670	2416.3	-0.35019	0.91061	0.29583
3.94	69.659	-18672	2416.2	-0.35058	0.91012	0.29563
3.942	69.662	-18679	2416.2	-0.35097	0.90963	0.29544
3.944	69.662	-18680	2416.1	-0.35136	0.90914	0.29524
3.946	69.661	-18677	2416.1	-0.35136	0.90944	0.29544
3.948	69.664	-18674	2416	-0.35136	0.90973	0.29563
3.95	69.672	-18670	2416	-0.35136	0.91002	0.29583
3.952	69.681	-18670	2416	-0.35136	0.91032	0.29602
3.954	69.685	-18673	2416	-0.35136	0.91061	0.29622
3.956	69.684	-18676	2415.9	-0.35126	0.91129	0.29553
3.958	69.677	-18681	2415.9	-0.35116	0.91197	0.29485
3.96	69.67	-18681	2415.8	-0.35107	0.91266	0.29417
3.962	69.665	-18676	2415.8	-0.35097	0.91334	0.29348
3.964	69.663	-18676	2415.7	-0.35087	0.91402	0.2928
3.966	69.667	-18680	2415.7	-0.35038	0.91324	0.29387
3.968	69.673	-18682	2415.6	-0.3499	0.91246	0.29495
3.97	69.679	-18683	2415.6	-0.34941	0.91168	0.29602
3.972	69.681	-18682	2415.6	-0.34892	0.9109	0.29709
3.974	69.677	-18679	2415.5	-0.34843	0.91012	0.29817
3.976	69.669	-18678	2415.5	-0.34951	0.90973	0.29758
3.978	69.662	-18679	2415.6	-0.35058	0.90934	0.297
3.98	69.657	-18683	2415.5	-0.35165	0.90895	0.29641
3.982	69.653	-18689	2415.5	-0.35273	0.90856	0.29583
3.984	69.654	-18689	2415.4	-0.3538	0.90817	0.29524
3.986	69.661	-18684	2415.4	-0.35204	0.90905	0.29495
3.988	69.668	-18681	2415.3	-0.35029	0.90992	0.29465
3.99	69.664	-18680	2415.3	-0.34853	0.9108	0.29436
3.992	69.654	-18679	2415.3	-0.34677	0.91168	0.29407
3.994	69.644	-18677	2415.3	-0.34502	0.91256	0.29378
3.996	69.638	-18679	2415.3	-0.34394	0.91158	0.29495
3.998	69.637	-18686	2415.3	-0.34287	0.91061	0.29612
4	69.639	-18689	2415.3	-0.3418	0.90963	0.29729
4.002	69.647	-18689	2415.2	-0.34072	0.90866	0.29846
4.004	69.654	-18688	2415.2	-0.33965	0.90768	0.29963
4.006	69.653	-18689	2415.2	-0.34082	0.90758	0.29885
4.008	69.645	-18689	2415.1	-0.34199	0.90748	0.29807
4.01	69.635	-18688	2415.1	-0.34316	0.90739	0.29729
4.012	69.628	-18690	2415.1	-0.34433	0.90729	0.29651
4.014	69.627	-18694	2415	-0.3455	0.90719	0.29573
4.016	69.625	-18694	2415	-0.3457	0.90924	0.29456
4.018	69.623	-18691	2415	-0.34589	0.91129	0.29339
4.02	69.622	-18691	2415	-0.34609	0.91334	0.29221
4.022	69.62	-18694	2415	-0.34628	0.91539	0.29104
4.024	69.623	-18696	2414.9	-0.34648	0.91744	0.28987
4.026	69.617	-18696	2414.9	-0.34648	0.91715	0.28958
4.028	69.607	-18695	2414.9	-0.34648	0.91685	0.28929
4.03	69.598	-18691	2414.9	-0.34648	0.91656	0.28899
4.032	69.599	-18689	2414.9	-0.34648	0.91627	0.2887
4.034	69.601	-18689	2414.8	-0.34648	0.91598	0.28841
4.036	69.605	-18692	2414.8	-0.34599	0.91598	0.2888
4.038	69.606	-18698	2414.8	-0.3455	0.91598	0.28919
4.04	69.601	-18699	2414.8	-0.34502	0.91598	0.28958
4.042	69.59	-18694	2414.8	-0.34453	0.91598	0.28997
4.044	69.582	-18692	2414.8	-0.34404	0.91598	0.29036
4.046	69.574	-18693	2414.9	-0.34492	0.91588	0.29026
4.048	69.572	-18694	2414.9	-0.3458	0.91578	0.29016
4.05	69.571	-18696	2415	-0.34668	0.91568	0.29007
4.052	69.572	-18695	2415	-0.34755	0.91559	0.28997
4.054	69.574	-18691	2415	-0.34843	0.91549	0.28987
4.056	69.57	-18689	2415.1	-0.34814	0.9149	0.29114
4.058	69.559	-18688	2415.3	-0.34785	0.91432	0.29241
4.06	69.547	-18690	2415.4	-0.34755	0.91373	0.29368
4.062	69.535	-18696	2415.5	-0.34726	0.91315	0.29495
4.064	69.528	-18695	2415.6	-0.34697	0.91256	0.29622
4.066	69.528	-18688	2415.7	-0.34736	0.91256	0.29592
4.068	69.53	-18684	2415.8	-0.34775	0.91256	0.29563
4.07	69.533	-18685	2415.9	-0.34814	0.91256	0.29534
4.072	69.533	-18688	2416.1	-0.34853	0.91256	0.29504
4.074	69.526	-18693	2416.2	-0.34892	0.91256	0.29475
4.076	69.516	-18695	2416.3	-0.34863	0.91246	0.29436
4.078	69.508	-18695	2416.4	-0.34833	0.91236	0.29397
4.08	69.506	-18694	2416.6	-0.34804	0.91227	0.29358
4.082	69.504	-18692	2416.7	-0.34775	0.91217	0.29319
4.084	69.505	-18691	2416.9	-0.34746	0.91207	0.2928
4.086	69.509	-18692	2417	-0.34765	0.91256	0.29202
4.088	69.511	-18693	2417.2	-0.34785	0.91305	0.29124
4.09	69.514	-18694	2417.4	-0.34804	0.91354	0.29046
4.092	69.509	-18694	2417.6	-0.34824	0.91402	0.28968
4.094	69.504	-18695	2417.8	-0.34843	0.91451	0.2889
4.096	69.499	-18694	2417.9	-0.34716	0.91373	0.28948
4.098	69.498	-18692	2418.1	-0.34589	0.91295	0.29007
4.1	69.503	-18687	2418.2	-0.34463	0.91217	0.29065
4.102	69.513	-18678	2418.4	-0.34336	0.91139	0.29124
4.104	69.518	-18674	2418.6	-0.34209	0.91061	0.29182
4.106	69.519	-18674	2418.8	-0.34297	0.91129	0.29134
4.108	69.515	-18675	2418.9	-0.34384	0.91197	0.29085
4.11	69.51	-18677	2419.1	-0.34472	0.91266	0.29036
4.112	69.507	-18678	2419.3	-0.3456	0.91334	0.28987
4.114	69.504	-18677	2419.4	-0.34648	0.91402	0.28938
4.116	69.508	-18676	2419.5	-0.34638	0.91373	0.2889
4.118	69.523	-18674	2419.7	-0.34628	0.91344	0.28841
4.12	69.532	-18672	2419.8	-0.34619	0.91315	0.28792
4.122	69.537	-18670	2420	-0.34609	0.91285	0.28743
4.124	69.537	-18670	2420.2	-0.34599	0.91256	0.28694
4.126	69.534	-18671	2420.3	-0.34609	0.91276	0.28724
4.128	69.535	-18671	2420.4	-0.34619	0.91295	0.28753
4.13	69.541	-18670	2420.6	-0.34628	0.91315	0.28782
4.132	69.55	-18666	2420.7	-0.34638	0.91334	0.28812
4.134	69.561	-18659	2420.8	-0.34648	0.91354	0.28841
4.136	69.575	-18655	2421	-0.34775	0.91315	0.28899
4.138	69.585	-18653	2421.1	-0.34902	0.91276	0.28958
4.14	69.59	-18651	2421.2	-0.35029	0.91236	0.29016
4.142	69.589	-18649	2421.3	-0.35156	0.91197	0.29075
4.144	69.587	-18647	2421.4	-0.35282	0.91158	0.29134
4.146	69.588	-18644	2421.6	-0.35175	0.91197	0.29075
4.148	69.596	-18642	2421.7	-0.35068	0.91236	0.29016
4.15	69.608	-18640	2421.8	-0.3496	0.91276	0.28958
4.152	69.621	-18638	2421.9	-0.34853	0.91315	0.28899
4.154	69.631	-18637	2422	-0.34746	0.91354	0.28841
4.156	69.636	-18637	2422.1	-0.34726	0.91324	0.2889
4.158	69.636	-18640	2422.2	-0.34707	0.91295	0.28938
4.16	69.632	-18641	2422.3	-0.34687	0.91266	0.28987
4.162	69.635	-18641	2422.4	-0.34668	0.91236	0.29036
4.164	69.639	-18638	2422.5	-0.34648	0.91207	0.29085
4.166	69.645	-18633	2422.6	-0.34599	0.91197	0.29124
4.168	69.65	-18631	2422.7	-0.3455	0.91188	0.29163
4.17	69.657	-18634	2422.7	-0.34502	0.91178	0.29202
4.172	69.664	-18635	2422.8	-0.34453	0.91168	0.29241
4.174	69.667	-18634	2422.9	-0.34404	0.91158	0.2928
4.176	69.662	-18633	2423	-0.34404	0.91188	0.29173
4.178	69.658	-18632	2423.1	-0.34404	0.91217	0.29065
4.18	69.661	-18634	2423.2	-0.34404	0.91246	0.28958
4.182	69.664	-18639	2423.3	-0.34404	0.91276	0.28851
4.184	69.674	-18640	2423.4	-0.34404	0.91305	0.28743
4.186	69.686	-18638	2423.4	-0.34384	0.91324	0.28733
4.188	69.69	-18633	2423.5	-0.34365	0.91344	0.28724
4.19	69.689	-18627	2423.5	-0.34345	0.91363	0.28714
4.192	69.684	-18624	2423.6	-0.34326	0.91383	0.28704
4.194	69.676	-18625	2423.6	-0.34306	0.91402	0.28694
4.196	69.67	-18625	2423.6	-0.34384	0.91344	0.28812
4.198	69.671	-18626	2423.7	-0.34463	0.91285	0.28929
4.2	69.678	-18625	2423.7	-0.34541	0.91227	0.29046
4.202	69.688	-18623	2423.8	-0.34619	0.91168	0.29163
4.204	69.695	-18619	2423.8	-0.34697	0.9111	0.2928
4.206	69.696	-18615	2423.9	-0.34648	0.91051	0.29309
4.208	69.691	-18613	2423.9	-0.34599	0.90992	0.29339
4.21	69.683	-18613	2423.9	-0.3455	0.90934	0.29368
4.212	69.678	-18613	2423.9	-0.34502	0.90875	0.29397
4.214	69.679	-18613	2423.8	-0.34453	0.90817	0.29426
4.216	69.684	-18614	2423.8	-0.34463	0.90827	0.29495
4.218	69.691	-18615	2423.8	-0.34472	0.90836	0.29563
4.22	69.696	-18614	2423.8	-0.34482	0.90846	0.29631
4.222	69.699	-18610	2423.8	-0.34492	0.90856	0.297
4.224	69.698	-18608	2423.7	-0.34502	0.90866	0.29768
4.226	69.691	-18608	2423.7	-0.3456	0.90992	0.29641
4.228	69.685	-18608	2423.7	-0.34619	0.91119	0.29514
4.23	69.685	-18608	2423.7	-0.34677	0.91246	0.29387
4.232	69.687	-18611	2423.7	-0.34736	0.91373	0.2926
4.234	69.691	-18618	2423.6	-0.34794	0.915	0.29134
4.236	69.698	-18622	2423.6	-0.34658	0.91422	0.29143
4.238	69.702	-18622	2423.6	-0.34521	0.91344	0.29153
4.24	69.701	-18620	2423.6	-0.34384	0.91266	0.29163
4.242	69.695	-18618	2423.6	-0.34248	0.91188	0.29173
4.244	69.685	-18616	2423.5	-0.34111	0.9111	0.29182
4.246	69.679	-18614	2423.5	-0.34209	0.91236	0.29085
4.248	69.68	-18614	2423.5	-0.34306	0.91363	0.28987
4.25	69.686	-18617	2423.5	-0.34404	0.9149	0.2889
4.252	69.691	-18617	2423.5	-0.34502	0.91617	0.28792
4.254	69.698	-18614	2423.5	-0.34599	0.91744	0.28694
4.256	69.697	-18612	2423.5	-0.34589	0.91705	0.28724
4.258	69.692	-18612	2423.5	-0.3458	0.91666	0.28753
4.26	69.683	-18613	2423.4	-0.3457	0.91627	0.28782
4.262	69.678	-18616	2423.4	-0.3456	0.91588	0.28812
4.264	69.675	-18616	2423.4	-0.3455	0.91549	0.28841
4.266	69.678	-18614	2423.4	-0.34707	0.9151	0.28929
4.268	69.683	-18614	2423.4	-0.34863	0.91471	0.29016
4.27	69.686	-18619	2423.4	-0.35019	0.91432	0.29104
4.272	69.689	-18619	2423.5	-0.35175	0.91393	0.29192
4.274	69.685	-18616	2423.5	-0.35331	0.91354	0.2928
4.276	69.678	-18612	2423.4	-0.35234	0.91354	0.29231
4.278	69.67	-18609	2423.4	-0.35136	0.91354	0.29182
4.28	69.663	-18610	2423.4	-0.35038	0.91354	0.29134
4.282	69.666	-18615	2423.4	-0.34941	0.91354	0.29085
4.284	69.67	-18616	2423.4	-0.34843	0.91354	0.29036
4.286	69.678	-18613	2423.4	-0.34804	0.91383	0.29104
4.288	69.681	-18613	2423.4	-0.34765	0.91412	0.29173
4.29	69.68	-18615	2423.4	-0.34726	0.91441	0.29241
4.292	69.672	-18616	2423.3	-0.34687	0.91471	0.29309
4.294	69.66	-18618	2423.3	-0.34648	0.915	0.29378
4.296	69.65	-18620	2423.2	-0.3456	0.91315	0.29446
4.298	69.652	-18623	2423.2	-0.34472	0.91129	0.29514
4.3	69.66	-18622	2423.1	-0.34384	0.90944	0.29583
4.302	69.667	-18618	2423.1	-0.34297	0.90758	0.29651
4.304	69.674	-18614	2423.1	-0.34209	0.90573	0.29719
4.306	69.671	-18612	2423	-0.34248	0.90563	0.29612
4.308	69.666	-18612	2422.9	-0.34287	0.90553	0.29504
4.31	69.66	-18614	2422.9	-0.34326	0.90544	0.29397
4.312	69.652	-18615	2422.8	-0.34365	0.90534	0.2929
4.314	69.649	-18615	2422.8	-0.34404	0.90524	0.29182
4.316	69.653	-18615	2422.7	-0.34433	0.90534	0.29202
4.318	69.66	-18614	2422.7	-0.34463	0.90544	0.29221
4.32	69.666	-18617	2422.7	-0.34492	0.90553	0.29241
4.322	69.668	-18624	2422.6	-0.34521	0.90563	0.2926
4.324	69.667	-18628	2422.5	-0.3455	0.90573	0.2928
4.326	69.663	-18627	2422.5	-0.34511	0.9069	0.2927
4.328	69.655	-18629	2422.5	-0.34472	0.90807	0.2926
4.33	69.645	-18633	2422.4	-0.34433	0.90924	0.29251
4.332	69.644	-18631	2422.4	-0.34394	0.91041	0.29241
4.334	69.641	-18624	2422.4	-0.34355	0.91158	0.29231
4.336	69.644	-18620	2422.3	-0.34433	0.91178	0.29221
4.338	69.646	-18620	2422.3	-0.34511	0.91197	0.29212
4.34	69.645	-18619	2422.3	-0.34589	0.91217	0.29202
4.342	69.641	-18617	2422.2	-0.34668	0.91236	0.29192
4.344	69.636	-18619	2422.2	-0.34746	0.91256	0.29182
4.346	69.627	-18625	2422.2	-0.34746	0.91188	0.29192
4.348	69.627	-18626	2422.2	-0.34746	0.91119	0.29202
4.35	69.632	-18622	2422.2	-0.34746	0.91051	0.29212
4.352	69.636	-18618	2422.2	-0.34746	0.90983	0.29221
4.354	69.638	-18613	2422.2	-0.34746	0.90914	0.29231
4.356	69.64	-18612	2422.2	-0.34697	0.91032	0.29114
4.358	69.63	-18616	2422.2	-0.34648	0.91149	0.28997
4.36	69.616	-18622	2422.2	-0.34599	0.91266	0.2888
4.362	69.607	-18627	2422.2	-0.3455	0.91383	0.28763
4.364	69.611	-18627	2422.2	-0.34502	0.915	0.28646
4.366	69.618	-18622	2422.2	-0.3456	0.9149	0.28724
4.368	69.627	-18620	2422.2	-0.34619	0.9148	0.28802
4.37	69.627	-18622	2422.2	-0.34677	0.91471	0.2888
4.372	69.62	-18621	2422.2	-0.34736	0.91461	0.28958
4.374	69.614	-18615	2422.2	-0.34794	0.91451	0.29036
4.376	69.598	-18613	2422.2	-0.34824	0.915	0.29036
4.378	69.579	-18612	2422.2	-0.34853	0.91549	0.29036
4.38	69.572	-18615	2422.2	-0.34882	0.91598	0.29036
4.382	69.575	-18620	2422.2	-0.34912	0.91646	0.29036
4.384	69.587	-18625	2422.1	-0.34941	0.91695	0.29036
4.386	69.603	-18628	2422.1	-0.34833	0.91588	0.29046
4.388	69.615	-18628	2422.1	-0.34726	0.9148	0.29056
4.39	69.623	-18625	2422.1	-0.34619	0.91373	0.29065
4.392	69.62	-18628	2422.1	-0.34511	0.91266	0.29075
4.394	69.608	-18636	2422.1	-0.34404	0.91158	0.29085
4.396	69.596	-18640	2422.1	-0.34414	0.91227	0.29026
4.398	69.594	-18641	2422.1	-0.34424	0.91295	0.28968
4.4	69.598	-18638	2422.1	-0.34433	0.91363	0.28909
4.402	69.604	-18632	2422.1	-0.34443	0.91432	0.28851
4.404	69.61	-18631	2422.1	-0.34453	0.915	0.28792
4.406	69.611	-18635	2422.1	-0.34482	0.9149	0.28831
4.408	69.606	-18635	2422.1	-0.34511	0.9148	0.2887
4.41	69.601	-18631	2422	-0.34541	0.91471	0.28909
4.412	69.597	-18627	2422	-0.3457	0.91461	0.28948
4.414	69.595	-18623	2422	-0.34599	0.91451	0.28987
4.416	69.601	-18622	2422	-0.34589	0.91461	0.28958
4.418	69.62	-18625	2422	-0.3458	0.91471	0.28929
4.42	69.643	-18629	2421.9	-0.3457	0.9148	0.28899
4.422	69.661	-18633	2421.9	-0.3456	0.9149	0.2887
4.424	69.67	-18636	2421.8	-0.3455	0.915	0.28841
4.426	69.675	-18637	2421.8	-0.3455	0.9148	0.28948
4.428	69.677	-18637	2421.8	-0.3455	0.91461	0.29056
4.43	69.679	-18634	2421.7	-0.3455	0.91441	0.29163
4.432	69.684	-18633	2421.7	-0.3455	0.91422	0.2927
4.434	69.691	-18635	2421.6	-0.3455	0.91402	0.29378
4.436	69.7	-18636	2421.6	-0.34492	0.91334	0.29329
4.438	69.704	-18635	2421.6	-0.34433	0.91266	0.2928
4.44	69.7	-18635	2421.5	-0.34375	0.91197	0.29231
4.442	69.69	-18636	2421.5	-0.34316	0.91129	0.29182
4.444	69.679	-18637	2421.5	-0.34258	0.91061	0.29134
4.446	69.671	-18638	2421.5	-0.34258	0.90963	0.29221
4.448	69.674	-18638	2421.4	-0.34258	0.90866	0.29309
4.45	69.682	-18636	2421.4	-0.34258	0.90768	0.29397
4.452	69.69	-18635	2421.3	-0.34258	0.9067	0.29485
4.454	69.696	-18635	2421.3	-0.34258	0.90573	0.29573
4.456	69.694	-18636	2421.2	-0.34326	0.90651	0.29622
4.458	69.687	-18639	2421.1	-0.34394	0.90729	0.2967
4.46	69.68	-18641	2421.1	-0.34463	0.90807	0.29719
4.462	69.673	-18641	2421.1	-0.34531	0.90885	0.29768
4.464	69.673	-18642	2421.1	-0.34599	0.90963	0.29817
4.466	69.678	-18644	2421	-0.34589	0.90875	0.29719
4.468	69.686	-18644	2421	-0.3458	0.90788	0.29622
4.47	69.693	-18642	2420.9	-0.3457	0.907	0.29524
4.472	69.696	-18643	2420.8	-0.3456	0.90612	0.29426
4.474	69.692	-18646	2420.8	-0.3455	0.90524	0.29329
4.476	69.685	-18649	2420.7	-0.34424	0.90534	0.29397
4.478	69.677	-18652	2420.6	-0.34297	0.90544	0.29465
4.48	69.674	-18653	2420.5	-0.3417	0.90553	0.29534
4.482	69.677	-18652	2420.5	-0.34043	0.90563	0.29602
4.484	69.688	-18650	2420.4	-0.33916	0.90573	0.2967
4.486	69.705	-18648	2420.4	-0.34131	0.9068	0.2967
4.488	69.729	-18648	2420.3	-0.34345	0.90788	0.2967
4.49	69.758	-18650	2420.3	-0.3456	0.90895	0.2967
4.492	69.785	-18649	2420.2	-0.34775	0.91002	0.2967
4.494	69.815	-18647	2420.1	-0.3499	0.9111	0.2967
4.496	69.841	-18648	2420.1	-0.34951	0.91188	0.29534
4.498	69.848	-18653	2420.1	-0.34912	0.91266	0.29397
4.5	69.834	-18652	2420	-0.34872	0.91344	0.2926
4.502	69.804	-18646	2419.9	-0.34833	0.91422	0.29124
4.504	69.763	-18644	2419.8	-0.34794	0.915	0.28987
4.506	69.702	-18649	2419.8	-0.34736	0.91344	0.29007
4.508	69.618	-18651	2419.8	-0.34677	0.91188	0.29026
4.51	69.523	-18652	2419.7	-0.34619	0.91032	0.29046
4.512	69.418	-18654	2419.7	-0.3456	0.90875	0.29065
4.514	69.295	-18656	2419.6	-0.34502	0.90719	0.29085
4.516	69.176	-18656	2419.6	-0.34453	0.90836	0.29016
4.518	69.033	-18653	2419.5	-0.34404	0.90953	0.28948
4.52	68.89	-18654	2419.5	-0.34355	0.91071	0.2888
4.522	68.758	-18657	2419.4	-0.34306	0.91188	0.28812
4.524	68.63	-18660	2419.3	-0.34258	0.91305	0.28743
4.526	68.519	-18662	2419.3	-0.34394	0.91285	0.28851
4.528	68.452	-18659	2419.3	-0.34531	0.91266	0.28958
4.53	68.434	-18652	2419.2	-0.34668	0.91246	0.29065
4.532	68.506	-18649	2419.2	-0.34804	0.91227	0.29173
4.534	68.661	-18652	2419.2	-0.34941	0.91207	0.2928
4.536	68.824	-18652	2419.1	-0.34746	0.91207	0.29192
4.538	69.009	-18651	2419.1	-0.3455	0.91207	0.29104
4.54	69.16	-18650	2419	-0.34355	0.91207	0.29016
4.542	69.278	-18651	2419	-0.3416	0.91207	0.28929
4.544	69.389	-18652	2419	-0.33965	0.91207	0.28841
4.546	69.488	-18653	2418.9	-0.3415	0.91217	0.28958
4.548	69.558	-18654	2418.8	-0.34336	0.91227	0.29075
4.55	69.625	-18653	2418.8	-0.34521	0.91236	0.29192
4.552	69.692	-18654	2418.7	-0.34707	0.91246	0.29309
4.554	69.731	-18658	2418.7	-0.34892	0.91256	0.29426
4.556	69.736	-18662	2418.7	-0.34755	0.91158	0.29368
4.558	69.711	-18664	2418.7	-0.34619	0.91061	0.29309
4.56	69.673	-18664	2418.6	-0.34482	0.90963	0.29251
4.562	69.642	-18662	2418.5	-0.34345	0.90866	0.29192
4.564	69.625	-18663	2418.4	-0.34209	0.90768	0.29134
4.566	69.616	-18668	2418.4	-0.34267	0.90866	0.29134
4.568	69.614	-18671	2418.4	-0.34326	0.90963	0.29134
4.57	69.618	-18673	2418.3	-0.34384	0.91061	0.29134
4.572	69.627	-18673	2418.3	-0.34443	0.91158	0.29134
4.574	69.634	-18671	2418.2	-0.34502	0.91256	0.29134
4.576	69.638	-18671	2418.2	-0.34414	0.91168	0.29065
4.578	69.637	-18672	2418.1	-0.34326	0.9108	0.28997
4.58	69.637	-18673	2418.1	-0.34238	0.90992	0.28929
4.582	69.641	-18674	2418	-0.3415	0.90905	0.2886
4.584	69.646	-18674	2417.9	-0.34062	0.90817	0.28792
4.586	69.652	-18673	2417.9	-0.3418	0.90895	0.2889
4.588	69.661	-18672	2417.9	-0.34297	0.90973	0.28987
4.59	69.66	-18670	2417.8	-0.34414	0.91051	0.29085
4.592	69.653	-18669	2417.8	-0.34531	0.91129	0.29182
4.594	69.645	-18670	2417.8	-0.34648	0.91207	0.2928
4.596	69.641	-18671	2417.7	-0.34638	0.91256	0.29173
4.598	69.64	-18672	2417.7	-0.34628	0.91305	0.29065
4.6	69.645	-18672	2417.6	-0.34619	0.91354	0.28958
4.602	69.652	-18673	2417.5	-0.34609	0.91402	0.28851
4.604	69.654	-18675	2417.4	-0.34599	0.91451	0.28743
4.606	69.655	-18678	2417.4	-0.34619	0.9149	0.28821
4.608	69.649	-18680	2417.4	-0.34638	0.91529	0.28899
4.61	69.637	-18681	2417.3	-0.34658	0.91568	0.28977
4.612	69.628	-18681	2417.3	-0.34677	0.91607	0.29056
4.614	69.626	-18680	2417.2	-0.34697	0.91646	0.29134
4.616	69.628	-18679	2417.2	-0.34677	0.91568	0.29143
4.618	69.636	-18680	2417.1	-0.34658	0.9149	0.29153
4.62	69.641	-18681	2417.1	-0.34638	0.91412	0.29163
4.622	69.64	-18681	2417.1	-0.34619	0.91334	0.29173
4.624	69.641	-18681	2417.1	-0.34599	0.91256	0.29182
4.626	69.631	-18681	2417.1	-0.3455	0.91168	0.29192
4.628	69.617	-18681	2417	-0.34502	0.9108	0.29202
4.63	69.613	-18680	2417	-0.34453	0.90992	0.29212
4.632	69.617	-18680	2416.9	-0.34404	0.90905	0.29221
4.634	69.62	-18680	2416.9	-0.34355	0.90817	0.29231
4.636	69.624	-18684	2416.8	-0.34375	0.90797	0.29202
4.638	69.626	-18690	2416.8	-0.34394	0.90778	0.29173
4.64	69.625	-18695	2416.8	-0.34414	0.90758	0.29143
4.642	69.618	-18698	2416.8	-0.34433	0.90739	0.29114
4.644	69.608	-18700	2416.8	-0.34453	0.90719	0.29085
4.646	69.598	-18700	2416.8	-0.34482	0.90836	0.29095
4.648	69.593	-18698	2416.7	-0.34511	0.90953	0.29104
4.65	69.595	-18693	2416.7	-0.34541	0.91071	0.29114
4.652	69.599	-18689	2416.7	-0.3457	0.91188	0.29124
4.654	69.603	-18686	2416.7	-0.34599	0.91305	0.29134
4.656	69.605	-18687	2416.6	-0.34541	0.91188	0.29114
4.658	69.599	-18692	2416.6	-0.34482	0.91071	0.29095
4.66	69.589	-18694	2416.6	-0.34424	0.90953	0.29075
4.662	69.579	-18694	2416.5	-0.34365	0.90836	0.29056
4.664	69.573	-18696	2416.5	-0.34306	0.90719	0.29036
4.666	69.574	-18699	2416.5	-0.34355	0.90807	0.29095
4.668	69.579	-18697	2416.4	-0.34404	0.90895	0.29153
4.67	69.585	-18691	2416.4	-0.34453	0.90983	0.29212
4.672	69.584	-18691	2416.4	-0.34502	0.91071	0.2927
4.674	69.575	-18695	2416.5	-0.3455	0.91158	0.29329
4.676	69.564	-18697	2416.5	-0.3457	0.91158	0.29339
4.678	69.555	-18696	2416.5	-0.34589	0.91158	0.29348
4.68	69.549	-18697	2416.5	-0.34609	0.91158	0.29358
4.682	69.549	-18700	2416.5	-0.34628	0.91158	0.29368
4.684	69.551	-18702	2416.5	-0.34648	0.91158	0.29378
4.686	69.553	-18703	2416.5	-0.34599	0.91051	0.29436
4.688	69.549	-18704	2416.5	-0.3455	0.90944	0.29495
4.69	69.545	-18704	2416.6	-0.34502	0.90836	0.29553
4.692	69.537	-18701	2416.7	-0.34453	0.90729	0.29612
