t	ekg	optical	pressure	accel_x	accel_y	accel_z
0	83.233	-19018	2532.1	-0.28109	0.94574	0.24205
0.002	83.227	-19017	2532	-0.2808	0.94545	0.24156
0.004	83.224	-19015	2532	-0.2805	0.94516	0.24107
0.006	83.231	-19017	2532	-0.28021	0.94487	0.24058
0.008	83.233	-19019	2532	-0.27992	0.94457	0.2401
0.01	83.229	-19023	2532	-0.27962	0.94428	0.23961
0.012	83.226	-19027	2532	-0.28031	0.94448	0.2398
0.014	83.226	-19024	2532	-0.28099	0.94467	0.24
0.016	83.228	-19022	2532	-0.28167	0.94487	0.24019
0.018	83.224	-19025	2532	-0.28236	0.94506	0.24039
0.02	83.211	-19028	2532.1	-0.28304	0.94526	0.24058
0.022	83.197	-19021	2532.1	-0.28314	0.94594	0.2401
0.024	83.192	-19014	2532.1	-0.28324	0.94662	0.23961
0.026	83.194	-19015	2532.1	-0.28333	0.94731	0.23912
0.028	83.199	-19016	2532.1	-0.28343	0.94799	0.23863
0.03	83.199	-19014	2532.2	-0.28353	0.94867	0.23814
0.032	83.195	-19011	2532.2	-0.28441	0.94926	0.23805
0.034	83.196	-19012	2532.2	-0.28528	0.94984	0.23795
0.036	83.199	-19013	2532.3	-0.28616	0.95043	0.23785
0.038	83.202	-19019	2532.3	-0.28704	0.95101	0.23775
0.04	83.197	-19025	2532.3	-0.28792	0.9516	0.23766
0.042	83.192	-19021	2532.4	-0.28821	0.95023	0.23707
0.044	83.188	-19017	2532.4	-0.28851	0.94887	0.23648
0.046	83.186	-19018	2532.5	-0.2888	0.9475	0.2359
0.048	83.188	-19020	2532.5	-0.28909	0.94613	0.23531
0.05	83.187	-19014	2532.5	-0.28938	0.94477	0.23473
0.052	83.189	-19008	2532.5	-0.2889	0.94487	0.23522
0.054	83.192	-19008	2532.5	-0.28841	0.94496	0.2357
0.056	83.187	-19009	2532.5	-0.28792	0.94506	0.23619
0.058	83.178	-19011	2532.5	-0.28743	0.94516	0.23668
0.06	83.172	-19012	2532.5	-0.28694	0.94526	0.23717
0.062	83.172	-19011	2532.5	-0.28714	0.94545	0.23688
0.064	83.173	-19009	2532.5	-0.28733	0.94565	0.23658
0.066	83.177	-19010	2532.5	-0.28753	0.94584	0.23629
0.068	83.176	-19011	2532.5	-0.28772	0.94604	0.236
0.07	83.175	-19012	2532.5	-0.28792	0.94623	0.2357
0.072	83.178	-19013	2532.4	-0.28724	0.94623	0.2357
0.074	83.181	-19010	2532.4	-0.28655	0.94623	0.2357
0.076	83.183	-19007	2532.4	-0.28587	0.94623	0.2357
0.078	83.19	-19010	2532.4	-0.28519	0.94623	0.2357
0.08	83.195	-19013	2532.3	-0.2845	0.94623	0.2357
0.082	83.196	-19014	2532.3	-0.2846	0.94584	0.23658
0.084	83.201	-19016	2532.2	-0.2847	0.94545	0.23746
0.086	83.216	-19018	2532.1	-0.2848	0.94506	0.23834
0.088	83.235	-19020	2532.1	-0.28489	0.94467	0.23922
0.09	83.25	-19021	2532	-0.28499	0.94428	0.2401
0.092	83.258	-19021	2531.9	-0.2846	0.94408	0.24019
0.094	83.262	-19017	2531.8	-0.28421	0.94389	0.24029
0.096	83.263	-19013	2531.8	-0.28382	0.94369	0.24039
0.098	83.263	-19016	2531.7	-0.28343	0.9435	0.24049
0.1	83.262	-19020	2531.6	-0.28304	0.9433	0.24058
0.102	83.257	-19020	2531.5	-0.28343	0.9436	0.24058
0.104	83.254	-19021	2531.4	-0.28382	0.94389	0.24058
0.106	83.253	-19018	2531.3	-0.28421	0.94418	0.24058
0.108	83.25	-19016	2531.3	-0.2846	0.94448	0.24058
0.11	83.25	-19008	2531.2	-0.28499	0.94477	0.24058
0.112	83.255	-19000	2531.1	-0.28538	0.94526	0.2401
0.114	83.254	-19002	2531	-0.28577	0.94574	0.23961
0.116	83.251	-19004	2530.9	-0.28616	0.94623	0.23912
0.118	83.254	-19012	2530.9	-0.28655	0.94672	0.23863
0.12	83.254	-19019	2530.8	-0.28694	0.94721	0.23814
0.122	83.251	-19024	2530.8	-0.28616	0.94682	0.23912
0.124	83.252	-19029	2530.8	-0.28538	0.94643	0.2401
0.126	83.253	-19028	2530.8	-0.2846	0.94604	0.24107
0.128	83.256	-19027	2530.8	-0.28382	0.94565	0.24205
0.13	83.255	-19025	2530.7	-0.28304	0.94526	0.24302
0.132	83.255	-19022	2530.7	-0.28489	0.94399	0.24351
0.134	83.252	-19018	2530.7	-0.28675	0.94272	0.244
0.136	83.248	-19015	2530.7	-0.2886	0.94145	0.24449
0.138	83.251	-19015	2530.6	-0.29046	0.94018	0.24498
0.14	83.254	-19015	2530.6	-0.29231	0.93891	0.24546
0.142	83.262	-19015	2530.6	-0.29348	0.93911	0.24556
0.144	83.271	-19015	2530.5	-0.29465	0.9393	0.24566
0.146	83.289	-19019	2530.5	-0.29583	0.9395	0.24576
0.148	83.316	-19023	2530.5	-0.297	0.93969	0.24585
0.15	83.346	-19023	2530.5	-0.29817	0.93989	0.24595
0.152	83.377	-19023	2530.5	-0.29729	0.93989	0.24644
0.154	83.393	-19021	2530.5	-0.29641	0.93989	0.24693
0.156	83.376	-19020	2530.5	-0.29553	0.93989	0.24742
0.158	83.348	-19019	2530.5	-0.29465	0.93989	0.2479
0.16	83.311	-19018	2530.4	-0.29378	0.93989	0.24839
0.162	83.263	-19019	2530.4	-0.29319	0.93989	0.24859
0.164	83.197	-19020	2530.4	-0.2926	0.93989	0.24878
0.166	83.12	-19024	2530.4	-0.29202	0.93989	0.24898
0.168	83.033	-19028	2530.4	-0.29143	0.93989	0.24917
0.17	82.938	-19029	2530.4	-0.29085	0.93989	0.24937
0.172	82.829	-19031	2530.4	-0.29182	0.93979	0.24868
0.174	82.693	-19030	2530.5	-0.2928	0.93969	0.248
0.176	82.554	-19029	2530.4	-0.29378	0.9396	0.24732
0.178	82.422	-19027	2530.4	-0.29475	0.9395	0.24664
0.18	82.298	-19024	2530.4	-0.29573	0.9394	0.24595
0.182	82.189	-19024	2530.3	-0.29485	0.9394	0.24615
0.184	82.111	-19024	2530.3	-0.29397	0.9394	0.24634
0.186	82.087	-19024	2530.3	-0.29309	0.9394	0.24654
0.188	82.146	-19023	2530.2	-0.29221	0.9394	0.24673
0.19	82.275	-19024	2530.2	-0.29134	0.9394	0.24693
0.192	82.432	-19025	2530.1	-0.29026	0.93979	0.248
0.194	82.605	-19025	2530	-0.28919	0.94018	0.24908
0.196	82.76	-19025	2529.9	-0.28812	0.94057	0.25015
0.198	82.887	-19029	2529.9	-0.28704	0.94096	0.25122
0.2	83.024	-19032	2529.8	-0.28597	0.94135	0.2523
0.202	83.148	-19033	2529.8	-0.28685	0.94145	0.25142
0.204	83.236	-19035	2529.7	-0.28772	0.94155	0.25054
0.206	83.285	-19031	2529.7	-0.2886	0.94164	0.24966
0.208	83.31	-19026	2529.6	-0.28948	0.94174	0.24878
0.21	83.316	-19031	2529.5	-0.29036	0.94184	0.2479
0.212	83.305	-19036	2529.5	-0.29104	0.94077	0.24781
0.214	83.273	-19031	2529.5	-0.29173	0.93969	0.24771
0.216	83.234	-19026	2529.5	-0.29241	0.93862	0.24761
0.218	83.21	-19024	2529.4	-0.29309	0.93755	0.24751
0.22	83.199	-19021	2529.4	-0.29378	0.93647	0.24742
0.222	83.189	-19024	2529.4	-0.29378	0.93657	0.24703
0.224	83.181	-19027	2529.3	-0.29378	0.93667	0.24664
0.226	83.177	-19028	2529.3	-0.29378	0.93676	0.24624
0.228	83.181	-19030	2529.2	-0.29378	0.93686	0.24585
0.23	83.193	-19027	2529.2	-0.29378	0.93696	0.24546
0.232	83.201	-19024	2529.2	-0.29319	0.93716	0.24566
0.234	83.205	-19025	2529.2	-0.2926	0.93735	0.24585
0.236	83.214	-19026	2529.2	-0.29202	0.93755	0.24605
0.238	83.216	-19029	2529.2	-0.29143	0.93774	0.24624
0.24	83.214	-19032	2529.1	-0.29085	0.93794	0.24644
0.242	83.216	-19035	2529.1	-0.29134	0.93862	0.24615
0.244	83.218	-19038	2529	-0.29182	0.9393	0.24585
0.246	83.22	-19039	2528.9	-0.29231	0.93999	0.24556
0.248	83.223	-19039	2528.9	-0.2928	0.94067	0.24527
0.25	83.222	-19036	2528.9	-0.29329	0.94135	0.24498
0.252	83.222	-19032	2528.9	-0.29241	0.94086	0.24478
0.254	83.219	-19032	2528.8	-0.29153	0.94038	0.24459
0.256	83.217	-19032	2528.8	-0.29065	0.93989	0.24439
0.258	83.214	-19035	2528.7	-0.28977	0.9394	0.2442
0.26	83.215	-19039	2528.7	-0.2889	0.93891	0.244
0.262	83.215	-19040	2528.6	-0.28948	0.93881	0.24429
0.264	83.214	-19041	2528.6	-0.29007	0.93872	0.24459
0.266	83.214	-19038	2528.5	-0.29065	0.93862	0.24488
0.268	83.213	-19036	2528.5	-0.29124	0.93852	0.24517
0.27	83.213	-19037	2528.5	-0.29182	0.93842	0.24546
0.272	83.212	-19038	2528.5	-0.2928	0.93881	0.24537
0.274	83.208	-19037	2528.4	-0.29378	0.9392	0.24527
0.276	83.206	-19035	2528.4	-0.29475	0.9396	0.24517
0.278	83.206	-19036	2528.3	-0.29573	0.93999	0.24507
0.28	83.206	-19037	2528.3	-0.2967	0.94038	0.24498
0.282	83.205	-19040	2528.2	-0.29661	0.94008	0.24507
0.284	83.204	-19043	2528.2	-0.29651	0.93979	0.24517
0.286	83.203	-19034	2528.2	-0.29641	0.9395	0.24527
0.288	83.203	-19026	2528.1	-0.29631	0.9392	0.24537
0.29	83.199	-19031	2528.1	-0.29622	0.93891	0.24546
0.292	83.194	-19035	2528	-0.29485	0.93979	0.24517
0.294	83.192	-19037	2528	-0.29348	0.94067	0.24488
0.296	83.19	-19039	2528	-0.29212	0.94155	0.24459
0.298	83.188	-19039	2527.9	-0.29075	0.94243	0.24429
0.3	83.19	-19038	2527.9	-0.28938	0.9433	0.244
0.302	83.19	-19040	2527.9	-0.29026	0.94204	0.244
0.304	83.185	-19042	2527.8	-0.29114	0.94077	0.244
0.306	83.18	-19045	2527.8	-0.29202	0.9395	0.244
0.308	83.174	-19049	2527.8	-0.2929	0.93823	0.244
0.31	83.172	-19043	2527.8	-0.29378	0.93696	0.244
0.312	83.173	-19037	2527.8	-0.29241	0.93803	0.2438
0.314	83.176	-19042	2527.9	-0.29104	0.93911	0.24361
0.316	83.173	-19046	2527.8	-0.28968	0.94018	0.24341
0.318	83.165	-19046	2527.7	-0.28831	0.94125	0.24322
0.32	83.166	-19046	2527.6	-0.28694	0.94233	0.24302
0.322	83.163	-19044	2527.6	-0.28851	0.94145	0.24332
0.324	83.165	-19041	2527.6	-0.29007	0.94057	0.24361
0.326	83.163	-19041	2527.6	-0.29163	0.93969	0.2439
0.328	83.159	-19042	2527.5	-0.29319	0.93881	0.2442
0.33	83.155	-19042	2527.5	-0.29475	0.93794	0.24449
0.332	83.156	-19043	2527.4	-0.29456	0.93842	0.24527
0.334	83.152	-19044	2527.4	-0.29436	0.93891	0.24605
0.336	83.147	-19046	2527.4	-0.29417	0.9394	0.24683
0.338	83.145	-19044	2527.3	-0.29397	0.93989	0.24761
0.34	83.141	-19042	2527.3	-0.29378	0.94038	0.24839
0.342	83.14	-19046	2527.3	-0.29358	0.93989	0.24761
0.344	83.139	-19050	2527.3	-0.29339	0.9394	0.24683
0.346	83.136	-19054	2527.3	-0.29319	0.93891	0.24605
0.348	83.132	-19058	2527.3	-0.293	0.93842	0.24527
0.35	83.13	-19058	2527.4	-0.2928	0.93794	0.24449
0.352	83.124	-19059	2527.4	-0.2926	0.93803	0.24498
0.354	83.117	-19058	2527.5	-0.29241	0.93813	0.24546
0.356	83.115	-19057	2527.5	-0.29221	0.93823	0.24595
0.358	83.115	-19054	2527.6	-0.29202	0.93833	0.24644
0.36	83.112	-19051	2527.7	-0.29182	0.93842	0.24693
0.362	83.109	-19052	2527.8	-0.29241	0.93852	0.24654
0.364	83.108	-19052	2527.9	-0.293	0.93862	0.24615
0.366	83.106	-19047	2528	-0.29358	0.93872	0.24576
0.368	83.105	-19042	2528.2	-0.29417	0.93881	0.24537
0.37	83.104	-19042	2528.3	-0.29475	0.93891	0.24498
0.372	83.105	-19042	2528.5	-0.29475	0.93901	0.24468
0.374	83.105	-19041	2528.6	-0.29475	0.93911	0.24439
0.376	83.104	-19040	2528.8	-0.29475	0.9392	0.2441
0.378	83.103	-19045	2529	-0.29475	0.9393	0.2438
0.38	83.102	-19050	2529.1	-0.29475	0.9394	0.24351
0.382	83.099	-19047	2529.4	-0.29436	0.93891	0.24361
0.384	83.095	-19044	2529.6	-0.29397	0.93842	0.24371
0.386	83.097	-19040	2529.7	-0.29358	0.93794	0.2438
0.388	83.098	-19036	2529.9	-0.29319	0.93745	0.2439
0.39	83.096	-19040	2530.1	-0.2928	0.93696	0.244
0.392	83.1	-19044	2530.3	-0.29231	0.93745	0.24439
0.394	83.101	-19044	2530.5	-0.29182	0.93794	0.24478
0.396	83.101	-19045	2530.7	-0.29134	0.93842	0.24517
0.398	83.106	-19043	2531	-0.29085	0.93891	0.24556
0.4	83.104	-19042	2531.2	-0.29036	0.9394	0.24595
0.402	83.1	-19052	2531.4	-0.28987	0.9393	0.24576
0.404	83.1	-19062	2531.6	-0.28938	0.9392	0.24556
0.406	83.102	-19064	2531.8	-0.2889	0.93911	0.24537
0.408	83.101	-19066	2532	-0.28841	0.93901	0.24517
0.41	83.098	-19063	2532.2	-0.28792	0.93891	0.24498
0.412	83.108	-19059	2532.4	-0.28841	0.93852	0.24449
0.414	83.11	-19062	2532.6	-0.2889	0.93813	0.244
0.416	83.112	-19065	2532.7	-0.28938	0.93774	0.24351
0.418	83.115	-19061	2532.9	-0.28987	0.93735	0.24302
0.42	83.112	-19056	2533.1	-0.29036	0.93696	0.24254
0.422	83.111	-19044	2533.3	-0.29075	0.93676	0.24254
0.424	83.116	-19032	2533.5	-0.29114	0.93657	0.24254
0.426	83.12	-19029	2533.6	-0.29153	0.93637	0.24254
0.428	83.123	-19027	2533.8	-0.29192	0.93618	0.24254
0.43	83.123	-19025	2534	-0.29231	0.93598	0.24254
0.432	83.128	-19023	2534.1	-0.29241	0.93608	0.24312
0.434	83.138	-19025	2534.2	-0.29251	0.93618	0.24371
0.436	83.146	-19027	2534.4	-0.2926	0.93628	0.24429
0.438	83.154	-19028	2534.5	-0.2927	0.93637	0.24488
0.44	83.16	-19030	2534.6	-0.2928	0.93647	0.24546
0.442	83.162	-19028	2534.7	-0.2926	0.93686	0.24634
0.444	83.163	-19026	2534.8	-0.29241	0.93725	0.24722
0.446	83.168	-19029	2534.9	-0.29221	0.93764	0.2481
0.448	83.172	-19032	2535	-0.29202	0.93803	0.24898
0.45	83.176	-19028	2535.1	-0.29182	0.93842	0.24986
0.452	83.18	-19024	2535.3	-0.29212	0.93833	0.24956
0.454	83.183	-19020	2535.4	-0.29241	0.93823	0.24927
0.456	83.186	-19016	2535.5	-0.2927	0.93813	0.24898
0.458	83.189	-19022	2535.6	-0.293	0.93803	0.24868
0.46	83.193	-19028	2535.7	-0.29329	0.93794	0.24839
0.462	83.2	-19020	2535.8	-0.29387	0.93842	0.24829
0.464	83.201	-19012	2536	-0.29446	0.93891	0.2482
0.466	83.201	-19016	2536.1	-0.29504	0.9394	0.2481
0.468	83.2	-19019	2536.2	-0.29563	0.93989	0.248
0.47	83.204	-19020	2536.3	-0.29622	0.94038	0.2479
0.472	83.206	-19020	2536.4	-0.29622	0.94047	0.2482
0.474	83.205	-19016	2536.5	-0.29622	0.94057	0.24849
0.476	83.211	-19011	2536.6	-0.29622	0.94067	0.24878
0.478	83.217	-19011	2536.7	-0.29622	0.94077	0.24908
0.48	83.214	-19010	2536.7	-0.29622	0.94086	0.24937
0.482	83.218	-19014	2536.8	-0.29563	0.94038	0.2482
0.484	83.214	-19017	2536.8	-0.29504	0.93989	0.24703
0.486	83.212	-19017	2536.9	-0.29446	0.9394	0.24585
0.488	83.215	-19017	2536.9	-0.29387	0.93891	0.24468
0.49	83.215	-19012	2537	-0.29329	0.93842	0.24351
0.492	83.219	-19008	2537	-0.29319	0.93872	0.2442
0.494	83.218	-19008	2537.1	-0.29309	0.93901	0.24488
0.496	83.215	-19007	2537.1	-0.293	0.9393	0.24556
0.498	83.214	-19010	2537.1	-0.2929	0.9396	0.24624
0.5	83.218	-19012	2537.1	-0.2928	0.93989	0.24693
0.502	83.221	-19013	2537.1	-0.29202	0.94047	0.24732
0.504	83.22	-19013	2537.1	-0.29124	0.94106	0.24771
0.506	83.224	-19004	2537.1	-0.29046	0.94164	0.2481
0.508	83.222	-18995	2537.1	-0.28968	0.94223	0.24849
0.51	83.221	-18993	2537	-0.2889	0.94282	0.24888
0.512	83.223	-18992	2537	-0.28968	0.94252	0.248
0.514	83.227	-18993	2536.9	-0.29046	0.94223	0.24712
0.516	83.228	-18994	2536.9	-0.29124	0.94194	0.24624
0.518	83.227	-18996	2536.8	-0.29202	0.94164	0.24537
0.52	83.226	-18999	2536.8	-0.2928	0.94135	0.24449
0.522	83.225	-18995	2536.7	-0.2927	0.94145	0.24478
0.524	83.221	-18992	2536.6	-0.2926	0.94155	0.24507
0.526	83.22	-18989	2536.6	-0.29251	0.94164	0.24537
0.528	83.225	-18986	2536.5	-0.29241	0.94174	0.24566
0.53	83.23	-18985	2536.4	-0.29231	0.94184	0.24595
0.532	83.23	-18984	2536.3	-0.29241	0.94135	0.24664
0.534	83.226	-18984	2536.2	-0.29251	0.94086	0.24732
0.536	83.219	-18984	2536.1	-0.2926	0.94038	0.248
0.538	83.215	-18986	2536	-0.2927	0.93989	0.24868
0.54	83.215	-18989	2535.9	-0.2928	0.9394	0.24937
0.542	83.215	-18989	2535.8	-0.2929	0.9393	0.24898
0.544	83.215	-18990	2535.7	-0.293	0.9392	0.24859
0.546	83.214	-18993	2535.6	-0.29309	0.93911	0.2482
0.548	83.214	-18996	2535.5	-0.29319	0.93901	0.24781
0.55	83.215	-18998	2535.4	-0.29329	0.93891	0.24742
0.552	83.214	-19001	2535.3	-0.29241	0.9393	0.2482
0.554	83.214	-18999	2535.3	-0.29153	0.93969	0.24898
0.556	83.212	-18998	2535.2	-0.29065	0.94008	0.24976
0.558	83.208	-18999	2535.2	-0.28977	0.94047	0.25054
0.56	83.208	-19001	2535.1	-0.2889	0.94086	0.25132
0.562	83.212	-19000	2535.1	-0.28938	0.94057	0.25083
0.564	83.212	-18999	2535.1	-0.28987	0.94028	0.25034
0.566	83.207	-18996	2535	-0.29036	0.93999	0.24986
0.568	83.207	-18993	2535	-0.29085	0.93969	0.24937
0.57	83.211	-18995	2534.9	-0.29134	0.9394	0.24888
0.572	83.213	-18997	2534.9	-0.29124	0.9393	0.24878
0.574	83.208	-18995	2534.9	-0.29114	0.9392	0.24868
0.576	83.207	-18993	2534.9	-0.29104	0.93911	0.24859
0.578	83.206	-18991	2534.9	-0.29095	0.93901	0.24849
0.58	83.205	-18988	2534.8	-0.29085	0.93891	0.24839
0.582	83.202	-18992	2534.8	-0.29046	0.94018	0.24751
0.584	83.202	-18995	2534.8	-0.29007	0.94145	0.24664
0.586	83.203	-18995	2534.7	-0.28968	0.94272	0.24576
0.588	83.2	-18996	2534.7	-0.28929	0.94399	0.24488
0.59	83.198	-18996	2534.6	-0.2889	0.94526	0.244
0.592	83.196	-18995	2534.6	-0.28724	0.94457	0.2441
0.594	83.194	-18996	2534.6	-0.28558	0.94389	0.2442
0.596	83.193	-18996	2534.6	-0.28392	0.94321	0.24429
0.598	83.198	-18997	2534.5	-0.28226	0.94252	0.24439
0.6	83.203	-18997	2534.4	-0.2806	0.94184	0.24449
0.602	83.199	-19003	2534.4	-0.28128	0.94204	0.24488
0.604	83.199	-19009	2534.4	-0.28197	0.94223	0.24527
0.606	83.2	-19008	2534.4	-0.28265	0.94243	0.24566
0.608	83.201	-19006	2534.4	-0.28333	0.94262	0.24605
0.61	83.201	-19003	2534.4	-0.28402	0.94282	0.24644
0.612	83.199	-19001	2534.4	-0.28372	0.94272	0.24585
0.614	83.202	-19002	2534.3	-0.28343	0.94262	0.24527
0.616	83.204	-19003	2534.3	-0.28314	0.94252	0.24468
0.618	83.204	-19001	2534.2	-0.28284	0.94243	0.2441
0.62	83.201	-19000	2534.2	-0.28255	0.94233	0.24351
0.622	83.199	-18994	2534.2	-0.28314	0.9434	0.24332
0.624	83.204	-18988	2534.2	-0.28372	0.94448	0.24312
0.626	83.206	-18995	2534.2	-0.28431	0.94555	0.24293
0.628	83.204	-19002	2534.2	-0.28489	0.94662	0.24273
0.63	83.204	-19003	2534.2	-0.28548	0.9477	0.24254
0.632	83.201	-19004	2534.2	-0.28509	0.94662	0.24293
0.634	83.201	-19001	2534.2	-0.2847	0.94555	0.24332
0.636	83.204	-18997	2534.2	-0.28431	0.94448	0.24371
0.638	83.205	-18993	2534.2	-0.28392	0.9434	0.2441
0.64	83.199	-18990	2534.2	-0.28353	0.94233	0.24449
0.642	83.201	-18988	2534.2	-0.28353	0.94233	0.2442
0.644	83.201	-18987	2534.2	-0.28353	0.94233	0.2439
0.646	83.196	-18994	2534.2	-0.28353	0.94233	0.24361
0.648	83.195	-19001	2534.2	-0.28353	0.94233	0.24332
0.65	83.192	-18998	2534.2	-0.28353	0.94233	0.24302
0.652	83.178	-18996	2534.2	-0.28284	0.94243	0.24283
0.654	83.17	-18995	2534.2	-0.28216	0.94252	0.24263
0.656	83.17	-18995	2534.3	-0.28148	0.94262	0.24244
0.658	83.17	-18997	2534.3	-0.2808	0.94272	0.24224
0.66	83.168	-18999	2534.3	-0.28011	0.94282	0.24205
0.662	83.17	-18999	2534.4	-0.28031	0.94213	0.24205
0.664	83.174	-19000	2534.5	-0.2805	0.94145	0.24205
0.666	83.175	-18996	2534.5	-0.2807	0.94077	0.24205
0.668	83.175	-18993	2534.5	-0.28089	0.94008	0.24205
0.67	83.174	-18996	2534.5	-0.28109	0.9394	0.24205
0.672	83.171	-18999	2534.6	-0.2807	0.93989	0.24176
0.674	83.163	-18994	2534.6	-0.28031	0.94038	0.24146
0.676	83.153	-18989	2534.7	-0.27992	0.94086	0.24117
0.678	83.149	-18992	2534.6	-0.27953	0.94135	0.24088
0.68	83.15	-18995	2534.6	-0.27914	0.94184	0.24058
0.682	83.154	-18992	2534.6	-0.28001	0.94272	0.24019
0.684	83.16	-18989	2534.6	-0.28089	0.9436	0.2398
0.686	83.159	-18992	2534.6	-0.28177	0.94448	0.23941
0.688	83.152	-18994	2534.6	-0.28265	0.94535	0.23902
0.69	83.145	-18991	2534.5	-0.28353	0.94623	0.23863
0.692	83.139	-18988	2534.5	-0.28304	0.94506	0.23951
0.694	83.136	-18998	2534.5	-0.28255	0.94389	0.24039
0.696	83.137	-19008	2534.5	-0.28206	0.94272	0.24127
0.698	83.137	-19004	2534.5	-0.28158	0.94155	0.24215
0.7	83.138	-19000	2534.5	-0.28109	0.94038	0.24302
0.702	83.141	-19005	2534.4	-0.28099	0.94086	0.24263
0.704	83.143	-19010	2534.4	-0.28089	0.94135	0.24224
0.706	83.143	-19006	2534.3	-0.2808	0.94184	0.24185
0.708	83.145	-19003	2534.3	-0.2807	0.94233	0.24146
0.71	83.152	-19004	2534.3	-0.2806	0.94282	0.24107
0.712	83.16	-19006	2534.2	-0.28119	0.94311	0.24117
0.714	83.166	-19004	2534.1	-0.28177	0.9434	0.24127
0.716	83.174	-19001	2534	-0.28236	0.94369	0.24136
0.718	83.189	-18994	2533.9	-0.28294	0.94399	0.24146
0.72	83.207	-18988	2533.9	-0.28353	0.94428	0.24156
0.722	83.219	-18992	2533.8	-0.28402	0.94428	0.24205
0.724	83.231	-18997	2533.7	-0.2845	0.94428	0.24254
0.726	83.235	-19000	2533.7	-0.28499	0.94428	0.24302
0.728	83.23	-19004	2533.7	-0.28548	0.94428	0.24351
0.73	83.23	-19003	2533.7	-0.28597	0.94428	0.244
0.732	83.229	-19002	2533.6	-0.28558	0.94389	0.2438
0.734	83.224	-19000	2533.6	-0.28519	0.9435	0.24361
0.736	83.22	-18998	2533.5	-0.2848	0.94311	0.24341
0.738	83.221	-19003	2533.4	-0.28441	0.94272	0.24322
0.74	83.215	-19007	2533.3	-0.28402	0.94233	0.24302
0.742	83.218	-19006	2533.3	-0.28607	0.94223	0.24361
0.744	83.223	-19005	2533.3	-0.28812	0.94213	0.2442
0.746	83.222	-19004	2533.2	-0.29016	0.94204	0.24478
0.748	83.215	-19004	2533.2	-0.29221	0.94194	0.24537
0.75	83.219	-19009	2533.1	-0.29426	0.94184	0.24595
0.752	83.224	-19013	2533.1	-0.29407	0.94184	0.24585
0.754	83.225	-19010	2533.2	-0.29387	0.94184	0.24576
0.756	83.225	-19007	2533.2	-0.29368	0.94184	0.24566
0.758	83.216	-19002	2533.2	-0.29348	0.94184	0.24556
0.76	83.218	-18997	2533.2	-0.29329	0.94184	0.24546
0.762	83.222	-19000	2533.2	-0.29309	0.94125	0.24537
0.764	83.224	-19003	2533.2	-0.2929	0.94067	0.24527
0.766	83.222	-19000	2533.2	-0.2927	0.94008	0.24517
0.768	83.218	-18997	2533.2	-0.29251	0.9395	0.24507
0.77	83.218	-19001	2533.2	-0.29231	0.93891	0.24498
0.772	83.222	-19005	2533.2	-0.29231	0.93881	0.24498
0.774	83.226	-19006	2533.2	-0.29231	0.93872	0.24498
0.776	83.237	-19008	2533.3	-0.29231	0.93862	0.24498
0.778	83.258	-19007	2533.3	-0.29231	0.93852	0.24498
0.78	83.283	-19005	2533.3	-0.29231	0.93842	0.24498
0.782	83.31	-19003	2533.4	-0.29241	0.93852	0.24566
0.784	83.341	-19001	2533.4	-0.29251	0.93862	0.24634
0.786	83.364	-19010	2533.4	-0.2926	0.93872	0.24703
0.788	83.361	-19018	2533.5	-0.2927	0.93881	0.24771
0.79	83.334	-19016	2533.5	-0.2928	0.93891	0.24839
0.792	83.295	-19014	2533.5	-0.2928	0.93911	0.2481
0.794	83.246	-19014	2533.5	-0.2928	0.9393	0.24781
0.796	83.183	-19013	2533.5	-0.2928	0.9395	0.24751
0.798	83.104	-19010	2533.5	-0.2928	0.93969	0.24722
0.8	83.012	-19006	2533.5	-0.2928	0.93989	0.24693
0.802	82.906	-19009	2533.4	-0.29329	0.9393	0.24664
0.804	82.793	-19013	2533.4	-0.29378	0.93872	0.24634
0.806	82.659	-19010	2533.4	-0.29426	0.93813	0.24605
0.808	82.512	-19008	2533.5	-0.29475	0.93755	0.24576
0.81	82.373	-19008	2533.5	-0.29524	0.93696	0.24546
0.812	82.244	-19008	2533.5	-0.29534	0.93803	0.24566
0.814	82.128	-19011	2533.5	-0.29544	0.93911	0.24585
0.816	82.034	-19014	2533.5	-0.29553	0.94018	0.24605
0.818	81.984	-19017	2533.5	-0.29563	0.94125	0.24624
0.82	82.021	-19020	2533.5	-0.29573	0.94233	0.24644
0.822	82.161	-19017	2533.5	-0.29573	0.94125	0.24664
0.824	82.319	-19015	2533.5	-0.29573	0.94018	0.24683
0.826	82.506	-19018	2533.5	-0.29573	0.93911	0.24703
0.828	82.672	-19022	2533.5	-0.29573	0.93803	0.24722
0.83	82.781	-19022	2533.4	-0.29573	0.93696	0.24742
0.832	82.925	-19022	2533.5	-0.29456	0.93842	0.2479
0.834	83.073	-19017	2533.5	-0.29339	0.93989	0.24839
0.836	83.182	-19012	2533.4	-0.29221	0.94135	0.24888
0.838	83.246	-19009	2533.4	-0.29104	0.94282	0.24937
0.84	83.279	-19007	2533.4	-0.28987	0.94428	0.24986
0.842	83.273	-19009	2533.4	-0.29036	0.9435	0.24956
0.844	83.247	-19011	2533.4	-0.29085	0.94272	0.24927
0.846	83.206	-19013	2533.4	-0.29134	0.94194	0.24898
0.848	83.177	-19016	2533.4	-0.29182	0.94116	0.24868
0.85	83.157	-19015	2533.5	-0.29231	0.94038	0.24839
0.852	83.142	-19013	2533.5	-0.293	0.94086	0.24771
0.854	83.135	-19014	2533.5	-0.29368	0.94135	0.24703
0.856	83.137	-19015	2533.5	-0.29436	0.94184	0.24634
0.858	83.145	-19015	2533.6	-0.29504	0.94233	0.24566
0.86	83.154	-19016	2533.6	-0.29573	0.94282	0.24498
0.862	83.162	-19015	2533.6	-0.29573	0.94262	0.24556
0.864	83.167	-19014	2533.5	-0.29573	0.94243	0.24615
0.866	83.171	-19013	2533.5	-0.29573	0.94223	0.24673
0.868	83.174	-19011	2533.5	-0.29573	0.94204	0.24732
0.87	83.177	-19008	2533.6	-0.29573	0.94184	0.2479
0.872	83.18	-19005	2533.6	-0.29465	0.94164	0.24849
0.874	83.182	-19013	2533.6	-0.29358	0.94145	0.24908
0.876	83.183	-19021	2533.5	-0.29251	0.94125	0.24966
0.878	83.185	-19023	2533.5	-0.29143	0.94106	0.25025
0.88	83.186	-19026	2533.4	-0.29036	0.94086	0.25083
0.882	83.187	-19019	2533.4	-0.29026	0.94125	0.25073
0.884	83.185	-19013	2533.3	-0.29016	0.94164	0.25064
0.886	83.182	-19017	2533.3	-0.29007	0.94204	0.25054
0.888	83.183	-19021	2533.3	-0.28997	0.94243	0.25044
0.89	83.189	-19022	2533.3	-0.28987	0.94282	0.25034
0.892	83.185	-19023	2533.2	-0.29124	0.94243	0.24995
0.894	83.179	-19025	2533.2	-0.2926	0.94204	0.24956
0.896	83.18	-19027	2533.2	-0.29397	0.94164	0.24917
0.898	83.181	-19023	2533.1	-0.29534	0.94125	0.24878
0.9	83.181	-19019	2533.1	-0.2967	0.94086	0.24839
0.902	83.18	-19020	2533.1	-0.29573	0.94106	0.24908
0.904	83.18	-19020	2533	-0.29475	0.94125	0.24976
0.906	83.177	-19024	2532.9	-0.29378	0.94145	0.25044
0.908	83.175	-19027	2532.9	-0.2928	0.94164	0.25112
0.91	83.174	-19026	2532.8	-0.29182	0.94184	0.25181
0.912	83.171	-19025	2532.7	-0.29182	0.94145	0.25142
0.914	83.17	-19027	2532.7	-0.29182	0.94106	0.25103
0.916	83.168	-19030	2532.6	-0.29182	0.94067	0.25064
0.918	83.165	-19029	2532.6	-0.29182	0.94028	0.25025
0.92	83.161	-19029	2532.5	-0.29182	0.93989	0.24986
0.922	83.166	-19027	2532.4	-0.29241	0.94008	0.24956
0.924	83.162	-19025	2532.4	-0.293	0.94028	0.24927
0.926	83.158	-19028	2532.3	-0.29358	0.94047	0.24898
0.928	83.159	-19032	2532.3	-0.29417	0.94067	0.24868
0.93	83.157	-19033	2532.2	-0.29475	0.94086	0.24839
0.932	83.156	-19035	2532.2	-0.29368	0.94086	0.24868
0.934	83.15	-19034	2532.1	-0.2926	0.94086	0.24898
0.936	83.142	-19032	2532.1	-0.29153	0.94086	0.24927
0.938	83.139	-19030	2532.1	-0.29046	0.94086	0.24956
0.94	83.142	-19027	2532.1	-0.28938	0.94086	0.24986
0.942	83.146	-19023	2532	-0.28899	0.94204	0.24849
0.944	83.145	-19019	2532	-0.2886	0.94321	0.24712
0.946	83.143	-19017	2531.9	-0.28821	0.94438	0.24576
0.948	83.141	-19016	2531.9	-0.28782	0.94555	0.24439
0.95	83.138	-19024	2531.9	-0.28743	0.94672	0.24302
0.952	83.136	-19032	2531.9	-0.28782	0.94594	0.24332
0.954	83.134	-19031	2531.9	-0.28821	0.94516	0.24361
0.956	83.133	-19030	2531.9	-0.2886	0.94438	0.2439
0.958	83.134	-19029	2531.8	-0.28899	0.9436	0.2442
0.96	83.132	-19028	2531.7	-0.28938	0.94282	0.24449
0.962	83.127	-19027	2531.8	-0.28792	0.94428	0.24341
0.964	83.124	-19027	2531.8	-0.28646	0.94574	0.24234
0.966	83.123	-19026	2531.8	-0.28499	0.94721	0.24127
0.968	83.119	-19025	2531.8	-0.28353	0.94867	0.24019
0.97	83.116	-19029	2531.8	-0.28206	0.95014	0.23912
0.972	83.113	-19032	2531.7	-0.28245	0.94975	0.23941
0.974	83.11	-19037	2531.7	-0.28284	0.94936	0.23971
0.976	83.107	-19042	2531.7	-0.28324	0.94896	0.24
0.978	83.108	-19044	2531.8	-0.28363	0.94857	0.24029
0.98	83.104	-19045	2531.8	-0.28402	0.94818	0.24058
0.982	83.098	-19047	2531.8	-0.28372	0.94838	0.24078
0.984	83.092	-19050	2531.9	-0.28343	0.94857	0.24097
0.986	83.088	-19052	2531.9	-0.28314	0.94877	0.24117
0.988	83.083	-19054	2532	-0.28284	0.94896	0.24136
0.99	83.083	-19055	2532.1	-0.28255	0.94916	0.24156
0.992	83.082	-19056	2532.2	-0.28304	0.94916	0.24146
0.994	83.079	-19053	2532.3	-0.28353	0.94916	0.24136
0.996	83.077	-19050	2532.4	-0.28402	0.94916	0.24127
0.998	83.074	-19045	2532.5	-0.2845	0.94916	0.24117
1	83.078	-19039	2532.7	-0.28499	0.94916	0.24107
1.002	83.077	-19039	2532.8	-0.28421	0.94799	0.24146
1.004	83.074	-19039	2532.9	-0.28343	0.94682	0.24185
1.006	83.07	-19036	2533.1	-0.28265	0.94565	0.24224
1.008	83.068	-19033	2533.2	-0.28187	0.94448	0.24263
1.01	83.067	-19034	2533.4	-0.28109	0.9433	0.24302
1.012	83.067	-19034	2533.5	-0.28226	0.9435	0.24283
1.014	83.065	-19035	2533.7	-0.28343	0.94369	0.24263
1.016	83.062	-19037	2533.8	-0.2846	0.94389	0.24244
1.018	83.065	-19036	2534	-0.28577	0.94408	0.24224
1.02	83.07	-19035	2534.1	-0.28694	0.94428	0.24205
1.022	83.074	-19031	2534.3	-0.28616	0.94448	0.24185
1.024	83.073	-19028	2534.4	-0.28538	0.94467	0.24166
1.026	83.071	-19027	2534.6	-0.2846	0.94487	0.24146
1.028	83.073	-19027	2534.8	-0.28382	0.94506	0.24127
1.03	83.071	-19026	2534.9	-0.28304	0.94526	0.24107
1.032	83.072	-19026	2535.1	-0.28265	0.94389	0.24088
1.034	83.073	-19028	2535.3	-0.28226	0.94252	0.24068
1.036	83.072	-19029	2535.5	-0.28187	0.94116	0.24049
1.038	83.074	-19030	2535.7	-0.28148	0.93979	0.24029
1.04	83.074	-19030	2535.9	-0.28109	0.93842	0.2401
1.042	83.073	-19033	2536.1	-0.28089	0.93794	0.23971
1.044	83.076	-19036	2536.3	-0.2807	0.93745	0.23932
1.046	83.078	-19030	2536.5	-0.2805	0.93696	0.23892
1.048	83.079	-19024	2536.7	-0.28031	0.93647	0.23853
1.05	83.079	-19023	2537	-0.28011	0.93598	0.23814
1.052	83.079	-19022	2537.1	-0.28138	0.93774	0.23892
1.054	83.082	-19022	2537.3	-0.28265	0.9395	0.23971
1.056	83.086	-19021	2537.5	-0.28392	0.94125	0.24049
1.058	83.09	-19021	2537.6	-0.28519	0.94301	0.24127
1.06	83.093	-19021	2537.8	-0.28646	0.94477	0.24205
1.062	83.097	-19022	2537.9	-0.28616	0.94496	0.24127
1.064	83.105	-19024	2538.1	-0.28587	0.94516	0.24049
1.066	83.111	-19025	2538.2	-0.28558	0.94535	0.23971
1.068	83.113	-19026	2538.4	-0.28528	0.94555	0.23892
1.07	83.117	-19021	2538.5	-0.28499	0.94574	0.23814
1.072	83.12	-19016	2538.7	-0.28538	0.94555	0.23805
1.074	83.122	-19012	2538.8	-0.28577	0.94535	0.23795
1.076	83.13	-19008	2539	-0.28616	0.94516	0.23785
1.078	83.138	-19013	2539.1	-0.28655	0.94496	0.23775
1.08	83.146	-19018	2539.2	-0.28694	0.94477	0.23766
1.082	83.153	-19017	2539.3	-0.28929	0.94418	0.23951
1.084	83.154	-19017	2539.4	-0.29163	0.9436	0.24136
1.086	83.151	-19013	2539.5	-0.29397	0.94301	0.24322
1.088	83.15	-19010	2539.6	-0.29631	0.94243	0.24507
1.09	83.154	-19005	2539.7	-0.29866	0.94184	0.24693
1.092	83.155	-19000	2539.8	-0.29778	0.94125	0.24624
1.094	83.164	-18999	2539.9	-0.2969	0.94067	0.24556
1.096	83.169	-18997	2540	-0.29602	0.94008	0.24488
1.098	83.17	-18997	2540.2	-0.29514	0.9395	0.2442
1.1	83.168	-18997	2540.3	-0.29426	0.93891	0.24351
1.102	83.169	-18998	2540.3	-0.29524	0.93979	0.24351
1.104	83.172	-19000	2540.4	-0.29622	0.94067	0.24351
1.106	83.175	-18999	2540.5	-0.29719	0.94155	0.24351
1.108	83.175	-18999	2540.6	-0.29817	0.94243	0.24351
1.11	83.178	-18996	2540.7	-0.29914	0.9433	0.24351
1.112	83.183	-18993	2540.7	-0.29797	0.94262	0.24332
1.114	83.185	-18995	2540.8	-0.2968	0.94194	0.24312
1.116	83.185	-18996	2540.9	-0.29563	0.94125	0.24293
1.118	83.187	-18995	2541	-0.29446	0.94057	0.24273
1.12	83.19	-18995	2541.1	-0.29329	0.93989	0.24254
1.122	83.189	-18992	2541.1	-0.29378	0.94018	0.24312
1.124	83.189	-18989	2541.1	-0.29426	0.94047	0.24371
1.126	83.189	-18988	2541.2	-0.29475	0.94077	0.24429
1.128	83.188	-18987	2541.2	-0.29524	0.94106	0.24488
1.13	83.189	-18989	2541.2	-0.29573	0.94135	0.24546
1.132	83.191	-18991	2541.2	-0.29592	0.94135	0.24546
1.134	83.192	-18987	2541.2	-0.29612	0.94135	0.24546
1.136	83.189	-18983	2541.2	-0.29631	0.94135	0.24546
1.138	83.189	-18983	2541.2	-0.29651	0.94135	0.24546
1.14	83.193	-18984	2541.2	-0.2967	0.94135	0.24546
1.142	83.192	-18987	2541.1	-0.29622	0.94086	0.24556
1.144	83.192	-18991	2541.1	-0.29573	0.94038	0.24566
1.146	83.193	-18985	2541.1	-0.29524	0.93989	0.24576
1.148	83.197	-18979	2541.1	-0.29475	0.9394	0.24585
1.15	83.197	-18979	2541	-0.29426	0.93891	0.24595
1.152	83.193	-18978	2541	-0.29426	0.93872	0.24595
1.154	83.194	-18975	2540.9	-0.29426	0.93852	0.24595
1.156	83.197	-18973	2540.8	-0.29426	0.93833	0.24595
1.158	83.195	-18977	2540.7	-0.29426	0.93813	0.24595
1.16	83.198	-18982	2540.6	-0.29426	0.93794	0.24595
1.162	83.195	-18981	2540.5	-0.29426	0.93823	0.24615
1.164	83.194	-18981	2540.4	-0.29426	0.93852	0.24634
1.166	83.196	-18980	2540.4	-0.29426	0.93881	0.24654
1.168	83.193	-18980	2540.3	-0.29426	0.93911	0.24673
1.17	83.188	-18983	2540.2	-0.29426	0.9394	0.24693
1.172	83.186	-18986	2540.2	-0.29348	0.93979	0.24732
1.174	83.19	-18982	2540.1	-0.2927	0.94018	0.24771
1.176	83.191	-18978	2540	-0.29192	0.94057	0.2481
1.178	83.192	-18979	2539.9	-0.29114	0.94096	0.24849
1.18	83.189	-18979	2539.8	-0.29036	0.94135	0.24888
1.182	83.185	-18977	2539.8	-0.29056	0.94135	0.24868
1.184	83.184	-18976	2539.7	-0.29075	0.94135	0.24849
1.186	83.182	-18975	2539.6	-0.29095	0.94135	0.24829
1.188	83.184	-18973	2539.6	-0.29114	0.94135	0.2481
1.19	83.183	-18971	2539.5	-0.29134	0.94135	0.2479
1.192	83.186	-18969	2539.4	-0.29075	0.94155	0.24878
1.194	83.183	-18964	2539.4	-0.29016	0.94174	0.24966
1.196	83.181	-18959	2539.3	-0.28958	0.94194	0.25054
1.198	83.183	-18960	2539.3	-0.28899	0.94213	0.25142
1.2	83.183	-18961	2539.2	-0.28841	0.94233	0.2523
1.202	83.181	-18971	2539.2	-0.2886	0.94262	0.25073
1.204	83.178	-18981	2539.2	-0.2888	0.94291	0.24917
1.206	83.177	-18981	2539.1	-0.28899	0.94321	0.24761
1.208	83.178	-18981	2539.1	-0.28919	0.9435	0.24605
1.21	83.18	-18978	2539	-0.28938	0.94379	0.24449
1.212	83.18	-18975	2539	-0.28733	0.94379	0.2438
1.214	83.178	-18975	2538.9	-0.28528	0.94379	0.24312
1.216	83.178	-18975	2538.9	-0.28324	0.94379	0.24244
1.218	83.179	-18980	2538.9	-0.28119	0.94379	0.24176
1.22	83.177	-18984	2538.8	-0.27914	0.94379	0.24107
1.222	83.175	-18983	2538.8	-0.28021	0.94321	0.24224
1.224	83.174	-18981	2538.7	-0.28128	0.94262	0.24341
1.226	83.176	-18979	2538.7	-0.28236	0.94204	0.24459
1.228	83.175	-18977	2538.6	-0.28343	0.94145	0.24576
1.23	83.173	-18982	2538.6	-0.2845	0.94086	0.24693
1.232	83.172	-18987	2538.6	-0.28353	0.94145	0.24585
1.234	83.171	-18980	2538.6	-0.28255	0.94204	0.24478
1.236	83.172	-18972	2538.5	-0.28158	0.94262	0.24371
1.238	83.171	-18973	2538.5	-0.2806	0.94321	0.24263
1.24	83.167	-18973	2538.5	-0.27962	0.94379	0.24156
1.242	83.167	-18968	2538.5	-0.28001	0.9436	0.24185
1.244	83.168	-18963	2538.4	-0.2804	0.9434	0.24215
1.246	83.175	-18974	2538.4	-0.2808	0.94321	0.24244
1.248	83.18	-18986	2538.4	-0.28119	0.94301	0.24273
1.25	83.177	-18983	2538.4	-0.28158	0.94282	0.24302
1.252	83.175	-18980	2538.4	-0.28089	0.94233	0.24322
1.254	83.175	-18983	2538.3	-0.28021	0.94184	0.24341
1.256	83.18	-18985	2538.3	-0.27953	0.94135	0.24361
1.258	83.179	-18980	2538.3	-0.27884	0.94086	0.2438
1.26	83.177	-18975	2538.2	-0.27816	0.94038	0.244
1.262	83.176	-18979	2538.2	-0.27884	0.94125	0.24361
1.264	83.177	-18983	2538.2	-0.27953	0.94213	0.24322
1.266	83.177	-18985	2538.1	-0.28021	0.94301	0.24283
1.268	83.178	-18988	2538.1	-0.28089	0.94389	0.24244
1.27	83.179	-18984	2538.1	-0.28158	0.94477	0.24205
1.272	83.182	-18979	2538.1	-0.28177	0.94448	0.24273
1.274	83.177	-18981	2538	-0.28197	0.94418	0.24341
1.276	83.172	-18982	2538	-0.28216	0.94389	0.2441
1.278	83.172	-18980	2538	-0.28236	0.9436	0.24478
1.28	83.173	-18979	2538	-0.28255	0.9433	0.24546
1.282	83.169	-18979	2538	-0.28245	0.94408	0.244
1.284	83.154	-18978	2538	-0.28236	0.94487	0.24254
1.286	83.142	-18977	2538	-0.28226	0.94565	0.24107
1.288	83.141	-18976	2538	-0.28216	0.94643	0.23961
1.29	83.148	-18977	2538	-0.28206	0.94721	0.23814
1.292	83.15	-18978	2538	-0.28187	0.94711	0.23873
1.294	83.148	-18982	2538	-0.28167	0.94701	0.23932
1.296	83.146	-18985	2538	-0.28148	0.94692	0.2399
1.298	83.138	-18983	2537.9	-0.28128	0.94682	0.24049
1.3	83.136	-18982	2537.9	-0.28109	0.94672	0.24107
1.302	83.139	-18983	2537.9	-0.28167	0.94721	0.24088
1.304	83.141	-18984	2537.9	-0.28226	0.9477	0.24068
1.306	83.136	-18984	2537.9	-0.28284	0.94818	0.24049
1.308	83.123	-18985	2537.9	-0.28343	0.94867	0.24029
1.31	83.114	-18983	2537.9	-0.28402	0.94916	0.2401
1.312	83.115	-18982	2537.8	-0.28372	0.94857	0.2401
1.314	83.122	-18980	2537.8	-0.28343	0.94799	0.2401
1.316	83.128	-18978	2537.8	-0.28314	0.9474	0.2401
1.318	83.131	-18977	2537.8	-0.28284	0.94682	0.2401
1.32	83.136	-18976	2537.8	-0.28255	0.94623	0.2401
1.322	83.13	-18980	2537.8	-0.28177	0.94545	0.24058
1.324	83.12	-18985	2537.7	-0.28099	0.94467	0.24107
1.326	83.113	-18983	2537.7	-0.28021	0.94389	0.24156
1.328	83.113	-18981	2537.7	-0.27943	0.94311	0.24205
1.33	83.112	-18981	2537.7	-0.27865	0.94233	0.24254
1.332	83.113	-18981	2537.6	-0.27894	0.94262	0.24176
1.334	83.118	-18984	2537.6	-0.27923	0.94291	0.24097
1.336	83.123	-18987	2537.6	-0.27953	0.94321	0.24019
1.338	83.121	-18983	2537.6	-0.27982	0.9435	0.23941
1.34	83.124	-18980	2537.6	-0.28011	0.94379	0.23863
1.342	83.131	-18981	2537.5	-0.28031	0.94408	0.23863
1.344	83.131	-18982	2537.5	-0.2805	0.94438	0.23863
1.346	83.137	-18984	2537.4	-0.2807	0.94467	0.23863
1.348	83.149	-18986	2537.3	-0.28089	0.94496	0.23863
1.35	83.158	-18986	2537.2	-0.28109	0.94526	0.23863
1.352	83.173	-18986	2537.2	-0.28128	0.94477	0.23932
1.354	83.187	-18987	2537.1	-0.28148	0.94428	0.24
1.356	83.193	-18988	2537.1	-0.28167	0.94379	0.24068
1.358	83.203	-18987	2537.1	-0.28187	0.9433	0.24136
1.36	83.205	-18987	2537	-0.28206	0.94282	0.24205
1.362	83.203	-18983	2537	-0.28245	0.94369	0.24127
1.364	83.201	-18980	2536.9	-0.28284	0.94457	0.24049
1.366	83.202	-18980	2536.9	-0.28324	0.94545	0.23971
1.368	83.202	-18980	2536.8	-0.28363	0.94633	0.23892
1.37	83.2	-18983	2536.8	-0.28402	0.94721	0.23814
1.372	83.199	-18986	2536.7	-0.28568	0.94574	0.24
1.374	83.197	-18987	2536.6	-0.28733	0.94428	0.24185
1.376	83.195	-18988	2536.5	-0.28899	0.94282	0.24371
1.378	83.195	-18988	2536.5	-0.29065	0.94135	0.24556
1.38	83.195	-18989	2536.5	-0.29231	0.93989	0.24742
1.382	83.197	-18988	2536.4	-0.29231	0.93891	0.24673
1.384	83.197	-18988	2536.3	-0.29231	0.93794	0.24605
1.386	83.194	-18988	2536.2	-0.29231	0.93696	0.24537
1.388	83.192	-18988	2536.2	-0.29231	0.93598	0.24468
1.39	83.191	-18988	2536.1	-0.29231	0.93501	0.244
1.392	83.192	-18988	2536	-0.29173	0.9354	0.244
1.394	83.196	-18989	2536	-0.29114	0.93579	0.244
1.396	83.197	-18989	2535.9	-0.29056	0.93618	0.244
1.398	83.196	-18990	2535.9	-0.28997	0.93657	0.244
1.4	83.194	-18991	2535.8	-0.28938	0.93696	0.244
1.402	83.193	-18989	2535.8	-0.2888	0.93774	0.24566
1.404	83.195	-18987	2535.8	-0.28821	0.93852	0.24732
1.406	83.197	-18985	2535.8	-0.28763	0.9393	0.24898
1.408	83.205	-18982	2535.8	-0.28704	0.94008	0.25064
1.41	83.22	-18986	2535.8	-0.28646	0.94086	0.2523
1.412	83.243	-18989	2535.8	-0.28733	0.94038	0.2521
1.414	83.274	-18992	2535.7	-0.28821	0.93989	0.25191
1.416	83.305	-18995	2535.7	-0.28909	0.9394	0.25171
1.418	83.332	-18994	2535.6	-0.28997	0.93891	0.25152
1.42	83.339	-18994	2535.6	-0.29085	0.93842	0.25132
1.422	83.321	-18995	2535.5	-0.29046	0.93862	0.25112
1.424	83.283	-18997	2535.5	-0.29007	0.93881	0.25093
1.426	83.236	-18998	2535.5	-0.28968	0.93901	0.25073
1.428	83.185	-18999	2535.4	-0.28929	0.9392	0.25054
1.43	83.113	-18998	2535.3	-0.2889	0.9394	0.25034
1.432	83.032	-18997	2535.3	-0.28899	0.9395	0.25015
1.434	82.933	-18996	2535.3	-0.28909	0.9396	0.24995
1.436	82.833	-18995	2535.3	-0.28919	0.93969	0.24976
1.438	82.711	-18993	2535.3	-0.28929	0.93979	0.24956
1.44	82.564	-18992	2535.2	-0.28938	0.93989	0.24937
1.442	82.417	-18991	2535.2	-0.28929	0.94116	0.24898
1.444	82.278	-18989	2535.2	-0.28919	0.94243	0.24859
1.446	82.15	-18993	2535.3	-0.28909	0.94369	0.2482
1.448	82.043	-18997	2535.3	-0.28899	0.94496	0.24781
1.45	81.973	-18998	2535.3	-0.2889	0.94623	0.24742
1.452	81.962	-18999	2535.2	-0.28851	0.94555	0.24829
1.454	82.051	-19000	2535.2	-0.28812	0.94487	0.24917
1.456	82.202	-19002	2535.2	-0.28772	0.94418	0.25005
1.458	82.379	-19001	2535.1	-0.28733	0.9435	0.25093
1.46	82.556	-19000	2535.1	-0.28694	0.94282	0.25181
1.462	82.697	-18998	2535	-0.28704	0.94223	0.25191
1.464	82.832	-18996	2534.9	-0.28714	0.94164	0.252
1.466	82.982	-18998	2534.9	-0.28724	0.94106	0.2521
1.468	83.106	-19000	2534.8	-0.28733	0.94047	0.2522
1.47	83.187	-18998	2534.7	-0.28743	0.93989	0.2523
1.472	83.242	-18997	2534.7	-0.28831	0.9396	0.25181
1.474	83.264	-18997	2534.6	-0.28919	0.9393	0.25132
1.476	83.247	-18997	2534.6	-0.29007	0.93901	0.25083
1.478	83.214	-19001	2534.6	-0.29095	0.93872	0.25034
1.48	83.178	-19004	2534.7	-0.29182	0.93842	0.24986
1.482	83.151	-19005	2534.6	-0.29085	0.93999	0.24956
1.484	83.134	-19006	2534.6	-0.28987	0.94155	0.24927
1.486	83.121	-19006	2534.6	-0.2889	0.94311	0.24898
1.488	83.111	-19005	2534.7	-0.28792	0.94467	0.24868
1.49	83.109	-19007	2534.7	-0.28694	0.94623	0.24839
1.492	83.113	-19009	2534.7	-0.28772	0.94438	0.24878
1.494	83.123	-19005	2534.7	-0.28851	0.94252	0.24917
1.496	83.135	-19002	2534.8	-0.28929	0.94067	0.24956
1.498	83.143	-19008	2534.8	-0.29007	0.93881	0.24995
1.5	83.152	-19014	2534.8	-0.29085	0.93696	0.25034
1.502	83.155	-19012	2534.7	-0.29056	0.93803	0.25015
1.504	83.157	-19011	2534.7	-0.29026	0.93911	0.24995
1.506	83.158	-19005	2534.7	-0.28997	0.94018	0.24976
1.508	83.158	-18999	2534.6	-0.28968	0.94125	0.24956
1.51	83.161	-18997	2534.6	-0.28938	0.94233	0.24937
1.512	83.16	-18996	2534.6	-0.2888	0.94243	0.25034
1.514	83.156	-19001	2534.5	-0.28821	0.94252	0.25132
1.516	83.162	-19006	2534.5	-0.28763	0.94262	0.2523
1.518	83.164	-19007	2534.4	-0.28704	0.94272	0.25327
1.52	83.164	-19009	2534.3	-0.28646	0.94282	0.25425
1.522	83.16	-19004	2534.3	-0.28685	0.94252	0.25366
1.524	83.156	-19000	2534.3	-0.28724	0.94223	0.25308
1.526	83.157	-18999	2534.3	-0.28763	0.94194	0.25249
1.528	83.159	-18998	2534.2	-0.28802	0.94164	0.25191
1.53	83.154	-18998	2534.2	-0.28841	0.94135	0.25132
1.532	83.15	-18998	2534.1	-0.28831	0.94125	0.25093
1.534	83.151	-19002	2534.1	-0.28821	0.94116	0.25054
1.536	83.15	-19005	2534	-0.28812	0.94106	0.25015
1.538	83.147	-19006	2533.9	-0.28802	0.94096	0.24976
1.54	83.147	-19006	2533.8	-0.28792	0.94086	0.24937
1.542	83.151	-19004	2533.7	-0.28772	0.94204	0.24839
1.544	83.15	-19003	2533.7	-0.28753	0.94321	0.24742
1.546	83.147	-19012	2533.7	-0.28733	0.94438	0.24644
1.548	83.146	-19020	2533.6	-0.28714	0.94555	0.24546
1.55	83.144	-19025	2533.6	-0.28694	0.94672	0.24449
1.552	83.141	-19029	2533.5	-0.28675	0.94604	0.24556
1.554	83.138	-19029	2533.4	-0.28655	0.94535	0.24664
1.556	83.134	-19030	2533.4	-0.28636	0.94467	0.24771
1.558	83.131	-19024	2533.3	-0.28616	0.94399	0.24878
1.56	83.132	-19018	2533.2	-0.28597	0.9433	0.24986
1.562	83.134	-19014	2533.1	-0.28607	0.9436	0.25025
1.564	83.132	-19009	2533	-0.28616	0.94389	0.25064
1.566	83.127	-19007	2533	-0.28626	0.94418	0.25103
1.568	83.123	-19006	2533	-0.28636	0.94448	0.25142
1.57	83.124	-19006	2533	-0.28646	0.94477	0.25181
1.572	83.123	-19006	2532.9	-0.28724	0.94379	0.25122
1.574	83.121	-19009	2532.9	-0.28802	0.94282	0.25064
1.576	83.117	-19011	2532.8	-0.2888	0.94184	0.25005
1.578	83.114	-19013	2532.8	-0.28958	0.94086	0.24947
1.58	83.112	-19015	2532.7	-0.29036	0.93989	0.24888
1.582	83.114	-19014	2532.6	-0.28948	0.94077	0.24849
1.584	83.112	-19014	2532.6	-0.2886	0.94164	0.2481
1.586	83.109	-19013	2532.5	-0.28772	0.94252	0.24771
1.588	83.102	-19013	2532.5	-0.28685	0.9434	0.24732
1.59	83.099	-19018	2532.5	-0.28597	0.94428	0.24693
1.592	83.1	-19023	2532.5	-0.28685	0.94369	0.24683
1.594	83.1	-19021	2532.5	-0.28772	0.94311	0.24673
1.596	83.104	-19019	2532.5	-0.2886	0.94252	0.24664
1.598	83.099	-19020	2532.5	-0.28948	0.94194	0.24654
1.6	83.094	-19021	2532.4	-0.29036	0.94135	0.24644
1.602	83.086	-19020	2532.4	-0.28948	0.94223	0.24732
1.604	83.081	-19020	2532.4	-0.2886	0.94311	0.2482
1.606	83.079	-19018	2532.4	-0.28772	0.94399	0.24908
1.608	83.078	-19017	2532.4	-0.28685	0.94487	0.24995
1.61	83.074	-19021	2532.3	-0.28597	0.94574	0.25083
1.612	83.072	-19025	2532.3	-0.28675	0.94487	0.25054
1.614	83.072	-19025	2532.3	-0.28753	0.94399	0.25025
1.616	83.071	-19024	2532.4	-0.28831	0.94311	0.24995
1.618	83.069	-19023	2532.4	-0.28909	0.94223	0.24966
1.62	83.064	-19023	2532.4	-0.28987	0.94135	0.24937
1.622	83.06	-19026	2532.5	-0.28909	0.94223	0.24966
1.624	83.059	-19028	2532.5	-0.28831	0.94311	0.24995
1.626	83.058	-19024	2532.6	-0.28753	0.94399	0.25025
1.628	83.055	-19020	2532.7	-0.28675	0.94487	0.25054
1.63	83.051	-19026	2532.7	-0.28597	0.94574	0.25083
1.632	83.046	-19033	2532.9	-0.28685	0.94457	0.25044
1.634	83.045	-19031	2533	-0.28772	0.9434	0.25005
1.636	83.047	-19029	2533.1	-0.2886	0.94223	0.24966
1.638	83.047	-19025	2533.2	-0.28948	0.94106	0.24927
1.64	83.044	-19020	2533.4	-0.29036	0.93989	0.24888
1.642	83.04	-19024	2533.5	-0.28987	0.94038	0.24888
1.644	83.038	-19028	2533.6	-0.28938	0.94086	0.24888
1.646	83.044	-19025	2533.7	-0.2889	0.94135	0.24888
1.648	83.05	-19022	2533.8	-0.28841	0.94184	0.24888
1.65	83.046	-19030	2533.9	-0.28792	0.94233	0.24888
1.652	83.038	-19037	2534.1	-0.28812	0.94213	0.24898
1.654	83.038	-19026	2534.2	-0.28831	0.94194	0.24908
1.656	83.041	-19015	2534.3	-0.28851	0.94174	0.24917
1.658	83.042	-19017	2534.5	-0.2887	0.94155	0.24927
1.66	83.044	-19019	2534.6	-0.2889	0.94135	0.24937
1.662	83.047	-19014	2534.7	-0.28909	0.94106	0.24917
1.664	83.045	-19010	2534.9	-0.28929	0.94077	0.24898
1.666	83.046	-19013	2535	-0.28948	0.94047	0.24878
1.668	83.044	-19016	2535.2	-0.28968	0.94018	0.24859
1.67	83.044	-19013	2535.4	-0.28987	0.93989	0.24839
1.672	83.045	-19010	2535.6	-0.28977	0.9392	0.2479
1.674	83.047	-19014	2535.7	-0.28968	0.93852	0.24742
1.676	83.048	-19019	2535.9	-0.28958	0.93784	0.24693
1.678	83.049	-19011	2536.1	-0.28948	0.93716	0.24644
1.68	83.045	-19003	2536.3	-0.28938	0.93647	0.24595
1.682	83.051	-19010	2536.5	-0.28997	0.93657	0.24634
1.684	83.054	-19017	2536.7	-0.29056	0.93667	0.24673
1.686	83.054	-19011	2536.9	-0.29114	0.93676	0.24712
1.688	83.054	-19005	2537.1	-0.29173	0.93686	0.24751
1.69	83.058	-19009	2537.2	-0.29231	0.93696	0.2479
1.692	83.066	-19014	2537.4	-0.29231	0.93657	0.24732
1.694	83.072	-19011	2537.6	-0.29231	0.93618	0.24673
1.696	83.075	-19009	2537.8	-0.29231	0.93579	0.24615
1.698	83.076	-19011	2537.9	-0.29231	0.9354	0.24556
1.7	83.081	-19013	2538	-0.29231	0.93501	0.24498
1.702	83.088	-19009	2538.2	-0.293	0.93511	0.24546
1.704	83.093	-19006	2538.3	-0.29368	0.9352	0.24595
1.706	83.094	-19006	2538.4	-0.29436	0.9353	0.24644
1.708	83.1	-19006	2538.6	-0.29504	0.9354	0.24693
1.71	83.106	-19002	2538.7	-0.29573	0.9355	0.24742
1.712	83.108	-18998	2538.8	-0.29524	0.93579	0.24722
1.714	83.114	-18997	2538.9	-0.29475	0.93608	0.24703
1.716	83.123	-18995	2539.1	-0.29426	0.93637	0.24683
1.718	83.127	-18996	2539.1	-0.29378	0.93667	0.24664
1.72	83.129	-18996	2539.2	-0.29329	0.93696	0.24644
1.722	83.127	-18993	2539.4	-0.2927	0.93696	0.24546
1.724	83.128	-18991	2539.5	-0.29212	0.93696	0.24449
1.726	83.132	-18991	2539.6	-0.29153	0.93696	0.24351
1.728	83.134	-18991	2539.6	-0.29095	0.93696	0.24254
1.73	83.142	-18989	2539.7	-0.29036	0.93696	0.24156
1.732	83.149	-18987	2539.7	-0.29153	0.93755	0.24263
1.734	83.148	-18985	2539.8	-0.2927	0.93813	0.24371
1.736	83.147	-18984	2539.8	-0.29387	0.93872	0.24478
1.738	83.15	-18984	2539.9	-0.29504	0.9393	0.24585
1.74	83.153	-18985	2539.9	-0.29622	0.93989	0.24693
1.742	83.153	-18987	2540	-0.29592	0.9395	0.24664
1.744	83.155	-18990	2540	-0.29563	0.93911	0.24634
1.746	83.161	-18990	2540.1	-0.29534	0.93872	0.24605
1.748	83.165	-18990	2540.2	-0.29504	0.93833	0.24576
1.75	83.167	-18989	2540.2	-0.29475	0.93794	0.24546
1.752	83.16	-18988	2540.3	-0.29456	0.93764	0.24537
1.754	83.165	-18986	2540.3	-0.29436	0.93735	0.24527
1.756	83.17	-18983	2540.3	-0.29417	0.93706	0.24517
1.758	83.171	-18982	2540.3	-0.29397	0.93676	0.24507
1.76	83.171	-18981	2540.3	-0.29378	0.93647	0.24498
1.762	83.167	-18978	2540.3	-0.29436	0.93706	0.24556
1.764	83.166	-18976	2540.3	-0.29495	0.93764	0.24615
1.766	83.165	-18978	2540.3	-0.29553	0.93823	0.24673
1.768	83.162	-18981	2540.3	-0.29612	0.93881	0.24732
1.77	83.164	-18972	2540.3	-0.2967	0.9394	0.2479
1.772	83.168	-18963	2540.2	-0.29729	0.9396	0.24781
1.774	83.172	-18970	2540.2	-0.29788	0.93979	0.24771
1.776	83.175	-18976	2540.2	-0.29846	0.93999	0.24761
1.778	83.174	-18976	2540.1	-0.29905	0.94018	0.24751
1.78	83.175	-18976	2540.1	-0.29963	0.94038	0.24742
1.782	83.177	-18973	2540	-0.29788	0.94077	0.24683
1.784	83.179	-18971	2540	-0.29612	0.94116	0.24624
1.786	83.173	-18971	2539.9	-0.29436	0.94155	0.24566
1.788	83.168	-18970	2539.8	-0.2926	0.94194	0.24507
1.79	83.168	-18969	2539.7	-0.29085	0.94233	0.24449
1.792	83.171	-18968	2539.6	-0.29104	0.94145	0.24498
1.794	83.173	-18973	2539.5	-0.29124	0.94057	0.24546
1.796	83.173	-18978	2539.4	-0.29143	0.93969	0.24595
1.798	83.174	-18974	2539.4	-0.29163	0.93881	0.24644
1.8	83.175	-18970	2539.3	-0.29182	0.93794	0.24693
1.802	83.174	-18972	2539.2	-0.29163	0.93852	0.24742
1.804	83.171	-18974	2539.1	-0.29143	0.93911	0.2479
1.806	83.167	-18976	2539	-0.29124	0.93969	0.24839
1.808	83.164	-18978	2538.9	-0.29104	0.94028	0.24888
1.81	83.164	-18978	2538.8	-0.29085	0.94086	0.24937
1.812	83.165	-18979	2538.7	-0.29065	0.94145	0.24878
1.814	83.166	-18981	2538.6	-0.29046	0.94204	0.2482
1.816	83.167	-18983	2538.5	-0.29026	0.94262	0.24761
1.818	83.166	-18981	2538.5	-0.29007	0.94321	0.24703
1.82	83.163	-18978	2538.4	-0.28987	0.94379	0.24644
1.822	83.161	-18977	2538.4	-0.29065	0.94301	0.24683
1.824	83.162	-18975	2538.3	-0.29143	0.94223	0.24722
1.826	83.167	-18972	2538.3	-0.29221	0.94145	0.24761
1.828	83.166	-18969	2538.2	-0.293	0.94067	0.248
1.83	83.164	-18971	2538.1	-0.29378	0.93989	0.24839
1.832	83.163	-18973	2538.1	-0.29319	0.94067	0.2479
1.834	83.162	-18976	2538.1	-0.2926	0.94145	0.24742
1.836	83.156	-18979	2538.1	-0.29202	0.94223	0.24693
1.838	83.154	-18978	2538.1	-0.29143	0.94301	0.24644
1.84	83.159	-18976	2538.1	-0.29085	0.94379	0.24595
1.842	83.157	-18977	2538.1	-0.29026	0.9435	0.24673
1.844	83.153	-18977	2538	-0.28968	0.94321	0.24751
1.846	83.152	-18976	2538	-0.28909	0.94291	0.24829
1.848	83.153	-18975	2538	-0.28851	0.94262	0.24908
1.85	83.156	-18979	2538	-0.28792	0.94233	0.24986
1.852	83.151	-18982	2537.9	-0.28782	0.94311	0.24878
1.854	83.15	-18984	2537.9	-0.28772	0.94389	0.24771
1.856	83.152	-18985	2537.9	-0.28763	0.94467	0.24664
1.858	83.153	-18984	2537.9	-0.28753	0.94545	0.24556
1.86	83.153	-18984	2537.9	-0.28743	0.94623	0.24449
1.862	83.156	-18979	2537.9	-0.28655	0.94574	0.24439
1.864	83.159	-18974	2537.9	-0.28568	0.94526	0.24429
1.866	83.158	-18976	2537.9	-0.2848	0.94477	0.2442
1.868	83.156	-18978	2537.9	-0.28392	0.94428	0.2441
1.87	83.151	-18980	2537.9	-0.28304	0.94379	0.244
1.872	83.147	-18983	2537.9	-0.28265	0.94311	0.2438
1.874	83.15	-18982	2537.9	-0.28226	0.94243	0.24361
1.876	83.151	-18980	2537.9	-0.28187	0.94174	0.24341
1.878	83.152	-18977	2537.9	-0.28148	0.94106	0.24322
1.88	83.152	-18975	2537.9	-0.28109	0.94038	0.24302
1.882	83.15	-18976	2538	-0.28109	0.94047	0.2442
1.884	83.151	-18978	2538	-0.28109	0.94057	0.24537
1.886	83.151	-18978	2538	-0.28109	0.94067	0.24654
1.888	83.149	-18978	2538	-0.28109	0.94077	0.24771
1.89	83.15	-18975	2538	-0.28109	0.94086	0.24888
1.892	83.155	-18972	2537.9	-0.28177	0.94145	0.24878
1.894	83.157	-18974	2537.9	-0.28245	0.94204	0.24868
1.896	83.157	-18975	2537.9	-0.28314	0.94262	0.24859
1.898	83.16	-18976	2537.8	-0.28382	0.94321	0.24849
1.9	83.159	-18977	2537.8	-0.2845	0.94379	0.24839
1.902	83.154	-18973	2537.8	-0.28489	0.9434	0.24878
1.904	83.15	-18969	2537.8	-0.28528	0.94301	0.24917
1.906	83.151	-18968	2537.8	-0.28568	0.94262	0.24956
1.908	83.155	-18968	2537.8	-0.28607	0.94223	0.24995
1.91	83.158	-18972	2537.8	-0.28646	0.94184	0.25034
1.912	83.16	-18975	2537.8	-0.28782	0.94174	0.24976
1.914	83.157	-18974	2537.8	-0.28919	0.94164	0.24917
1.916	83.153	-18974	2537.8	-0.29056	0.94155	0.24859
1.918	83.152	-18974	2537.8	-0.29192	0.94145	0.248
1.92	83.151	-18974	2537.7	-0.29329	0.94135	0.24742
1.922	83.143	-18977	2537.7	-0.29329	0.94125	0.248
1.924	83.134	-18980	2537.7	-0.29329	0.94116	0.24859
1.926	83.13	-18983	2537.7	-0.29329	0.94106	0.24917
1.928	83.128	-18986	2537.7	-0.29329	0.94096	0.24976
1.93	83.129	-18984	2537.8	-0.29329	0.94086	0.25034
1.932	83.131	-18981	2537.7	-0.2929	0.94067	0.24995
1.934	83.131	-18982	2537.7	-0.29251	0.94047	0.24956
1.936	83.126	-18984	2537.7	-0.29212	0.94028	0.24917
1.938	83.119	-18982	2537.7	-0.29173	0.94008	0.24878
1.94	83.122	-18980	2537.7	-0.29134	0.93989	0.24839
1.942	83.124	-18983	2537.7	-0.29173	0.9393	0.2482
1.944	83.121	-18987	2537.7	-0.29212	0.93872	0.248
1.946	83.113	-18987	2537.7	-0.29251	0.93813	0.24781
1.948	83.1	-18988	2537.6	-0.2929	0.93755	0.24761
1.95	83.093	-18984	2537.6	-0.29329	0.93696	0.24742
1.952	83.102	-18980	2537.6	-0.29339	0.93755	0.24751
1.954	83.109	-18981	2537.6	-0.29348	0.93813	0.24761
1.956	83.114	-18983	2537.6	-0.29358	0.93872	0.24771
1.958	83.113	-18984	2537.5	-0.29368	0.9393	0.24781
1.96	83.106	-18986	2537.5	-0.29378	0.93989	0.2479
1.962	83.1	-18981	2537.5	-0.29387	0.9395	0.24771
1.964	83.092	-18976	2537.5	-0.29397	0.93911	0.24751
1.966	83.089	-18984	2537.4	-0.29407	0.93872	0.24732
1.968	83.087	-18992	2537.4	-0.29417	0.93833	0.24712
1.97	83.09	-18989	2537.4	-0.29426	0.93794	0.24693
1.972	83.097	-18986	2537.3	-0.29417	0.93784	0.24732
1.974	83.098	-18992	2537.3	-0.29407	0.93774	0.24771
1.976	83.099	-18998	2537.3	-0.29397	0.93764	0.2481
1.978	83.102	-18988	2537.3	-0.29387	0.93755	0.24849
1.98	83.108	-18978	2537.3	-0.29378	0.93745	0.24888
1.982	83.116	-18979	2537.2	-0.29436	0.93716	0.2479
1.984	83.12	-18979	2537.1	-0.29495	0.93686	0.24693
1.986	83.126	-18975	2537.1	-0.29553	0.93657	0.24595
1.988	83.137	-18971	2537	-0.29612	0.93628	0.24498
1.99	83.153	-18977	2537	-0.2967	0.93598	0.244
1.992	83.167	-18984	2537	-0.29631	0.93637	0.24498
1.994	83.177	-18981	2536.9	-0.29592	0.93676	0.24595
1.996	83.184	-18977	2536.9	-0.29553	0.93716	0.24693
1.998	83.187	-18977	2536.8	-0.29514	0.93755	0.2479
2	83.184	-18976	2536.8	-0.29475	0.93794	0.24888
2.002	83.179	-18982	2536.7	-0.29378	0.93833	0.24966
2.004	83.183	-18988	2536.7	-0.2928	0.93872	0.25044
2.006	83.187	-18989	2536.6	-0.29182	0.93911	0.25122
2.008	83.184	-18990	2536.6	-0.29085	0.9395	0.252
2.01	83.186	-18988	2536.6	-0.28987	0.93989	0.25278
2.012	83.185	-18985	2536.5	-0.28987	0.94008	0.25259
2.014	83.179	-18987	2536.4	-0.28987	0.94028	0.25239
2.016	83.178	-18988	2536.4	-0.28987	0.94047	0.2522
2.018	83.176	-18993	2536.4	-0.28987	0.94067	0.252
2.02	83.176	-18997	2536.3	-0.28987	0.94086	0.25181
2.022	83.175	-18995	2536.3	-0.28899	0.94125	0.25269
2.024	83.175	-18993	2536.3	-0.28812	0.94164	0.25356
2.026	83.178	-18986	2536.3	-0.28724	0.94204	0.25444
2.028	83.176	-18979	2536.2	-0.28636	0.94243	0.25532
2.03	83.177	-18982	2536.2	-0.28548	0.94282	0.2562
2.032	83.183	-18985	2536.2	-0.28558	0.9433	0.25542
2.034	83.183	-18986	2536.1	-0.28568	0.94379	0.25464
2.036	83.182	-18988	2536.1	-0.28577	0.94428	0.25386
2.038	83.183	-18986	2536.1	-0.28587	0.94477	0.25308
2.04	83.181	-18985	2536	-0.28597	0.94526	0.2523
2.042	83.181	-18982	2536	-0.28753	0.9435	0.25171
2.044	83.185	-18978	2536	-0.28909	0.94174	0.25112
2.046	83.188	-18988	2536	-0.29065	0.93999	0.25054
2.048	83.195	-18997	2536	-0.29221	0.93823	0.24995
2.05	83.208	-18992	2535.9	-0.29378	0.93647	0.24937
2.052	83.232	-18987	2535.9	-0.29417	0.93628	0.24917
2.054	83.258	-18992	2535.8	-0.29456	0.93608	0.24898
2.056	83.288	-18996	2535.8	-0.29495	0.93589	0.24878
2.058	83.316	-18994	2535.7	-0.29534	0.93569	0.24859
2.06	83.32	-18991	2535.7	-0.29573	0.9355	0.24839
2.062	83.299	-18994	2535.6	-0.29397	0.93618	0.24927
2.064	83.265	-18998	2535.6	-0.29221	0.93686	0.25015
2.066	83.219	-18997	2535.6	-0.29046	0.93755	0.25103
2.068	83.161	-18997	2535.6	-0.2887	0.93823	0.25191
2.07	83.086	-18994	2535.6	-0.28694	0.93891	0.25278
2.072	82.997	-18991	2535.6	-0.28597	0.9392	0.25317
2.074	82.899	-18993	2535.6	-0.28499	0.9395	0.25356
2.076	82.792	-18996	2535.5	-0.28402	0.93979	0.25396
2.078	82.664	-19002	2535.5	-0.28304	0.94008	0.25435
2.08	82.518	-19007	2535.4	-0.28206	0.94038	0.25474
2.082	82.377	-19004	2535.4	-0.28294	0.94106	0.25366
2.084	82.238	-19001	2535.4	-0.28382	0.94174	0.25259
2.086	82.11	-18998	2535.4	-0.2847	0.94243	0.25152
2.088	82.01	-18994	2535.3	-0.28558	0.94311	0.25044
2.09	81.961	-18994	2535.2	-0.28646	0.94379	0.24937
2.092	81.976	-18994	2535.2	-0.28675	0.94379	0.24966
2.094	82.088	-18996	2535.2	-0.28704	0.94379	0.24995
2.096	82.25	-18997	2535.1	-0.28733	0.94379	0.25025
2.098	82.43	-19001	2535	-0.28763	0.94379	0.25054
2.1	82.61	-19004	2534.9	-0.28792	0.94379	0.25083
2.102	82.739	-19004	2534.9	-0.28802	0.9434	0.25083
2.104	82.884	-19004	2534.9	-0.28812	0.94301	0.25083
2.106	83.033	-19001	2534.9	-0.28821	0.94262	0.25083
2.108	83.139	-18998	2534.9	-0.28831	0.94223	0.25083
2.11	83.203	-18997	2534.8	-0.28841	0.94184	0.25083
2.112	83.248	-18996	2534.8	-0.28938	0.94223	0.25034
2.114	83.251	-19005	2534.7	-0.29036	0.94262	0.24986
2.116	83.239	-19014	2534.7	-0.29134	0.94301	0.24937
2.118	83.205	-19012	2534.7	-0.29231	0.9434	0.24888
2.12	83.17	-19011	2534.7	-0.29329	0.94379	0.24839
2.122	83.14	-19011	2534.7	-0.29182	0.9436	0.24898
2.124	83.125	-19011	2534.6	-0.29036	0.9434	0.24956
2.126	83.111	-19017	2534.6	-0.2889	0.94321	0.25015
2.128	83.1	-19024	2534.6	-0.28743	0.94301	0.25073
2.13	83.1	-19019	2534.6	-0.28597	0.94282	0.25132
2.132	83.11	-19015	2534.6	-0.28636	0.94311	0.25093
2.134	83.12	-19012	2534.6	-0.28675	0.9434	0.25054
2.136	83.129	-19009	2534.6	-0.28714	0.94369	0.25015
2.138	83.134	-19005	2534.6	-0.28753	0.94399	0.24976
2.14	83.137	-19000	2534.6	-0.28792	0.94428	0.24937
2.142	83.14	-19003	2534.5	-0.28802	0.94379	0.24947
2.144	83.144	-19005	2534.5	-0.28812	0.9433	0.24956
2.146	83.147	-19007	2534.5	-0.28821	0.94282	0.24966
2.148	83.149	-19008	2534.4	-0.28831	0.94233	0.24976
2.15	83.148	-19012	2534.4	-0.28841	0.94184	0.24986
2.152	83.145	-19017	2534.4	-0.28929	0.94145	0.25005
2.154	83.143	-19011	2534.4	-0.29016	0.94106	0.25025
2.156	83.142	-19006	2534.4	-0.29104	0.94067	0.25044
2.158	83.143	-19007	2534.4	-0.29192	0.94028	0.25064
2.16	83.141	-19008	2534.4	-0.2928	0.93989	0.25083
2.162	83.138	-19013	2534.3	-0.293	0.94028	0.25044
2.164	83.138	-19018	2534.3	-0.29319	0.94067	0.25005
2.166	83.145	-19018	2534.3	-0.29339	0.94106	0.24966
2.168	83.149	-19019	2534.3	-0.29358	0.94145	0.24927
2.17	83.148	-19020	2534.3	-0.29378	0.94184	0.24888
2.172	83.143	-19021	2534.3	-0.29173	0.94272	0.24868
2.174	83.138	-19022	2534.3	-0.28968	0.9436	0.24849
2.176	83.137	-19024	2534.2	-0.28763	0.94448	0.24829
2.178	83.143	-19020	2534.2	-0.28558	0.94535	0.2481
2.18	83.141	-19016	2534.2	-0.28353	0.94623	0.2479
2.182	83.143	-19014	2534.2	-0.2846	0.94545	0.24917
2.184	83.141	-19011	2534.1	-0.28568	0.94467	0.25044
2.186	83.135	-19008	2534.1	-0.28675	0.94389	0.25171
2.188	83.136	-19006	2534.1	-0.28782	0.94311	0.25298
2.19	83.135	-19012	2534.2	-0.2889	0.94233	0.25425
2.192	83.128	-19018	2534.2	-0.28948	0.94145	0.25366
2.194	83.129	-19023	2534.1	-0.29007	0.94057	0.25308
2.196	83.126	-19028	2534.1	-0.29065	0.93969	0.25249
2.198	83.122	-19024	2534.1	-0.29124	0.93881	0.25191
2.2	83.123	-19019	2534.1	-0.29182	0.93794	0.25132
2.202	83.121	-19023	2534.1	-0.28997	0.93803	0.25171
2.204	83.114	-19028	2534.1	-0.28812	0.93813	0.2521
2.206	83.116	-19021	2534.1	-0.28626	0.93823	0.25249
2.208	83.118	-19015	2534	-0.28441	0.93833	0.25288
2.21	83.113	-19015	2534	-0.28255	0.93842	0.25327
2.212	83.11	-19016	2533.9	-0.28216	0.93842	0.25288
2.214	83.111	-19015	2533.9	-0.28177	0.93842	0.25249
2.216	83.109	-19015	2533.8	-0.28138	0.93842	0.2521
2.218	83.105	-19015	2533.8	-0.28099	0.93842	0.25171
2.22	83.102	-19015	2533.8	-0.2806	0.93842	0.25132
2.222	83.101	-19013	2533.8	-0.28197	0.9392	0.25093
2.224	83.1	-19011	2533.7	-0.28333	0.93999	0.25054
2.226	83.096	-19018	2533.7	-0.2847	0.94077	0.25015
2.228	83.095	-19024	2533.7	-0.28607	0.94155	0.24976
2.23	83.094	-19021	2533.7	-0.28743	0.94233	0.24937
2.232	83.092	-19018	2533.6	-0.28782	0.94243	0.24878
2.234	83.087	-19020	2533.5	-0.28821	0.94252	0.2482
2.236	83.08	-19021	2533.5	-0.2886	0.94262	0.24761
2.238	83.075	-19022	2533.4	-0.28899	0.94272	0.24703
2.24	83.073	-19022	2533.3	-0.28938	0.94282	0.24644
2.242	83.073	-19020	2533.3	-0.28841	0.94321	0.24722
2.244	83.072	-19017	2533.2	-0.28743	0.9436	0.248
2.246	83.074	-19019	2533.2	-0.28646	0.94399	0.24878
2.248	83.074	-19020	2533.2	-0.28548	0.94438	0.24956
2.25	83.068	-19026	2533.1	-0.2845	0.94477	0.25034
2.252	83.063	-19031	2533.1	-0.28421	0.94389	0.25093
2.254	83.058	-19031	2533.1	-0.28392	0.94301	0.25152
2.256	83.054	-19030	2533.1	-0.28363	0.94213	0.2521
2.258	83.054	-19028	2533.1	-0.28333	0.94125	0.25269
2.26	83.054	-19026	2533.1	-0.28304	0.94038	0.25327
2.262	83.05	-19027	2533.2	-0.28265	0.94008	0.25298
2.264	83.048	-19028	2533.3	-0.28226	0.93979	0.25269
2.266	83.048	-19025	2533.4	-0.28187	0.9395	0.25239
2.268	83.045	-19023	2533.4	-0.28148	0.9392	0.2521
2.27	83.043	-19021	2533.5	-0.28109	0.93891	0.25181
2.272	83.038	-19019	2533.6	-0.28148	0.93969	0.25181
2.274	83.031	-19023	2533.7	-0.28187	0.94047	0.25181
2.276	83.034	-19026	2533.8	-0.28226	0.94125	0.25181
2.278	83.038	-19029	2534	-0.28265	0.94204	0.25181
2.28	83.039	-19032	2534.1	-0.28304	0.94282	0.25181
2.282	83.036	-19031	2534.3	-0.28499	0.94223	0.25142
2.284	83.034	-19030	2534.4	-0.28694	0.94164	0.25103
2.286	83.034	-19027	2534.5	-0.2889	0.94106	0.25064
2.288	83.035	-19024	2534.7	-0.29085	0.94047	0.25025
2.29	83.034	-19020	2534.9	-0.2928	0.93989	0.24986
2.292	83.032	-19017	2535	-0.29221	0.94008	0.24986
2.294	83.035	-19017	2535.2	-0.29163	0.94028	0.24986
2.296	83.032	-19017	2535.4	-0.29104	0.94047	0.24986
2.298	83.034	-19020	2535.5	-0.29046	0.94067	0.24986
2.3	83.032	-19022	2535.7	-0.28987	0.94086	0.24986
2.302	83.028	-19023	2535.9	-0.28997	0.94125	0.24908
2.304	83.03	-19023	2536	-0.29007	0.94164	0.24829
2.306	83.036	-19022	2536.2	-0.29016	0.94204	0.24751
2.308	83.038	-19022	2536.3	-0.29026	0.94243	0.24673
2.31	83.037	-19024	2536.5	-0.29036	0.94282	0.24595
2.312	83.037	-19025	2536.7	-0.28977	0.94311	0.24644
2.314	83.035	-19024	2536.8	-0.28919	0.9434	0.24693
2.316	83.034	-19023	2537	-0.2886	0.94369	0.24742
2.318	83.037	-19017	2537.2	-0.28802	0.94399	0.2479
2.32	83.04	-19010	2537.4	-0.28743	0.94428	0.24839
2.322	83.04	-19007	2537.6	-0.2886	0.94233	0.24742
2.324	83.039	-19005	2537.8	-0.28977	0.94038	0.24644
2.326	83.042	-19004	2538	-0.29095	0.93842	0.24546
2.328	83.047	-19004	2538.2	-0.29212	0.93647	0.24449
2.33	83.049	-19011	2538.4	-0.29329	0.93452	0.24351
2.332	83.052	-19017	2538.5	-0.2929	0.93472	0.24341
2.334	83.056	-19015	2538.6	-0.29251	0.93491	0.24332
2.336	83.06	-19013	2538.8	-0.29212	0.93511	0.24322
2.338	83.065	-19012	2538.9	-0.29173	0.9353	0.24312
2.34	83.068	-19010	2539.1	-0.29134	0.9355	0.24302
2.342	83.074	-19009	2539.2	-0.29134	0.93647	0.24439
2.344	83.081	-19008	2539.4	-0.29134	0.93745	0.24576
2.346	83.092	-19007	2539.5	-0.29134	0.93842	0.24712
2.348	83.095	-19006	2539.6	-0.29134	0.9394	0.24849
2.35	83.099	-19003	2539.7	-0.29134	0.94038	0.24986
2.352	83.099	-19000	2539.8	-0.29241	0.93999	0.24888
2.354	83.102	-18995	2540	-0.29348	0.9396	0.2479
2.356	83.104	-18990	2540.1	-0.29456	0.9392	0.24693
2.358	83.112	-18995	2540.2	-0.29563	0.93881	0.24595
2.36	83.117	-18999	2540.3	-0.2967	0.93842	0.24498
2.362	83.116	-19000	2540.5	-0.29631	0.93842	0.24595
2.364	83.118	-19000	2540.6	-0.29592	0.93842	0.24693
2.366	83.126	-18999	2540.7	-0.29553	0.93842	0.2479
2.368	83.127	-18997	2540.8	-0.29514	0.93842	0.24888
2.37	83.132	-18999	2540.9	-0.29475	0.93842	0.24986
2.372	83.136	-19000	2540.9	-0.29495	0.93774	0.24888
2.374	83.141	-18997	2541	-0.29514	0.93706	0.2479
2.376	83.145	-18994	2541.1	-0.29534	0.93637	0.24693
2.378	83.147	-18995	2541.2	-0.29553	0.93569	0.24595
2.38	83.149	-18996	2541.3	-0.29573	0.93501	0.24498
2.382	83.149	-18998	2541.3	-0.29544	0.9354	0.24566
2.384	83.145	-19001	2541.4	-0.29514	0.93579	0.24634
2.386	83.145	-18996	2541.5	-0.29485	0.93618	0.24703
2.388	83.149	-18990	2541.6	-0.29456	0.93657	0.24771
2.39	83.15	-18995	2541.6	-0.29426	0.93696	0.24839
2.392	83.146	-18999	2541.6	-0.29329	0.93764	0.24878
2.394	83.146	-18997	2541.6	-0.29231	0.93833	0.24917
2.396	83.152	-18995	2541.6	-0.29134	0.93901	0.24956
2.398	83.155	-18992	2541.6	-0.29036	0.93969	0.24995
2.4	83.153	-18990	2541.6	-0.28938	0.94038	0.25034
2.402	83.155	-18988	2541.6	-0.29036	0.93979	0.25044
2.404	83.157	-18987	2541.6	-0.29134	0.9392	0.25054
2.406	83.155	-18987	2541.5	-0.29231	0.93862	0.25064
2.408	83.153	-18986	2541.5	-0.29329	0.93803	0.25073
2.41	83.152	-18986	2541.6	-0.29426	0.93745	0.25083
2.412	83.152	-18986	2541.5	-0.29426	0.93774	0.25034
2.414	83.156	-18985	2541.5	-0.29426	0.93803	0.24986
2.416	83.161	-18984	2541.4	-0.29426	0.93833	0.24937
2.418	83.163	-18980	2541.4	-0.29426	0.93862	0.24888
2.42	83.158	-18976	2541.4	-0.29426	0.93891	0.24839
2.422	83.153	-18976	2541.3	-0.29456	0.93881	0.24829
2.424	83.158	-18977	2541.3	-0.29485	0.93872	0.2482
2.426	83.158	-18979	2541.3	-0.29514	0.93862	0.2481
2.428	83.157	-18982	2541.2	-0.29544	0.93852	0.248
2.43	83.157	-18981	2541.2	-0.29573	0.93842	0.2479
2.432	83.161	-18981	2541.1	-0.29622	0.93911	0.24781
2.434	83.161	-18981	2541	-0.2967	0.93979	0.24771
2.436	83.155	-18981	2541	-0.29719	0.94047	0.24761
2.438	83.15	-18979	2540.9	-0.29768	0.94116	0.24751
2.44	83.149	-18978	2540.8	-0.29817	0.94184	0.24742
2.442	83.149	-18978	2540.7	-0.2967	0.94174	0.2479
2.444	83.151	-18979	2540.6	-0.29524	0.94164	0.24839
2.446	83.155	-18975	2540.6	-0.29378	0.94155	0.24888
2.448	83.154	-18971	2540.5	-0.29231	0.94145	0.24937
2.45	83.144	-18973	2540.4	-0.29085	0.94135	0.24986
2.452	83.141	-18976	2540.4	-0.28997	0.94155	0.25073
2.454	83.146	-18978	2540.3	-0.28909	0.94174	0.25161
2.456	83.145	-18980	2540.3	-0.28821	0.94194	0.25249
2.458	83.145	-18985	2540.2	-0.28733	0.94213	0.25337
2.46	83.147	-18990	2540.1	-0.28646	0.94233	0.25425
2.462	83.146	-18988	2540.1	-0.28607	0.94272	0.25347
2.464	83.143	-18986	2540.1	-0.28568	0.94311	0.25269
2.466	83.136	-18984	2540	-0.28528	0.9435	0.25191
2.468	83.136	-18982	2540	-0.28489	0.94389	0.25112
2.47	83.141	-18981	2539.9	-0.2845	0.94428	0.25034
2.472	83.144	-18979	2539.9	-0.28519	0.94369	0.25034
2.474	83.141	-18980	2539.9	-0.28587	0.94311	0.25034
2.476	83.14	-18982	2539.8	-0.28655	0.94252	0.25034
2.478	83.139	-18979	2539.8	-0.28724	0.94194	0.25034
2.48	83.139	-18977	2539.7	-0.28792	0.94135	0.25034
2.482	83.137	-18978	2539.7	-0.28743	0.94125	0.25054
2.484	83.134	-18979	2539.7	-0.28694	0.94116	0.25073
2.486	83.133	-18981	2539.7	-0.28646	0.94106	0.25093
2.488	83.131	-18983	2539.7	-0.28597	0.94096	0.25112
2.49	83.133	-18985	2539.7	-0.28548	0.94086	0.25132
2.492	83.135	-18988	2539.6	-0.28607	0.94164	0.25015
2.494	83.135	-18986	2539.6	-0.28665	0.94243	0.24898
2.496	83.134	-18984	2539.6	-0.28724	0.94321	0.24781
2.498	83.133	-18987	2539.6	-0.28782	0.94399	0.24664
2.5	83.133	-18989	2539.5	-0.28841	0.94477	0.24546
2.502	83.133	-18984	2539.5	-0.28753	0.94457	0.24634
2.504	83.133	-18979	2539.5	-0.28665	0.94438	0.24722
2.506	83.13	-18980	2539.5	-0.28577	0.94418	0.2481
2.508	83.128	-18982	2539.5	-0.28489	0.94399	0.24898
2.51	83.129	-18980	2539.5	-0.28402	0.94379	0.24986
2.512	83.132	-18979	2539.5	-0.2846	0.94408	0.24888
2.514	83.133	-18980	2539.5	-0.28519	0.94438	0.2479
2.516	83.133	-18980	2539.5	-0.28577	0.94467	0.24693
2.518	83.133	-18981	2539.5	-0.28636	0.94496	0.24595
2.52	83.136	-18981	2539.5	-0.28694	0.94526	0.24498
2.522	83.14	-18989	2539.6	-0.28597	0.94496	0.24478
2.524	83.14	-18996	2539.6	-0.28499	0.94467	0.24459
2.526	83.141	-18984	2539.6	-0.28402	0.94438	0.24439
2.528	83.143	-18973	2539.5	-0.28304	0.94408	0.2442
2.53	83.141	-18977	2539.5	-0.28206	0.94379	0.244
2.532	83.133	-18981	2539.5	-0.28363	0.94428	0.24449
2.534	83.136	-18982	2539.5	-0.28519	0.94477	0.24498
2.536	83.135	-18982	2539.4	-0.28675	0.94526	0.24546
2.538	83.135	-18982	2539.4	-0.28831	0.94574	0.24595
2.54	83.137	-18982	2539.4	-0.28987	0.94623	0.24644
2.542	83.134	-18984	2539.4	-0.28919	0.94604	0.24693
2.544	83.133	-18986	2539.4	-0.28851	0.94584	0.24742
2.546	83.127	-18986	2539.4	-0.28782	0.94565	0.2479
2.548	83.126	-18986	2539.4	-0.28714	0.94545	0.24839
2.55	83.128	-18985	2539.4	-0.28646	0.94526	0.24888
2.552	83.127	-18985	2539.3	-0.28665	0.94467	0.24898
2.554	83.121	-18983	2539.3	-0.28685	0.94408	0.24908
2.556	83.116	-18980	2539.2	-0.28704	0.9435	0.24917
2.558	83.109	-18980	2539.2	-0.28724	0.94291	0.24927
2.56	83.108	-18981	2539.2	-0.28743	0.94233	0.24937
2.562	83.113	-18982	2539.2	-0.28772	0.94204	0.24956
2.564	83.117	-18983	2539.2	-0.28802	0.94174	0.24976
2.566	83.109	-18982	2539.2	-0.28831	0.94145	0.24995
2.568	83.105	-18980	2539.2	-0.2886	0.94116	0.25015
2.57	83.106	-18982	2539.2	-0.2889	0.94086	0.25034
2.572	83.099	-18983	2539.2	-0.28977	0.94067	0.24966
2.574	83.088	-18984	2539.3	-0.29065	0.94047	0.24898
2.576	83.076	-18985	2539.3	-0.29153	0.94028	0.24829
2.578	83.074	-18987	2539.3	-0.29241	0.94008	0.24761
2.58	83.082	-18989	2539.3	-0.29329	0.93989	0.24693
2.582	83.092	-18985	2539.3	-0.2926	0.94008	0.24732
2.584	83.096	-18982	2539.4	-0.29192	0.94028	0.24771
2.586	83.094	-18979	2539.4	-0.29124	0.94047	0.2481
2.588	83.09	-18976	2539.3	-0.29056	0.94067	0.24849
2.59	83.085	-18978	2539.3	-0.28987	0.94086	0.24888
2.592	83.08	-18980	2539.3	-0.29095	0.94047	0.24917
2.594	83.076	-18986	2539.3	-0.29202	0.94008	0.24947
2.596	83.071	-18991	2539.3	-0.29309	0.93969	0.24976
2.598	83.072	-18987	2539.3	-0.29417	0.9393	0.25005
2.6	83.08	-18983	2539.2	-0.29524	0.93891	0.25034
2.602	83.083	-18985	2539.2	-0.29485	0.93872	0.25025
2.604	83.081	-18987	2539.2	-0.29446	0.93852	0.25015
2.606	83.083	-18986	2539.2	-0.29407	0.93833	0.25005
2.608	83.083	-18985	2539.2	-0.29368	0.93813	0.24995
2.61	83.09	-18991	2539.2	-0.29329	0.93794	0.24986
2.612	83.102	-18997	2539.1	-0.29465	0.93872	0.24956
2.614	83.111	-18997	2539.1	-0.29602	0.9395	0.24927
2.616	83.126	-18996	2539.1	-0.29739	0.94028	0.24898
2.618	83.143	-18992	2539	-0.29875	0.94106	0.24868
2.62	83.152	-18987	2539	-0.30012	0.94184	0.24839
2.622	83.164	-18986	2538.9	-0.29983	0.94174	0.2482
2.624	83.171	-18985	2538.9	-0.29953	0.94164	0.248
2.626	83.172	-18985	2538.9	-0.29924	0.94155	0.24781
2.628	83.172	-18986	2538.8	-0.29895	0.94145	0.24761
2.63	83.171	-18986	2538.8	-0.29866	0.94135	0.24742
2.632	83.169	-18986	2538.7	-0.29885	0.94135	0.24712
2.634	83.168	-18991	2538.7	-0.29905	0.94135	0.24683
2.636	83.166	-18996	2538.6	-0.29924	0.94135	0.24654
2.638	83.164	-18994	2538.6	-0.29944	0.94135	0.24624
2.64	83.161	-18992	2538.6	-0.29963	0.94135	0.24595
2.642	83.162	-18989	2538.6	-0.29748	0.94047	0.24459
2.644	83.164	-18985	2538.5	-0.29534	0.9396	0.24322
2.646	83.163	-18989	2538.5	-0.29319	0.93872	0.24185
2.648	83.162	-18994	2538.4	-0.29104	0.93784	0.24049
2.65	83.163	-18994	2538.4	-0.2889	0.93696	0.23912
2.652	83.163	-18995	2538.3	-0.2889	0.93745	0.2401
2.654	83.161	-18994	2538.3	-0.2889	0.93794	0.24107
2.656	83.161	-18993	2538.3	-0.2889	0.93842	0.24205
2.658	83.162	-18992	2538.2	-0.2889	0.93891	0.24302
2.66	83.162	-18991	2538.2	-0.2889	0.9394	0.244
2.662	83.164	-18990	2538.1	-0.2887	0.93969	0.2441
2.664	83.165	-18990	2538.1	-0.28851	0.93999	0.2442
2.666	83.166	-18987	2538	-0.28831	0.94028	0.24429
2.668	83.167	-18983	2538	-0.28812	0.94057	0.24439
2.67	83.169	-18985	2538	-0.28792	0.94086	0.24449
2.672	83.171	-18988	2538	-0.28724	0.94106	0.2438
2.674	83.171	-18991	2537.9	-0.28655	0.94125	0.24312
2.676	83.175	-18995	2537.9	-0.28587	0.94145	0.24244
2.678	83.187	-18991	2537.9	-0.28519	0.94164	0.24176
2.68	83.21	-18987	2537.8	-0.2845	0.94184	0.24107
2.682	83.239	-18986	2537.8	-0.28528	0.94125	0.24146
2.684	83.27	-18985	2537.8	-0.28607	0.94067	0.24185
2.686	83.298	-18989	2537.8	-0.28685	0.94008	0.24224
2.688	83.306	-18994	2537.8	-0.28763	0.9395	0.24263
2.69	83.286	-19007	2537.8	-0.28841	0.93891	0.24302
2.692	83.255	-19020	2537.7	-0.28899	0.93872	0.24322
2.694	83.216	-19018	2537.7	-0.28958	0.93852	0.24341
2.696	83.164	-19016	2537.7	-0.29016	0.93833	0.24361
2.698	83.09	-19010	2537.7	-0.29075	0.93813	0.2438
2.7	83.009	-19005	2537.8	-0.29134	0.93794	0.244
2.702	82.917	-19002	2537.8	-0.29124	0.93823	0.24517
2.704	82.812	-18999	2537.8	-0.29114	0.93852	0.24634
2.706	82.687	-18998	2537.9	-0.29104	0.93881	0.24751
2.708	82.536	-18997	2537.9	-0.29095	0.93911	0.24868
2.71	82.395	-18997	2537.9	-0.29085	0.9394	0.24986
2.712	82.261	-18997	2538	-0.29173	0.9395	0.24966
2.714	82.128	-18999	2538.1	-0.2926	0.9396	0.24947
2.716	82.017	-19001	2538.2	-0.29348	0.93969	0.24927
2.718	81.951	-19003	2538.2	-0.29436	0.93979	0.24908
2.72	81.952	-19005	2538.3	-0.29524	0.93989	0.24888
2.722	82.052	-19007	2538.4	-0.29407	0.94067	0.24917
2.724	82.203	-19009	2538.5	-0.2929	0.94145	0.24947
2.726	82.381	-19009	2538.6	-0.29173	0.94223	0.24976
2.728	82.562	-19008	2538.7	-0.29056	0.94301	0.25005
2.73	82.701	-19008	2538.7	-0.28938	0.94379	0.25034
2.732	82.837	-19008	2538.8	-0.29026	0.94301	0.25103
2.734	82.978	-19008	2538.9	-0.29114	0.94223	0.25171
2.736	83.094	-19008	2539	-0.29202	0.94145	0.25239
2.738	83.172	-19007	2539	-0.2929	0.94067	0.25308
2.74	83.221	-19005	2539.1	-0.29378	0.93989	0.25376
2.742	83.236	-19005	2539.2	-0.29329	0.93999	0.25396
2.744	83.222	-19006	2539.3	-0.2928	0.94008	0.25415
2.746	83.192	-19005	2539.5	-0.29231	0.94018	0.25435
2.748	83.157	-19005	2539.6	-0.29182	0.94028	0.25454
2.75	83.129	-19004	2539.7	-0.29134	0.94038	0.25474
2.752	83.112	-19003	2539.7	-0.29124	0.94125	0.25444
2.754	83.099	-18999	2539.8	-0.29114	0.94213	0.25415
2.756	83.089	-18996	2539.9	-0.29104	0.94301	0.25386
2.758	83.087	-18996	2540	-0.29095	0.94389	0.25356
2.76	83.094	-18996	2540.1	-0.29085	0.94477	0.25327
2.762	83.103	-19002	2540.1	-0.29046	0.94477	0.25356
2.764	83.11	-19008	2540.1	-0.29007	0.94477	0.25386
2.766	83.113	-19008	2540.1	-0.28968	0.94477	0.25415
2.768	83.118	-19008	2540.1	-0.28929	0.94477	0.25444
2.77	83.124	-19007	2540.1	-0.2889	0.94477	0.25474
2.772	83.125	-19007	2540.1	-0.28948	0.94438	0.25474
2.774	83.123	-19006	2540.1	-0.29007	0.94399	0.25474
2.776	83.124	-19006	2540.1	-0.29065	0.9436	0.25474
2.778	83.125	-19011	2540.1	-0.29124	0.94321	0.25474
2.78	83.128	-19016	2540	-0.29182	0.94282	0.25474
2.782	83.128	-19016	2540	-0.2926	0.94243	0.25571
2.784	83.127	-19016	2539.9	-0.29339	0.94204	0.25669
2.786	83.126	-19009	2539.9	-0.29417	0.94164	0.25766
2.788	83.135	-19003	2539.8	-0.29495	0.94125	0.25864
2.79	83.134	-19008	2539.7	-0.29573	0.94086	0.25962
2.792	83.132	-19013	2539.6	-0.29524	0.94106	0.25932
2.794	83.132	-19013	2539.5	-0.29475	0.94125	0.25903
2.796	83.129	-19013	2539.4	-0.29426	0.94145	0.25874
2.798	83.126	-19014	2539.3	-0.29378	0.94164	0.25844
2.8	83.124	-19014	2539.3	-0.29329	0.94184	0.25815
2.802	83.123	-19016	2539.2	-0.29085	0.94233	0.25757
2.804	83.123	-19017	2539.1	-0.28841	0.94282	0.25698
2.806	83.124	-19010	2539	-0.28597	0.9433	0.2564
2.808	83.125	-19004	2539	-0.28353	0.94379	0.25581
2.81	83.119	-19005	2538.9	-0.28109	0.94428	0.25522
2.812	83.113	-19007	2538.8	-0.2804	0.94282	0.25532
2.814	83.106	-19005	2538.7	-0.27972	0.94135	0.25542
2.816	83.105	-19003	2538.6	-0.27904	0.93989	0.25552
2.818	83.108	-19011	2538.6	-0.27836	0.93842	0.25561
2.82	83.11	-19018	2538.5	-0.27767	0.93696	0.25571
2.822	83.108	-19015	2538.4	-0.27806	0.93735	0.25542
2.824	83.104	-19011	2538.4	-0.27845	0.93774	0.25513
2.826	83.105	-19012	2538.4	-0.27884	0.93813	0.25483
2.828	83.104	-19013	2538.4	-0.27923	0.93852	0.25454
2.83	83.1	-19017	2538.4	-0.27962	0.93891	0.25425
2.832	83.099	-19022	2538.3	-0.2808	0.93823	0.25327
2.834	83.097	-19021	2538.3	-0.28197	0.93755	0.2523
2.836	83.093	-19019	2538.3	-0.28314	0.93686	0.25132
2.838	83.092	-19014	2538.2	-0.28431	0.93618	0.25034
2.84	83.093	-19009	2538.2	-0.28548	0.9355	0.24937
2.842	83.09	-19013	2538.2	-0.2848	0.93589	0.24937
2.844	83.085	-19017	2538.1	-0.28411	0.93628	0.24937
2.846	83.085	-19017	2538.1	-0.28343	0.93667	0.24937
2.848	83.084	-19018	2538.1	-0.28275	0.93706	0.24937
2.85	83.082	-19014	2538.1	-0.28206	0.93745	0.24937
2.852	83.075	-19011	2538	-0.28167	0.93725	0.24917
2.854	83.071	-19015	2538	-0.28128	0.93706	0.24898
2.856	83.068	-19020	2538	-0.28089	0.93686	0.24878
2.858	83.068	-19018	2538	-0.2805	0.93667	0.24859
2.86	83.07	-19017	2537.9	-0.28011	0.93647	0.24839
2.862	83.071	-19022	2537.9	-0.28128	0.93901	0.24722
2.864	83.064	-19028	2537.9	-0.28245	0.94155	0.24605
2.866	83.062	-19023	2537.8	-0.28363	0.94408	0.24488
2.868	83.058	-19018	2537.8	-0.2848	0.94662	0.24371
2.87	83.058	-19021	2537.7	-0.28597	0.94916	0.24254
2.872	83.056	-19024	2537.7	-0.28577	0.94867	0.24215
2.874	83.054	-19019	2537.7	-0.28558	0.94818	0.24176
2.876	83.049	-19013	2537.7	-0.28538	0.9477	0.24136
2.878	83.049	-19017	2537.7	-0.28519	0.94721	0.24097
2.88	83.046	-19020	2537.7	-0.28499	0.94672	0.24058
2.882	83.05	-19017	2537.8	-0.2847	0.9474	0.24029
2.884	83.047	-19013	2537.8	-0.28441	0.94809	0.24
2.886	83.04	-19011	2537.8	-0.28411	0.94877	0.23971
2.888	83.033	-19010	2537.8	-0.28382	0.94945	0.23941
2.89	83.026	-19017	2537.8	-0.28353	0.95014	0.23912
2.892	83.024	-19025	2537.8	-0.28363	0.95062	0.24
2.894	83.024	-19027	2537.9	-0.28372	0.95111	0.24088
2.896	83.023	-19029	2538	-0.28382	0.9516	0.24176
2.898	83.024	-19031	2538	-0.28392	0.95209	0.24263
2.9	83.02	-19033	2538	-0.28402	0.95258	0.24351
2.902	83.016	-19027	2538.1	-0.2845	0.9517	0.24273
2.904	83.016	-19021	2538.2	-0.28499	0.95082	0.24195
2.906	83.016	-19022	2538.3	-0.28548	0.94994	0.24117
2.908	83.013	-19023	2538.4	-0.28597	0.94906	0.24039
2.91	83.01	-19032	2538.5	-0.28646	0.94818	0.23961
2.912	83.011	-19041	2538.6	-0.28597	0.94828	0.23883
2.914	83.009	-19034	2538.7	-0.28548	0.94838	0.23805
2.916	83.008	-19026	2538.9	-0.28499	0.94848	0.23727
2.918	83.009	-19026	2539	-0.2845	0.94857	0.23648
2.92	83.009	-19026	2539.2	-0.28402	0.94867	0.2357
2.922	83.012	-19021	2539.3	-0.28411	0.94828	0.2359
2.924	83.017	-19017	2539.5	-0.28421	0.94789	0.23609
2.926	83.017	-19023	2539.6	-0.28431	0.9475	0.23629
2.928	83.018	-19030	2539.8	-0.28441	0.94711	0.23648
2.93	83.02	-19029	2539.9	-0.2845	0.94672	0.23668
2.932	83.02	-19028	2540.1	-0.28441	0.94633	0.23775
2.934	83.02	-19027	2540.3	-0.28431	0.94594	0.23883
2.936	83.017	-19026	2540.4	-0.28421	0.94555	0.2399
2.938	83.014	-19026	2540.6	-0.28411	0.94516	0.24097
2.94	83.012	-19025	2540.7	-0.28402	0.94477	0.24205
2.942	83.015	-19026	2540.9	-0.28431	0.94408	0.24254
2.944	83.02	-19027	2541.2	-0.2846	0.9434	0.24302
2.946	83.025	-19027	2541.4	-0.28489	0.94272	0.24351
2.948	83.021	-19028	2541.6	-0.28519	0.94204	0.244
2.95	83.019	-19025	2541.8	-0.28548	0.94135	0.24449
2.952	83.026	-19023	2541.9	-0.28528	0.94213	0.2438
2.954	83.032	-19028	2542.1	-0.28509	0.94291	0.24312
2.956	83.029	-19032	2542.3	-0.28489	0.94369	0.24244
2.958	83.035	-19025	2542.5	-0.2847	0.94448	0.24176
2.96	83.033	-19017	2542.7	-0.2845	0.94526	0.24107
2.962	83.035	-19019	2542.8	-0.28519	0.94477	0.24215
2.964	83.045	-19022	2543	-0.28587	0.94428	0.24322
2.966	83.045	-19023	2543.1	-0.28655	0.94379	0.24429
2.968	83.047	-19024	2543.3	-0.28724	0.9433	0.24537
2.97	83.051	-19018	2543.4	-0.28792	0.94282	0.24644
2.972	83.057	-19013	2543.6	-0.28821	0.94272	0.24693
2.974	83.064	-19014	2543.8	-0.28851	0.94262	0.24742
2.976	83.073	-19016	2543.9	-0.2888	0.94252	0.2479
2.978	83.077	-19012	2544	-0.28909	0.94243	0.24839
2.98	83.079	-19009	2544.1	-0.28938	0.94233	0.24888
2.982	83.086	-19007	2544.2	-0.29046	0.94116	0.2481
2.984	83.094	-19005	2544.4	-0.29153	0.93999	0.24732
2.986	83.096	-19009	2544.5	-0.2926	0.93881	0.24654
2.988	83.097	-19013	2544.6	-0.29368	0.93764	0.24576
2.99	83.098	-19008	2544.8	-0.29475	0.93647	0.24498
2.992	83.1	-19004	2544.9	-0.29475	0.93667	0.24595
2.994	83.106	-19009	2545	-0.29475	0.93686	0.24693
2.996	83.112	-19014	2545.1	-0.29475	0.93706	0.2479
2.998	83.114	-19008	2545.2	-0.29475	0.93725	0.24888
3	83.114	-19002	2545.3	-0.29475	0.93745	0.24986
3.002	83.116	-19009	2545.4	-0.29456	0.93823	0.24995
3.004	83.117	-19015	2545.5	-0.29436	0.93901	0.25005
3.006	83.117	-19011	2545.6	-0.29417	0.93979	0.25015
3.008	83.12	-19008	2545.7	-0.29397	0.94057	0.25025
3.01	83.123	-19011	2545.8	-0.29378	0.94135	0.25034
3.012	83.124	-19013	2545.9	-0.293	0.94184	0.24995
3.014	83.129	-19011	2546	-0.29221	0.94233	0.24956
3.016	83.135	-19008	2546.1	-0.29143	0.94282	0.24917
3.018	83.137	-19002	2546.3	-0.29065	0.9433	0.24878
3.02	83.137	-18995	2546.4	-0.28987	0.94379	0.24839
3.022	83.138	-18999	2546.4	-0.28958	0.94438	0.24859
3.024	83.136	-19004	2546.4	-0.28929	0.94496	0.24878
3.026	83.134	-19002	2546.4	-0.28899	0.94555	0.24898
3.028	83.137	-19001	2546.4	-0.2887	0.94613	0.24917
3.03	83.136	-18995	2546.4	-0.28841	0.94672	0.24937
3.032	83.135	-18990	2546.4	-0.2886	0.94565	0.25073
3.034	83.134	-18998	2546.4	-0.2888	0.94457	0.2521
3.036	83.132	-19006	2546.4	-0.28899	0.9435	0.25347
3.038	83.131	-19002	2546.3	-0.28919	0.94243	0.25483
3.04	83.135	-18999	2546.3	-0.28938	0.94135	0.2562
3.042	83.138	-18996	2546.3	-0.28821	0.94135	0.25669
3.044	83.137	-18994	2546.2	-0.28704	0.94135	0.25718
3.046	83.144	-18995	2546.1	-0.28587	0.94135	0.25766
3.048	83.146	-18996	2546	-0.2847	0.94135	0.25815
3.05	83.145	-18995	2545.9	-0.28353	0.94135	0.25864
3.052	83.142	-18993	2545.8	-0.28411	0.94204	0.25737
3.054	83.137	-18996	2545.7	-0.2847	0.94272	0.2561
3.056	83.137	-18999	2545.6	-0.28528	0.9434	0.25483
3.058	83.137	-18996	2545.6	-0.28587	0.94408	0.25356
3.06	83.137	-18992	2545.5	-0.28646	0.94477	0.2523
3.062	83.137	-18993	2545.4	-0.28616	0.94467	0.25288
3.064	83.141	-18994	2545.4	-0.28587	0.94457	0.25347
3.066	83.14	-18993	2545.3	-0.28558	0.94448	0.25405
3.068	83.135	-18991	2545.2	-0.28528	0.94438	0.25464
3.07	83.135	-18992	2545.1	-0.28499	0.94428	0.25522
3.072	83.137	-18993	2545	-0.28441	0.94438	0.25532
3.074	83.137	-18994	2544.8	-0.28382	0.94448	0.25542
3.076	83.134	-18995	2544.7	-0.28324	0.94457	0.25552
3.078	83.132	-18997	2544.6	-0.28265	0.94467	0.25561
3.08	83.128	-18998	2544.5	-0.28206	0.94477	0.25571
3.082	83.127	-18996	2544.4	-0.28343	0.94457	0.2563
3.084	83.126	-18994	2544.2	-0.2848	0.94438	0.25688
3.086	83.125	-19000	2544.1	-0.28616	0.94418	0.25747
3.088	83.124	-19006	2544	-0.28753	0.94399	0.25805
3.09	83.125	-18999	2543.9	-0.2889	0.94379	0.25864
3.092	83.124	-18992	2543.8	-0.2886	0.9436	0.25884
3.094	83.124	-18995	2543.8	-0.28831	0.9434	0.25903
3.096	83.123	-18997	2543.7	-0.28802	0.94321	0.25923
3.098	83.122	-19001	2543.7	-0.28772	0.94301	0.25942
3.1	83.123	-19006	2543.6	-0.28743	0.94282	0.25962
3.102	83.124	-19000	2543.6	-0.28763	0.94213	0.25971
3.104	83.125	-18995	2543.5	-0.28782	0.94145	0.25981
3.106	83.127	-18995	2543.4	-0.28802	0.94077	0.25991
3.108	83.124	-18995	2543.4	-0.28821	0.94008	0.26001
3.11	83.118	-18994	2543.3	-0.28841	0.9394	0.2601
3.112	83.12	-18993	2543.2	-0.28831	0.9395	0.26001
3.114	83.122	-18994	2543.1	-0.28821	0.9396	0.25991
3.116	83.12	-18996	2542.9	-0.28812	0.93969	0.25981
3.118	83.117	-18997	2542.8	-0.28802	0.93979	0.25971
3.12	83.116	-18999	2542.7	-0.28792	0.93989	0.25962
3.122	83.116	-18996	2542.6	-0.28753	0.94077	0.25952
3.124	83.115	-18994	2542.4	-0.28714	0.94164	0.25942
3.126	83.116	-18997	2542.3	-0.28675	0.94252	0.25932
3.128	83.114	-19000	2542.2	-0.28636	0.9434	0.25923
3.13	83.113	-19003	2542.2	-0.28597	0.94428	0.25913
3.132	83.111	-19007	2542	-0.2847	0.94252	0.25815
3.134	83.112	-19006	2541.9	-0.28343	0.94077	0.25718
3.136	83.108	-19005	2541.8	-0.28216	0.93901	0.2562
3.138	83.104	-19004	2541.8	-0.28089	0.93725	0.25522
3.14	83.112	-19004	2541.7	-0.27962	0.9355	0.25425
3.142	83.112	-19003	2541.6	-0.27972	0.93598	0.25396
3.144	83.119	-19003	2541.5	-0.27982	0.93647	0.25366
3.146	83.129	-19002	2541.4	-0.27992	0.93696	0.25337
3.148	83.132	-19002	2541.3	-0.28001	0.93745	0.25308
3.15	83.126	-19004	2541.2	-0.28011	0.93794	0.25278
3.152	83.12	-19005	2541.1	-0.28031	0.93745	0.2522
3.154	83.113	-19006	2541	-0.2805	0.93696	0.25161
3.156	83.108	-19007	2540.9	-0.2807	0.93647	0.25103
3.158	83.108	-19001	2540.8	-0.28089	0.93598	0.25044
3.16	83.112	-18995	2540.7	-0.28109	0.9355	0.24986
3.162	83.118	-18998	2540.5	-0.28109	0.93637	0.25015
3.164	83.12	-19001	2540.4	-0.28109	0.93725	0.25044
3.166	83.119	-19004	2540.2	-0.28109	0.93813	0.25073
3.168	83.114	-19007	2540.1	-0.28109	0.93901	0.25103
3.17	83.108	-19005	2540	-0.28109	0.93989	0.25132
3.172	83.104	-19003	2539.9	-0.2807	0.93881	0.25054
3.174	83.103	-19003	2539.8	-0.28031	0.93774	0.24976
3.176	83.1	-19002	2539.8	-0.27992	0.93667	0.24898
3.178	83.097	-19002	2539.7	-0.27953	0.93559	0.2482
3.18	83.098	-19003	2539.7	-0.27914	0.93452	0.24742
3.182	83.102	-19008	2539.6	-0.28148	0.93511	0.24742
3.184	83.104	-19013	2539.6	-0.28382	0.93569	0.24742
3.186	83.105	-19013	2539.6	-0.28616	0.93628	0.24742
3.188	83.103	-19013	2539.5	-0.28851	0.93686	0.24742
3.19	83.094	-19008	2539.4	-0.29085	0.93745	0.24742
3.192	83.085	-19003	2539.4	-0.29114	0.93667	0.24693
3.194	83.076	-19003	2539.3	-0.29143	0.93589	0.24644
3.196	83.064	-19003	2539.3	-0.29173	0.93511	0.24595
3.198	83.056	-19008	2539.4	-0.29202	0.93432	0.24546
3.2	83.055	-19014	2539.4	-0.29231	0.93354	0.24498
3.202	83.06	-19014	2539.4	-0.29114	0.93481	0.24585
3.204	83.073	-19015	2539.4	-0.28997	0.93608	0.24673
3.206	83.081	-19012	2539.4	-0.2888	0.93735	0.24761
3.208	83.081	-19009	2539.4	-0.28763	0.93862	0.24849
3.21	83.079	-19007	2539.5	-0.28646	0.93989	0.24937
3.212	83.076	-19006	2539.5	-0.28577	0.93999	0.24976
3.214	83.066	-19015	2539.5	-0.28509	0.94008	0.25015
3.216	83.063	-19024	2539.5	-0.28441	0.94018	0.25054
3.218	83.061	-19019	2539.5	-0.28372	0.94028	0.25093
3.22	83.057	-19014	2539.4	-0.28304	0.94038	0.25132
3.222	83.065	-19016	2539.4	-0.28324	0.93979	0.25161
3.224	83.068	-19018	2539.4	-0.28343	0.9392	0.25191
3.226	83.068	-19016	2539.4	-0.28363	0.93862	0.2522
3.228	83.068	-19014	2539.4	-0.28382	0.93803	0.25249
3.23	83.074	-19017	2539.4	-0.28402	0.93745	0.25278
3.232	83.075	-19020	2539.3	-0.28363	0.93794	0.25337
3.234	83.086	-19010	2539.2	-0.28324	0.93842	0.25396
3.236	83.104	-19000	2539.2	-0.28284	0.93891	0.25454
3.238	83.12	-19009	2539.1	-0.28245	0.9394	0.25513
3.24	83.132	-19018	2539.1	-0.28206	0.93989	0.25571
3.242	83.143	-19017	2539	-0.28187	0.9396	0.25503
3.244	83.152	-19017	2538.9	-0.28167	0.9393	0.25435
3.246	83.156	-19011	2538.9	-0.28148	0.93901	0.25366
3.248	83.158	-19006	2538.7	-0.28128	0.93872	0.25298
3.25	83.159	-19007	2538.6	-0.28109	0.93842	0.2523
3.252	83.158	-19008	2538.6	-0.28128	0.93852	0.2521
3.254	83.156	-19015	2538.5	-0.28148	0.93862	0.25191
3.256	83.155	-19022	2538.4	-0.28167	0.93872	0.25171
3.258	83.157	-19019	2538.3	-0.28187	0.93881	0.25152
3.26	83.157	-19015	2538.2	-0.28206	0.93891	0.25132
3.262	83.154	-19014	2538.1	-0.28372	0.93774	0.25064
3.264	83.148	-19012	2538	-0.28538	0.93657	0.24995
3.266	83.145	-19015	2538	-0.28704	0.9354	0.24927
3.268	83.144	-19018	2537.9	-0.2887	0.93423	0.24859
3.27	83.145	-19015	2537.8	-0.29036	0.93306	0.2479
3.272	83.146	-19011	2537.7	-0.29163	0.93345	0.24751
3.274	83.143	-19024	2537.6	-0.2929	0.93384	0.24712
3.276	83.142	-19037	2537.5	-0.29417	0.93423	0.24673
3.278	83.143	-19039	2537.4	-0.29544	0.93462	0.24634
3.28	83.145	-19041	2537.4	-0.2967	0.93501	0.24595
3.282	83.153	-19041	2537.3	-0.29709	0.93589	0.24673
3.284	83.154	-19040	2537.2	-0.29748	0.93676	0.24751
3.286	83.15	-19041	2537.1	-0.29788	0.93764	0.24829
3.288	83.148	-19042	2537	-0.29827	0.93852	0.24908
3.29	83.15	-19039	2536.9	-0.29866	0.9394	0.24986
3.292	83.154	-19035	2536.9	-0.29729	0.93872	0.24849
3.294	83.15	-19034	2536.8	-0.29592	0.93803	0.24712
3.296	83.151	-19033	2536.7	-0.29456	0.93735	0.24576
3.298	83.158	-19030	2536.7	-0.29319	0.93667	0.24439
3.3	83.172	-19027	2536.6	-0.29182	0.93598	0.24302
3.302	83.195	-19025	2536.5	-0.29241	0.93511	0.24341
3.304	83.218	-19022	2536.5	-0.293	0.93423	0.2438
3.306	83.244	-19025	2536.4	-0.29358	0.93335	0.2442
3.308	83.274	-19028	2536.4	-0.29417	0.93247	0.24459
3.31	83.292	-19029	2536.3	-0.29475	0.93159	0.24498
3.312	83.283	-19031	2536.2	-0.29475	0.93179	0.24507
3.314	83.26	-19029	2536.1	-0.29475	0.93198	0.24517
3.316	83.22	-19027	2536	-0.29475	0.93218	0.24527
3.318	83.167	-19028	2536	-0.29475	0.93237	0.24537
3.32	83.099	-19028	2536	-0.29475	0.93257	0.24546
3.322	83.019	-19030	2535.9	-0.29309	0.93432	0.24624
3.324	82.929	-19032	2535.8	-0.29143	0.93608	0.24703
3.326	82.827	-19036	2535.8	-0.28977	0.93784	0.24781
3.328	82.712	-19041	2535.7	-0.28812	0.9396	0.24859
3.33	82.575	-19037	2535.5	-0.28646	0.94135	0.24937
3.332	82.433	-19032	2535.4	-0.28538	0.94077	0.25015
3.334	82.294	-19032	2535.3	-0.28431	0.94018	0.25093
3.336	82.159	-19032	2535.2	-0.28324	0.9396	0.25171
3.338	82.043	-19034	2535.1	-0.28216	0.93901	0.25249
3.34	81.965	-19035	2535	-0.28109	0.93842	0.25327
3.342	81.943	-19033	2534.9	-0.28089	0.93803	0.25278
3.344	82.006	-19032	2534.8	-0.2807	0.93764	0.2523
3.346	82.142	-19032	2534.7	-0.2805	0.93725	0.25181
3.348	82.315	-19031	2534.6	-0.28031	0.93686	0.25132
3.35	82.496	-19028	2534.5	-0.28011	0.93647	0.25083
3.352	82.649	-19025	2534.3	-0.27943	0.93657	0.25122
3.354	82.787	-19028	2534.2	-0.27875	0.93667	0.25161
3.356	82.934	-19032	2534.1	-0.27806	0.93676	0.252
3.358	83.056	-19038	2534.1	-0.27738	0.93686	0.25239
3.36	83.137	-19044	2534	-0.2767	0.93696	0.25278
3.362	83.187	-19040	2534	-0.27562	0.93862	0.25259
3.364	83.212	-19036	2533.9	-0.27455	0.94028	0.25239
3.366	83.202	-19040	2533.9	-0.27348	0.94194	0.2522
3.368	83.182	-19044	2533.8	-0.2724	0.9436	0.252
3.37	83.155	-19038	2533.8	-0.27133	0.94526	0.25181
3.372	83.12	-19032	2533.8	-0.27221	0.9435	0.25181
3.374	83.103	-19037	2533.8	-0.27308	0.94174	0.25181
3.376	83.092	-19042	2533.8	-0.27396	0.93999	0.25181
3.378	83.08	-19046	2533.8	-0.27484	0.93823	0.25181
3.38	83.073	-19050	2533.9	-0.27572	0.93647	0.25181
3.382	83.074	-19042	2533.9	-0.27621	0.93706	0.2521
3.384	83.083	-19034	2533.9	-0.2767	0.93764	0.25239
3.386	83.092	-19032	2533.9	-0.27718	0.93823	0.25269
3.388	83.099	-19029	2533.9	-0.27767	0.93881	0.25298
3.39	83.103	-19030	2533.9	-0.27816	0.9394	0.25327
3.392	83.104	-19031	2533.9	-0.27787	0.93989	0.25396
3.394	83.107	-19036	2533.9	-0.27757	0.94038	0.25464
3.396	83.115	-19041	2533.9	-0.27728	0.94086	0.25532
3.398	83.116	-19042	2533.9	-0.27699	0.94135	0.256
3.4	83.114	-19043	2534	-0.2767	0.94184	0.25669
3.402	83.115	-19040	2534	-0.27699	0.94096	0.25669
3.404	83.116	-19037	2534	-0.27728	0.94008	0.25669
3.406	83.116	-19038	2534	-0.27757	0.9392	0.25669
3.408	83.122	-19039	2534	-0.27787	0.93833	0.25669
3.41	83.12	-19041	2533.9	-0.27816	0.93745	0.25669
3.412	83.116	-19042	2533.9	-0.27875	0.93823	0.25718
3.414	83.113	-19043	2533.9	-0.27933	0.93901	0.25766
3.416	83.111	-19044	2533.9	-0.27992	0.93979	0.25815
3.418	83.114	-19046	2533.9	-0.2805	0.94057	0.25864
3.42	83.117	-19048	2533.8	-0.28109	0.94135	0.25913
3.422	83.115	-19050	2533.8	-0.28031	0.94116	0.25835
3.424	83.113	-19053	2533.9	-0.27953	0.94096	0.25757
3.426	83.113	-19047	2533.8	-0.27875	0.94077	0.25679
3.428	83.112	-19041	2533.8	-0.27796	0.94057	0.256
3.43	83.11	-19040	2533.7	-0.27718	0.94038	0.25522
3.432	83.107	-19038	2533.7	-0.27709	0.93999	0.25522
3.434	83.106	-19037	2533.7	-0.27699	0.9396	0.25522
3.436	83.104	-19036	2533.6	-0.27689	0.9392	0.25522
3.438	83.102	-19040	2533.6	-0.27679	0.93881	0.25522
3.44	83.1	-19043	2533.5	-0.2767	0.93842	0.25522
3.442	83.098	-19046	2533.5	-0.27855	0.93979	0.25386
3.444	83.095	-19049	2533.4	-0.2804	0.94116	0.25249
3.446	83.091	-19048	2533.4	-0.28226	0.94252	0.25112
3.448	83.09	-19048	2533.3	-0.28411	0.94389	0.24976
3.45	83.089	-19051	2533.3	-0.28597	0.94526	0.24839
3.452	83.088	-19054	2533.3	-0.2848	0.94457	0.24722
3.454	83.085	-19053	2533.3	-0.28363	0.94389	0.24605
3.456	83.083	-19053	2533.2	-0.28245	0.94321	0.24488
3.458	83.078	-19054	2533.2	-0.28128	0.94252	0.24371
3.46	83.074	-19055	2533.2	-0.28011	0.94184	0.24254
3.462	83.073	-19060	2533.2	-0.27933	0.94194	0.24176
3.464	83.08	-19066	2533.2	-0.27855	0.94204	0.24097
3.466	83.079	-19062	2533.2	-0.27777	0.94213	0.24019
3.468	83.073	-19057	2533.2	-0.27699	0.94223	0.23941
3.47	83.068	-19053	2533.2	-0.27621	0.94233	0.23863
3.472	83.067	-19049	2533.2	-0.27572	0.94223	0.23892
3.474	83.067	-19053	2533.2	-0.27523	0.94213	0.23922
3.476	83.066	-19057	2533.2	-0.27474	0.94204	0.23951
3.478	83.063	-19060	2533.1	-0.27426	0.94194	0.2398
3.48	83.064	-19062	2533.1	-0.27377	0.94184	0.2401
3.482	83.063	-19056	2533.1	-0.27494	0.94116	0.24049
3.484	83.055	-19049	2533.1	-0.27611	0.94047	0.24088
3.486	83.048	-19051	2533.1	-0.27728	0.93979	0.24127
3.488	83.045	-19053	2533.2	-0.27845	0.93911	0.24166
3.49	83.041	-19060	2533.2	-0.27962	0.93842	0.24205
3.492	83.039	-19066	2533.2	-0.27894	0.93979	0.24058
3.494	83.038	-19067	2533.2	-0.27826	0.94116	0.23912
3.496	83.035	-19068	2533.2	-0.27757	0.94252	0.23766
3.498	83.032	-19061	2533.3	-0.27689	0.94389	0.23619
3.5	83.03	-19053	2533.3	-0.27621	0.94526	0.23473
3.502	83.027	-19050	2533.3	-0.27582	0.94457	0.23561
3.504	83.021	-19046	2533.3	-0.27543	0.94389	0.23648
3.506	83.018	-19049	2533.4	-0.27504	0.94321	0.23736
3.508	83.02	-19051	2533.4	-0.27465	0.94252	0.23824
3.51	83.02	-19051	2533.5	-0.27426	0.94184	0.23912
3.512	83.017	-19052	2533.6	-0.27523	0.94272	0.23805
3.514	83.016	-19056	2533.8	-0.27621	0.9436	0.23697
3.516	83.013	-19060	2533.9	-0.27718	0.94448	0.2359
3.518	83.007	-19060	2534	-0.27816	0.94535	0.23483
3.52	83.005	-19060	2534.1	-0.27914	0.94623	0.23375
3.522	83.005	-19060	2534.3	-0.28089	0.94604	0.23365
3.524	83.003	-19059	2534.5	-0.28265	0.94584	0.23356
3.526	82.999	-19058	2534.7	-0.28441	0.94565	0.23346
3.528	82.998	-19057	2534.9	-0.28616	0.94545	0.23336
3.53	82.996	-19059	2535	-0.28792	0.94526	0.23326
3.532	82.997	-19061	2535.3	-0.28733	0.94535	0.23336
3.534	82.997	-19063	2535.5	-0.28675	0.94545	0.23346
3.536	82.994	-19066	2535.7	-0.28616	0.94555	0.23356
3.538	82.993	-19061	2536	-0.28558	0.94565	0.23365
3.54	82.993	-19056	2536.3	-0.28499	0.94574	0.23375
3.542	82.994	-19055	2536.5	-0.28519	0.94594	0.23385
3.544	82.997	-19054	2536.7	-0.28538	0.94613	0.23395
3.546	83.001	-19055	2537	-0.28558	0.94633	0.23404
3.548	83.001	-19056	2537.2	-0.28577	0.94652	0.23414
3.55	82.998	-19058	2537.4	-0.28597	0.94672	0.23424
3.552	82.995	-19060	2537.6	-0.28558	0.94594	0.23629
3.554	82.995	-19059	2537.8	-0.28519	0.94516	0.23834
3.556	82.997	-19059	2538	-0.2848	0.94438	0.24039
3.558	82.997	-19058	2538.3	-0.28441	0.9436	0.24244
3.56	82.998	-19056	2538.6	-0.28402	0.94282	0.24449
3.562	83.002	-19056	2538.8	-0.28353	0.94184	0.24361
3.564	83.005	-19055	2539	-0.28304	0.94086	0.24273
3.566	83.007	-19051	2539.3	-0.28255	0.93989	0.24185
3.568	83.004	-19046	2539.5	-0.28206	0.93891	0.24097
3.57	83.006	-19048	2539.7	-0.28158	0.93794	0.2401
3.572	83.009	-19050	2539.9	-0.28158	0.93803	0.24068
3.574	83.011	-19052	2540.1	-0.28158	0.93813	0.24127
3.576	83.012	-19054	2540.2	-0.28158	0.93823	0.24185
3.578	83.013	-19051	2540.4	-0.28158	0.93833	0.24244
3.58	83.011	-19048	2540.6	-0.28158	0.93842	0.24302
3.582	83.016	-19048	2540.8	-0.28333	0.93881	0.2442
3.584	83.023	-19048	2541	-0.28509	0.9392	0.24537
3.586	83.03	-19048	2541.2	-0.28685	0.9396	0.24654
3.588	83.037	-19048	2541.5	-0.2886	0.93999	0.24771
3.59	83.04	-19048	2541.7	-0.29036	0.94038	0.24888
3.592	83.043	-19048	2541.9	-0.28938	0.94047	0.24908
3.594	83.049	-19047	2542.1	-0.28841	0.94057	0.24927
3.596	83.054	-19045	2542.3	-0.28743	0.94067	0.24947
3.598	83.06	-19044	2542.5	-0.28646	0.94077	0.24966
3.6	83.063	-19043	2542.6	-0.28548	0.94086	0.24986
3.602	83.062	-19046	2542.8	-0.28646	0.94125	0.24956
3.604	83.066	-19049	2543	-0.28743	0.94164	0.24927
3.606	83.076	-19049	2543.2	-0.28841	0.94204	0.24898
3.608	83.082	-19048	2543.4	-0.28938	0.94243	0.24868
3.61	83.084	-19044	2543.7	-0.29036	0.94282	0.24839
3.612	83.087	-19041	2544	-0.28929	0.9434	0.24859
3.614	83.092	-19040	2544.2	-0.28821	0.94399	0.24878
3.616	83.095	-19038	2544.5	-0.28714	0.94457	0.24898
3.618	83.095	-19036	2544.6	-0.28607	0.94516	0.24917
3.62	83.099	-19034	2544.8	-0.28499	0.94574	0.24937
3.622	83.101	-19033	2544.9	-0.28519	0.94613	0.24956
3.624	83.105	-19033	2545	-0.28538	0.94652	0.24976
3.626	83.105	-19032	2545.1	-0.28558	0.94692	0.24995
3.628	83.107	-19031	2545.2	-0.28577	0.94731	0.25015
3.63	83.113	-19032	2545.4	-0.28597	0.9477	0.25034
3.632	83.117	-19034	2545.6	-0.28646	0.94799	0.25054
3.634	83.117	-19035	2545.8	-0.28694	0.94828	0.25073
3.636	83.115	-19036	2546	-0.28743	0.94857	0.25093
3.638	83.116	-19036	2546.1	-0.28792	0.94887	0.25112
3.64	83.114	-19035	2546.3	-0.28841	0.94916	0.25132
3.642	83.119	-19034	2546.4	-0.2887	0.94848	0.25073
3.644	83.121	-19034	2546.6	-0.28899	0.94779	0.25015
3.646	83.122	-19030	2546.6	-0.28929	0.94711	0.24956
3.648	83.123	-19027	2546.7	-0.28958	0.94643	0.24898
3.65	83.123	-19033	2546.7	-0.28987	0.94574	0.24839
3.652	83.123	-19039	2546.8	-0.28958	0.94633	0.24898
3.654	83.122	-19036	2546.9	-0.28929	0.94692	0.24956
3.656	83.122	-19032	2546.9	-0.28899	0.9475	0.25015
3.658	83.118	-19027	2546.9	-0.2887	0.94809	0.25073
3.66	83.121	-19021	2546.9	-0.28841	0.94867	0.25132
3.662	83.125	-19024	2547	-0.28841	0.94877	0.25103
3.664	83.127	-19028	2547.1	-0.28841	0.94887	0.25073
3.666	83.126	-19028	2547.1	-0.28841	0.94896	0.25044
3.668	83.126	-19029	2547	-0.28841	0.94906	0.25015
3.67	83.124	-19029	2547	-0.28841	0.94916	0.24986
3.672	83.129	-19029	2547	-0.28841	0.94955	0.25025
3.674	83.132	-19028	2547	-0.28841	0.94994	0.25064
3.676	83.131	-19027	2547	-0.28841	0.95033	0.25103
3.678	83.129	-19019	2547	-0.28841	0.95072	0.25142
3.68	83.124	-19011	2546.9	-0.28841	0.95111	0.25181
3.682	83.122	-19016	2546.9	-0.28812	0.9514	0.25239
3.684	83.125	-19021	2546.8	-0.28782	0.9517	0.25298
3.686	83.125	-19024	2546.7	-0.28753	0.95199	0.25356
3.688	83.123	-19027	2546.6	-0.28724	0.95228	0.25415
3.69	83.124	-19025	2546.5	-0.28694	0.95258	0.25474
3.692	83.124	-19022	2546.4	-0.28733	0.9518	0.25376
3.694	83.123	-19024	2546.4	-0.28772	0.95101	0.25278
3.696	83.122	-19025	2546.3	-0.28812	0.95023	0.25181
3.698	83.119	-19025	2546.3	-0.28851	0.94945	0.25083
3.7	83.116	-19024	2546.3	-0.2889	0.94867	0.24986
3.702	83.113	-19018	2546.2	-0.28831	0.94809	0.24995
3.704	83.118	-19012	2546.1	-0.28772	0.9475	0.25005
3.706	83.119	-19017	2546	-0.28714	0.94692	0.25015
3.708	83.114	-19021	2545.9	-0.28655	0.94633	0.25025
3.71	83.117	-19021	2545.8	-0.28597	0.94574	0.25034
3.712	83.121	-19021	2545.8	-0.28763	0.94526	0.24995
3.714	83.117	-19020	2545.7	-0.28929	0.94477	0.24956
3.716	83.117	-19020	2545.7	-0.29095	0.94428	0.24917
3.718	83.114	-19025	2545.6	-0.2926	0.94379	0.24878
3.72	83.114	-19031	2545.6	-0.29426	0.9433	0.24839
3.722	83.116	-19028	2545.5	-0.2927	0.9436	0.24888
3.724	83.114	-19026	2545.5	-0.29114	0.94389	0.24937
3.726	83.107	-19025	2545.4	-0.28958	0.94418	0.24986
3.728	83.108	-19024	2545.4	-0.28802	0.94448	0.25034
3.73	83.107	-19023	2545.4	-0.28646	0.94477	0.25083
3.732	83.102	-19022	2545.3	-0.28685	0.94487	0.24986
3.734	83.104	-19026	2545.2	-0.28724	0.94496	0.24888
3.736	83.111	-19030	2545.2	-0.28763	0.94506	0.2479
3.738	83.104	-19025	2545.1	-0.28802	0.94516	0.24693
3.74	83.105	-19021	2545	-0.28841	0.94526	0.24595
3.742	83.107	-19023	2544.9	-0.28899	0.9436	0.24615
3.744	83.11	-19025	2544.8	-0.28958	0.94194	0.24634
3.746	83.11	-19027	2544.7	-0.29016	0.94028	0.24654
3.748	83.111	-19029	2544.6	-0.29075	0.93862	0.24673
3.75	83.109	-19022	2544.6	-0.29134	0.93696	0.24693
3.752	83.107	-19016	2544.5	-0.29124	0.93716	0.24664
3.754	83.103	-19019	2544.5	-0.29114	0.93735	0.24634
3.756	83.1	-19022	2544.4	-0.29104	0.93755	0.24605
3.758	83.102	-19022	2544.4	-0.29095	0.93774	0.24576
3.76	83.105	-19022	2544.3	-0.29085	0.93794	0.24546
3.762	83.108	-19026	2544.3	-0.29114	0.93803	0.24537
3.764	83.11	-19029	2544.3	-0.29143	0.93813	0.24527
3.766	83.111	-19026	2544.2	-0.29173	0.93823	0.24517
3.768	83.11	-19022	2544.1	-0.29202	0.93833	0.24507
3.77	83.107	-19024	2544.1	-0.29231	0.93842	0.24498
3.772	83.101	-19025	2544	-0.29036	0.93881	0.2442
3.774	83.095	-19023	2544	-0.28841	0.9392	0.24341
3.776	83.095	-19021	2544	-0.28646	0.9396	0.24263
3.778	83.098	-19024	2543.9	-0.2845	0.93999	0.24185
3.78	83.099	-19027	2543.9	-0.28255	0.94038	0.24107
3.782	83.097	-19025	2543.8	-0.28265	0.94106	0.24097
3.784	83.094	-19023	2543.8	-0.28275	0.94174	0.24088
3.786	83.094	-19026	2543.7	-0.28284	0.94243	0.24078
3.788	83.096	-19029	2543.7	-0.28294	0.94311	0.24068
3.79	83.097	-19028	2543.6	-0.28304	0.94379	0.24058
3.792	83.093	-19028	2543.6	-0.28333	0.94408	0.24088
3.794	83.081	-19027	2543.6	-0.28363	0.94438	0.24117
3.796	83.078	-19027	2543.5	-0.28392	0.94467	0.24146
3.798	83.082	-19033	2543.5	-0.28421	0.94496	0.24176
3.8	83.085	-19039	2543.5	-0.2845	0.94526	0.24205
3.802	83.089	-19037	2543.5	-0.28353	0.94418	0.24185
3.804	83.088	-19035	2543.4	-0.28255	0.94311	0.24166
3.806	83.085	-19038	2543.4	-0.28158	0.94204	0.24146
3.808	83.07	-19040	2543.4	-0.2806	0.94096	0.24127
3.81	83.051	-19039	2543.4	-0.27962	0.93989	0.24107
3.812	83.036	-19038	2543.4	-0.28031	0.94077	0.24078
3.814	83.035	-19040	2543.4	-0.28099	0.94164	0.24049
3.816	83.043	-19041	2543.4	-0.28167	0.94252	0.24019
3.818	83.045	-19035	2543.3	-0.28236	0.9434	0.2399
3.82	83.052	-19030	2543.3	-0.28304	0.94428	0.23961
3.822	83.064	-19032	2543.4	-0.28333	0.94496	0.23912
3.824	83.069	-19035	2543.4	-0.28363	0.94565	0.23863
3.826	83.07	-19037	2543.4	-0.28392	0.94633	0.23814
3.828	83.068	-19039	2543.4	-0.28421	0.94701	0.23766
3.83	83.067	-19037	2543.4	-0.2845	0.9477	0.23717
3.832	83.06	-19035	2543.4	-0.28382	0.94672	0.23756
3.834	83.054	-19029	2543.4	-0.28314	0.94574	0.23795
3.836	83.05	-19023	2543.5	-0.28245	0.94477	0.23834
3.838	83.041	-19027	2543.5	-0.28177	0.94379	0.23873
3.84	83.044	-19032	2543.5	-0.28109	0.94282	0.23912
3.842	83.05	-19030	2543.5	-0.28119	0.94243	0.2398
3.844	83.055	-19029	2543.5	-0.28128	0.94204	0.24049
3.846	83.061	-19030	2543.5	-0.28138	0.94164	0.24117
3.848	83.066	-19030	2543.5	-0.28148	0.94125	0.24185
3.85	83.068	-19030	2543.5	-0.28158	0.94086	0.24254
3.852	83.075	-19030	2543.5	-0.28109	0.94096	0.24215
3.854	83.091	-19026	2543.5	-0.2806	0.94106	0.24176
3.856	83.109	-19022	2543.5	-0.28011	0.94116	0.24136
3.858	83.122	-19033	2543.6	-0.27962	0.94125	0.24097
3.86	83.129	-19045	2543.6	-0.27914	0.94135	0.24058
3.862	83.137	-19051	2543.6	-0.27982	0.94262	0.2399
3.864	83.144	-19057	2543.6	-0.2805	0.94389	0.23922
3.866	83.147	-19055	2543.6	-0.28119	0.94516	0.23853
3.868	83.145	-19054	2543.6	-0.28187	0.94643	0.23785
3.87	83.137	-19052	2543.6	-0.28255	0.9477	0.23717
3.872	83.134	-19051	2543.6	-0.28236	0.94779	0.23727
3.874	83.135	-19053	2543.5	-0.28216	0.94789	0.23736
3.876	83.133	-19055	2543.5	-0.28197	0.94799	0.23746
3.878	83.13	-19047	2543.5	-0.28177	0.94809	0.23756
3.88	83.129	-19038	2543.6	-0.28158	0.94818	0.23766
3.882	83.133	-19045	2543.5	-0.28216	0.94887	0.23805
3.884	83.134	-19053	2543.5	-0.28275	0.94955	0.23844
3.886	83.133	-19053	2543.5	-0.28333	0.95023	0.23883
3.888	83.133	-19052	2543.5	-0.28392	0.95092	0.23922
3.89	83.128	-19044	2543.5	-0.2845	0.9516	0.23961
3.892	83.127	-19035	2543.5	-0.28607	0.94994	0.24058
3.894	83.133	-19044	2543.4	-0.28763	0.94828	0.24156
3.896	83.138	-19053	2543.4	-0.28919	0.94662	0.24254
3.898	83.136	-19046	2543.3	-0.29075	0.94496	0.24351
3.9	83.129	-19039	2543.3	-0.29231	0.9433	0.24449
3.902	83.127	-19036	2543.2	-0.29309	0.94223	0.24507
3.904	83.129	-19033	2543.2	-0.29387	0.94116	0.24566
3.906	83.13	-19034	2543.1	-0.29465	0.94008	0.24624
3.908	83.138	-19035	2543.1	-0.29544	0.93901	0.24683
3.91	83.142	-19037	2543	-0.29622	0.93794	0.24742
3.912	83.142	-19040	2542.9	-0.29475	0.93901	0.2479
3.914	83.141	-19042	2542.9	-0.29329	0.94008	0.24839
3.916	83.144	-19044	2542.8	-0.29182	0.94116	0.24888
3.918	83.157	-19040	2542.8	-0.29036	0.94223	0.24937
3.92	83.178	-19037	2542.7	-0.2889	0.9433	0.24986
3.922	83.203	-19040	2542.7	-0.28919	0.94223	0.24995
3.924	83.236	-19042	2542.6	-0.28948	0.94116	0.25005
3.926	83.269	-19042	2542.5	-0.28977	0.94008	0.25015
3.928	83.281	-19043	2542.5	-0.29007	0.93901	0.25025
3.93	83.27	-19043	2542.4	-0.29036	0.93794	0.25034
3.932	83.24	-19044	2542.4	-0.29056	0.93725	0.24966
3.934	83.196	-19046	2542.3	-0.29075	0.93657	0.24898
3.936	83.14	-19048	2542.2	-0.29095	0.93589	0.24829
3.938	83.07	-19048	2542.2	-0.29114	0.9352	0.24761
3.94	82.993	-19048	2542.1	-0.29134	0.93452	0.24693
3.942	82.904	-19046	2542	-0.29153	0.93491	0.24703
3.944	82.803	-19044	2542	-0.29173	0.9353	0.24712
3.946	82.688	-19047	2541.9	-0.29192	0.93569	0.24722
3.948	82.549	-19051	2541.8	-0.29212	0.93608	0.24732
3.95	82.401	-19055	2541.8	-0.29231	0.93647	0.24742
3.952	82.259	-19059	2541.8	-0.29163	0.93833	0.24683
3.954	82.124	-19051	2541.7	-0.29095	0.94018	0.24624
3.956	82.011	-19043	2541.7	-0.29026	0.94204	0.24566
3.958	81.937	-19047	2541.6	-0.28958	0.94389	0.24507
3.96	81.926	-19051	2541.5	-0.2889	0.94574	0.24449
3.962	81.999	-19053	2541.5	-0.2886	0.94574	0.24527
3.964	82.15	-19055	2541.5	-0.28831	0.94574	0.24605
3.966	82.319	-19051	2541.4	-0.28802	0.94574	0.24683
3.968	82.505	-19048	2541.4	-0.28772	0.94574	0.24761
3.97	82.656	-19048	2541.3	-0.28743	0.94574	0.24839
3.972	82.785	-19048	2541.3	-0.28694	0.94555	0.24859
3.974	82.932	-19047	2541.2	-0.28646	0.94535	0.24878
3.976	83.049	-19047	2541.1	-0.28597	0.94516	0.24898
3.978	83.124	-19048	2541.1	-0.28548	0.94496	0.24917
3.98	83.184	-19049	2541	-0.28499	0.94477	0.24937
3.982	83.209	-19050	2541	-0.28519	0.94526	0.24859
3.984	83.204	-19050	2540.9	-0.28538	0.94574	0.24781
3.986	83.179	-19053	2540.9	-0.28558	0.94623	0.24703
3.988	83.141	-19056	2540.8	-0.28577	0.94672	0.24624
3.99	83.109	-19050	2540.8	-0.28597	0.94721	0.24546
3.992	83.091	-19043	2540.7	-0.28568	0.94721	0.24517
3.994	83.081	-19047	2540.7	-0.28538	0.94721	0.24488
3.996	83.068	-19051	2540.7	-0.28509	0.94721	0.24459
3.998	83.058	-19053	2540.7	-0.2848	0.94721	0.24429
4	83.061	-19054	2540.6	-0.2845	0.94721	0.244
4.002	83.066	-19056	2540.6	-0.2846	0.9477	0.244
4.004	83.074	-19058	2540.6	-0.2847	0.94818	0.244
4.006	83.088	-19059	2540.6	-0.2848	0.94867	0.244
4.008	83.092	-19059	2540.6	-0.28489	0.94916	0.244
4.01	83.091	-19057	2540.5	-0.28499	0.94965	0.244
4.012	83.093	-19055	2540.5	-0.2846	0.94916	0.2438
4.014	83.097	-19057	2540.4	-0.28421	0.94867	0.24361
4.016	83.097	-19058	2540.4	-0.28382	0.94818	0.24341
4.018	83.093	-19056	2540.3	-0.28343	0.9477	0.24322
4.02	83.096	-19055	2540.3	-0.28304	0.94721	0.24302
4.022	83.097	-19050	2540.2	-0.28304	0.94633	0.24332
4.024	83.102	-19045	2540.1	-0.28304	0.94545	0.24361
4.026	83.107	-19048	2540	-0.28304	0.94457	0.2439
4.028	83.107	-19050	2540	-0.28304	0.94369	0.2442
4.03	83.103	-19054	2539.9	-0.28304	0.94282	0.24449
4.032	83.101	-19058	2539.9	-0.28343	0.94418	0.24429
4.034	83.1	-19060	2539.8	-0.28382	0.94555	0.2441
4.036	83.097	-19062	2539.8	-0.28421	0.94692	0.2439
4.038	83.095	-19063	2539.7	-0.2846	0.94828	0.24371
4.04	83.095	-19064	2539.7	-0.28499	0.94965	0.24351
4.042	83.094	-19064	2539.6	-0.28528	0.94896	0.24322
4.044	83.093	-19064	2539.6	-0.28558	0.94828	0.24293
4.046	83.093	-19062	2539.5	-0.28587	0.9476	0.24263
4.048	83.091	-19061	2539.5	-0.28616	0.94692	0.24234
4.05	83.087	-19058	2539.5	-0.28646	0.94623	0.24205
4.052	83.084	-19055	2539.5	-0.28509	0.94535	0.24205
4.054	83.086	-19054	2539.4	-0.28372	0.94448	0.24205
4.056	83.084	-19052	2539.4	-0.28236	0.9436	0.24205
4.058	83.08	-19057	2539.3	-0.28099	0.94272	0.24205
4.06	83.081	-19062	2539.3	-0.27962	0.94184	0.24205
4.062	83.085	-19063	2539.3	-0.28001	0.94174	0.24215
4.064	83.079	-19065	2539.3	-0.2804	0.94164	0.24224
4.066	83.082	-19066	2539.2	-0.2808	0.94155	0.24234
4.068	83.074	-19067	2539.2	-0.28119	0.94145	0.24244
4.07	83.067	-19068	2539.1	-0.28158	0.94135	0.24254
4.072	83.067	-19070	2539.1	-0.28128	0.94096	0.24215
4.074	83.067	-19072	2539.1	-0.28099	0.94057	0.24176
4.076	83.064	-19073	2539.1	-0.2807	0.94018	0.24136
4.078	83.061	-19072	2539.1	-0.2804	0.93979	0.24097
4.08	83.061	-19071	2539	-0.28011	0.9394	0.24058
4.082	83.056	-19068	2539	-0.27933	0.93862	0.2398
4.084	83.056	-19064	2539	-0.27855	0.93784	0.23902
4.086	83.057	-19063	2538.9	-0.27777	0.93706	0.23824
4.088	83.055	-19061	2538.9	-0.27699	0.93628	0.23746
4.09	83.054	-19059	2538.9	-0.27621	0.9355	0.23668
4.092	83.052	-19058	2538.9	-0.27592	0.93667	0.23746
4.094	83.049	-19064	2538.8	-0.27562	0.93784	0.23824
4.096	83.044	-19070	2538.8	-0.27533	0.93901	0.23902
4.098	83.044	-19071	2538.7	-0.27504	0.94018	0.2398
4.1	83.042	-19072	2538.7	-0.27474	0.94135	0.24058
4.102	83.039	-19071	2538.6	-0.27484	0.94135	0.23961
4.104	83.038	-19070	2538.6	-0.27494	0.94135	0.23863
4.106	83.036	-19070	2538.5	-0.27504	0.94135	0.23766
4.108	83.028	-19069	2538.5	-0.27513	0.94135	0.23668
4.11	83.025	-19071	2538.4	-0.27523	0.94135	0.2357
4.112	83.026	-19073	2538.3	-0.27494	0.94184	0.2357
4.114	83.026	-19077	2538.3	-0.27465	0.94233	0.2357
4.116	83.023	-19081	2538.3	-0.27435	0.94282	0.2357
4.118	83.02	-19076	2538.3	-0.27406	0.9433	0.2357
4.12	83.015	-19071	2538.3	-0.27377	0.94379	0.2357
4.122	83.009	-19071	2538.2	-0.27396	0.94369	0.23619
4.124	83.009	-19071	2538.2	-0.27416	0.9436	0.23668
4.126	83.011	-19074	2538.2	-0.27435	0.9435	0.23717
4.128	83.007	-19077	2538.2	-0.27455	0.9434	0.23766
4.13	83.005	-19077	2538.3	-0.27474	0.9433	0.23814
4.132	82.999	-19076	2538.3	-0.27513	0.9434	0.23814
4.134	82.997	-19075	2538.4	-0.27552	0.9435	0.23814
4.136	82.997	-19074	2538.5	-0.27592	0.9436	0.23814
4.138	82.993	-19080	2538.6	-0.27631	0.94369	0.23814
4.14	82.99	-19085	2538.7	-0.2767	0.94379	0.23814
4.142	82.988	-19083	2538.8	-0.27699	0.94301	0.23844
4.144	82.989	-19081	2538.9	-0.27728	0.94223	0.23873
4.146	82.991	-19081	2539	-0.27757	0.94145	0.23902
4.148	82.986	-19080	2539.2	-0.27787	0.94067	0.23932
4.15	82.983	-19074	2539.3	-0.27816	0.93989	0.23961
4.152	82.981	-19068	2539.4	-0.27757	0.9394	0.23951
4.154	82.983	-19072	2539.6	-0.27699	0.93891	0.23941
4.156	82.983	-19077	2539.8	-0.2764	0.93842	0.23932
4.158	82.982	-19077	2539.9	-0.27582	0.93794	0.23922
4.16	82.992	-19078	2540.1	-0.27523	0.93745	0.23912
4.162	82.988	-19080	2540.3	-0.27543	0.93764	0.23912
4.164	82.987	-19081	2540.5	-0.27562	0.93784	0.23912
4.166	82.99	-19078	2540.7	-0.27582	0.93803	0.23912
4.168	82.988	-19074	2540.9	-0.27601	0.93823	0.23912
4.17	82.99	-19073	2541.1	-0.27621	0.93842	0.23912
4.172	82.991	-19073	2541.3	-0.27533	0.93989	0.23853
4.174	82.991	-19073	2541.5	-0.27445	0.94135	0.23795
4.176	82.991	-19073	2541.8	-0.27357	0.94282	0.23736
4.178	82.993	-19078	2542	-0.27269	0.94428	0.23678
4.18	82.995	-19082	2542.1	-0.27182	0.94574	0.23619
4.182	82.994	-19084	2542.4	-0.27279	0.94496	0.23717
4.184	82.993	-19086	2542.6	-0.27377	0.94418	0.23814
4.186	82.994	-19079	2542.8	-0.27474	0.9434	0.23912
4.188	82.997	-19071	2543	-0.27572	0.94262	0.2401
4.19	83	-19074	2543.3	-0.2767	0.94184	0.24107
4.192	83.001	-19076	2543.4	-0.27796	0.94243	0.24166
4.194	83.001	-19075	2543.6	-0.27923	0.94301	0.24224
4.196	83.003	-19074	2543.8	-0.2805	0.9436	0.24283
4.198	83.007	-19074	2544	-0.28177	0.94418	0.24341
4.2	83.008	-19074	2544.3	-0.28304	0.94477	0.244
4.202	83.011	-19070	2544.4	-0.28236	0.94399	0.244
4.204	83.017	-19067	2544.6	-0.28167	0.94321	0.244
4.206	83.023	-19061	2544.8	-0.28099	0.94243	0.244
4.208	83.027	-19056	2545	-0.28031	0.94164	0.244
4.21	83.032	-19061	2545.2	-0.27962	0.94086	0.244
4.212	83.037	-19067	2545.3	-0.28031	0.94155	0.24429
4.214	83.043	-19065	2545.5	-0.28099	0.94223	0.24459
4.216	83.047	-19063	2545.7	-0.28167	0.94291	0.24488
4.218	83.051	-19061	2545.8	-0.28236	0.9436	0.24517
4.22	83.056	-19059	2545.9	-0.28304	0.94428	0.24546
4.222	83.062	-19056	2546	-0.28353	0.94487	0.24478
4.224	83.064	-19053	2546.2	-0.28402	0.94545	0.2441
4.226	83.066	-19052	2546.3	-0.2845	0.94604	0.24341
4.228	83.069	-19052	2546.4	-0.28499	0.94662	0.24273
4.23	83.076	-19053	2546.5	-0.28548	0.94721	0.24205
4.232	83.079	-19054	2546.7	-0.2848	0.94584	0.24312
4.234	83.078	-19056	2546.8	-0.28411	0.94448	0.2442
4.236	83.078	-19058	2546.9	-0.28343	0.94311	0.24527
4.238	83.088	-19055	2547	-0.28275	0.94174	0.24634
4.24	83.092	-19052	2547.1	-0.28206	0.94038	0.24742
4.242	83.088	-19048	2547.2	-0.28187	0.94135	0.24605
4.244	83.094	-19044	2547.2	-0.28167	0.94233	0.24468
4.246	83.093	-19048	2547.3	-0.28148	0.9433	0.24332
4.248	83.096	-19052	2547.5	-0.28128	0.94428	0.24195
4.25	83.098	-19050	2547.6	-0.28109	0.94526	0.24058
4.252	83.101	-19048	2547.7	-0.28197	0.94574	0.24097
4.254	83.108	-19049	2547.8	-0.28284	0.94623	0.24136
4.256	83.109	-19050	2547.8	-0.28372	0.94672	0.24176
4.258	83.11	-19052	2547.9	-0.2846	0.94721	0.24215
4.26	83.109	-19054	2548	-0.28548	0.9477	0.24254
4.262	83.108	-19049	2548	-0.2848	0.94682	0.24312
4.264	83.109	-19045	2548.1	-0.28411	0.94594	0.24371
4.266	83.111	-19047	2548.1	-0.28343	0.94506	0.24429
4.268	83.113	-19049	2548.1	-0.28275	0.94418	0.24488
4.27	83.115	-19042	2548.2	-0.28206	0.9433	0.24546
4.272	83.112	-19034	2548.2	-0.28177	0.94282	0.24498
4.274	83.109	-19035	2548.2	-0.28148	0.94233	0.24449
4.276	83.112	-19036	2548.2	-0.28119	0.94184	0.244
4.278	83.115	-19035	2548.2	-0.28089	0.94135	0.24351
4.28	83.117	-19034	2548.2	-0.2806	0.94086	0.24302
4.282	83.116	-19036	2548.2	-0.28206	0.94194	0.24283
4.284	83.114	-19038	2548.2	-0.28353	0.94301	0.24263
4.286	83.114	-19037	2548.2	-0.28499	0.94408	0.24244
4.288	83.114	-19037	2548.2	-0.28646	0.94516	0.24224
4.29	83.115	-19038	2548.2	-0.28792	0.94623	0.24205
4.292	83.116	-19039	2548.1	-0.28665	0.94584	0.24185
4.294	83.116	-19035	2548	-0.28538	0.94545	0.24166
4.296	83.116	-19031	2548	-0.28411	0.94506	0.24146
4.298	83.116	-19038	2547.9	-0.28284	0.94467	0.24127
4.3	83.113	-19045	2547.9	-0.28158	0.94428	0.24107
4.302	83.113	-19045	2547.8	-0.28109	0.94389	0.24068
4.304	83.114	-19046	2547.7	-0.2806	0.9435	0.24029
4.306	83.113	-19038	2547.6	-0.28011	0.94311	0.2399
4.308	83.113	-19030	2547.5	-0.27962	0.94272	0.23951
4.31	83.118	-19030	2547.4	-0.27914	0.94233	0.23912
4.312	83.115	-19030	2547.4	-0.27962	0.94272	0.23932
4.314	83.106	-19035	2547.3	-0.28011	0.94311	0.23951
4.316	83.107	-19040	2547.2	-0.2806	0.9435	0.23971
4.318	83.109	-19035	2547.1	-0.28109	0.94389	0.2399
4.32	83.105	-19031	2547	-0.28158	0.94428	0.2401
4.322	83.103	-19036	2547	-0.28226	0.94428	0.24058
4.324	83.104	-19040	2546.9	-0.28294	0.94428	0.24107
4.326	83.106	-19039	2546.9	-0.28363	0.94428	0.24156
4.328	83.111	-19038	2546.8	-0.28431	0.94428	0.24205
4.33	83.109	-19038	2546.8	-0.28499	0.94428	0.24254
4.332	83.103	-19038	2546.7	-0.28499	0.94467	0.24224
4.334	83.102	-19038	2546.7	-0.28499	0.94506	0.24195
4.336	83.099	-19038	2546.7	-0.28499	0.94545	0.24166
4.338	83.099	-19042	2546.6	-0.28499	0.94584	0.24136
4.34	83.1	-19046	2546.6	-0.28499	0.94623	0.24107
4.342	83.101	-19047	2546.6	-0.28402	0.94555	0.24097
4.344	83.102	-19048	2546.5	-0.28304	0.94487	0.24088
4.346	83.102	-19046	2546.5	-0.28206	0.94418	0.24078
4.348	83.101	-19045	2546.5	-0.28109	0.9435	0.24068
4.35	83.098	-19042	2546.4	-0.28011	0.94282	0.24058
4.352	83.095	-19039	2546.4	-0.27972	0.94125	0.24097
4.354	83.093	-19040	2546.4	-0.27933	0.93969	0.24136
4.356	83.093	-19040	2546.4	-0.27894	0.93813	0.24176
4.358	83.094	-19040	2546.3	-0.27855	0.93657	0.24215
4.36	83.094	-19040	2546.2	-0.27816	0.93501	0.24254
4.362	83.095	-19044	2546.2	-0.27728	0.93559	0.24195
4.364	83.098	-19048	2546.2	-0.2764	0.93618	0.24136
4.366	83.099	-19042	2546.2	-0.27552	0.93676	0.24078
4.368	83.095	-19035	2546.1	-0.27465	0.93735	0.24019
4.37	83.092	-19038	2546.1	-0.27377	0.93794	0.23961
4.372	83.093	-19040	2546.1	-0.27396	0.93881	0.2401
4.374	83.094	-19040	2546.1	-0.27416	0.93969	0.24058
4.376	83.098	-19040	2546.1	-0.27435	0.94057	0.24107
4.378	83.101	-19038	2546.1	-0.27455	0.94145	0.24156
4.38	83.1	-19037	2546.1	-0.27474	0.94233	0.24205
4.382	83.102	-19035	2546.1	-0.27348	0.94233	0.24117
4.384	83.104	-19033	2546.1	-0.27221	0.94233	0.24029
4.386	83.099	-19040	2546.1	-0.27094	0.94233	0.23941
4.388	83.091	-19047	2546.1	-0.26967	0.94233	0.23853
4.39	83.089	-19043	2546.1	-0.2684	0.94233	0.23766
4.392	83.088	-19039	2546	-0.26899	0.94399	0.23756
4.394	83.092	-19040	2545.9	-0.26957	0.94565	0.23746
4.396	83.091	-19040	2545.9	-0.27016	0.94731	0.23736
4.398	83.088	-19044	2545.9	-0.27074	0.94896	0.23727
4.4	83.088	-19048	2545.9	-0.27133	0.95062	0.23717
4.402	83.085	-19045	2545.9	-0.27221	0.94965	0.23697
4.404	83.088	-19041	2545.9	-0.27308	0.94867	0.23678
4.406	83.089	-19046	2545.8	-0.27396	0.9477	0.23658
4.408	83.083	-19050	2545.8	-0.27484	0.94672	0.23639
4.41	83.086	-19045	2545.8	-0.27572	0.94574	0.23619
4.412	83.082	-19040	2545.8	-0.27523	0.94565	0.23629
4.414	83.075	-19034	2545.9	-0.27474	0.94555	0.23639
4.416	83.078	-19028	2545.9	-0.27426	0.94545	0.23648
4.418	83.081	-19029	2545.9	-0.27377	0.94535	0.23658
4.42	83.079	-19029	2545.9	-0.27328	0.94526	0.23668
4.422	83.069	-19029	2545.9	-0.27348	0.94594	0.23648
4.424	83.05	-19030	2545.9	-0.27367	0.94662	0.23629
4.426	83.028	-19031	2545.9	-0.27387	0.94731	0.23609
4.428	83.02	-19032	2545.9	-0.27406	0.94799	0.2359
4.43	83.025	-19035	2545.9	-0.27426	0.94867	0.2357
4.432	83.033	-19039	2546	-0.27465	0.94779	0.23629
4.434	83.039	-19040	2546	-0.27504	0.94692	0.23688
4.436	83.044	-19041	2546	-0.27543	0.94604	0.23746
4.438	83.056	-19041	2546	-0.27582	0.94516	0.23805
4.44	83.065	-19041	2546	-0.27621	0.94428	0.23863
4.442	83.063	-19040	2546	-0.27699	0.94487	0.23834
4.444	83.055	-19040	2546	-0.27777	0.94545	0.23805
4.446	83.05	-19038	2546.1	-0.27855	0.94604	0.23775
4.448	83.048	-19036	2546.1	-0.27933	0.94662	0.23746
4.45	83.044	-19034	2546.1	-0.28011	0.94721	0.23717
4.452	83.039	-19031	2546.1	-0.27972	0.94731	0.23717
4.454	83.038	-19038	2546.1	-0.27933	0.9474	0.23717
4.456	83.039	-19046	2546.1	-0.27894	0.9475	0.23717
4.458	83.043	-19054	2546.2	-0.27855	0.9476	0.23717
4.46	83.05	-19062	2546.2	-0.27816	0.9477	0.23717
4.462	83.057	-19064	2546.2	-0.27738	0.94721	0.23785
4.464	83.066	-19065	2546.2	-0.2766	0.94672	0.23853
4.466	83.072	-19062	2546.3	-0.27582	0.94623	0.23922
4.468	83.082	-19059	2546.3	-0.27504	0.94574	0.2399
4.47	83.101	-19058	2546.3	-0.27426	0.94526	0.24058
4.472	83.116	-19057	2546.2	-0.27445	0.94584	0.2399
4.474	83.123	-19053	2546.2	-0.27465	0.94643	0.23922
4.476	83.133	-19050	2546.2	-0.27484	0.94701	0.23853
4.478	83.143	-19049	2546.2	-0.27504	0.9476	0.23785
4.48	83.14	-19048	2546.2	-0.27523	0.94818	0.23717
4.482	83.132	-19044	2546.2	-0.27562	0.94711	0.23853
4.484	83.125	-19040	2546.1	-0.27601	0.94604	0.2399
4.486	83.123	-19036	2546.1	-0.2764	0.94496	0.24127
4.488	83.128	-19031	2546.1	-0.27679	0.94389	0.24263
4.49	83.125	-19037	2546	-0.27718	0.94282	0.244
4.492	83.123	-19042	2546	-0.27787	0.94272	0.24361
4.494	83.133	-19045	2545.9	-0.27855	0.94262	0.24322
4.496	83.128	-19047	2545.9	-0.27923	0.94252	0.24283
4.498	83.124	-19047	2545.8	-0.27992	0.94243	0.24244
4.5	83.125	-19048	2545.8	-0.2806	0.94233	0.24205
4.502	83.129	-19050	2545.7	-0.28089	0.9433	0.24234
4.504	83.124	-19051	2545.7	-0.28119	0.94428	0.24263
4.506	83.121	-19052	2545.6	-0.28148	0.94526	0.24293
4.508	83.127	-19052	2545.6	-0.28177	0.94623	0.24322
4.51	83.129	-19050	2545.5	-0.28206	0.94721	0.24351
4.512	83.129	-19049	2545.5	-0.28314	0.9474	0.24371
4.514	83.127	-19053	2545.4	-0.28421	0.9476	0.2439
4.516	83.127	-19058	2545.3	-0.28528	0.94779	0.2441
4.518	83.127	-19058	2545.3	-0.28636	0.94799	0.24429
4.52	83.128	-19059	2545.3	-0.28743	0.94818	0.24449
4.522	83.131	-19052	2545.2	-0.28616	0.9477	0.2441
4.524	83.13	-19046	2545.2	-0.28489	0.94721	0.24371
4.526	83.125	-19040	2545.1	-0.28363	0.94672	0.24332
4.528	83.122	-19035	2545.1	-0.28236	0.94623	0.24293
4.53	83.132	-19039	2545	-0.28109	0.94574	0.24254
4.532	83.151	-19044	2545	-0.28197	0.94623	0.24283
4.534	83.17	-19049	2544.9	-0.28284	0.94672	0.24312
4.536	83.191	-19054	2544.8	-0.28372	0.94721	0.24341
4.538	83.215	-19055	2544.8	-0.2846	0.9477	0.24371
4.54	83.242	-19056	2544.7	-0.28548	0.94818	0.244
4.542	83.26	-19052	2544.7	-0.2847	0.94838	0.2439
4.544	83.257	-19048	2544.6	-0.28392	0.94857	0.2438
4.546	83.232	-19048	2544.6	-0.28314	0.94877	0.24371
4.548	83.189	-19048	2544.5	-0.28236	0.94896	0.24361
4.55	83.135	-19053	2544.4	-0.28158	0.94916	0.24351
4.552	83.069	-19058	2544.4	-0.28206	0.94896	0.2438
4.554	82.992	-19059	2544.3	-0.28255	0.94877	0.2441
4.556	82.903	-19059	2544.3	-0.28304	0.94857	0.24439
4.558	82.799	-19050	2544.2	-0.28353	0.94838	0.24468
4.56	82.685	-19041	2544.2	-0.28402	0.94818	0.24498
4.562	82.545	-19047	2544.1	-0.28411	0.94809	0.24459
4.564	82.397	-19052	2544	-0.28421	0.94799	0.2442
4.566	82.258	-19055	2543.9	-0.28431	0.94789	0.2438
4.568	82.118	-19058	2543.9	-0.28441	0.94779	0.24341
4.57	81.99	-19055	2543.8	-0.2845	0.9477	0.24302
4.572	81.906	-19052	2543.7	-0.2847	0.9474	0.24341
4.574	81.885	-19052	2543.7	-0.28489	0.94711	0.2438
4.576	81.939	-19052	2543.6	-0.28509	0.94682	0.2442
4.578	82.082	-19055	2543.5	-0.28528	0.94652	0.24459
4.58	82.25	-19059	2543.4	-0.28548	0.94623	0.24498
4.582	82.437	-19052	2543.3	-0.28597	0.94613	0.24459
4.584	82.588	-19045	2543.3	-0.28646	0.94604	0.2442
4.586	82.73	-19055	2543.2	-0.28694	0.94594	0.2438
4.588	82.883	-19066	2543.1	-0.28743	0.94584	0.24341
4.59	83.001	-19070	2543	-0.28792	0.94574	0.24302
4.592	83.075	-19074	2542.9	-0.28685	0.94594	0.24234
4.594	83.139	-19065	2542.9	-0.28577	0.94613	0.24166
4.596	83.172	-19057	2542.8	-0.2847	0.94633	0.24097
4.598	83.178	-19060	2542.7	-0.28363	0.94652	0.24029
4.6	83.156	-19064	2542.6	-0.28255	0.94672	0.23961
4.602	83.118	-19064	2542.5	-0.28284	0.94721	0.23971
4.604	83.088	-19065	2542.4	-0.28314	0.9477	0.2398
4.606	83.065	-19063	2542.4	-0.28343	0.94818	0.2399
4.608	83.049	-19062	2542.3	-0.28372	0.94867	0.24
4.61	83.036	-19063	2542.2	-0.28402	0.94916	0.2401
4.612	83.03	-19065	2542.2	-0.2845	0.94799	0.24058
4.614	83.033	-19066	2542.2	-0.28499	0.94682	0.24107
4.616	83.042	-19067	2542.2	-0.28548	0.94565	0.24156
4.618	83.053	-19070	2542.1	-0.28597	0.94448	0.24205
4.62	83.063	-19074	2542.1	-0.28646	0.9433	0.24254
4.622	83.069	-19073	2542	-0.28655	0.9435	0.24234
4.624	83.07	-19072	2542	-0.28665	0.94369	0.24215
4.626	83.069	-19068	2541.9	-0.28675	0.94389	0.24195
4.628	83.073	-19064	2541.9	-0.28685	0.94408	0.24176
4.63	83.075	-19066	2541.8	-0.28694	0.94428	0.24156
4.632	83.074	-19068	2541.7	-0.28665	0.94467	0.24136
4.634	83.077	-19064	2541.6	-0.28636	0.94506	0.24117
4.636	83.079	-19059	2541.5	-0.28607	0.94545	0.24097
4.638	83.079	-19060	2541.5	-0.28577	0.94584	0.24078
4.64	83.082	-19061	2541.4	-0.28548	0.94623	0.24058
4.642	83.081	-19067	2541.3	-0.2847	0.94643	0.2399
4.644	83.077	-19073	2541.3	-0.28392	0.94662	0.23922
4.646	83.072	-19075	2541.2	-0.28314	0.94682	0.23853
4.648	83.069	-19076	2541.1	-0.28236	0.94701	0.23785
4.65	83.067	-19077	2541.1	-0.28158	0.94721	0.23717
4.652	83.065	-19079	2540.9	-0.28226	0.94692	0.23756
4.654	83.069	-19077	2540.8	-0.28294	0.94662	0.23795
4.656	83.068	-19075	2540.7	-0.28363	0.94633	0.23834
4.658	83.064	-19076	2540.6	-0.28431	0.94604	0.23873
4.66	83.064	-19077	2540.4	-0.28499	0.94574	0.23912
4.662	83.065	-19078	2540.3	-0.28431	0.94545	0.23892
4.664	83.06	-19078	2540.2	-0.28363	0.94516	0.23873
4.666	83.06	-19084	2540.1	-0.28294	0.94487	0.23853
4.668	83.059	-19091	2540	-0.28226	0.94457	0.23834
4.67	83.059	-19086	2539.8	-0.28158	0.94428	0.23814
4.672	83.058	-19082	2539.7	-0.28363	0.9436	0.23941
4.674	83.057	-19077	2539.6	-0.28568	0.94291	0.24068
4.676	83.055	-19071	2539.4	-0.28772	0.94223	0.24195
4.678	83.052	-19076	2539.3	-0.28977	0.94155	0.24322
4.68	83.05	-19081	2539.2	-0.29182	0.94086	0.24449
4.682	83.049	-19077	2539.1	-0.29026	0.94008	0.244
4.684	83.045	-19073	2539	-0.2887	0.9393	0.24351
4.686	83.043	-19077	2538.9	-0.28714	0.93852	0.24302
4.688	83.043	-19081	2538.8	-0.28558	0.93774	0.24254
4.69	83.037	-19081	2538.7	-0.28402	0.93696	0.24205
