t	ekg	optical	pressure	accel_x	accel_y	accel_z
0	54.652	-17820	1917	0.16592	-0.010248	1.0053
0.002	54.604	-17820	1916.9	0.1668	-0.011224	1.0052
0.004	54.614	-17820	1916.9	0.16768	-0.0122	1.0051
0.006	54.625	-17819	1916.8	0.16856	-0.013176	1.005
0.008	54.605	-17817	1916.8	0.16943	-0.014152	1.0049
0.01	54.565	-17815	1916.7	0.17031	-0.015128	1.0048
0.012	54.568	-17812	1916.6	0.17031	-0.01503	1.0045
0.014	54.578	-17809	1916.5	0.17031	-0.014933	1.0042
0.016	54.604	-17810	1916.4	0.17031	-0.014835	1.0039
0.018	54.623	-17812	1916.3	0.17031	-0.014738	1.0036
0.02	54.608	-17810	1916.2	0.17031	-0.01464	1.0033
0.022	54.584	-17809	1916.1	0.16885	-0.014738	1.0048
0.024	54.591	-17813	1916.1	0.16738	-0.014835	1.0063
0.026	54.564	-17816	1916	0.16592	-0.014933	1.0077
0.028	54.551	-17815	1915.9	0.16446	-0.01503	1.0092
0.03	54.574	-17813	1915.9	0.16299	-0.015128	1.0106
0.032	54.646	-17814	1915.9	0.16289	-0.015518	1.0096
0.034	54.647	-17815	1915.8	0.1628	-0.015909	1.0085
0.036	54.627	-17812	1915.8	0.1627	-0.016299	1.0074
0.038	54.57	-17808	1915.8	0.1626	-0.01669	1.0064
0.04	54.557	-17807	1915.8	0.1625	-0.01708	1.0053
0.042	54.606	-17806	1915.8	0.16309	-0.016202	1.0059
0.044	54.603	-17807	1915.7	0.16368	-0.015323	1.0065
0.046	54.546	-17808	1915.7	0.16426	-0.014445	1.007
0.048	54.541	-17812	1915.7	0.16485	-0.013566	1.0076
0.05	54.615	-17815	1915.7	0.16543	-0.012688	1.0082
0.052	54.635	-17808	1915.7	0.16426	-0.013371	1.0078
0.054	54.609	-17801	1915.7	0.16309	-0.014054	1.0074
0.056	54.561	-17801	1915.7	0.16192	-0.014738	1.007
0.058	54.547	-17801	1915.7	0.16075	-0.015421	1.0066
0.06	54.586	-17807	1915.7	0.15958	-0.016104	1.0063
0.062	54.647	-17814	1915.6	0.16075	-0.014835	1.0056
0.064	54.621	-17813	1915.6	0.16192	-0.013566	1.0049
0.066	54.575	-17812	1915.5	0.16309	-0.012298	1.0042
0.068	54.56	-17812	1915.5	0.16426	-0.011029	1.0035
0.07	54.554	-17812	1915.5	0.16543	-0.00976	1.0028
0.072	54.532	-17810	1915.4	0.16602	-0.0090768	1.003
0.074	54.556	-17808	1915.3	0.1666	-0.0083936	1.0032
0.076	54.579	-17811	1915.2	0.16719	-0.0077104	1.0034
0.078	54.584	-17813	1915.1	0.16777	-0.0070272	1.0036
0.08	54.612	-17810	1915.1	0.16836	-0.006344	1.0038
0.082	54.62	-17807	1914.9	0.16738	-0.0070272	1.0051
0.084	54.571	-17795	1914.8	0.16641	-0.0077104	1.0064
0.086	54.536	-17783	1914.7	0.16543	-0.0083936	1.0076
0.088	54.584	-17795	1914.7	0.16446	-0.0090768	1.0089
0.09	54.619	-17807	1914.6	0.16348	-0.00976	1.0102
0.092	54.567	-17809	1914.6	0.16319	-0.011224	1.0109
0.094	54.5	-17811	1914.5	0.16289	-0.012688	1.0117
0.096	54.467	-17801	1914.5	0.1626	-0.014152	1.0125
0.098	54.458	-17791	1914.4	0.16231	-0.015616	1.0133
0.1	54.482	-17799	1914.4	0.16202	-0.01708	1.0141
0.102	54.519	-17807	1914.4	0.16172	-0.01708	1.014
0.104	54.513	-17809	1914.4	0.16143	-0.01708	1.0139
0.106	54.491	-17810	1914.4	0.16114	-0.01708	1.0138
0.108	54.483	-17804	1914.4	0.16084	-0.01708	1.0137
0.11	54.542	-17798	1914.4	0.16055	-0.01708	1.0136
0.112	54.552	-17799	1914.4	0.16065	-0.017178	1.0132
0.114	54.513	-17799	1914.4	0.16075	-0.017275	1.0128
0.116	54.509	-17797	1914.4	0.16084	-0.017373	1.0124
0.118	54.581	-17796	1914.4	0.16094	-0.01747	1.012
0.12	54.579	-17803	1914.4	0.16104	-0.017568	1.0116
0.122	54.553	-17810	1914.4	0.16104	-0.017763	1.0115
0.124	54.537	-17805	1914.4	0.16104	-0.017958	1.0114
0.126	54.501	-17799	1914.4	0.16104	-0.018154	1.0113
0.128	54.519	-17798	1914.4	0.16104	-0.018349	1.0112
0.13	54.519	-17797	1914.4	0.16104	-0.018544	1.0111
0.132	54.52	-17799	1914.4	0.16094	-0.018739	1.0113
0.134	54.512	-17800	1914.4	0.16084	-0.018934	1.0115
0.136	54.486	-17800	1914.3	0.16075	-0.01913	1.0117
0.138	54.566	-17800	1914.3	0.16065	-0.019325	1.0119
0.14	54.619	-17804	1914.3	0.16055	-0.01952	1.0121
0.142	54.581	-17807	1914.2	0.16065	-0.01952	1.0126
0.144	54.585	-17807	1914.2	0.16075	-0.01952	1.0131
0.146	54.589	-17808	1914.1	0.16084	-0.01952	1.0136
0.148	54.619	-17806	1914.1	0.16094	-0.01952	1.0141
0.15	54.644	-17805	1914.1	0.16104	-0.01952	1.0146
0.152	54.658	-17811	1914	0.16143	-0.019422	1.0144
0.154	54.648	-17817	1913.9	0.16182	-0.019325	1.0142
0.156	54.576	-17815	1913.8	0.16221	-0.019227	1.014
0.158	54.548	-17812	1913.8	0.1626	-0.01913	1.0138
0.16	54.652	-17811	1913.7	0.16299	-0.019032	1.0136
0.162	54.695	-17809	1913.7	0.16416	-0.018349	1.0142
0.164	54.642	-17813	1913.6	0.16533	-0.017666	1.0147
0.166	54.601	-17817	1913.5	0.16651	-0.016982	1.0153
0.168	54.597	-17813	1913.5	0.16768	-0.016299	1.0159
0.17	54.614	-17809	1913.5	0.16885	-0.015616	1.0165
0.172	54.62	-17808	1913.5	0.1708	-0.016104	1.0166
0.174	54.645	-17808	1913.4	0.17275	-0.016592	1.0167
0.176	54.679	-17805	1913.4	0.1747	-0.01708	1.0168
0.178	54.665	-17802	1913.4	0.17666	-0.017568	1.0169
0.18	54.637	-17801	1913.3	0.17861	-0.018056	1.017
0.182	54.63	-17800	1913.4	0.17705	-0.018154	1.0169
0.184	54.617	-17808	1913.4	0.17548	-0.018251	1.0168
0.186	54.619	-17816	1913.4	0.17392	-0.018349	1.0167
0.188	54.643	-17813	1913.5	0.17236	-0.018446	1.0166
0.19	54.656	-17809	1913.5	0.1708	-0.018544	1.0165
0.192	54.632	-17806	1913.5	0.17012	-0.018349	1.0164
0.194	54.596	-17803	1913.5	0.16943	-0.018154	1.0163
0.196	54.607	-17808	1913.5	0.16875	-0.017958	1.0162
0.198	54.635	-17812	1913.5	0.16807	-0.017763	1.0161
0.2	54.606	-17813	1913.5	0.16738	-0.017568	1.016
0.202	54.602	-17814	1913.5	0.16797	-0.017666	1.0155
0.204	54.675	-17815	1913.5	0.16856	-0.017763	1.015
0.206	54.723	-17816	1913.5	0.16914	-0.017861	1.0146
0.208	54.708	-17817	1913.5	0.16973	-0.017958	1.0141
0.21	54.67	-17819	1913.5	0.17031	-0.018056	1.0136
0.212	54.648	-17815	1913.5	0.16953	-0.018154	1.0138
0.214	54.728	-17812	1913.5	0.16875	-0.018251	1.014
0.216	54.774	-17815	1913.5	0.16797	-0.018349	1.0142
0.218	54.792	-17818	1913.4	0.16719	-0.018446	1.0144
0.22	54.786	-17823	1913.4	0.16641	-0.018544	1.0146
0.222	54.719	-17828	1913.4	0.16582	-0.01913	1.0141
0.224	54.683	-17821	1913.4	0.16524	-0.019715	1.0136
0.226	54.634	-17814	1913.4	0.16465	-0.020301	1.0131
0.228	54.6	-17814	1913.4	0.16407	-0.020886	1.0126
0.23	54.523	-17815	1913.4	0.16348	-0.021472	1.0121
0.232	54.426	-17814	1913.3	0.16455	-0.021277	1.0118
0.234	54.292	-17813	1913.3	0.16563	-0.021082	1.0115
0.236	54.123	-17810	1913.2	0.1667	-0.020886	1.0112
0.238	53.986	-17808	1913.2	0.16777	-0.020691	1.0109
0.24	53.864	-17813	1913.1	0.16885	-0.020496	1.0106
0.242	53.748	-17818	1913.2	0.1669	-0.021277	1.0115
0.244	53.618	-17817	1913.2	0.16494	-0.022058	1.0124
0.246	53.519	-17815	1913.2	0.16299	-0.022838	1.0133
0.248	53.493	-17816	1913.1	0.16104	-0.023619	1.0142
0.25	53.562	-17816	1913.1	0.15909	-0.0244	1.015
0.252	53.706	-17811	1913.1	0.16026	-0.023717	1.0138
0.254	53.861	-17806	1913	0.16143	-0.023034	1.0125
0.256	54.034	-17807	1913	0.1626	-0.02235	1.0112
0.258	54.197	-17809	1913	0.16377	-0.021667	1.01
0.26	54.302	-17817	1913	0.16494	-0.020984	1.0087
0.262	54.388	-17825	1913	0.16465	-0.021082	1.0084
0.264	54.462	-17833	1912.9	0.16436	-0.021179	1.0081
0.266	54.538	-17841	1912.9	0.16407	-0.021277	1.0078
0.268	54.628	-17837	1912.9	0.16377	-0.021374	1.0075
0.27	54.67	-17832	1912.9	0.16348	-0.021472	1.0072
0.272	54.705	-17833	1912.8	0.16338	-0.021472	1.007
0.274	54.756	-17834	1912.8	0.16328	-0.021472	1.0068
0.276	54.74	-17839	1912.7	0.16319	-0.021472	1.0066
0.278	54.645	-17844	1912.7	0.16309	-0.021472	1.0065
0.28	54.595	-17840	1912.7	0.16299	-0.021472	1.0063
0.282	54.555	-17836	1912.6	0.16299	-0.022838	1.0075
0.284	54.56	-17834	1912.6	0.16299	-0.024205	1.0088
0.286	54.562	-17832	1912.6	0.16299	-0.025571	1.0101
0.288	54.565	-17830	1912.6	0.16299	-0.026938	1.0113
0.29	54.581	-17828	1912.5	0.16299	-0.028304	1.0126
0.292	54.586	-17825	1912.5	0.16124	-0.027621	1.0122
0.294	54.557	-17822	1912.5	0.15948	-0.026938	1.0118
0.296	54.6	-17824	1912.4	0.15772	-0.026254	1.0114
0.298	54.639	-17826	1912.4	0.15596	-0.025571	1.011
0.3	54.617	-17828	1912.4	0.15421	-0.024888	1.0106
0.302	54.581	-17830	1912.3	0.15479	-0.024205	1.0101
0.304	54.575	-17827	1912.3	0.15538	-0.023522	1.0095
0.306	54.571	-17824	1912.2	0.15596	-0.022838	1.0089
0.308	54.56	-17827	1912.2	0.15655	-0.022155	1.0083
0.31	54.603	-17830	1912.2	0.15714	-0.021472	1.0077
0.312	54.611	-17834	1912.2	0.15645	-0.02157	1.0074
0.314	54.584	-17838	1912.2	0.15577	-0.021667	1.0071
0.316	54.591	-17836	1912.2	0.15509	-0.021765	1.0068
0.318	54.63	-17833	1912.2	0.1544	-0.021862	1.0065
0.32	54.625	-17836	1912.2	0.15372	-0.02196	1.0063
0.322	54.606	-17840	1912.2	0.1546	-0.022643	1.0069
0.324	54.582	-17841	1912.1	0.15548	-0.023326	1.0076
0.326	54.589	-17842	1912.1	0.15636	-0.02401	1.0083
0.328	54.65	-17840	1912	0.15723	-0.024693	1.009
0.33	54.692	-17839	1912	0.15811	-0.025376	1.0097
0.332	54.667	-17839	1911.9	0.15723	-0.02479	1.0091
0.334	54.622	-17839	1911.9	0.15636	-0.024205	1.0085
0.336	54.578	-17839	1911.8	0.15548	-0.023619	1.0079
0.338	54.527	-17840	1911.8	0.1546	-0.023034	1.0073
0.34	54.499	-17842	1911.8	0.15372	-0.022448	1.0067
0.342	54.55	-17845	1911.7	0.15509	-0.022448	1.0065
0.344	54.66	-17844	1911.7	0.15645	-0.022448	1.0064
0.346	54.674	-17844	1911.6	0.15782	-0.022448	1.0062
0.348	54.583	-17845	1911.6	0.15919	-0.022448	1.006
0.35	54.543	-17846	1911.5	0.16055	-0.022448	1.0058
0.352	54.543	-17845	1911.5	0.15977	-0.02235	1.006
0.354	54.538	-17843	1911.4	0.15899	-0.022253	1.0062
0.356	54.51	-17840	1911.3	0.15821	-0.022155	1.0064
0.358	54.501	-17838	1911.3	0.15743	-0.022058	1.0065
0.36	54.552	-17839	1911.2	0.15665	-0.02196	1.0067
0.362	54.621	-17841	1911.2	0.15801	-0.021277	1.0059
0.364	54.615	-17844	1911.2	0.15938	-0.020594	1.005
0.366	54.608	-17847	1911.2	0.16075	-0.01991	1.0041
0.368	54.588	-17847	1911.2	0.16211	-0.019227	1.0032
0.37	54.55	-17846	1911.2	0.16348	-0.018544	1.0024
0.372	54.498	-17845	1911.2	0.1628	-0.018251	1.0032
0.374	54.473	-17844	1911.3	0.16211	-0.017958	1.0041
0.376	54.499	-17848	1911.3	0.16143	-0.017666	1.005
0.378	54.55	-17851	1911.3	0.16075	-0.017373	1.0059
0.38	54.549	-17853	1911.3	0.16006	-0.01708	1.0067
0.382	54.573	-17855	1911.3	0.1587	-0.01669	1.0057
0.384	54.541	-17853	1911.3	0.15733	-0.016299	1.0046
0.386	54.543	-17851	1911.4	0.15596	-0.015909	1.0035
0.388	54.549	-17849	1911.4	0.1546	-0.015518	1.0024
0.39	54.54	-17847	1911.5	0.15323	-0.015128	1.0014
0.392	54.503	-17852	1911.5	0.15518	-0.014933	1.0022
0.394	54.446	-17856	1911.6	0.15714	-0.014738	1.0029
0.396	54.496	-17857	1911.6	0.15909	-0.014542	1.0037
0.398	54.536	-17858	1911.6	0.16104	-0.014347	1.0045
0.4	54.519	-17855	1911.6	0.16299	-0.014152	1.0053
0.402	54.545	-17851	1911.7	0.16377	-0.012786	1.0042
0.404	54.555	-17855	1911.7	0.16455	-0.011419	1.0031
0.406	54.521	-17858	1911.8	0.16533	-0.010053	1.0021
0.408	54.522	-17856	1911.9	0.16612	-0.0086864	1.001
0.41	54.517	-17853	1912	0.1669	-0.00732	0.99991
0.412	54.521	-17854	1912.1	0.1666	-0.006344	0.99952
0.414	54.522	-17854	1912.1	0.16631	-0.005368	0.99913
0.416	54.489	-17858	1912.2	0.16602	-0.004392	0.99874
0.418	54.443	-17862	1912.3	0.16572	-0.003416	0.99835
0.42	54.449	-17859	1912.4	0.16543	-0.00244	0.99796
0.422	54.521	-17857	1912.5	0.16641	-0.0023424	0.99816
0.424	54.558	-17856	1912.6	0.16738	-0.0022448	0.99835
0.426	54.538	-17855	1912.7	0.16836	-0.0021472	0.99855
0.428	54.531	-17853	1912.9	0.16934	-0.0020496	0.99874
0.43	54.525	-17852	1913	0.17031	-0.001952	0.99894
0.432	54.504	-17856	1913.1	0.16934	-0.001952	0.99855
0.434	54.53	-17860	1913.3	0.16836	-0.001952	0.99816
0.436	54.58	-17859	1913.5	0.16738	-0.001952	0.99776
0.438	54.568	-17857	1913.6	0.16641	-0.001952	0.99737
0.44	54.537	-17856	1913.7	0.16543	-0.001952	0.99698
0.442	54.503	-17854	1913.8	0.16514	-0.002928	0.99591
0.444	54.498	-17856	1913.9	0.16485	-0.003904	0.99484
0.446	54.519	-17859	1914	0.16455	-0.00488	0.99376
0.448	54.534	-17858	1914.1	0.16426	-0.005856	0.99269
0.45	54.506	-17857	1914.1	0.16397	-0.006832	0.99162
0.452	54.534	-17852	1914.2	0.16368	-0.0065392	0.99269
0.454	54.549	-17847	1914.3	0.16338	-0.0062464	0.99376
0.456	54.548	-17849	1914.3	0.16309	-0.0059536	0.99484
0.458	54.546	-17851	1914.4	0.1628	-0.0056608	0.99591
0.46	54.548	-17850	1914.5	0.1625	-0.005368	0.99698
0.462	54.534	-17849	1914.6	0.16387	-0.0056608	0.99698
0.464	54.565	-17851	1914.7	0.16524	-0.0059536	0.99698
0.466	54.565	-17853	1914.8	0.1666	-0.0062464	0.99698
0.468	54.538	-17850	1914.8	0.16797	-0.0065392	0.99698
0.47	54.485	-17846	1914.9	0.16934	-0.006832	0.99698
0.472	54.503	-17850	1915	0.16934	-0.006832	0.99757
0.474	54.508	-17854	1915.1	0.16934	-0.006832	0.99816
0.476	54.439	-17850	1915.1	0.16934	-0.006832	0.99874
0.478	54.447	-17847	1915.2	0.16934	-0.006832	0.99933
0.48	54.546	-17842	1915.3	0.16934	-0.006832	0.99991
0.482	54.59	-17837	1915.3	0.17109	-0.0079056	1.0013
0.484	54.569	-17834	1915.3	0.17285	-0.0089792	1.0026
0.486	54.546	-17832	1915.3	0.17461	-0.010053	1.004
0.488	54.523	-17832	1915.4	0.17636	-0.011126	1.0054
0.49	54.534	-17832	1915.4	0.17812	-0.0122	1.0067
0.492	54.545	-17836	1915.5	0.17851	-0.010248	1.0051
0.494	54.542	-17841	1915.5	0.1789	-0.008296	1.0034
0.496	54.532	-17840	1915.5	0.17929	-0.006344	1.0018
0.498	54.535	-17839	1915.6	0.17968	-0.004392	1.0001
0.5	54.547	-17837	1915.6	0.18007	-0.00244	0.99845
0.502	54.543	-17836	1915.7	0.17997	-0.0031232	0.99855
0.504	54.507	-17835	1915.7	0.17988	-0.0038064	0.99864
0.506	54.496	-17834	1915.8	0.17978	-0.0044896	0.99874
0.508	54.543	-17829	1915.8	0.17968	-0.0051728	0.99884
0.51	54.582	-17824	1915.8	0.17958	-0.005856	0.99894
0.512	54.564	-17828	1915.8	0.17871	-0.00732	1.0006
0.514	54.54	-17833	1915.8	0.17783	-0.008784	1.0023
0.516	54.54	-17825	1915.8	0.17695	-0.010248	1.0039
0.518	54.541	-17818	1915.8	0.17607	-0.011712	1.0056
0.52	54.56	-17822	1915.8	0.17519	-0.013176	1.0072
0.522	54.57	-17826	1915.8	0.17353	-0.012102	1.0075
0.524	54.568	-17823	1915.7	0.17187	-0.011029	1.0078
0.526	54.587	-17819	1915.7	0.17021	-0.0099552	1.0081
0.528	54.598	-17820	1915.7	0.16856	-0.0088816	1.0084
0.53	54.607	-17822	1915.7	0.1669	-0.007808	1.0087
0.532	54.609	-17822	1915.6	0.16758	-0.0075152	1.0085
0.534	54.585	-17821	1915.6	0.16826	-0.0072224	1.0083
0.536	54.561	-17820	1915.6	0.16895	-0.0069296	1.0081
0.538	54.544	-17819	1915.6	0.16963	-0.0066368	1.0079
0.54	54.55	-17814	1915.6	0.17031	-0.006344	1.0077
0.542	54.555	-17809	1915.6	0.16982	-0.0071248	1.0077
0.544	54.538	-17808	1915.6	0.16934	-0.0079056	1.0077
0.546	54.575	-17807	1915.6	0.16885	-0.0086864	1.0077
0.548	54.587	-17808	1915.6	0.16836	-0.0094672	1.0077
0.55	54.591	-17809	1915.5	0.16787	-0.010248	1.0077
0.552	54.611	-17804	1915.5	0.16885	-0.0099552	1.0078
0.554	54.634	-17800	1915.5	0.16982	-0.0096624	1.0079
0.556	54.663	-17806	1915.5	0.1708	-0.0093696	1.008
0.558	54.62	-17811	1915.4	0.17178	-0.0090768	1.0081
0.56	54.608	-17805	1915.4	0.17275	-0.008784	1.0082
0.562	54.562	-17799	1915.3	0.17246	-0.0094672	1.0078
0.564	54.544	-17803	1915.2	0.17217	-0.01015	1.0074
0.566	54.571	-17807	1915.2	0.17187	-0.010834	1.007
0.568	54.615	-17804	1915.2	0.17158	-0.011517	1.0066
0.57	54.605	-17802	1915.1	0.17129	-0.0122	1.0063
0.572	54.589	-17802	1915.1	0.16992	-0.0122	1.0065
0.574	54.575	-17802	1915	0.16856	-0.0122	1.0066
0.576	54.544	-17797	1914.9	0.16719	-0.0122	1.0068
0.578	54.59	-17792	1914.9	0.16582	-0.0122	1.007
0.58	54.638	-17792	1914.8	0.16446	-0.0122	1.0072
0.582	54.597	-17792	1914.7	0.16377	-0.012395	1.008
0.584	54.544	-17796	1914.6	0.16309	-0.01259	1.0088
0.586	54.517	-17799	1914.5	0.16241	-0.012786	1.0096
0.588	54.535	-17800	1914.4	0.16172	-0.012981	1.0104
0.59	54.572	-17801	1914.3	0.16104	-0.013176	1.0111
0.592	54.572	-17794	1914.2	0.16221	-0.013078	1.0102
0.594	54.57	-17788	1914.2	0.16338	-0.012981	1.0092
0.596	54.574	-17795	1914.1	0.16455	-0.012883	1.0082
0.598	54.571	-17801	1914	0.16572	-0.012786	1.0072
0.6	54.568	-17795	1914	0.1669	-0.012688	1.0063
0.602	54.536	-17788	1914	0.16602	-0.013371	1.0067
0.604	54.517	-17791	1913.9	0.16514	-0.014054	1.0072
0.606	54.558	-17793	1913.9	0.16426	-0.014738	1.0077
0.608	54.608	-17788	1913.8	0.16338	-0.015421	1.0082
0.61	54.606	-17784	1913.7	0.1625	-0.016104	1.0087
0.612	54.577	-17787	1913.7	0.16241	-0.016202	1.0082
0.614	54.568	-17790	1913.6	0.16231	-0.016299	1.0077
0.616	54.551	-17791	1913.5	0.16221	-0.016397	1.0072
0.618	54.549	-17793	1913.5	0.16211	-0.016494	1.0067
0.62	54.558	-17796	1913.4	0.16202	-0.016592	1.0063
0.622	54.558	-17800	1913.4	0.1628	-0.016787	1.0062
0.624	54.546	-17800	1913.4	0.16358	-0.016982	1.0061
0.626	54.543	-17801	1913.4	0.16436	-0.017178	1.006
0.628	54.559	-17798	1913.4	0.16514	-0.017373	1.0059
0.63	54.551	-17795	1913.4	0.16592	-0.017568	1.0058
0.632	54.524	-17799	1913.4	0.16485	-0.017373	1.0061
0.634	54.529	-17803	1913.3	0.16377	-0.017178	1.0064
0.636	54.571	-17800	1913.3	0.1627	-0.016982	1.0066
0.638	54.591	-17796	1913.3	0.16163	-0.016787	1.0069
0.64	54.572	-17796	1913.3	0.16055	-0.016592	1.0072
0.642	54.561	-17795	1913.3	0.16172	-0.016592	1.0074
0.644	54.504	-17793	1913.2	0.16289	-0.016592	1.0076
0.646	54.528	-17790	1913.2	0.16407	-0.016592	1.0078
0.648	54.57	-17791	1913.1	0.16524	-0.016592	1.008
0.65	54.546	-17792	1913	0.16641	-0.016592	1.0082
0.652	54.493	-17794	1913	0.16494	-0.017275	1.0085
0.654	54.507	-17796	1913	0.16348	-0.017958	1.0088
0.656	54.542	-17795	1913	0.16202	-0.018642	1.0091
0.658	54.576	-17793	1913	0.16055	-0.019325	1.0094
0.66	54.604	-17797	1913	0.15909	-0.020008	1.0097
0.662	54.571	-17802	1912.9	0.15821	-0.019618	1.0092
0.664	54.507	-17795	1912.9	0.15733	-0.019227	1.0087
0.666	54.468	-17789	1912.9	0.15645	-0.018837	1.0082
0.668	54.457	-17793	1912.9	0.15557	-0.018446	1.0077
0.67	54.456	-17798	1912.9	0.1547	-0.018056	1.0072
0.672	54.446	-17795	1912.8	0.15577	-0.018642	1.0076
0.674	54.447	-17793	1912.8	0.15684	-0.019227	1.008
0.676	54.474	-17797	1912.8	0.15792	-0.019813	1.0084
0.678	54.515	-17801	1912.8	0.15899	-0.020398	1.0088
0.68	54.539	-17795	1912.7	0.16006	-0.020984	1.0092
0.682	54.51	-17789	1912.7	0.16026	-0.020691	1.0091
0.684	54.463	-17789	1912.7	0.16045	-0.020398	1.009
0.686	54.477	-17789	1912.7	0.16065	-0.020106	1.0089
0.688	54.534	-17791	1912.7	0.16084	-0.019813	1.0088
0.69	54.549	-17792	1912.6	0.16104	-0.01952	1.0087
0.692	54.514	-17795	1912.6	0.16084	-0.020203	1.0089
0.694	54.486	-17797	1912.6	0.16065	-0.020886	1.0091
0.696	54.464	-17798	1912.6	0.16045	-0.02157	1.0093
0.698	54.469	-17800	1912.7	0.16026	-0.022253	1.0095
0.7	54.536	-17798	1912.7	0.16006	-0.022936	1.0097
0.702	54.524	-17797	1912.7	0.16104	-0.02235	1.009
0.704	54.465	-17794	1912.6	0.16202	-0.021765	1.0083
0.706	54.482	-17791	1912.6	0.16299	-0.021179	1.0076
0.708	54.52	-17794	1912.6	0.16397	-0.020594	1.0069
0.71	54.529	-17796	1912.6	0.16494	-0.020008	1.0063
0.712	54.509	-17794	1912.5	0.16387	-0.020106	1.0074
0.714	54.503	-17793	1912.4	0.1628	-0.020203	1.0086
0.716	54.486	-17800	1912.4	0.16172	-0.020301	1.0098
0.718	54.529	-17807	1912.4	0.16065	-0.020398	1.0109
0.72	54.607	-17801	1912.4	0.15958	-0.020496	1.0121
0.722	54.622	-17796	1912.4	0.16006	-0.021082	1.0122
0.724	54.667	-17801	1912.4	0.16055	-0.021667	1.0123
0.726	54.606	-17806	1912.3	0.16104	-0.022253	1.0124
0.728	54.539	-17805	1912.3	0.16153	-0.022838	1.0125
0.73	54.558	-17803	1912.3	0.16202	-0.023424	1.0126
0.732	54.604	-17801	1912.3	0.16299	-0.022058	1.0125
0.734	54.573	-17798	1912.3	0.16397	-0.020691	1.0124
0.736	54.524	-17808	1912.3	0.16494	-0.019325	1.0123
0.738	54.532	-17818	1912.2	0.16592	-0.017958	1.0122
0.74	54.619	-17816	1912.2	0.1669	-0.016592	1.0121
0.742	54.633	-17813	1912.2	0.16787	-0.016397	1.0128
0.744	54.624	-17807	1912.1	0.16885	-0.016202	1.0135
0.746	54.609	-17801	1912.1	0.16982	-0.016006	1.0142
0.748	54.602	-17804	1912.1	0.1708	-0.015811	1.0148
0.75	54.621	-17807	1912	0.17178	-0.015616	1.0155
0.752	54.604	-17808	1912	0.17265	-0.016494	1.0153
0.754	54.577	-17809	1911.9	0.17353	-0.017373	1.0151
0.756	54.581	-17805	1911.9	0.17441	-0.018251	1.0149
0.758	54.593	-17801	1911.9	0.17529	-0.01913	1.0147
0.76	54.602	-17799	1911.9	0.17617	-0.020008	1.0146
0.762	54.62	-17798	1911.8	0.17392	-0.019422	1.014
0.764	54.63	-17803	1911.8	0.17168	-0.018837	1.0134
0.766	54.616	-17809	1911.8	0.16943	-0.018251	1.0128
0.768	54.597	-17812	1911.8	0.16719	-0.017666	1.0122
0.77	54.6	-17814	1911.8	0.16494	-0.01708	1.0116
0.772	54.623	-17814	1911.7	0.16699	-0.01747	1.0122
0.774	54.629	-17814	1911.6	0.16904	-0.017861	1.0128
0.776	54.608	-17811	1911.6	0.17109	-0.018251	1.0134
0.778	54.59	-17808	1911.5	0.17314	-0.018642	1.014
0.78	54.594	-17807	1911.5	0.17519	-0.019032	1.0146
0.782	54.617	-17807	1911.4	0.1748	-0.018642	1.0143
0.784	54.663	-17811	1911.4	0.17441	-0.018251	1.014
0.786	54.689	-17815	1911.3	0.17402	-0.017861	1.0137
0.788	54.73	-17814	1911.3	0.17363	-0.01747	1.0134
0.79	54.78	-17812	1911.2	0.17324	-0.01708	1.0131
0.792	54.762	-17811	1911.1	0.17373	-0.01708	1.0139
0.794	54.697	-17810	1911.1	0.17422	-0.01708	1.0146
0.796	54.637	-17811	1911	0.1747	-0.01708	1.0154
0.798	54.605	-17811	1910.9	0.17519	-0.01708	1.0162
0.8	54.547	-17812	1910.8	0.17568	-0.01708	1.017
0.802	54.45	-17813	1910.7	0.17539	-0.017275	1.0168
0.804	54.349	-17816	1910.7	0.17509	-0.01747	1.0166
0.806	54.221	-17818	1910.7	0.1748	-0.017666	1.0164
0.808	54.129	-17813	1910.6	0.17451	-0.017861	1.0162
0.81	53.99	-17808	1910.6	0.17422	-0.018056	1.016
0.812	53.847	-17807	1910.5	0.17314	-0.016787	1.0163
0.814	53.746	-17806	1910.5	0.17207	-0.015518	1.0166
0.816	53.675	-17808	1910.4	0.171	-0.01425	1.0169
0.818	53.593	-17811	1910.4	0.16992	-0.012981	1.0172
0.82	53.491	-17814	1910.3	0.16885	-0.011712	1.0175
0.822	53.518	-17818	1910.3	0.16992	-0.01259	1.017
0.824	53.625	-17818	1910.2	0.171	-0.013469	1.0165
0.826	53.783	-17818	1910.1	0.17207	-0.014347	1.016
0.828	53.972	-17818	1910.1	0.17314	-0.015226	1.0155
0.83	54.107	-17818	1910.1	0.17422	-0.016104	1.015
0.832	54.235	-17817	1910	0.17402	-0.016202	1.0147
0.834	54.367	-17816	1910	0.17383	-0.016299	1.0145
0.836	54.457	-17815	1910	0.17363	-0.016397	1.0142
0.838	54.516	-17814	1909.9	0.17344	-0.016494	1.0139
0.84	54.573	-17813	1909.9	0.17324	-0.016592	1.0136
0.842	54.61	-17813	1909.9	0.17217	-0.01503	1.0127
0.844	54.584	-17818	1909.9	0.17109	-0.013469	1.0118
0.846	54.582	-17823	1909.9	0.17002	-0.011907	1.0109
0.848	54.645	-17824	1909.9	0.16895	-0.010346	1.0101
0.85	54.658	-17826	1910	0.16787	-0.008784	1.0092
0.852	54.595	-17822	1910	0.16816	-0.0095648	1.0097
0.854	54.545	-17818	1910	0.16846	-0.010346	1.0102
0.856	54.546	-17821	1910	0.16875	-0.011126	1.0106
0.858	54.583	-17824	1909.9	0.16904	-0.011907	1.0111
0.86	54.59	-17823	1909.9	0.16934	-0.012688	1.0116
0.862	54.541	-17823	1909.9	0.16924	-0.012786	1.0115
0.864	54.529	-17826	1909.9	0.16914	-0.012883	1.0114
0.866	54.547	-17828	1909.9	0.16904	-0.012981	1.0113
0.868	54.569	-17838	1909.9	0.16895	-0.013078	1.0112
0.87	54.575	-17847	1909.9	0.16885	-0.013176	1.0111
0.872	54.563	-17847	1909.9	0.16846	-0.012395	1.0103
0.874	54.55	-17847	1909.9	0.16807	-0.011614	1.0094
0.876	54.57	-17844	1909.9	0.16768	-0.010834	1.0085
0.878	54.567	-17842	1909.8	0.16729	-0.010053	1.0076
0.88	54.498	-17847	1909.8	0.1669	-0.009272	1.0067
0.882	54.496	-17852	1909.8	0.16826	-0.01015	1.0062
0.884	54.599	-17850	1909.8	0.16963	-0.011029	1.0056
0.886	54.608	-17848	1909.8	0.171	-0.011907	1.005
0.888	54.594	-17836	1909.8	0.17236	-0.012786	1.0044
0.89	54.573	-17824	1909.8	0.17373	-0.013664	1.0038
0.892	54.582	-17826	1909.8	0.17304	-0.013664	1.0036
0.894	54.621	-17827	1909.7	0.17236	-0.013664	1.0034
0.896	54.568	-17832	1909.7	0.17168	-0.013664	1.0032
0.898	54.536	-17837	1909.7	0.171	-0.013664	1.003
0.9	54.547	-17837	1909.6	0.17031	-0.013664	1.0028
0.902	54.541	-17837	1909.6	0.16846	-0.012981	1.0018
0.904	54.581	-17838	1909.5	0.1666	-0.012298	1.0007
0.906	54.557	-17840	1909.5	0.16475	-0.011614	0.99962
0.908	54.523	-17838	1909.4	0.16289	-0.010931	0.99855
0.91	54.525	-17837	1909.4	0.16104	-0.010248	0.99747
0.912	54.501	-17835	1909.4	0.16104	-0.01015	0.99728
0.914	54.502	-17833	1909.4	0.16104	-0.010053	0.99708
0.916	54.518	-17836	1909.4	0.16104	-0.0099552	0.99689
0.918	54.529	-17839	1909.4	0.16104	-0.0098576	0.99669
0.92	54.551	-17837	1909.4	0.16104	-0.00976	0.9965
0.922	54.591	-17836	1909.4	0.16006	-0.010443	0.99698
0.924	54.574	-17843	1909.4	0.15909	-0.011126	0.99747
0.926	54.543	-17849	1909.4	0.15811	-0.01181	0.99796
0.928	54.563	-17845	1909.3	0.15714	-0.012493	0.99845
0.93	54.581	-17841	1909.3	0.15616	-0.013176	0.99894
0.932	54.541	-17846	1909.3	0.15782	-0.0122	0.99894
0.934	54.488	-17851	1909.3	0.15948	-0.011224	0.99894
0.936	54.482	-17844	1909.3	0.16114	-0.010248	0.99894
0.938	54.503	-17836	1909.3	0.1628	-0.009272	0.99894
0.94	54.506	-17840	1909.3	0.16446	-0.008296	0.99894
0.942	54.513	-17843	1909.4	0.16387	-0.008296	0.99835
0.944	54.526	-17849	1909.4	0.16328	-0.008296	0.99776
0.946	54.519	-17855	1909.4	0.1627	-0.008296	0.99718
0.948	54.518	-17852	1909.4	0.16211	-0.008296	0.99659
0.95	54.503	-17849	1909.4	0.16153	-0.008296	0.99601
0.952	54.489	-17850	1909.4	0.16045	-0.0093696	0.99611
0.954	54.522	-17852	1909.5	0.15938	-0.010443	0.9962
0.956	54.538	-17852	1909.5	0.15831	-0.011517	0.9963
0.958	54.498	-17853	1909.5	0.15723	-0.01259	0.9964
0.96	54.504	-17848	1909.5	0.15616	-0.013664	0.9965
0.962	54.523	-17842	1909.5	0.15616	-0.013469	0.9963
0.964	54.517	-17850	1909.5	0.15616	-0.013274	0.99611
0.966	54.514	-17857	1909.5	0.15616	-0.013078	0.99591
0.968	54.45	-17856	1909.5	0.15616	-0.012883	0.99572
0.97	54.467	-17856	1909.5	0.15616	-0.012688	0.99552
0.972	54.483	-17849	1909.5	0.15655	-0.012981	0.99562
0.974	54.493	-17841	1909.5	0.15694	-0.013274	0.99572
0.976	54.454	-17849	1909.5	0.15733	-0.013566	0.99581
0.978	54.413	-17856	1909.6	0.15772	-0.013859	0.99591
0.98	54.473	-17858	1909.6	0.15811	-0.014152	0.99601
0.982	54.494	-17859	1909.8	0.15977	-0.01259	0.99679
0.984	54.459	-17859	1909.9	0.16143	-0.011029	0.99757
0.986	54.509	-17858	1909.9	0.16309	-0.0094672	0.99835
0.988	54.537	-17860	1910	0.16475	-0.0079056	0.99913
0.99	54.485	-17861	1910	0.16641	-0.006344	0.99991
0.992	54.451	-17853	1910.1	0.16651	-0.0059536	0.99981
0.994	54.474	-17845	1910.2	0.1666	-0.0055632	0.99972
0.996	54.496	-17848	1910.3	0.1667	-0.0051728	0.99962
0.998	54.508	-17851	1910.4	0.1668	-0.0047824	0.99952
1	54.525	-17846	1910.5	0.1669	-0.004392	0.99942
1.002	54.512	-17841	1910.6	0.16621	-0.00488	0.99923
1.004	54.502	-17848	1910.6	0.16553	-0.005368	0.99903
1.006	54.475	-17856	1910.7	0.16485	-0.005856	0.99884
1.008	54.443	-17857	1910.8	0.16416	-0.006344	0.99864
1.01	54.476	-17859	1910.9	0.16348	-0.006832	0.99845
1.012	54.543	-17856	1911	0.16348	-0.0075152	0.99884
1.014	54.565	-17853	1911.1	0.16348	-0.0081984	0.99923
1.016	54.535	-17853	1911.2	0.16348	-0.0088816	0.99962
1.018	54.506	-17853	1911.3	0.16348	-0.0095648	1
1.02	54.503	-17847	1911.4	0.16348	-0.010248	1.0004
1.022	54.495	-17841	1911.5	0.16563	-0.010931	1.0014
1.024	54.469	-17845	1911.6	0.16777	-0.011614	1.0024
1.026	54.461	-17849	1911.7	0.16992	-0.012298	1.0033
1.028	54.489	-17848	1911.7	0.17207	-0.012981	1.0043
1.03	54.52	-17847	1911.8	0.17422	-0.013664	1.0053
1.032	54.536	-17845	1911.9	0.17451	-0.014152	1.0046
1.034	54.529	-17842	1912	0.1748	-0.01464	1.0039
1.036	54.458	-17844	1912	0.17509	-0.015128	1.0032
1.038	54.425	-17845	1912.1	0.17539	-0.015616	1.0025
1.04	54.447	-17846	1912.2	0.17568	-0.016104	1.0019
1.042	54.502	-17847	1912.3	0.17636	-0.015714	1.0028
1.044	54.496	-17844	1912.4	0.17705	-0.015323	1.0038
1.046	54.457	-17841	1912.5	0.17773	-0.014933	1.0048
1.048	54.435	-17838	1912.5	0.17841	-0.014542	1.0058
1.05	54.462	-17836	1912.6	0.1791	-0.014152	1.0067
1.052	54.466	-17841	1912.6	0.17724	-0.013274	1.0077
1.054	54.488	-17845	1912.7	0.17539	-0.012395	1.0087
1.056	54.517	-17837	1912.7	0.17353	-0.011517	1.0097
1.058	54.52	-17828	1912.8	0.17168	-0.010638	1.0106
1.06	54.49	-17828	1912.8	0.16982	-0.00976	1.0116
1.062	54.516	-17829	1912.9	0.17109	-0.010931	1.0125
1.064	54.574	-17834	1913	0.17236	-0.012102	1.0134
1.066	54.524	-17840	1913	0.17363	-0.013274	1.0143
1.068	54.458	-17836	1913	0.1749	-0.014445	1.0151
1.07	54.449	-17832	1913	0.17617	-0.015616	1.016
1.072	54.475	-17832	1913.1	0.17509	-0.015616	1.015
1.074	54.531	-17832	1913.1	0.17402	-0.015616	1.0141
1.076	54.54	-17826	1913.1	0.17295	-0.015616	1.0131
1.078	54.501	-17820	1913.1	0.17187	-0.015616	1.0121
1.08	54.487	-17821	1913.2	0.1708	-0.015616	1.0111
1.082	54.523	-17823	1913.1	0.17139	-0.015714	1.012
1.084	54.55	-17822	1913.1	0.17197	-0.015811	1.0129
1.086	54.587	-17820	1913.2	0.17256	-0.015909	1.0138
1.088	54.582	-17823	1913.2	0.17314	-0.016006	1.0146
1.09	54.558	-17825	1913.2	0.17373	-0.016104	1.0155
1.092	54.544	-17821	1913.2	0.17285	-0.01503	1.0153
1.094	54.535	-17817	1913.1	0.17197	-0.013957	1.0151
1.096	54.503	-17818	1913.1	0.17109	-0.012883	1.0149
1.098	54.455	-17819	1913.2	0.17021	-0.01181	1.0147
1.1	54.434	-17820	1913.2	0.16934	-0.010736	1.0146
1.102	54.474	-17821	1913.2	0.16943	-0.011029	1.0142
1.104	54.551	-17822	1913.2	0.16953	-0.011322	1.0138
1.106	54.612	-17824	1913.2	0.16963	-0.011614	1.0134
1.108	54.647	-17819	1913.2	0.16973	-0.011907	1.013
1.11	54.631	-17815	1913.2	0.16982	-0.0122	1.0126
1.112	54.583	-17817	1913.1	0.16934	-0.011907	1.0125
1.114	54.556	-17820	1913.1	0.16885	-0.011614	1.0124
1.116	54.516	-17812	1913.1	0.16836	-0.011322	1.0123
1.118	54.475	-17804	1913	0.16787	-0.011029	1.0122
1.12	54.467	-17806	1913	0.16738	-0.010736	1.0121
1.122	54.504	-17808	1913	0.16729	-0.010736	1.0121
1.124	54.554	-17809	1913	0.16719	-0.010736	1.0121
1.126	54.529	-17811	1912.9	0.16709	-0.010736	1.0121
1.128	54.495	-17811	1912.9	0.16699	-0.010736	1.0121
1.13	54.564	-17812	1912.9	0.1669	-0.010736	1.0121
1.132	54.582	-17812	1912.8	0.16651	-0.011614	1.0118
1.134	54.582	-17812	1912.8	0.16612	-0.012493	1.0115
1.136	54.585	-17809	1912.7	0.16572	-0.013371	1.0112
1.138	54.537	-17806	1912.7	0.16533	-0.01425	1.0109
1.14	54.539	-17800	1912.6	0.16494	-0.015128	1.0106
1.142	54.516	-17794	1912.6	0.16533	-0.015518	1.0101
1.144	54.538	-17796	1912.6	0.16572	-0.015909	1.0095
1.146	54.584	-17798	1912.6	0.16612	-0.016299	1.0089
1.148	54.591	-17793	1912.5	0.16651	-0.01669	1.0083
1.15	54.574	-17789	1912.5	0.1669	-0.01708	1.0077
1.152	54.51	-17794	1912.5	0.16572	-0.017275	1.0074
1.154	54.556	-17799	1912.5	0.16455	-0.01747	1.0071
1.156	54.567	-17797	1912.5	0.16338	-0.017666	1.0068
1.158	54.541	-17796	1912.5	0.16221	-0.017861	1.0065
1.16	54.517	-17797	1912.4	0.16104	-0.018056	1.0063
1.162	54.521	-17798	1912.4	0.16328	-0.01747	1.0058
1.164	54.524	-17798	1912.3	0.16553	-0.016885	1.0053
1.166	54.528	-17798	1912.3	0.16777	-0.016299	1.0048
1.168	54.536	-17790	1912.3	0.17002	-0.015714	1.0043
1.17	54.528	-17782	1912.3	0.17226	-0.015128	1.0038
1.172	54.54	-17782	1912.2	0.16914	-0.015714	1.0021
1.174	54.57	-17782	1912.2	0.16602	-0.016299	1.0003
1.176	54.514	-17788	1912.2	0.16289	-0.016885	0.99855
1.178	54.442	-17794	1912.2	0.15977	-0.01747	0.99679
1.18	54.436	-17792	1912.1	0.15665	-0.018056	0.99503
1.182	54.466	-17791	1912.1	0.15636	-0.017958	0.99513
1.184	54.489	-17788	1912.1	0.15606	-0.017861	0.99523
1.186	54.516	-17785	1912.1	0.15577	-0.017763	0.99532
1.188	54.548	-17785	1912	0.15548	-0.017666	0.99542
1.19	54.536	-17785	1912	0.15518	-0.017568	0.99552
1.192	54.536	-17789	1911.9	0.15548	-0.01747	0.99601
1.194	54.59	-17794	1911.9	0.15577	-0.017373	0.9965
1.196	54.612	-17792	1911.8	0.15606	-0.017275	0.99698
1.198	54.586	-17790	1911.8	0.15636	-0.017178	0.99747
1.2	54.537	-17787	1911.7	0.15665	-0.01708	0.99796
1.202	54.479	-17785	1911.7	0.15723	-0.01747	0.99796
1.204	54.481	-17786	1911.6	0.15782	-0.017861	0.99796
1.206	54.498	-17786	1911.5	0.1584	-0.018251	0.99796
1.208	54.492	-17787	1911.5	0.15899	-0.018642	0.99796
1.21	54.52	-17787	1911.4	0.15958	-0.019032	0.99796
1.212	54.532	-17790	1911.4	0.15928	-0.018642	0.99796
1.214	54.519	-17792	1911.4	0.15899	-0.018251	0.99796
1.216	54.545	-17791	1911.4	0.1587	-0.017861	0.99796
1.218	54.532	-17790	1911.4	0.1584	-0.01747	0.99796
1.22	54.539	-17791	1911.4	0.15811	-0.01708	0.99796
1.222	54.53	-17792	1911.4	0.15997	-0.01708	0.99825
1.224	54.505	-17794	1911.3	0.16182	-0.01708	0.99855
1.226	54.542	-17796	1911.3	0.16368	-0.01708	0.99884
1.228	54.534	-17792	1911.3	0.16553	-0.01708	0.99913
1.23	54.506	-17787	1911.3	0.16738	-0.01708	0.99942
1.232	54.485	-17785	1911.3	0.16787	-0.016592	0.99972
1.234	54.492	-17783	1911.4	0.16836	-0.016104	1
1.236	54.452	-17784	1911.4	0.16885	-0.015616	1.0003
1.238	54.466	-17784	1911.5	0.16934	-0.015128	1.0006
1.24	54.482	-17787	1911.6	0.16982	-0.01464	1.0009
1.242	54.472	-17790	1911.6	0.16914	-0.015323	0.99923
1.244	54.415	-17792	1911.6	0.16846	-0.016006	0.99757
1.246	54.395	-17794	1911.6	0.16777	-0.01669	0.99591
1.248	54.483	-17794	1911.6	0.16709	-0.017373	0.99425
1.25	54.519	-17795	1911.6	0.16641	-0.018056	0.99259
1.252	54.447	-17795	1911.6	0.16465	-0.018349	0.99337
1.254	54.435	-17796	1911.5	0.16289	-0.018642	0.99415
1.256	54.445	-17795	1911.5	0.16114	-0.018934	0.99493
1.258	54.445	-17793	1911.4	0.15938	-0.019227	0.99572
1.26	54.44	-17791	1911.4	0.15762	-0.01952	0.9965
1.262	54.446	-17789	1911.3	0.15831	-0.019813	0.99689
1.264	54.462	-17791	1911.3	0.15899	-0.020106	0.99728
1.266	54.471	-17793	1911.2	0.15967	-0.020398	0.99767
1.268	54.47	-17795	1911.1	0.16036	-0.020691	0.99806
1.27	54.503	-17797	1911	0.16104	-0.020984	0.99845
1.272	54.533	-17796	1910.9	0.16211	-0.020203	0.99825
1.274	54.534	-17796	1910.9	0.16319	-0.019422	0.99806
1.276	54.513	-17794	1910.8	0.16426	-0.018642	0.99786
1.278	54.471	-17792	1910.7	0.16533	-0.017861	0.99767
1.28	54.454	-17795	1910.7	0.16641	-0.01708	0.99747
1.282	54.472	-17798	1910.7	0.16807	-0.018056	0.99796
1.284	54.467	-17799	1910.6	0.16973	-0.019032	0.99845
1.286	54.441	-17800	1910.6	0.17139	-0.020008	0.99894
1.288	54.471	-17798	1910.6	0.17304	-0.020984	0.99942
1.29	54.555	-17797	1910.6	0.1747	-0.02196	0.99991
1.292	54.575	-17798	1910.5	0.17548	-0.021277	1.0008
1.294	54.549	-17799	1910.4	0.17627	-0.020594	1.0017
1.296	54.547	-17794	1910.3	0.17705	-0.01991	1.0025
1.298	54.531	-17788	1910.2	0.17783	-0.019227	1.0034
1.3	54.513	-17792	1910.2	0.17861	-0.018544	1.0043
1.302	54.522	-17796	1910.1	0.17705	-0.017958	1.0052
1.304	54.542	-17794	1910.1	0.17548	-0.017373	1.0061
1.306	54.508	-17792	1910.1	0.17392	-0.016787	1.0069
1.308	54.475	-17793	1910	0.17236	-0.016202	1.0078
1.31	54.547	-17794	1910	0.1708	-0.015616	1.0087
1.312	54.56	-17792	1910	0.17119	-0.015811	1.0102
1.314	54.549	-17790	1909.9	0.17158	-0.016006	1.0116
1.316	54.554	-17790	1909.9	0.17197	-0.016202	1.0131
1.318	54.569	-17790	1909.9	0.17236	-0.016397	1.0146
1.32	54.564	-17796	1909.8	0.17275	-0.016592	1.016
1.322	54.6	-17801	1909.8	0.17304	-0.017373	1.0155
1.324	54.605	-17802	1909.7	0.17334	-0.018154	1.015
1.326	54.603	-17803	1909.7	0.17363	-0.018934	1.0146
1.328	54.586	-17798	1909.7	0.17392	-0.019715	1.0141
1.33	54.593	-17794	1909.7	0.17422	-0.020496	1.0136
1.332	54.569	-17797	1909.7	0.17392	-0.019813	1.0141
1.334	54.542	-17800	1909.7	0.17363	-0.01913	1.0146
1.336	54.535	-17801	1909.6	0.17334	-0.018446	1.015
1.338	54.508	-17801	1909.6	0.17304	-0.017763	1.0155
1.34	54.572	-17803	1909.5	0.17275	-0.01708	1.016
1.342	54.598	-17805	1909.5	0.17295	-0.01708	1.0159
1.344	54.602	-17802	1909.4	0.17314	-0.01708	1.0158
1.346	54.649	-17800	1909.3	0.17334	-0.01708	1.0157
1.348	54.613	-17800	1909.3	0.17353	-0.01708	1.0156
1.35	54.559	-17801	1909.2	0.17373	-0.01708	1.0155
1.352	54.549	-17797	1909.1	0.17363	-0.01708	1.0157
1.354	54.576	-17793	1909.1	0.17353	-0.01708	1.0159
1.356	54.602	-17798	1909	0.17344	-0.01708	1.0161
1.358	54.642	-17804	1909	0.17334	-0.01708	1.0163
1.36	54.677	-17805	1909	0.17324	-0.01708	1.0165
1.362	54.684	-17805	1908.9	0.17334	-0.01708	1.016
1.364	54.675	-17804	1908.8	0.17344	-0.01708	1.0155
1.366	54.68	-17802	1908.8	0.17353	-0.01708	1.015
1.368	54.712	-17800	1908.7	0.17363	-0.01708	1.0146
1.37	54.693	-17797	1908.6	0.17373	-0.01708	1.0141
1.372	54.611	-17799	1908.6	0.17422	-0.016885	1.0147
1.374	54.528	-17801	1908.5	0.1747	-0.01669	1.0154
1.376	54.464	-17807	1908.4	0.17519	-0.016494	1.0161
1.378	54.395	-17814	1908.4	0.17568	-0.016299	1.0168
1.38	54.288	-17809	1908.4	0.17617	-0.016104	1.0175
1.382	54.204	-17804	1908.4	0.17695	-0.015323	1.0177
1.384	54.055	-17803	1908.3	0.17773	-0.014542	1.0179
1.386	53.898	-17802	1908.3	0.17851	-0.013762	1.0181
1.388	53.807	-17797	1908.3	0.17929	-0.012981	1.0183
1.39	53.691	-17793	1908.3	0.18007	-0.0122	1.0185
1.392	53.556	-17796	1908.3	0.1788	-0.013566	1.0179
1.394	53.449	-17798	1908.4	0.17753	-0.014933	1.0173
1.396	53.378	-17807	1908.3	0.17627	-0.016299	1.0167
1.398	53.409	-17815	1908.3	0.175	-0.017666	1.0161
1.4	53.574	-17813	1908.3	0.17373	-0.019032	1.0155
1.402	53.875	-17811	1908.3	0.17226	-0.018642	1.0148
1.404	54.102	-17807	1908.3	0.1708	-0.018251	1.0142
1.406	54.186	-17803	1908.3	0.16934	-0.017861	1.0135
1.408	54.229	-17801	1908.3	0.16787	-0.01747	1.0128
1.41	54.366	-17799	1908.3	0.16641	-0.01708	1.0121
1.412	54.488	-17800	1908.3	0.16582	-0.016982	1.0116
1.414	54.542	-17800	1908.3	0.16524	-0.016885	1.0111
1.416	54.592	-17806	1908.3	0.16465	-0.016787	1.0106
1.418	54.604	-17811	1908.3	0.16407	-0.01669	1.0102
1.42	54.6	-17813	1908.3	0.16348	-0.016592	1.0097
1.422	54.61	-17815	1908.3	0.16407	-0.016592	1.01
1.424	54.573	-17814	1908.3	0.16465	-0.016592	1.0103
1.426	54.552	-17813	1908.3	0.16524	-0.016592	1.0106
1.428	54.532	-17810	1908.3	0.16582	-0.016592	1.0108
1.43	54.489	-17807	1908.3	0.16641	-0.016592	1.0111
1.432	54.469	-17807	1908.3	0.16738	-0.016787	1.0101
1.434	54.491	-17806	1908.3	0.16836	-0.016982	1.009
1.436	54.537	-17810	1908.3	0.16934	-0.017178	1.0079
1.438	54.551	-17813	1908.3	0.17031	-0.017373	1.0068
1.44	54.502	-17810	1908.3	0.17129	-0.017568	1.0058
1.442	54.462	-17807	1908.4	0.17129	-0.017275	1.0061
1.444	54.491	-17807	1908.4	0.17129	-0.016982	1.0064
1.446	54.54	-17808	1908.4	0.17129	-0.01669	1.0066
1.448	54.55	-17811	1908.3	0.17129	-0.016397	1.0069
1.45	54.58	-17815	1908.3	0.17129	-0.016104	1.0072
1.452	54.595	-17815	1908.3	0.17002	-0.016299	1.0068
1.454	54.523	-17814	1908.3	0.16875	-0.016494	1.0065
1.456	54.471	-17817	1908.2	0.16748	-0.01669	1.0061
1.458	54.48	-17819	1908.2	0.16621	-0.016885	1.0057
1.46	54.513	-17824	1908.1	0.16494	-0.01708	1.0053
1.462	54.516	-17828	1908.1	0.16426	-0.015909	1.0063
1.464	54.534	-17824	1908	0.16358	-0.014738	1.0072
1.466	54.576	-17820	1908	0.16289	-0.013566	1.0082
1.468	54.586	-17828	1907.9	0.16221	-0.012395	1.0092
1.47	54.557	-17835	1907.8	0.16153	-0.011224	1.0102
1.472	54.532	-17833	1907.8	0.16153	-0.012493	1.0095
1.474	54.534	-17832	1907.7	0.16153	-0.013762	1.0088
1.476	54.531	-17836	1907.6	0.16153	-0.01503	1.0081
1.478	54.495	-17839	1907.6	0.16153	-0.016299	1.0074
1.48	54.475	-17839	1907.6	0.16153	-0.017568	1.0067
1.482	54.532	-17839	1907.5	0.16192	-0.016006	1.0065
1.484	54.524	-17833	1907.5	0.16231	-0.014445	1.0062
1.486	54.519	-17828	1907.5	0.1627	-0.012883	1.0059
1.488	54.518	-17829	1907.4	0.16309	-0.011322	1.0056
1.49	54.493	-17830	1907.4	0.16348	-0.00976	1.0053
1.492	54.428	-17831	1907.4	0.16485	-0.0098576	1.0058
1.494	54.468	-17831	1907.4	0.16621	-0.0099552	1.0063
1.496	54.561	-17822	1907.4	0.16758	-0.010053	1.0067
1.498	54.559	-17814	1907.4	0.16895	-0.01015	1.0072
1.5	54.527	-17818	1907.4	0.17031	-0.010248	1.0077
1.502	54.575	-17823	1907.3	0.16982	-0.0098576	1.007
1.504	54.552	-17829	1907.3	0.16934	-0.0094672	1.0064
1.506	54.477	-17836	1907.3	0.16885	-0.0090768	1.0057
1.508	54.441	-17840	1907.2	0.16836	-0.0086864	1.005
1.51	54.431	-17844	1907.2	0.16787	-0.008296	1.0043
1.512	54.443	-17842	1907.3	0.16699	-0.0095648	1.0051
1.514	54.475	-17839	1907.3	0.16612	-0.010834	1.0059
1.516	54.541	-17838	1907.3	0.16524	-0.012102	1.0066
1.518	54.536	-17836	1907.3	0.16436	-0.013371	1.0074
1.52	54.5	-17838	1907.4	0.16348	-0.01464	1.0082
1.522	54.476	-17840	1907.4	0.16465	-0.013762	1.007
1.524	54.429	-17844	1907.4	0.16582	-0.012883	1.0059
1.526	54.366	-17848	1907.4	0.16699	-0.012005	1.0047
1.528	54.412	-17842	1907.5	0.16816	-0.011126	1.0035
1.53	54.471	-17837	1907.5	0.16934	-0.010248	1.0024
1.532	54.47	-17836	1907.5	0.16904	-0.010346	1.0028
1.534	54.472	-17835	1907.6	0.16875	-0.010443	1.0033
1.536	54.468	-17834	1907.6	0.16846	-0.010541	1.0038
1.538	54.472	-17833	1907.6	0.16816	-0.010638	1.0043
1.54	54.468	-17836	1907.7	0.16787	-0.010736	1.0048
1.542	54.446	-17838	1907.7	0.16807	-0.010541	1.0044
1.544	54.441	-17848	1907.8	0.16826	-0.010346	1.004
1.546	54.435	-17857	1907.8	0.16846	-0.01015	1.0036
1.548	54.436	-17850	1907.9	0.16865	-0.0099552	1.0032
1.55	54.445	-17844	1907.9	0.16885	-0.00976	1.0028
1.552	54.435	-17844	1907.9	0.16953	-0.010346	1.0026
1.554	54.442	-17844	1907.9	0.17021	-0.010931	1.0024
1.556	54.473	-17851	1908	0.1709	-0.011517	1.0023
1.558	54.485	-17858	1908.1	0.17158	-0.012102	1.0021
1.56	54.467	-17855	1908.2	0.17226	-0.012688	1.0019
1.562	54.459	-17851	1908.3	0.17158	-0.0122	1.0014
1.564	54.461	-17851	1908.3	0.1709	-0.011712	1.0009
1.566	54.433	-17850	1908.5	0.17021	-0.011224	1.0004
1.568	54.468	-17847	1908.6	0.16953	-0.010736	0.99991
1.57	54.462	-17844	1908.8	0.16885	-0.010248	0.99942
1.572	54.43	-17843	1908.9	0.16943	-0.010053	0.99972
1.574	54.476	-17841	1909.1	0.17002	-0.0098576	1
1.576	54.49	-17842	1909.2	0.1706	-0.0096624	1.0003
1.578	54.469	-17843	1909.4	0.17119	-0.0094672	1.0006
1.58	54.437	-17847	1909.5	0.17178	-0.009272	1.0009
1.582	54.431	-17851	1909.6	0.17119	-0.0089792	1.0001
1.584	54.452	-17848	1909.8	0.1706	-0.0086864	0.99933
1.586	54.447	-17844	1909.9	0.17002	-0.0083936	0.99855
1.588	54.451	-17846	1910.1	0.16943	-0.0081008	0.99776
1.59	54.468	-17848	1910.2	0.16885	-0.007808	0.99698
1.592	54.464	-17843	1910.3	0.16738	-0.008784	0.99718
1.594	54.468	-17838	1910.4	0.16592	-0.00976	0.99737
1.596	54.467	-17837	1910.5	0.16446	-0.010736	0.99757
1.598	54.468	-17835	1910.6	0.16299	-0.011712	0.99776
1.6	54.486	-17836	1910.7	0.16153	-0.012688	0.99796
1.602	54.5	-17836	1910.8	0.16221	-0.012102	0.99786
1.604	54.498	-17833	1910.8	0.16289	-0.011517	0.99776
1.606	54.473	-17830	1910.9	0.16358	-0.010931	0.99767
1.608	54.458	-17834	1911	0.16426	-0.010346	0.99757
1.61	54.489	-17839	1911.1	0.16494	-0.00976	0.99747
1.612	54.506	-17836	1911.1	0.16621	-0.011224	0.99825
1.614	54.489	-17833	1911.1	0.16748	-0.012688	0.99903
1.616	54.469	-17832	1911.1	0.16875	-0.014152	0.99981
1.618	54.452	-17831	1911.1	0.17002	-0.015616	1.0006
1.62	54.443	-17833	1911.1	0.17129	-0.01708	1.0014
1.622	54.446	-17835	1911.2	0.17178	-0.016006	1.0021
1.624	54.438	-17836	1911.2	0.17226	-0.014933	1.0027
1.626	54.422	-17837	1911.3	0.17275	-0.013859	1.0034
1.628	54.427	-17832	1911.3	0.17324	-0.012786	1.0041
1.63	54.424	-17827	1911.4	0.17373	-0.011712	1.0048
1.632	54.436	-17826	1911.4	0.17285	-0.012102	1.0056
1.634	54.434	-17825	1911.5	0.17197	-0.012493	1.0064
1.636	54.381	-17826	1911.6	0.17109	-0.012883	1.0071
1.638	54.38	-17827	1911.7	0.17021	-0.013274	1.0079
1.64	54.43	-17823	1911.7	0.16934	-0.013664	1.0087
1.642	54.491	-17818	1911.7	0.17012	-0.013762	1.0081
1.644	54.439	-17817	1911.7	0.1709	-0.013859	1.0075
1.646	54.488	-17817	1911.7	0.17168	-0.013957	1.0069
1.648	54.48	-17815	1911.7	0.17246	-0.014054	1.0064
1.65	54.452	-17814	1911.7	0.17324	-0.014152	1.0058
1.652	54.487	-17815	1911.7	0.17304	-0.014835	1.0059
1.654	54.503	-17816	1911.7	0.17285	-0.015518	1.006
1.656	54.508	-17817	1911.7	0.17265	-0.016202	1.0061
1.658	54.485	-17818	1911.7	0.17246	-0.016885	1.0062
1.66	54.488	-17811	1911.7	0.17226	-0.017568	1.0063
1.662	54.51	-17804	1911.7	0.17178	-0.017568	1.0067
1.664	54.509	-17803	1911.7	0.17129	-0.017568	1.0072
1.666	54.503	-17802	1911.7	0.1708	-0.017568	1.0077
1.668	54.497	-17802	1911.7	0.17031	-0.017568	1.0082
1.67	54.457	-17802	1911.7	0.16982	-0.017568	1.0087
1.672	54.485	-17803	1911.6	0.16943	-0.016592	1.0102
1.674	54.529	-17803	1911.6	0.16904	-0.015616	1.0116
1.676	54.503	-17802	1911.6	0.16865	-0.01464	1.0131
1.678	54.489	-17801	1911.6	0.16826	-0.013664	1.0146
1.68	54.517	-17800	1911.6	0.16787	-0.012688	1.016
1.682	54.509	-17799	1911.5	0.16885	-0.013469	1.0161
1.684	54.491	-17802	1911.4	0.16982	-0.01425	1.0162
1.686	54.491	-17805	1911.4	0.1708	-0.01503	1.0163
1.688	54.476	-17803	1911.3	0.17178	-0.015811	1.0164
1.69	54.478	-17802	1911.2	0.17275	-0.016592	1.0165
1.692	54.509	-17800	1911.2	0.17256	-0.01708	1.0164
1.694	54.557	-17799	1911.1	0.17236	-0.017568	1.0163
1.696	54.544	-17798	1911.1	0.17217	-0.018056	1.0162
1.698	54.508	-17798	1911	0.17197	-0.018544	1.0161
1.7	54.49	-17796	1911	0.17178	-0.019032	1.016
1.702	54.499	-17793	1911	0.16973	-0.018544	1.0154
1.704	54.525	-17790	1911	0.16768	-0.018056	1.0148
1.706	54.511	-17788	1911	0.16563	-0.017568	1.0143
1.708	54.493	-17788	1910.9	0.16358	-0.01708	1.0137
1.71	54.516	-17789	1910.9	0.16153	-0.016592	1.0131
1.712	54.533	-17785	1910.9	0.16075	-0.017763	1.0129
1.714	54.537	-17782	1910.8	0.15997	-0.018934	1.0127
1.716	54.524	-17779	1910.8	0.15919	-0.020106	1.0125
1.718	54.477	-17775	1910.7	0.1584	-0.021277	1.0123
1.72	54.474	-17779	1910.6	0.15762	-0.022448	1.0121
1.722	54.502	-17783	1910.5	0.15811	-0.022448	1.0122
1.724	54.507	-17784	1910.4	0.1586	-0.022448	1.0123
1.726	54.478	-17785	1910.4	0.15909	-0.022448	1.0124
1.728	54.468	-17786	1910.3	0.15958	-0.022448	1.0125
1.73	54.467	-17786	1910.2	0.16006	-0.022448	1.0126
1.732	54.477	-17786	1910.2	0.16104	-0.022058	1.013
1.734	54.483	-17787	1910.1	0.16202	-0.021667	1.0134
1.736	54.44	-17789	1910	0.16299	-0.021277	1.0138
1.738	54.471	-17791	1909.9	0.16397	-0.020886	1.0142
1.74	54.478	-17784	1909.8	0.16494	-0.020496	1.0146
1.742	54.493	-17777	1909.7	0.16416	-0.020789	1.0143
1.744	54.55	-17776	1909.6	0.16338	-0.021082	1.014
1.746	54.507	-17775	1909.5	0.1626	-0.021374	1.0137
1.748	54.486	-17777	1909.5	0.16182	-0.021667	1.0134
1.75	54.517	-17780	1909.4	0.16104	-0.02196	1.0131
1.752	54.479	-17777	1909.3	0.16143	-0.022155	1.0135
1.754	54.489	-17774	1909.3	0.16182	-0.02235	1.0139
1.756	54.53	-17774	1909.2	0.16221	-0.022546	1.0143
1.758	54.505	-17774	1909.2	0.1626	-0.022741	1.0146
1.76	54.461	-17777	1909.2	0.16299	-0.022936	1.015
1.762	54.482	-17781	1909.2	0.1625	-0.023424	1.0148
1.764	54.503	-17774	1909.2	0.16202	-0.023912	1.0146
1.766	54.485	-17767	1909.2	0.16153	-0.0244	1.0145
1.768	54.457	-17770	1909.2	0.16104	-0.024888	1.0143
1.77	54.486	-17772	1909.1	0.16055	-0.025376	1.0141
1.772	54.528	-17774	1909.2	0.16094	-0.024693	1.0128
1.774	54.511	-17775	1909.2	0.16133	-0.02401	1.0115
1.776	54.489	-17779	1909.2	0.16172	-0.023326	1.0103
1.778	54.489	-17783	1909.2	0.16211	-0.022643	1.009
1.78	54.486	-17778	1909.3	0.1625	-0.02196	1.0077
1.782	54.497	-17773	1909.4	0.16172	-0.022838	1.0092
1.784	54.51	-17770	1909.4	0.16094	-0.023717	1.0106
1.786	54.485	-17768	1909.5	0.16016	-0.024595	1.0121
1.788	54.458	-17773	1909.5	0.15938	-0.025474	1.0136
1.79	54.445	-17777	1909.5	0.1586	-0.026352	1.015
1.792	54.41	-17774	1909.5	0.15801	-0.025864	1.014
1.794	54.393	-17770	1909.5	0.15743	-0.025376	1.0129
1.796	54.441	-17769	1909.5	0.15684	-0.024888	1.0118
1.798	54.499	-17768	1909.4	0.15626	-0.0244	1.0107
1.8	54.516	-17775	1909.4	0.15567	-0.023912	1.0097
1.802	54.488	-17782	1909.3	0.15782	-0.023131	1.0087
1.804	54.427	-17776	1909.3	0.15997	-0.02235	1.0077
1.806	54.398	-17771	1909.3	0.16211	-0.02157	1.0067
1.808	54.457	-17767	1909.2	0.16426	-0.020789	1.0058
1.81	54.519	-17763	1909.2	0.16641	-0.020008	1.0048
1.812	54.495	-17771	1909.1	0.16709	-0.019813	1.0043
1.814	54.438	-17780	1909.1	0.16777	-0.019618	1.0038
1.816	54.386	-17779	1909.1	0.16846	-0.019422	1.0033
1.818	54.39	-17778	1909.1	0.16914	-0.019227	1.0028
1.82	54.408	-17774	1909.1	0.16982	-0.019032	1.0024
1.822	54.434	-17771	1909.1	0.17002	-0.01952	1.0027
1.824	54.409	-17773	1909.1	0.17021	-0.020008	1.0031
1.826	54.364	-17775	1909.1	0.17041	-0.020496	1.0035
1.828	54.352	-17775	1909.1	0.1706	-0.020984	1.0039
1.83	54.397	-17775	1909	0.1708	-0.021472	1.0043
1.832	54.444	-17775	1909.1	0.1706	-0.020984	1.0041
1.834	54.441	-17775	1909.1	0.17041	-0.020496	1.0039
1.836	54.38	-17773	1909.1	0.17021	-0.020008	1.0037
1.838	54.342	-17771	1909.1	0.17002	-0.01952	1.0035
1.84	54.373	-17773	1909.2	0.16982	-0.019032	1.0033
1.842	54.443	-17774	1909.2	0.16875	-0.018837	1.0023
1.844	54.456	-17772	1909.2	0.16768	-0.018642	1.0012
1.846	54.463	-17770	1909.3	0.1666	-0.018446	1.0001
1.848	54.46	-17775	1909.3	0.16553	-0.018251	0.99903
1.85	54.463	-17780	1909.4	0.16446	-0.018056	0.99796
1.852	54.451	-17781	1909.4	0.16407	-0.018544	0.99796
1.854	54.438	-17781	1909.4	0.16368	-0.019032	0.99796
1.856	54.435	-17783	1909.4	0.16328	-0.01952	0.99796
1.858	54.448	-17786	1909.4	0.16289	-0.020008	0.99796
1.86	54.462	-17778	1909.3	0.1625	-0.020496	0.99796
1.862	54.433	-17770	1909.3	0.16231	-0.021374	0.99933
1.864	54.387	-17772	1909.3	0.16211	-0.022253	1.0007
1.866	54.406	-17775	1909.3	0.16192	-0.023131	1.0021
1.868	54.464	-17779	1909.2	0.16172	-0.02401	1.0034
1.87	54.507	-17783	1909.1	0.16153	-0.024888	1.0048
1.872	54.502	-17780	1909.1	0.16299	-0.023229	1.0048
1.874	54.483	-17776	1909	0.16446	-0.02157	1.0048
1.876	54.499	-17776	1908.9	0.16592	-0.01991	1.0048
1.878	54.531	-17777	1908.8	0.16738	-0.018251	1.0048
1.88	54.554	-17778	1908.7	0.16885	-0.016592	1.0048
1.882	54.545	-17780	1908.6	0.16797	-0.01669	1.0054
1.884	54.516	-17785	1908.5	0.16709	-0.016787	1.006
1.886	54.516	-17789	1908.4	0.16621	-0.016885	1.0065
1.888	54.534	-17786	1908.4	0.16533	-0.016982	1.0071
1.89	54.532	-17783	1908.4	0.16446	-0.01708	1.0077
1.892	54.537	-17782	1908.3	0.16309	-0.017861	1.0084
1.894	54.53	-17782	1908.2	0.16172	-0.018642	1.0091
1.896	54.467	-17784	1908.2	0.16036	-0.019422	1.0098
1.898	54.459	-17786	1908.1	0.15899	-0.020203	1.0105
1.9	54.496	-17783	1908.1	0.15762	-0.020984	1.0111
1.902	54.497	-17781	1908.1	0.1588	-0.020203	1.0115
1.904	54.533	-17781	1908	0.15997	-0.019422	1.0119
1.906	54.572	-17781	1908	0.16114	-0.018642	1.0123
1.908	54.546	-17778	1907.9	0.16231	-0.017861	1.0127
1.91	54.493	-17775	1907.9	0.16348	-0.01708	1.0131
1.912	54.487	-17777	1907.8	0.16368	-0.017568	1.0139
1.914	54.503	-17779	1907.8	0.16387	-0.018056	1.0146
1.916	54.562	-17781	1907.7	0.16407	-0.018544	1.0154
1.918	54.554	-17783	1907.7	0.16426	-0.019032	1.0162
1.92	54.509	-17786	1907.6	0.16446	-0.01952	1.017
1.922	54.511	-17790	1907.5	0.16436	-0.017958	1.0177
1.924	54.539	-17791	1907.4	0.16426	-0.016397	1.0184
1.926	54.545	-17791	1907.4	0.16416	-0.014835	1.019
1.928	54.56	-17793	1907.3	0.16407	-0.013274	1.0197
1.93	54.595	-17794	1907.2	0.16397	-0.011712	1.0204
1.932	54.574	-17792	1907.1	0.16387	-0.012688	1.0202
1.934	54.557	-17789	1907	0.16377	-0.013664	1.02
1.936	54.565	-17788	1906.9	0.16368	-0.01464	1.0198
1.938	54.635	-17786	1906.8	0.16358	-0.015616	1.0196
1.94	54.693	-17782	1906.6	0.16348	-0.016592	1.0194
1.942	54.74	-17778	1906.5	0.1627	-0.016202	1.0203
1.944	54.699	-17784	1906.4	0.16192	-0.015811	1.0212
1.946	54.627	-17790	1906.3	0.16114	-0.015421	1.0221
1.948	54.529	-17787	1906.2	0.16036	-0.01503	1.0229
1.95	54.437	-17784	1906.2	0.15958	-0.01464	1.0238
1.952	54.341	-17785	1906.1	0.1585	-0.012786	1.0232
1.954	54.241	-17785	1906	0.15743	-0.010931	1.0227
1.956	54.137	-17785	1905.9	0.15636	-0.0090768	1.0221
1.958	54.004	-17784	1905.8	0.15528	-0.0072224	1.0215
1.96	53.864	-17784	1905.7	0.15421	-0.005368	1.0209
1.962	53.736	-17785	1905.6	0.15626	-0.0052704	1.0204
1.964	53.599	-17785	1905.6	0.15831	-0.0051728	1.0199
1.966	53.451	-17786	1905.5	0.16036	-0.0050752	1.0194
1.968	53.344	-17791	1905.4	0.16241	-0.0049776	1.0189
1.97	53.313	-17797	1905.3	0.16446	-0.00488	1.0185
1.972	53.367	-17797	1905.2	0.16446	-0.0045872	1.0183
1.974	53.519	-17798	1905.2	0.16446	-0.0042944	1.0181
1.976	53.69	-17801	1905.2	0.16446	-0.0040016	1.0179
1.978	53.861	-17804	1905.2	0.16446	-0.0037088	1.0177
1.98	54.079	-17800	1905.2	0.16446	-0.003416	1.0175
1.982	54.233	-17796	1905.2	0.16455	-0.0032208	1.0174
1.984	54.336	-17788	1905.2	0.16465	-0.0030256	1.0173
1.986	54.393	-17780	1905.2	0.16475	-0.0028304	1.0172
1.988	54.408	-17788	1905.2	0.16485	-0.0026352	1.0171
1.99	54.456	-17795	1905.2	0.16494	-0.00244	1.017
1.992	54.543	-17793	1905.2	0.16338	-0.0030256	1.0161
1.994	54.561	-17791	1905.2	0.16182	-0.0036112	1.0152
1.996	54.571	-17792	1905.2	0.16026	-0.0041968	1.0144
1.998	54.546	-17794	1905.2	0.1587	-0.0047824	1.0135
2	54.496	-17795	1905.2	0.15714	-0.005368	1.0126
2.002	54.512	-17796	1905.1	0.15704	-0.0055632	1.0123
2.004	54.476	-17797	1905.1	0.15694	-0.0057584	1.012
2.006	54.435	-17798	1905.1	0.15684	-0.0059536	1.0117
2.008	54.387	-17797	1905.2	0.15675	-0.0061488	1.0114
2.01	54.377	-17796	1905.2	0.15665	-0.006344	1.0111
2.012	54.461	-17796	1905.3	0.15694	-0.0077104	1.0116
2.014	54.48	-17795	1905.3	0.15723	-0.0090768	1.0121
2.016	54.512	-17803	1905.3	0.15753	-0.010443	1.0126
2.018	54.519	-17811	1905.3	0.15782	-0.01181	1.0131
2.02	54.489	-17808	1905.3	0.15811	-0.013176	1.0136
2.022	54.479	-17804	1905.3	0.1585	-0.01259	1.0127
2.024	54.505	-17805	1905.4	0.15889	-0.012005	1.0118
2.026	54.521	-17806	1905.4	0.15928	-0.011419	1.0109
2.028	54.512	-17802	1905.3	0.15967	-0.010834	1.0101
2.03	54.498	-17797	1905.3	0.16006	-0.010248	1.0092
2.032	54.482	-17798	1905.3	0.16124	-0.0089792	1.0079
2.034	54.465	-17798	1905.2	0.16241	-0.0077104	1.0066
2.036	54.454	-17802	1905.2	0.16358	-0.0064416	1.0054
2.038	54.457	-17805	1905.2	0.16475	-0.0051728	1.0041
2.04	54.464	-17807	1905.2	0.16592	-0.003904	1.0028
2.042	54.486	-17808	1905.2	0.16582	-0.0036112	1.0019
2.044	54.508	-17808	1905.2	0.16572	-0.0033184	1.0009
2.046	54.481	-17808	1905.2	0.16563	-0.0030256	0.99991
2.048	54.437	-17806	1905.2	0.16553	-0.0027328	0.99894
2.05	54.431	-17804	1905.2	0.16543	-0.00244	0.99796
2.052	54.448	-17803	1905.1	0.16514	-0.0031232	0.99767
2.054	54.474	-17803	1905.1	0.16485	-0.0038064	0.99737
2.056	54.48	-17805	1905	0.16455	-0.0044896	0.99708
2.058	54.444	-17806	1905	0.16426	-0.0051728	0.99679
2.06	54.416	-17804	1905	0.16397	-0.005856	0.9965
2.062	54.429	-17802	1905	0.16485	-0.0057584	0.9964
2.064	54.421	-17803	1905	0.16572	-0.0056608	0.9963
2.066	54.424	-17804	1905	0.1666	-0.0055632	0.9962
2.068	54.459	-17810	1905	0.16748	-0.0054656	0.99611
2.07	54.478	-17817	1905.1	0.16836	-0.005368	0.99601
2.072	54.488	-17822	1905.1	0.16904	-0.006832	0.99611
2.074	54.464	-17827	1905.1	0.16973	-0.008296	0.9962
2.076	54.48	-17831	1905.1	0.17041	-0.00976	0.9963
2.078	54.45	-17836	1905.1	0.17109	-0.011224	0.9964
2.08	54.403	-17837	1905.1	0.17178	-0.012688	0.9965
2.082	54.401	-17838	1905.2	0.17207	-0.012005	0.9962
2.084	54.361	-17834	1905.3	0.17236	-0.011322	0.99591
2.086	54.402	-17830	1905.3	0.17265	-0.010638	0.99562
2.088	54.434	-17830	1905.3	0.17295	-0.0099552	0.99532
2.09	54.446	-17830	1905.4	0.17324	-0.009272	0.99503
2.092	54.415	-17826	1905.4	0.17353	-0.010541	0.99513
2.094	54.413	-17823	1905.5	0.17383	-0.01181	0.99523
2.096	54.406	-17822	1905.5	0.17412	-0.013078	0.99532
2.098	54.389	-17822	1905.6	0.17441	-0.014347	0.99542
2.1	54.394	-17822	1905.6	0.1747	-0.015616	0.99552
2.102	54.445	-17823	1905.6	0.17617	-0.015323	0.99484
2.104	54.437	-17821	1905.6	0.17763	-0.01503	0.99415
2.106	54.447	-17818	1905.6	0.1791	-0.014738	0.99347
2.108	54.427	-17820	1905.7	0.18056	-0.014445	0.99279
2.11	54.384	-17823	1905.8	0.18202	-0.014152	0.9921
2.112	54.373	-17826	1905.8	0.18115	-0.014835	0.99191
2.114	54.39	-17828	1905.8	0.18027	-0.015518	0.99171
2.116	54.425	-17831	1905.8	0.17939	-0.016202	0.99152
2.118	54.394	-17833	1905.8	0.17851	-0.016885	0.99132
2.12	54.348	-17837	1905.8	0.17763	-0.017568	0.99113
2.122	54.357	-17840	1905.9	0.1789	-0.017666	0.99113
2.124	54.386	-17841	1906	0.18017	-0.017763	0.99113
2.126	54.407	-17842	1906	0.18144	-0.017861	0.99113
2.128	54.413	-17835	1906.1	0.18271	-0.017958	0.99113
2.13	54.387	-17828	1906.1	0.18398	-0.018056	0.99113
2.132	54.368	-17828	1906.2	0.18349	-0.017373	0.9924
2.134	54.36	-17829	1906.2	0.183	-0.01669	0.99367
2.136	54.338	-17831	1906.3	0.18251	-0.016006	0.99493
2.138	54.353	-17834	1906.3	0.18202	-0.015323	0.9962
2.14	54.394	-17832	1906.4	0.18154	-0.01464	0.99747
2.142	54.408	-17830	1906.4	0.18202	-0.014933	0.99816
2.144	54.407	-17831	1906.5	0.18251	-0.015226	0.99884
2.146	54.421	-17833	1906.6	0.183	-0.015518	0.99952
2.148	54.436	-17833	1906.7	0.18349	-0.015811	1.0002
2.15	54.411	-17834	1906.8	0.18398	-0.016104	1.0009
2.152	54.43	-17833	1906.9	0.18359	-0.016006	1.001
2.154	54.464	-17833	1906.9	0.1832	-0.015909	1.0011
2.156	54.43	-17834	1907	0.1828	-0.015811	1.0012
2.158	54.357	-17835	1907.1	0.18241	-0.015714	1.0013
2.16	54.345	-17831	1907.2	0.18202	-0.015616	1.0014
2.162	54.404	-17828	1907.3	0.18134	-0.016787	1.0014
2.164	54.487	-17828	1907.4	0.18066	-0.017958	1.0014
2.166	54.516	-17829	1907.5	0.17997	-0.01913	1.0014
2.168	54.479	-17831	1907.6	0.17929	-0.020301	1.0014
2.17	54.425	-17832	1907.6	0.17861	-0.021472	1.0014
2.172	54.38	-17830	1907.7	0.179	-0.021667	1.0025
2.174	54.398	-17827	1907.8	0.17939	-0.021862	1.0037
2.176	54.374	-17821	1907.9	0.17978	-0.022058	1.0049
2.178	54.329	-17814	1907.9	0.18017	-0.022253	1.0061
2.18	54.426	-17818	1908	0.18056	-0.022448	1.0072
2.182	54.5	-17822	1908	0.17978	-0.023522	1.0091
2.184	54.448	-17822	1908.1	0.179	-0.024595	1.0109
2.186	54.388	-17822	1908.1	0.17822	-0.025669	1.0128
2.188	54.341	-17821	1908.1	0.17744	-0.026742	1.0146
2.19	54.333	-17820	1908.2	0.17666	-0.027816	1.0165
2.192	54.369	-17817	1908.2	0.17627	-0.028597	1.0167
2.194	54.414	-17813	1908.2	0.17588	-0.029378	1.0169
2.196	54.412	-17814	1908.2	0.17548	-0.030158	1.0171
2.198	54.389	-17815	1908.2	0.17509	-0.030939	1.0173
2.2	54.384	-17817	1908.3	0.1747	-0.03172	1.0175
2.202	54.408	-17819	1908.3	0.17373	-0.032013	1.0173
2.204	54.418	-17821	1908.3	0.17275	-0.032306	1.0171
2.206	54.412	-17824	1908.4	0.17178	-0.032598	1.0169
2.208	54.39	-17819	1908.4	0.1708	-0.032891	1.0167
2.21	54.384	-17814	1908.5	0.16982	-0.033184	1.0165
2.212	54.348	-17814	1908.5	0.17002	-0.032598	1.017
2.214	54.334	-17815	1908.5	0.17021	-0.032013	1.0175
2.216	54.389	-17812	1908.6	0.17041	-0.031427	1.018
2.218	54.411	-17809	1908.6	0.1706	-0.030842	1.0185
2.22	54.405	-17804	1908.6	0.1708	-0.030256	1.0189
2.222	54.423	-17799	1908.7	0.17051	-0.029963	1.0191
2.224	54.421	-17796	1908.7	0.17021	-0.02967	1.0193
2.226	54.397	-17794	1908.8	0.16992	-0.029378	1.0195
2.228	54.399	-17796	1908.8	0.16963	-0.029085	1.0197
2.23	54.446	-17798	1908.9	0.16934	-0.028792	1.0199
2.232	54.475	-17796	1909	0.16807	-0.029085	1.0195
2.234	54.454	-17794	1909	0.1668	-0.029378	1.0191
2.236	54.42	-17793	1909	0.16553	-0.02967	1.0187
2.238	54.419	-17793	1909	0.16426	-0.029963	1.0184
2.24	54.428	-17792	1909	0.16299	-0.030256	1.018
2.242	54.442	-17792	1909	0.16114	-0.030646	1.017
2.244	54.418	-17793	1909	0.15928	-0.031037	1.016
2.246	54.425	-17794	1909	0.15743	-0.031427	1.015
2.248	54.526	-17789	1909	0.15557	-0.031818	1.0141
2.25	54.562	-17784	1909	0.15372	-0.032208	1.0131
2.252	54.445	-17781	1908.9	0.15421	-0.032013	1.0135
2.254	54.375	-17778	1908.9	0.1547	-0.031818	1.0139
2.256	54.396	-17782	1908.8	0.15518	-0.031622	1.0143
2.258	54.465	-17787	1908.8	0.15567	-0.031427	1.0146
2.26	54.527	-17784	1908.8	0.15616	-0.031232	1.015
2.262	54.481	-17781	1908.7	0.15704	-0.031818	1.0148
2.264	54.441	-17783	1908.7	0.15792	-0.032403	1.0146
2.266	54.459	-17785	1908.6	0.1588	-0.032989	1.0145
2.268	54.418	-17779	1908.6	0.15967	-0.033574	1.0143
2.27	54.432	-17773	1908.6	0.16055	-0.03416	1.0141
2.272	54.474	-17769	1908.6	0.15977	-0.032794	1.0146
2.274	54.466	-17766	1908.5	0.15899	-0.031427	1.015
2.276	54.439	-17764	1908.4	0.15821	-0.030061	1.0155
2.278	54.452	-17763	1908.4	0.15743	-0.028694	1.016
2.28	54.444	-17763	1908.3	0.15665	-0.027328	1.0165
2.282	54.44	-17763	1908.3	0.15723	-0.027328	1.0165
2.284	54.436	-17759	1908.2	0.15782	-0.027328	1.0165
2.286	54.414	-17755	1908.1	0.1584	-0.027328	1.0165
2.288	54.423	-17756	1908.1	0.15899	-0.027328	1.0165
2.29	54.435	-17758	1908	0.15958	-0.027328	1.0165
2.292	54.428	-17758	1908	0.15919	-0.025962	1.0142
2.294	54.468	-17759	1907.9	0.1588	-0.024595	1.0118
2.296	54.482	-17758	1907.9	0.1584	-0.023229	1.0095
2.298	54.413	-17757	1907.9	0.15801	-0.021862	1.0071
2.3	54.373	-17761	1907.8	0.15762	-0.020496	1.0048
2.302	54.423	-17764	1907.8	0.15723	-0.020496	1.0041
2.304	54.501	-17768	1907.8	0.15684	-0.020496	1.0034
2.306	54.517	-17773	1907.7	0.15645	-0.020496	1.0027
2.308	54.468	-17764	1907.7	0.15606	-0.020496	1.0021
2.31	54.426	-17755	1907.6	0.15567	-0.020496	1.0014
2.312	54.411	-17764	1907.6	0.15431	-0.020106	0.99991
2.314	54.41	-17772	1907.6	0.15294	-0.019715	0.99845
2.316	54.403	-17767	1907.5	0.15157	-0.019325	0.99698
2.318	54.405	-17763	1907.5	0.15021	-0.018934	0.99552
2.32	54.445	-17759	1907.5	0.14884	-0.018544	0.99406
2.322	54.466	-17755	1907.4	0.14825	-0.018446	0.99406
2.324	54.463	-17760	1907.3	0.14767	-0.018349	0.99406
2.326	54.509	-17764	1907.3	0.14708	-0.018251	0.99406
2.328	54.485	-17753	1907.2	0.1465	-0.018154	0.99406
2.33	54.433	-17743	1907.2	0.14591	-0.018056	0.99406
2.332	54.413	-17748	1907.2	0.14718	-0.01747	0.99484
2.334	54.427	-17753	1907.2	0.14845	-0.016885	0.99562
2.336	54.435	-17758	1907.1	0.14972	-0.016299	0.9964
2.338	54.425	-17762	1907.1	0.15099	-0.015714	0.99718
2.34	54.411	-17764	1907.1	0.15226	-0.015128	0.99796
2.342	54.388	-17766	1907.1	0.15274	-0.014835	0.99786
2.344	54.404	-17759	1907.1	0.15323	-0.014542	0.99776
2.346	54.434	-17753	1907.1	0.15372	-0.01425	0.99767
2.348	54.444	-17749	1907	0.15421	-0.013957	0.99757
2.35	54.389	-17745	1907	0.1547	-0.013664	0.99747
2.352	54.395	-17751	1906.9	0.15538	-0.014542	0.9965
2.354	54.459	-17757	1906.8	0.15606	-0.015421	0.99552
2.356	54.446	-17758	1906.8	0.15675	-0.016299	0.99454
2.358	54.415	-17759	1906.8	0.15743	-0.017178	0.99357
2.36	54.398	-17756	1906.8	0.15811	-0.018056	0.99259
2.362	54.403	-17753	1906.8	0.15928	-0.017666	0.99298
2.364	54.425	-17753	1906.8	0.16045	-0.017275	0.99337
2.366	54.452	-17753	1906.7	0.16163	-0.016885	0.99376
2.368	54.428	-17752	1906.7	0.1628	-0.016494	0.99415
2.37	54.408	-17751	1906.7	0.16397	-0.016104	0.99454
2.372	54.383	-17754	1906.7	0.16407	-0.015226	0.99542
2.374	54.376	-17757	1906.7	0.16416	-0.014347	0.9963
2.376	54.412	-17753	1906.7	0.16426	-0.013469	0.99718
2.378	54.451	-17749	1906.7	0.16436	-0.01259	0.99806
2.38	54.42	-17751	1906.6	0.16446	-0.011712	0.99894
2.382	54.392	-17753	1906.6	0.16436	-0.011517	0.99855
2.384	54.411	-17747	1906.6	0.16426	-0.011322	0.99816
2.386	54.423	-17742	1906.6	0.16416	-0.011126	0.99776
2.388	54.415	-17744	1906.5	0.16407	-0.010931	0.99737
2.39	54.431	-17746	1906.5	0.16397	-0.010736	0.99698
2.392	54.454	-17747	1906.4	0.16475	-0.010541	0.99669
2.394	54.414	-17748	1906.4	0.16553	-0.010346	0.9964
2.396	54.325	-17748	1906.4	0.16631	-0.01015	0.99611
2.398	54.275	-17748	1906.4	0.16709	-0.0099552	0.99581
2.4	54.323	-17752	1906.3	0.16787	-0.00976	0.99552
2.402	54.356	-17755	1906.2	0.16875	-0.0095648	0.99591
2.404	54.348	-17754	1906.2	0.16963	-0.0093696	0.9963
2.406	54.369	-17753	1906.1	0.17051	-0.0091744	0.99669
2.408	54.371	-17753	1906	0.17139	-0.0089792	0.99708
2.41	54.368	-17753	1905.9	0.17226	-0.008784	0.99747
2.412	54.364	-17756	1905.9	0.17363	-0.0099552	0.99806
2.414	54.413	-17759	1905.8	0.175	-0.011126	0.99864
2.416	54.442	-17757	1905.7	0.17636	-0.012298	0.99923
2.418	54.38	-17755	1905.7	0.17773	-0.013469	0.99981
2.42	54.298	-17750	1905.6	0.1791	-0.01464	1.0004
2.422	54.352	-17744	1905.5	0.17978	-0.012883	1.0006
2.424	54.384	-17747	1905.4	0.18046	-0.011126	1.0008
2.426	54.319	-17750	1905.3	0.18115	-0.0093696	1.001
2.428	54.354	-17753	1905.3	0.18183	-0.0076128	1.0012
2.43	54.38	-17756	1905.2	0.18251	-0.005856	1.0014
2.432	54.4	-17754	1905.2	0.18329	-0.0066368	1.0027
2.434	54.406	-17751	1905.1	0.18407	-0.0074176	1.0041
2.436	54.411	-17751	1905.1	0.18485	-0.0081984	1.0055
2.438	54.432	-17751	1905	0.18564	-0.0089792	1.0068
2.44	54.429	-17748	1905	0.18642	-0.00976	1.0082
2.442	54.403	-17746	1905	0.18593	-0.0095648	1.0087
2.444	54.432	-17754	1904.9	0.18544	-0.0093696	1.0092
2.446	54.464	-17763	1904.9	0.18495	-0.0091744	1.0097
2.448	54.498	-17760	1904.9	0.18446	-0.0089792	1.0102
2.45	54.488	-17758	1904.8	0.18398	-0.008784	1.0106
2.452	54.469	-17757	1904.8	0.18437	-0.0081008	1.0102
2.454	54.479	-17756	1904.8	0.18476	-0.0074176	1.0097
2.456	54.478	-17754	1904.8	0.18515	-0.0067344	1.0092
2.458	54.46	-17752	1904.8	0.18554	-0.0060512	1.0087
2.46	54.468	-17754	1904.8	0.18593	-0.005368	1.0082
2.462	54.467	-17756	1904.8	0.18524	-0.0051728	1.008
2.464	54.455	-17760	1904.7	0.18456	-0.0049776	1.0078
2.466	54.481	-17765	1904.6	0.18388	-0.0047824	1.0076
2.468	54.491	-17765	1904.6	0.1832	-0.0045872	1.0074
2.47	54.48	-17765	1904.5	0.18251	-0.004392	1.0072
2.472	54.502	-17762	1904.5	0.1828	-0.0047824	1.0078
2.474	54.513	-17759	1904.4	0.1831	-0.0051728	1.0084
2.476	54.469	-17756	1904.3	0.18339	-0.0055632	1.009
2.478	54.431	-17752	1904.2	0.18368	-0.0059536	1.0096
2.48	54.453	-17756	1904.2	0.18398	-0.006344	1.0102
2.482	54.492	-17761	1904.1	0.18339	-0.005368	1.0104
2.484	54.492	-17760	1904	0.1828	-0.004392	1.0106
2.486	54.476	-17759	1904	0.18222	-0.003416	1.0107
2.488	54.502	-17758	1903.9	0.18163	-0.00244	1.0109
2.49	54.511	-17756	1903.8	0.18105	-0.001464	1.0111
2.492	54.474	-17760	1903.8	0.18134	-0.0017568	1.0111
2.494	54.499	-17763	1903.8	0.18163	-0.0020496	1.0111
2.496	54.491	-17761	1903.7	0.18193	-0.0023424	1.0111
2.498	54.449	-17758	1903.7	0.18222	-0.0026352	1.0111
2.5	54.457	-17757	1903.6	0.18251	-0.002928	1.0111
2.502	54.489	-17755	1903.5	0.18261	-0.0035136	1.0121
2.504	54.552	-17756	1903.5	0.18271	-0.0040992	1.0131
2.506	54.596	-17757	1903.4	0.1828	-0.0046848	1.0141
2.508	54.603	-17758	1903.4	0.1829	-0.0052704	1.015
2.51	54.594	-17759	1903.3	0.183	-0.005856	1.016
2.512	54.607	-17758	1903.2	0.18359	-0.0056608	1.0161
2.514	54.598	-17757	1903.1	0.18417	-0.0054656	1.0162
2.516	54.617	-17759	1903.1	0.18476	-0.0052704	1.0163
2.518	54.616	-17761	1903	0.18534	-0.0050752	1.0164
2.52	54.597	-17763	1903	0.18593	-0.00488	1.0165
2.522	54.546	-17765	1902.9	0.18524	-0.0046848	1.016
2.524	54.467	-17765	1902.9	0.18456	-0.0044896	1.0155
2.526	54.387	-17765	1902.8	0.18388	-0.0042944	1.015
2.528	54.265	-17763	1902.8	0.1832	-0.0040992	1.0146
2.53	54.174	-17760	1902.7	0.18251	-0.003904	1.0141
2.532	54.042	-17760	1902.7	0.18261	-0.003904	1.0141
2.534	53.931	-17760	1902.7	0.18271	-0.003904	1.0141
2.536	53.818	-17765	1902.7	0.1828	-0.003904	1.0141
2.538	53.713	-17770	1902.7	0.1829	-0.003904	1.0141
2.54	53.573	-17772	1902.7	0.183	-0.003904	1.0141
2.542	53.404	-17773	1902.7	0.1828	-0.00488	1.0144
2.544	53.277	-17775	1902.7	0.18261	-0.005856	1.0146
2.546	53.29	-17777	1902.7	0.18241	-0.006832	1.0149
2.548	53.441	-17771	1902.7	0.18222	-0.007808	1.0152
2.55	53.622	-17764	1902.7	0.18202	-0.008784	1.0155
2.552	53.789	-17765	1902.7	0.18027	-0.010248	1.015
2.554	53.955	-17766	1902.7	0.17851	-0.011712	1.0146
2.556	54.081	-17767	1902.7	0.17675	-0.013176	1.0141
2.558	54.188	-17769	1902.8	0.175	-0.01464	1.0136
2.56	54.304	-17767	1902.8	0.17324	-0.016104	1.0131
2.562	54.394	-17766	1902.8	0.17314	-0.016299	1.0132
2.564	54.45	-17764	1902.8	0.17304	-0.016494	1.0133
2.566	54.49	-17763	1902.8	0.17295	-0.01669	1.0134
2.568	54.554	-17763	1902.8	0.17285	-0.016885	1.0135
2.57	54.583	-17763	1902.8	0.17275	-0.01708	1.0136
2.572	54.539	-17768	1902.8	0.17178	-0.016006	1.0131
2.574	54.472	-17772	1902.8	0.1708	-0.014933	1.0126
2.576	54.425	-17770	1902.8	0.16982	-0.013859	1.0121
2.578	54.447	-17767	1902.7	0.16885	-0.012786	1.0116
2.58	54.471	-17765	1902.7	0.16787	-0.011712	1.0111
2.582	54.431	-17763	1902.7	0.16758	-0.012688	1.0107
2.584	54.392	-17765	1902.8	0.16729	-0.013664	1.0104
2.586	54.403	-17768	1902.8	0.16699	-0.01464	1.01
2.588	54.416	-17770	1902.8	0.1667	-0.015616	1.0096
2.59	54.449	-17772	1902.9	0.16641	-0.016592	1.0092
2.592	54.472	-17774	1902.9	0.16826	-0.017373	1.0078
2.594	54.456	-17777	1902.9	0.17012	-0.018154	1.0065
2.596	54.458	-17778	1902.9	0.17197	-0.018934	1.0051
2.598	54.498	-17779	1902.9	0.17383	-0.019715	1.0037
2.6	54.505	-17778	1902.9	0.17568	-0.020496	1.0024
2.602	54.478	-17777	1902.9	0.17617	-0.020301	1.0024
2.604	54.468	-17777	1902.9	0.17666	-0.020106	1.0025
2.606	54.435	-17777	1902.9	0.17714	-0.01991	1.0026
2.608	54.47	-17778	1902.9	0.17763	-0.019715	1.0027
2.61	54.521	-17778	1903	0.17812	-0.01952	1.0028
2.612	54.51	-17779	1903	0.17773	-0.021472	1.0034
2.614	54.449	-17779	1903	0.17734	-0.023424	1.004
2.616	54.455	-17779	1903	0.17695	-0.025376	1.0046
2.618	54.464	-17778	1903	0.17656	-0.027328	1.0052
2.62	54.48	-17775	1903	0.17617	-0.02928	1.0058
2.622	54.487	-17772	1902.9	0.17422	-0.028206	1.0057
2.624	54.459	-17778	1902.9	0.17226	-0.027133	1.0056
2.626	54.414	-17784	1902.9	0.17031	-0.026059	1.0055
2.628	54.421	-17786	1902.9	0.16836	-0.024986	1.0054
2.63	54.428	-17789	1902.8	0.16641	-0.023912	1.0053
2.632	54.436	-17791	1902.8	0.16651	-0.023619	1.0043
2.634	54.45	-17794	1902.8	0.1666	-0.023326	1.0033
2.636	54.453	-17795	1902.8	0.1667	-0.023034	1.0024
2.638	54.442	-17796	1902.7	0.1668	-0.022741	1.0014
2.64	54.447	-17791	1902.7	0.1669	-0.022448	1.0004
2.642	54.452	-17786	1902.6	0.16504	-0.023034	1.0006
2.644	54.422	-17791	1902.6	0.16319	-0.023619	1.0008
2.646	54.417	-17797	1902.6	0.16133	-0.024205	1.001
2.648	54.443	-17797	1902.5	0.15948	-0.02479	1.0012
2.65	54.43	-17797	1902.5	0.15762	-0.025376	1.0014
2.652	54.413	-17793	1902.5	0.15792	-0.026157	1.0025
2.654	54.404	-17789	1902.5	0.15821	-0.026938	1.0037
2.656	54.36	-17790	1902.5	0.1585	-0.027718	1.0049
2.658	54.326	-17790	1902.5	0.1588	-0.028499	1.0061
2.66	54.319	-17792	1902.5	0.15909	-0.02928	1.0072
2.662	54.38	-17793	1902.4	0.15987	-0.028499	1.0066
2.664	54.425	-17794	1902.4	0.16065	-0.027718	1.0061
2.666	54.414	-17794	1902.4	0.16143	-0.026938	1.0055
2.668	54.456	-17796	1902.4	0.16221	-0.026157	1.0049
2.67	54.525	-17797	1902.4	0.16299	-0.025376	1.0043
2.672	54.463	-17794	1902.4	0.16163	-0.025083	1.0036
2.674	54.323	-17791	1902.4	0.16026	-0.02479	1.0029
2.676	54.328	-17788	1902.4	0.15889	-0.024498	1.0023
2.678	54.427	-17785	1902.3	0.15753	-0.024205	1.0016
2.68	54.386	-17785	1902.3	0.15616	-0.023912	1.0009
2.682	54.423	-17785	1902.3	0.15606	-0.024986	1.0027
2.684	54.42	-17789	1902.3	0.15596	-0.026059	1.0046
2.686	54.409	-17792	1902.3	0.15587	-0.027133	1.0065
2.688	54.395	-17796	1902.2	0.15577	-0.028206	1.0083
2.69	54.347	-17800	1902.2	0.15567	-0.02928	1.0102
2.692	54.361	-17811	1902.3	0.15538	-0.027621	1.0098
2.694	54.37	-17822	1902.4	0.15509	-0.025962	1.0094
2.696	54.401	-17820	1902.4	0.15479	-0.024302	1.009
2.698	54.399	-17818	1902.5	0.1545	-0.022643	1.0086
2.7	54.371	-17821	1902.5	0.15421	-0.020984	1.0082
2.702	54.399	-17825	1902.7	0.15528	-0.021765	1.0083
2.704	54.39	-17821	1902.8	0.15636	-0.022546	1.0084
2.706	54.366	-17818	1902.9	0.15743	-0.023326	1.0085
2.708	54.359	-17816	1903.1	0.1585	-0.024107	1.0086
2.71	54.36	-17815	1903.2	0.15958	-0.024888	1.0087
2.712	54.362	-17813	1903.3	0.15909	-0.025962	1.0095
2.714	54.393	-17811	1903.4	0.1586	-0.027035	1.0103
2.716	54.412	-17809	1903.5	0.15811	-0.028109	1.011
2.718	54.429	-17806	1903.7	0.15762	-0.029182	1.0118
2.72	54.423	-17805	1903.8	0.15714	-0.030256	1.0126
2.722	54.371	-17805	1903.9	0.1584	-0.028792	1.0109
2.724	54.355	-17810	1904	0.15967	-0.027328	1.0093
2.726	54.374	-17815	1904.1	0.16094	-0.025864	1.0076
2.728	54.378	-17814	1904.2	0.16221	-0.0244	1.006
2.73	54.379	-17813	1904.3	0.16348	-0.022936	1.0043
2.732	54.359	-17810	1904.4	0.16319	-0.022936	1.0032
2.734	54.336	-17808	1904.5	0.16289	-0.022936	1.0022
2.736	54.349	-17807	1904.6	0.1626	-0.022936	1.0011
2.738	54.389	-17807	1904.7	0.16231	-0.022936	1
2.74	54.456	-17806	1904.8	0.16202	-0.022936	0.99894
2.742	54.444	-17805	1904.8	0.16397	-0.023522	1.0004
2.744	54.386	-17805	1904.9	0.16592	-0.024107	1.0019
2.746	54.352	-17804	1905	0.16787	-0.024693	1.0033
2.748	54.353	-17801	1905.1	0.16982	-0.025278	1.0048
2.75	54.367	-17798	1905.1	0.17178	-0.025864	1.0063
2.752	54.39	-17795	1905.2	0.17178	-0.025571	1.0063
2.754	54.434	-17791	1905.3	0.17178	-0.025278	1.0063
2.756	54.428	-17791	1905.4	0.17178	-0.024986	1.0063
2.758	54.421	-17791	1905.4	0.17178	-0.024693	1.0063
2.76	54.423	-17798	1905.5	0.17178	-0.0244	1.0063
2.762	54.413	-17804	1905.5	0.17109	-0.02479	1.0069
2.764	54.359	-17801	1905.6	0.17041	-0.025181	1.0076
2.766	54.39	-17798	1905.7	0.16973	-0.025571	1.0083
2.768	54.44	-17800	1905.8	0.16904	-0.025962	1.009
2.77	54.427	-17802	1905.9	0.16836	-0.026352	1.0097
2.772	54.386	-17795	1906	0.16914	-0.02645	1.0098
2.774	54.356	-17789	1906.2	0.16992	-0.026547	1.0099
2.776	54.337	-17792	1906.3	0.1707	-0.026645	1.01
2.778	54.329	-17794	1906.4	0.17148	-0.026742	1.0101
2.78	54.349	-17791	1906.5	0.17226	-0.02684	1.0102
2.782	54.38	-17788	1906.5	0.17314	-0.027523	1.0096
2.784	54.357	-17789	1906.5	0.17402	-0.028206	1.009
2.786	54.37	-17790	1906.6	0.1749	-0.02889	1.0084
2.788	54.389	-17786	1906.7	0.17578	-0.029573	1.0078
2.79	54.39	-17782	1906.7	0.17666	-0.030256	1.0072
2.792	54.376	-17786	1906.7	0.17734	-0.029378	1.0079
2.794	54.389	-17791	1906.7	0.17802	-0.028499	1.0086
2.796	54.399	-17785	1906.7	0.17871	-0.027621	1.0093
2.798	54.397	-17778	1906.7	0.17939	-0.026742	1.01
2.8	54.427	-17780	1906.6	0.18007	-0.025864	1.0106
2.802	54.482	-17782	1906.7	0.18134	-0.025474	1.0097
2.804	54.487	-17785	1906.7	0.18261	-0.025083	1.0087
2.806	54.423	-17789	1906.7	0.18388	-0.024693	1.0077
2.808	54.379	-17778	1906.7	0.18515	-0.024302	1.0067
2.81	54.394	-17767	1906.7	0.18642	-0.023912	1.0058
2.812	54.416	-17765	1906.7	0.18466	-0.02479	1.0071
2.814	54.407	-17763	1906.7	0.1829	-0.025669	1.0085
2.816	54.39	-17769	1906.6	0.18115	-0.026547	1.0099
2.818	54.422	-17774	1906.6	0.17939	-0.027426	1.0112
2.82	54.481	-17773	1906.6	0.17763	-0.028304	1.0126
2.822	54.481	-17772	1906.5	0.17871	-0.026742	1.012
2.824	54.455	-17768	1906.5	0.17978	-0.025181	1.0114
2.826	54.46	-17763	1906.5	0.18085	-0.023619	1.0108
2.828	54.449	-17759	1906.5	0.18193	-0.022058	1.0103
2.83	54.431	-17755	1906.4	0.183	-0.020496	1.0097
2.832	54.437	-17760	1906.4	0.18173	-0.022058	1.0105
2.834	54.422	-17765	1906.4	0.18046	-0.023619	1.0112
2.836	54.413	-17764	1906.4	0.17919	-0.025181	1.012
2.838	54.421	-17763	1906.3	0.17792	-0.026742	1.0128
2.84	54.448	-17765	1906.2	0.17666	-0.028304	1.0136
2.842	54.401	-17766	1906.1	0.17783	-0.026645	1.0138
2.844	54.401	-17760	1906.1	0.179	-0.024986	1.014
2.846	54.431	-17755	1906	0.18017	-0.023326	1.0142
2.848	54.426	-17758	1905.9	0.18134	-0.021667	1.0144
2.85	54.43	-17761	1905.9	0.18251	-0.020008	1.0146
2.852	54.421	-17762	1905.8	0.18241	-0.020301	1.0147
2.854	54.435	-17762	1905.7	0.18232	-0.020594	1.0149
2.856	54.49	-17759	1905.7	0.18222	-0.020886	1.0151
2.858	54.514	-17756	1905.6	0.18212	-0.021179	1.0153
2.86	54.465	-17751	1905.6	0.18202	-0.021472	1.0155
2.862	54.441	-17746	1905.5	0.18163	-0.021277	1.0149
2.864	54.465	-17749	1905.5	0.18124	-0.021082	1.0144
2.866	54.466	-17751	1905.4	0.18085	-0.020886	1.0138
2.868	54.475	-17749	1905.3	0.18046	-0.020691	1.0132
2.87	54.447	-17747	1905.2	0.18007	-0.020496	1.0126
2.872	54.437	-17748	1905.2	0.18007	-0.020984	1.0134
2.874	54.443	-17748	1905.1	0.18007	-0.021472	1.0142
2.876	54.455	-17749	1905.1	0.18007	-0.02196	1.0149
2.878	54.487	-17751	1905	0.18007	-0.022448	1.0157
2.88	54.465	-17749	1904.9	0.18007	-0.022936	1.0165
2.882	54.411	-17748	1904.9	0.17919	-0.023619	1.0161
2.884	54.382	-17744	1904.9	0.17832	-0.024302	1.0157
2.886	54.403	-17741	1904.8	0.17744	-0.024986	1.0153
2.888	54.419	-17743	1904.8	0.17656	-0.025669	1.0149
2.89	54.441	-17744	1904.7	0.17568	-0.026352	1.0146
2.892	54.434	-17743	1904.7	0.17617	-0.026547	1.0149
2.894	54.406	-17743	1904.6	0.17666	-0.026742	1.0153
2.896	54.408	-17742	1904.6	0.17714	-0.026938	1.0157
2.898	54.384	-17741	1904.5	0.17763	-0.027133	1.0161
2.9	54.387	-17739	1904.4	0.17812	-0.027328	1.0165
2.902	54.453	-17736	1904.3	0.17783	-0.02684	1.0166
2.904	54.446	-17739	1904.2	0.17753	-0.026352	1.0167
2.906	54.388	-17743	1904.2	0.17724	-0.025864	1.0168
2.908	54.378	-17740	1904.1	0.17695	-0.025376	1.0169
2.91	54.394	-17737	1904.1	0.17666	-0.024888	1.017
2.912	54.434	-17738	1904.1	0.17548	-0.023814	1.0152
2.914	54.481	-17739	1904	0.17431	-0.022741	1.0135
2.916	54.464	-17742	1904	0.17314	-0.021667	1.0117
2.918	54.426	-17744	1904	0.17197	-0.020594	1.01
2.92	54.408	-17743	1903.9	0.1708	-0.01952	1.0082
2.922	54.48	-17742	1904	0.17109	-0.020203	1.008
2.924	54.468	-17743	1904	0.17139	-0.020886	1.0078
2.926	54.425	-17744	1903.9	0.17168	-0.02157	1.0076
2.928	54.442	-17745	1903.9	0.17197	-0.022253	1.0074
2.93	54.454	-17747	1903.9	0.17226	-0.022936	1.0072
2.932	54.453	-17743	1903.9	0.17187	-0.021765	1.0068
2.934	54.4	-17740	1903.9	0.17148	-0.020594	1.0065
2.936	54.407	-17746	1904	0.17109	-0.019422	1.0061
2.938	54.377	-17752	1904	0.1707	-0.018251	1.0057
2.94	54.421	-17750	1904	0.17031	-0.01708	1.0053
2.942	54.45	-17748	1904	0.17148	-0.018251	1.0047
2.944	54.427	-17742	1904	0.17265	-0.019422	1.0041
2.946	54.384	-17736	1904	0.17383	-0.020594	1.0035
2.948	54.38	-17739	1904.1	0.175	-0.021765	1.0029
2.95	54.403	-17741	1904.1	0.17617	-0.022936	1.0024
2.952	54.403	-17743	1904.1	0.17568	-0.022546	1.0024
2.954	54.404	-17744	1904.1	0.17519	-0.022155	1.0024
2.956	54.419	-17743	1904.1	0.1747	-0.021765	1.0024
2.958	54.347	-17741	1904.1	0.17422	-0.021374	1.0024
2.96	54.289	-17743	1904.1	0.17373	-0.020984	1.0024
2.962	54.313	-17745	1904.1	0.17383	-0.021472	1.0024
2.964	54.346	-17745	1904.1	0.17392	-0.02196	1.0024
2.966	54.337	-17746	1904.1	0.17402	-0.022448	1.0024
2.968	54.305	-17740	1904	0.17412	-0.022936	1.0024
2.97	54.299	-17734	1904	0.17422	-0.023424	1.0024
2.972	54.309	-17735	1904	0.17441	-0.023229	1.0025
2.974	54.314	-17737	1904	0.17461	-0.023034	1.0027
2.976	54.352	-17737	1904	0.1748	-0.022838	1.0029
2.978	54.409	-17737	1903.9	0.175	-0.022643	1.0031
2.98	54.433	-17739	1903.9	0.17519	-0.022448	1.0033
2.982	54.404	-17740	1903.8	0.1748	-0.022253	1.0032
2.984	54.373	-17740	1903.8	0.17441	-0.022058	1.0031
2.986	54.374	-17740	1903.7	0.17402	-0.021862	1.003
2.988	54.386	-17740	1903.7	0.17363	-0.021667	1.0029
2.99	54.399	-17739	1903.7	0.17324	-0.021472	1.0028
2.992	54.412	-17739	1903.7	0.17373	-0.021862	1.0024
2.994	54.408	-17739	1903.7	0.17422	-0.022253	1.0021
2.996	54.379	-17741	1903.7	0.1747	-0.022643	1.0017
2.998	54.401	-17743	1903.7	0.17519	-0.023034	1.0013
3	54.388	-17744	1903.7	0.17568	-0.023424	1.0009
3.002	54.353	-17746	1903.7	0.17539	-0.022936	1.0017
3.004	54.388	-17742	1903.6	0.17509	-0.022448	1.0024
3.006	54.429	-17738	1903.6	0.1748	-0.02196	1.0032
3.008	54.409	-17738	1903.6	0.17451	-0.021472	1.004
3.01	54.403	-17737	1903.6	0.17422	-0.020984	1.0048
3.012	54.415	-17737	1903.6	0.17402	-0.021277	1.0034
3.014	54.42	-17736	1903.6	0.17383	-0.02157	1.0021
3.016	54.445	-17742	1903.6	0.17363	-0.021862	1.0007
3.018	54.485	-17747	1903.6	0.17344	-0.022155	0.99933
3.02	54.49	-17748	1903.6	0.17324	-0.022448	0.99796
3.022	54.5	-17749	1903.6	0.17168	-0.021472	0.99747
3.024	54.495	-17747	1903.6	0.17012	-0.020496	0.99698
3.026	54.461	-17744	1903.6	0.16856	-0.01952	0.9965
3.028	54.457	-17745	1903.5	0.16699	-0.018544	0.99601
3.03	54.475	-17746	1903.5	0.16543	-0.017568	0.99552
3.032	54.473	-17749	1903.5	0.16621	-0.01708	0.99659
3.034	54.41	-17753	1903.5	0.16699	-0.016592	0.99767
3.036	54.401	-17752	1903.5	0.16777	-0.016104	0.99874
3.038	54.4	-17751	1903.5	0.16856	-0.015616	0.99981
3.04	54.419	-17748	1903.5	0.16934	-0.015128	1.0009
3.042	54.473	-17745	1903.5	0.16992	-0.015616	1.0004
3.044	54.534	-17747	1903.5	0.17051	-0.016104	0.99991
3.046	54.526	-17748	1903.4	0.17109	-0.016592	0.99942
3.048	54.47	-17747	1903.4	0.17168	-0.01708	0.99894
3.05	54.461	-17747	1903.3	0.17226	-0.017568	0.99845
3.052	54.469	-17749	1903.2	0.17304	-0.017958	0.99855
3.054	54.466	-17751	1903.1	0.17383	-0.018349	0.99864
3.056	54.469	-17751	1903.1	0.17461	-0.018739	0.99874
3.058	54.501	-17750	1903.1	0.17539	-0.01913	0.99884
3.06	54.48	-17748	1903	0.17617	-0.01952	0.99894
3.062	54.445	-17745	1903	0.17685	-0.01913	0.99942
3.064	54.459	-17749	1902.9	0.17753	-0.018739	0.99991
3.066	54.453	-17753	1902.8	0.17822	-0.018349	1.0004
3.068	54.451	-17753	1902.7	0.1789	-0.017958	1.0009
3.07	54.487	-17753	1902.7	0.17958	-0.017568	1.0014
3.072	54.494	-17751	1902.6	0.18105	-0.016592	1.0025
3.074	54.481	-17748	1902.6	0.18251	-0.015616	1.0037
3.076	54.528	-17745	1902.6	0.18398	-0.01464	1.0049
3.078	54.593	-17743	1902.5	0.18544	-0.013664	1.0061
3.08	54.588	-17742	1902.4	0.1869	-0.012688	1.0072
3.082	54.597	-17742	1902.4	0.1871	-0.013469	1.0065
3.084	54.642	-17746	1902.3	0.18729	-0.01425	1.0059
3.086	54.615	-17750	1902.3	0.18749	-0.01503	1.0052
3.088	54.541	-17747	1902.3	0.18768	-0.015811	1.0045
3.09	54.513	-17744	1902.3	0.18788	-0.016592	1.0038
3.092	54.491	-17743	1902.3	0.18729	-0.014933	1.0033
3.094	54.407	-17743	1902.2	0.18671	-0.013274	1.0028
3.096	54.312	-17748	1902.2	0.18612	-0.011614	1.0024
3.098	54.231	-17752	1902.1	0.18554	-0.0099552	1.0019
3.1	54.12	-17753	1902.1	0.18495	-0.008296	1.0014
3.102	53.965	-17753	1902.1	0.18378	-0.0090768	1.0016
3.104	53.867	-17752	1902	0.18261	-0.0098576	1.0018
3.106	53.827	-17751	1902	0.18144	-0.010638	1.002
3.108	53.693	-17753	1902	0.18027	-0.011419	1.0022
3.11	53.535	-17755	1902	0.1791	-0.0122	1.0024
3.112	53.379	-17752	1902	0.17968	-0.011907	1.0027
3.114	53.307	-17750	1901.9	0.18027	-0.011614	1.0031
3.116	53.382	-17747	1901.9	0.18085	-0.011322	1.0035
3.118	53.571	-17744	1901.8	0.18144	-0.011029	1.0039
3.12	53.716	-17747	1901.7	0.18202	-0.010736	1.0043
3.122	53.859	-17750	1901.7	0.1832	-0.011029	1.0046
3.124	53.973	-17752	1901.6	0.18437	-0.011322	1.0049
3.126	54.141	-17753	1901.6	0.18554	-0.011614	1.0052
3.128	54.298	-17754	1901.5	0.18671	-0.011907	1.0055
3.13	54.37	-17755	1901.4	0.18788	-0.0122	1.0058
3.132	54.378	-17757	1901.4	0.18876	-0.013566	1.0047
3.134	54.39	-17758	1901.3	0.18964	-0.014933	1.0036
3.136	54.444	-17759	1901.3	0.19052	-0.016299	1.0025
3.138	54.503	-17759	1901.2	0.19139	-0.017666	1.0015
3.14	54.519	-17763	1901.2	0.19227	-0.019032	1.0004
3.142	54.524	-17766	1901.1	0.19276	-0.01913	1.0008
3.144	54.535	-17760	1901.1	0.19325	-0.019227	1.0012
3.146	54.501	-17754	1901.1	0.19374	-0.019325	1.0016
3.148	54.466	-17759	1901.2	0.19422	-0.019422	1.002
3.15	54.435	-17764	1901.2	0.19471	-0.01952	1.0024
3.152	54.394	-17766	1901.3	0.19266	-0.01913	1.0014
3.154	54.393	-17769	1901.3	0.19061	-0.018739	1.0004
3.156	54.42	-17762	1901.3	0.18856	-0.018349	0.99942
3.158	54.438	-17756	1901.4	0.18651	-0.017958	0.99845
3.16	54.453	-17757	1901.4	0.18446	-0.017568	0.99747
3.162	54.47	-17758	1901.5	0.18427	-0.017568	0.99737
3.164	54.47	-17761	1901.6	0.18407	-0.017568	0.99728
3.166	54.449	-17764	1901.6	0.18388	-0.017568	0.99718
3.168	54.451	-17762	1901.6	0.18368	-0.017568	0.99708
3.17	54.478	-17760	1901.6	0.18349	-0.017568	0.99698
3.172	54.481	-17764	1901.6	0.183	-0.017763	0.99611
3.174	54.461	-17769	1901.6	0.18251	-0.017958	0.99523
3.176	54.419	-17772	1901.6	0.18202	-0.018154	0.99435
3.178	54.44	-17776	1901.6	0.18154	-0.018349	0.99347
3.18	54.468	-17768	1901.6	0.18105	-0.018544	0.99259
3.182	54.446	-17759	1901.5	0.18056	-0.018934	0.99269
3.184	54.437	-17759	1901.5	0.18007	-0.019325	0.99279
3.186	54.418	-17760	1901.4	0.17958	-0.019715	0.99288
3.188	54.388	-17762	1901.4	0.1791	-0.020106	0.99298
3.19	54.39	-17764	1901.3	0.17861	-0.020496	0.99308
3.192	54.381	-17765	1901.2	0.17792	-0.020106	0.99376
3.194	54.393	-17766	1901.1	0.17724	-0.019715	0.99445
3.196	54.4	-17768	1901	0.17656	-0.019325	0.99513
3.198	54.446	-17771	1901	0.17588	-0.018934	0.99581
3.2	54.511	-17768	1900.9	0.17519	-0.018544	0.9965
3.202	54.451	-17765	1900.8	0.17607	-0.018349	0.99689
3.204	54.438	-17772	1900.7	0.17695	-0.018154	0.99728
3.206	54.435	-17779	1900.6	0.17783	-0.017958	0.99767
3.208	54.463	-17776	1900.5	0.17871	-0.017763	0.99806
3.21	54.398	-17774	1900.4	0.17958	-0.017568	0.99845
3.212	54.362	-17777	1900.4	0.18124	-0.017373	1.0001
3.214	54.369	-17779	1900.3	0.1829	-0.017178	1.0018
3.216	54.4	-17778	1900.2	0.18456	-0.016982	1.0034
3.218	54.448	-17777	1900.1	0.18622	-0.016787	1.0051
3.22	54.451	-17779	1900.1	0.18788	-0.016592	1.0067
3.222	54.434	-17781	1900.1	0.18768	-0.016787	1.0061
3.224	54.424	-17780	1900.1	0.18749	-0.016982	1.0054
3.226	54.411	-17779	1900.1	0.18729	-0.017178	1.0047
3.228	54.409	-17783	1900.1	0.1871	-0.017373	1.004
3.23	54.397	-17787	1900.1	0.1869	-0.017568	1.0033
3.232	54.424	-17784	1900.2	0.18593	-0.016299	1.0039
3.234	54.437	-17782	1900.2	0.18495	-0.01503	1.0045
3.236	54.408	-17786	1900.3	0.18398	-0.013762	1.0051
3.238	54.411	-17789	1900.3	0.183	-0.012493	1.0057
3.24	54.436	-17795	1900.3	0.18202	-0.011224	1.0063
3.242	54.445	-17802	1900.3	0.18115	-0.01259	1.0052
3.244	54.432	-17795	1900.3	0.18027	-0.013957	1.0041
3.246	54.379	-17789	1900.3	0.17939	-0.015323	1.003
3.248	54.325	-17794	1900.4	0.17851	-0.01669	1.002
3.25	54.32	-17798	1900.4	0.17763	-0.018056	1.0009
3.252	54.332	-17793	1900.4	0.17548	-0.017958	1.0002
3.254	54.368	-17788	1900.5	0.17334	-0.017861	0.99952
3.256	54.377	-17789	1900.5	0.17119	-0.017763	0.99884
3.258	54.357	-17790	1900.5	0.16904	-0.017666	0.99816
3.26	54.333	-17782	1900.5	0.1669	-0.017568	0.99747
3.262	54.316	-17774	1900.5	0.16826	-0.018154	0.99747
3.264	54.315	-17780	1900.5	0.16963	-0.018739	0.99747
3.266	54.366	-17785	1900.6	0.171	-0.019325	0.99747
3.268	54.359	-17780	1900.6	0.17236	-0.01991	0.99747
3.27	54.355	-17776	1900.7	0.17373	-0.020496	0.99747
3.272	54.333	-17782	1900.8	0.17529	-0.020008	0.99786
3.274	54.357	-17788	1900.8	0.17685	-0.01952	0.99825
3.276	54.385	-17784	1900.9	0.17841	-0.019032	0.99864
3.278	54.327	-17781	1901.1	0.17997	-0.018544	0.99903
3.28	54.278	-17785	1901.2	0.18154	-0.018056	0.99942
3.282	54.357	-17789	1901.2	0.18105	-0.018154	1.0002
3.284	54.406	-17790	1901.3	0.18056	-0.018251	1.001
3.286	54.381	-17790	1901.4	0.18007	-0.018349	1.0018
3.288	54.424	-17786	1901.4	0.17958	-0.018446	1.0025
3.29	54.47	-17782	1901.5	0.1791	-0.018544	1.0033
3.292	54.417	-17783	1901.6	0.17968	-0.018056	1.0035
3.294	54.349	-17784	1901.7	0.18027	-0.017568	1.0037
3.296	54.353	-17787	1901.8	0.18085	-0.01708	1.0039
3.298	54.386	-17789	1901.9	0.18144	-0.016592	1.0041
3.3	54.344	-17799	1902.1	0.18202	-0.016104	1.0043
3.302	54.337	-17809	1902.2	0.18202	-0.015909	1.0046
3.304	54.359	-17806	1902.3	0.18202	-0.015714	1.0049
3.306	54.386	-17804	1902.4	0.18202	-0.015518	1.0052
3.308	54.428	-17803	1902.5	0.18202	-0.015323	1.0055
3.31	54.422	-17802	1902.6	0.18202	-0.015128	1.0058
3.312	54.389	-17801	1902.7	0.18163	-0.015811	1.0049
3.314	54.402	-17801	1902.8	0.18124	-0.016494	1.004
3.316	54.401	-17800	1903	0.18085	-0.017178	1.0031
3.318	54.391	-17798	1903.1	0.18046	-0.017861	1.0023
3.32	54.404	-17789	1903.2	0.18007	-0.018544	1.0014
3.322	54.382	-17780	1903.3	0.17773	-0.018837	1.0006
3.324	54.345	-17783	1903.5	0.17539	-0.01913	0.99981
3.326	54.342	-17787	1903.6	0.17304	-0.019422	0.99903
3.328	54.355	-17783	1903.7	0.1707	-0.019715	0.99825
3.33	54.353	-17779	1903.8	0.16836	-0.020008	0.99747
3.332	54.326	-17780	1903.9	0.16748	-0.019813	0.99757
3.334	54.321	-17781	1904	0.1666	-0.019618	0.99767
3.336	54.356	-17780	1904	0.16572	-0.019422	0.99776
3.338	54.393	-17778	1904.1	0.16485	-0.019227	0.99786
3.34	54.384	-17782	1904.1	0.16397	-0.019032	0.99796
3.342	54.351	-17785	1904.2	0.16465	-0.019227	0.99776
3.344	54.35	-17786	1904.3	0.16533	-0.019422	0.99757
3.346	54.397	-17787	1904.4	0.16602	-0.019618	0.99737
3.348	54.389	-17788	1904.5	0.1667	-0.019813	0.99718
3.35	54.353	-17788	1904.5	0.16738	-0.020008	0.99698
3.352	54.337	-17782	1904.6	0.16875	-0.02157	0.99864
3.354	54.321	-17776	1904.6	0.17012	-0.023131	1.0003
3.356	54.38	-17777	1904.7	0.17148	-0.024693	1.002
3.358	54.41	-17777	1904.7	0.17285	-0.026254	1.0036
3.36	54.41	-17776	1904.8	0.17422	-0.027816	1.0053
3.362	54.368	-17774	1904.8	0.1749	-0.02645	1.0049
3.364	54.359	-17771	1904.9	0.17558	-0.025083	1.0045
3.366	54.379	-17767	1904.9	0.17627	-0.023717	1.0041
3.368	54.399	-17769	1904.9	0.17695	-0.02235	1.0037
3.37	54.416	-17771	1904.9	0.17763	-0.020984	1.0033
3.372	54.386	-17769	1905	0.17656	-0.02196	1.0025
3.374	54.401	-17768	1905.1	0.17548	-0.022936	1.0018
3.376	54.397	-17764	1905.2	0.17441	-0.023912	1.001
3.378	54.396	-17761	1905.2	0.17334	-0.024888	1.0002
3.38	54.423	-17758	1905.3	0.17226	-0.025864	0.99942
3.382	54.433	-17756	1905.4	0.17158	-0.024888	0.99874
3.384	54.412	-17756	1905.4	0.1709	-0.023912	0.99806
3.386	54.386	-17756	1905.5	0.17021	-0.022936	0.99737
3.388	54.411	-17759	1905.5	0.16953	-0.02196	0.99669
3.39	54.426	-17761	1905.5	0.16885	-0.020984	0.99601
3.392	54.363	-17760	1905.6	0.16885	-0.020984	0.99513
3.394	54.319	-17759	1905.6	0.16885	-0.020984	0.99425
3.396	54.387	-17758	1905.5	0.16885	-0.020984	0.99337
3.398	54.466	-17758	1905.5	0.16885	-0.020984	0.99249
3.4	54.461	-17754	1905.4	0.16885	-0.020984	0.99162
3.402	54.426	-17751	1905.3	0.16885	-0.020301	0.99288
3.404	54.439	-17750	1905.2	0.16885	-0.019618	0.99415
3.406	54.465	-17750	1905.2	0.16885	-0.018934	0.99542
3.408	54.444	-17750	1905.1	0.16885	-0.018251	0.99669
3.41	54.415	-17751	1905	0.16885	-0.017568	0.99796
3.412	54.434	-17744	1905	0.171	-0.019032	0.99913
3.414	54.447	-17737	1905	0.17314	-0.020496	1.0003
3.416	54.405	-17738	1904.9	0.17529	-0.02196	1.0015
3.418	54.375	-17739	1904.9	0.17744	-0.023424	1.0026
3.42	54.397	-17741	1904.8	0.17958	-0.024888	1.0038
3.422	54.417	-17744	1904.8	0.17929	-0.023619	1.0031
3.424	54.415	-17740	1904.7	0.179	-0.02235	1.0024
3.426	54.445	-17736	1904.7	0.17871	-0.021082	1.0018
3.428	54.47	-17736	1904.6	0.17841	-0.019813	1.0011
3.43	54.486	-17736	1904.6	0.17812	-0.018544	1.0004
3.432	54.459	-17738	1904.5	0.17753	-0.01991	1.0016
3.434	54.456	-17739	1904.5	0.17695	-0.021277	1.0027
3.436	54.45	-17739	1904.4	0.17636	-0.022643	1.0039
3.438	54.397	-17738	1904.4	0.17578	-0.02401	1.0051
3.44	54.366	-17735	1904.4	0.17519	-0.025376	1.0063
3.442	54.383	-17732	1904.3	0.17519	-0.025376	1.0053
3.444	54.423	-17728	1904.3	0.17519	-0.025376	1.0043
3.446	54.383	-17724	1904.3	0.17519	-0.025376	1.0033
3.448	54.447	-17724	1904.2	0.17519	-0.025376	1.0024
3.45	54.453	-17725	1904.1	0.17519	-0.025376	1.0014
3.452	54.367	-17728	1904.1	0.17392	-0.024302	1.0003
3.454	54.424	-17730	1904	0.17265	-0.023229	0.99923
3.456	54.441	-17730	1903.9	0.17139	-0.022155	0.99816
3.458	54.459	-17731	1903.8	0.17012	-0.021082	0.99708
3.46	54.407	-17728	1903.7	0.16885	-0.020008	0.99601
3.462	54.405	-17725	1903.6	0.16797	-0.019813	0.99572
3.464	54.439	-17725	1903.6	0.16709	-0.019618	0.99542
3.466	54.483	-17724	1903.5	0.16621	-0.019422	0.99513
3.468	54.473	-17725	1903.4	0.16533	-0.019227	0.99484
3.47	54.444	-17727	1903.3	0.16446	-0.019032	0.99454
3.472	54.427	-17729	1903.2	0.16494	-0.01913	0.99552
3.474	54.408	-17732	1903.1	0.16543	-0.019227	0.9965
3.476	54.434	-17731	1903	0.16592	-0.019325	0.99747
3.478	54.429	-17731	1902.9	0.16641	-0.019422	0.99845
3.48	54.364	-17731	1902.8	0.1669	-0.01952	0.99942
3.482	54.335	-17732	1902.6	0.16895	-0.01991	1.0006
3.484	54.393	-17730	1902.5	0.171	-0.020301	1.0018
3.486	54.429	-17729	1902.4	0.17304	-0.020691	1.0029
3.488	54.444	-17729	1902.4	0.17509	-0.021082	1.0041
3.49	54.428	-17730	1902.4	0.17714	-0.021472	1.0053
3.492	54.396	-17730	1902.3	0.17627	-0.021374	1.0055
3.494	54.382	-17730	1902.3	0.17539	-0.021277	1.0057
3.496	54.37	-17732	1902.3	0.17451	-0.021179	1.0059
3.498	54.347	-17734	1902.2	0.17363	-0.021082	1.0061
3.5	54.33	-17732	1902.2	0.17275	-0.020984	1.0063
3.502	54.346	-17730	1902.2	0.17265	-0.020984	1.0054
3.504	54.382	-17724	1902.2	0.17256	-0.020984	1.0045
3.506	54.419	-17719	1902.2	0.17246	-0.020984	1.0036
3.508	54.445	-17719	1902.2	0.17236	-0.020984	1.0027
3.51	54.426	-17719	1902.1	0.17226	-0.020984	1.0019
3.512	54.391	-17722	1902.1	0.17236	-0.020496	1.0017
3.514	54.378	-17725	1902.1	0.17246	-0.020008	1.0015
3.516	54.401	-17727	1902	0.17256	-0.01952	1.0013
3.518	54.397	-17728	1902	0.17265	-0.019032	1.0011
3.52	54.35	-17727	1901.9	0.17275	-0.018544	1.0009
3.522	54.314	-17726	1901.9	0.17402	-0.018251	1.0024
3.524	54.359	-17721	1901.8	0.17529	-0.017958	1.0038
3.526	54.442	-17717	1901.8	0.17656	-0.017666	1.0053
3.528	54.425	-17719	1901.8	0.17783	-0.017373	1.0067
3.53	54.409	-17721	1901.7	0.1791	-0.01708	1.0082
3.532	54.342	-17723	1901.7	0.17919	-0.017178	1.0076
3.534	54.286	-17725	1901.7	0.17929	-0.017275	1.007
3.536	54.309	-17720	1901.7	0.17939	-0.017373	1.0065
3.538	54.315	-17715	1901.7	0.17949	-0.01747	1.0059
3.54	54.344	-17718	1901.6	0.17958	-0.017568	1.0053
3.542	54.387	-17722	1901.6	0.17949	-0.01708	1.0071
3.544	54.376	-17718	1901.5	0.17939	-0.016592	1.009
3.546	54.335	-17715	1901.5	0.17929	-0.016104	1.0108
3.548	54.33	-17716	1901.5	0.17919	-0.015616	1.0127
3.55	54.342	-17716	1901.4	0.1791	-0.015128	1.0146
3.552	54.356	-17721	1901.4	0.17968	-0.015421	1.0146
3.554	54.376	-17727	1901.3	0.18027	-0.015714	1.0146
3.556	54.353	-17724	1901.3	0.18085	-0.016006	1.0146
3.558	54.384	-17721	1901.2	0.18144	-0.016299	1.0146
3.56	54.393	-17720	1901.2	0.18202	-0.016592	1.0146
3.562	54.348	-17719	1901.2	0.18329	-0.016787	1.0147
3.564	54.304	-17725	1901.1	0.18456	-0.016982	1.0149
3.566	54.345	-17730	1901.1	0.18583	-0.017178	1.0151
3.568	54.427	-17729	1901	0.1871	-0.017373	1.0153
3.57	54.419	-17728	1900.9	0.18837	-0.017568	1.0155
3.572	54.336	-17733	1900.8	0.18778	-0.016982	1.0155
3.574	54.318	-17738	1900.8	0.1872	-0.016397	1.0155
3.576	54.335	-17726	1900.7	0.18661	-0.015811	1.0155
3.578	54.359	-17714	1900.7	0.18603	-0.015226	1.0155
3.58	54.395	-17719	1900.6	0.18544	-0.01464	1.0155
3.582	54.438	-17724	1900.6	0.18622	-0.015518	1.0153
3.584	54.461	-17726	1900.6	0.187	-0.016397	1.0151
3.586	54.457	-17728	1900.6	0.18778	-0.017275	1.0149
3.588	54.489	-17727	1900.5	0.18856	-0.018154	1.0147
3.59	54.512	-17725	1900.5	0.18934	-0.019032	1.0146
3.592	54.491	-17725	1900.4	0.18905	-0.017861	1.0152
3.594	54.48	-17725	1900.3	0.18876	-0.01669	1.0159
3.596	54.459	-17728	1900.3	0.18847	-0.015518	1.0166
3.598	54.43	-17732	1900.2	0.18817	-0.014347	1.0173
3.6	54.418	-17726	1900.1	0.18788	-0.013176	1.018
3.602	54.414	-17720	1900.1	0.18886	-0.014152	1.0177
3.604	54.406	-17723	1900.1	0.18983	-0.015128	1.0174
3.606	54.404	-17725	1900	0.19081	-0.016104	1.0171
3.608	54.427	-17724	1900.1	0.19178	-0.01708	1.0168
3.61	54.457	-17723	1900.1	0.19276	-0.018056	1.0165
3.612	54.444	-17726	1900.1	0.19149	-0.017763	1.0164
3.614	54.492	-17729	1900.1	0.19022	-0.01747	1.0163
3.616	54.481	-17735	1900.1	0.18895	-0.017178	1.0162
3.618	54.448	-17741	1900	0.18768	-0.016885	1.0161
3.62	54.46	-17744	1900	0.18642	-0.016592	1.016
3.622	54.451	-17746	1900	0.18681	-0.017275	1.0159
3.624	54.445	-17742	1900.1	0.1872	-0.017958	1.0158
3.626	54.435	-17737	1900.1	0.18759	-0.018642	1.0157
3.628	54.47	-17730	1900.1	0.18798	-0.019325	1.0156
3.63	54.417	-17723	1900.1	0.18837	-0.020008	1.0155
3.632	54.426	-17721	1900.1	0.18798	-0.019715	1.0153
3.634	54.47	-17719	1900.1	0.18759	-0.019422	1.0151
3.636	54.48	-17718	1900	0.1872	-0.01913	1.0149
3.638	54.45	-17717	1900	0.18681	-0.018837	1.0147
3.64	54.454	-17715	1900	0.18642	-0.018544	1.0146
3.642	54.452	-17713	1900	0.18681	-0.017763	1.0149
3.644	54.478	-17716	1899.9	0.1872	-0.016982	1.0153
3.646	54.558	-17718	1899.9	0.18759	-0.016202	1.0157
3.648	54.553	-17727	1899.9	0.18798	-0.015421	1.0161
3.65	54.547	-17736	1900	0.18837	-0.01464	1.0165
3.652	54.627	-17731	1900	0.18778	-0.014933	1.0165
3.654	54.656	-17726	1900	0.1872	-0.015226	1.0165
3.656	54.673	-17731	1900	0.18661	-0.015518	1.0165
3.658	54.655	-17736	1900	0.18603	-0.015811	1.0165
3.66	54.573	-17736	1900	0.18544	-0.016104	1.0165
3.662	54.463	-17735	1900	0.18476	-0.015226	1.0163
3.664	54.353	-17736	1900	0.18407	-0.014347	1.0161
3.666	54.269	-17736	1900	0.18339	-0.013469	1.0159
3.668	54.217	-17730	1900	0.18271	-0.01259	1.0157
3.67	54.14	-17724	1900	0.18202	-0.011712	1.0155
3.672	54.003	-17729	1899.9	0.18046	-0.013176	1.0137
3.674	53.842	-17734	1899.9	0.1789	-0.01464	1.0118
3.676	53.703	-17730	1899.9	0.17734	-0.016104	1.01
3.678	53.6	-17727	1899.9	0.17578	-0.017568	1.0081
3.68	53.463	-17730	1899.9	0.17422	-0.019032	1.0063
3.682	53.358	-17733	1899.9	0.17412	-0.018837	1.0057
3.684	53.321	-17734	1899.8	0.17402	-0.018642	1.0051
3.686	53.357	-17736	1899.8	0.17392	-0.018446	1.0045
3.688	53.494	-17738	1899.8	0.17383	-0.018251	1.0039
3.69	53.659	-17740	1899.8	0.17373	-0.018056	1.0033
3.692	53.841	-17736	1899.8	0.17363	-0.018446	1.0032
3.694	53.989	-17733	1899.8	0.17353	-0.018837	1.0031
3.696	54.124	-17732	1899.8	0.17344	-0.019227	1.003
3.698	54.234	-17731	1899.7	0.17334	-0.019618	1.0029
3.7	54.312	-17732	1899.7	0.17324	-0.020008	1.0028
3.702	54.426	-17733	1899.7	0.17373	-0.01952	1.0027
3.704	54.491	-17737	1899.7	0.17422	-0.019032	1.0026
3.706	54.526	-17741	1899.7	0.1747	-0.018544	1.0025
3.708	54.522	-17744	1899.7	0.17519	-0.018056	1.0024
3.71	54.469	-17746	1899.6	0.17568	-0.017568	1.0024
3.712	54.43	-17736	1899.6	0.17441	-0.017275	1.0012
3.714	54.463	-17727	1899.6	0.17314	-0.016982	1
3.716	54.371	-17730	1899.6	0.17187	-0.01669	0.99884
3.718	54.363	-17734	1899.7	0.1706	-0.016397	0.99767
3.72	54.455	-17733	1899.7	0.16934	-0.016104	0.9965
3.722	54.406	-17732	1899.7	0.16807	-0.016592	0.99669
3.724	54.407	-17733	1899.7	0.1668	-0.01708	0.99689
3.726	54.467	-17735	1899.8	0.16553	-0.017568	0.99708
3.728	54.474	-17741	1899.8	0.16426	-0.018056	0.99728
3.73	54.48	-17748	1899.9	0.16299	-0.018544	0.99747
3.732	54.456	-17742	1899.9	0.1626	-0.019715	0.99776
3.734	54.435	-17735	1899.9	0.16221	-0.020886	0.99806
3.736	54.408	-17738	1899.9	0.16182	-0.022058	0.99835
3.738	54.427	-17741	1899.9	0.16143	-0.023229	0.99864
3.74	54.447	-17746	1899.9	0.16104	-0.0244	0.99894
3.742	54.423	-17750	1900	0.16202	-0.023326	0.99806
3.744	54.381	-17745	1900	0.16299	-0.022253	0.99718
3.746	54.38	-17740	1900	0.16397	-0.021179	0.9963
3.748	54.433	-17738	1900	0.16494	-0.020106	0.99542
3.75	54.473	-17736	1900.1	0.16592	-0.019032	0.99454
3.752	54.455	-17746	1900	0.16543	-0.018739	0.99435
3.754	54.421	-17755	1900	0.16494	-0.018446	0.99415
3.756	54.405	-17755	1900	0.16446	-0.018154	0.99396
3.758	54.404	-17755	1899.9	0.16397	-0.017861	0.99376
3.76	54.417	-17753	1899.9	0.16348	-0.017568	0.99357
3.762	54.438	-17751	1899.9	0.16465	-0.017763	0.99298
3.764	54.449	-17750	1899.9	0.16582	-0.017958	0.9924
3.766	54.433	-17748	1899.8	0.16699	-0.018154	0.99181
3.768	54.415	-17752	1899.8	0.16816	-0.018349	0.99123
3.77	54.422	-17755	1899.7	0.16934	-0.018544	0.99064
3.772	54.428	-17750	1899.6	0.16836	-0.018251	0.99103
3.774	54.437	-17744	1899.6	0.16738	-0.017958	0.99142
3.776	54.426	-17749	1899.5	0.16641	-0.017666	0.99181
3.778	54.384	-17754	1899.5	0.16543	-0.017373	0.9922
3.78	54.404	-17752	1899.4	0.16446	-0.01708	0.99259
3.782	54.422	-17749	1899.4	0.16475	-0.017178	0.9922
3.784	54.439	-17746	1899.3	0.16504	-0.017275	0.99181
3.786	54.47	-17744	1899.3	0.16533	-0.017373	0.99142
3.788	54.42	-17747	1899.3	0.16563	-0.01747	0.99103
3.79	54.354	-17750	1899.2	0.16592	-0.017568	0.99064
3.792	54.376	-17750	1899.2	0.16524	-0.017763	0.99084
3.794	54.422	-17751	1899.3	0.16455	-0.017958	0.99103
3.796	54.414	-17752	1899.3	0.16387	-0.018154	0.99123
3.798	54.397	-17753	1899.2	0.16319	-0.018349	0.99142
3.8	54.372	-17757	1899.2	0.1625	-0.018544	0.99162
3.802	54.412	-17760	1899.2	0.16397	-0.017568	0.99113
3.804	54.432	-17759	1899.2	0.16543	-0.016592	0.99064
3.806	54.408	-17758	1899.2	0.1669	-0.015616	0.99015
3.808	54.362	-17759	1899.2	0.16836	-0.01464	0.98966
3.81	54.348	-17759	1899.2	0.16982	-0.013664	0.98918
3.812	54.384	-17763	1899.2	0.16973	-0.014445	0.98888
3.814	54.363	-17767	1899.2	0.16963	-0.015226	0.98859
3.816	54.365	-17768	1899.2	0.16953	-0.016006	0.9883
3.818	54.332	-17770	1899.2	0.16943	-0.016787	0.988
3.82	54.304	-17767	1899.2	0.16934	-0.017568	0.98771
3.822	54.32	-17764	1899.3	0.16992	-0.018837	0.98771
3.824	54.359	-17765	1899.3	0.17051	-0.020106	0.98771
3.826	54.368	-17765	1899.4	0.17109	-0.021374	0.98771
3.828	54.376	-17763	1899.5	0.17168	-0.022643	0.98771
3.83	54.366	-17761	1899.5	0.17226	-0.023912	0.98771
3.832	54.325	-17763	1899.6	0.17256	-0.023717	0.98791
3.834	54.333	-17765	1899.6	0.17285	-0.023522	0.9881
3.836	54.393	-17766	1899.7	0.17314	-0.023326	0.9883
3.838	54.42	-17768	1899.7	0.17344	-0.023131	0.98849
3.84	54.43	-17772	1899.8	0.17373	-0.022936	0.98869
3.842	54.424	-17776	1899.8	0.17246	-0.02196	0.98996
3.844	54.374	-17774	1899.8	0.17119	-0.020984	0.99123
3.846	54.335	-17772	1899.8	0.16992	-0.020008	0.99249
3.848	54.287	-17767	1899.9	0.16865	-0.019032	0.99376
3.85	54.24	-17762	1900	0.16738	-0.018056	0.99503
3.852	54.226	-17761	1900.1	0.16719	-0.017958	0.99552
3.854	54.311	-17760	1900.2	0.16699	-0.017861	0.99601
3.856	54.451	-17766	1900.2	0.1668	-0.017763	0.9965
3.858	54.463	-17772	1900.3	0.1666	-0.017666	0.99698
3.86	54.421	-17772	1900.4	0.16641	-0.017568	0.99747
3.862	54.392	-17772	1900.5	0.16748	-0.017373	0.99855
3.864	54.36	-17769	1900.5	0.16856	-0.017178	0.99962
3.866	54.34	-17766	1900.6	0.16963	-0.016982	1.0007
3.868	54.387	-17769	1900.7	0.1707	-0.016787	1.0018
3.87	54.422	-17772	1900.9	0.17178	-0.016592	1.0028
3.872	54.392	-17772	1900.9	0.17256	-0.018056	1.0034
3.874	54.409	-17771	1901	0.17334	-0.01952	1.004
3.876	54.432	-17768	1901.1	0.17412	-0.020984	1.0046
3.878	54.403	-17766	1901.1	0.1749	-0.022448	1.0052
3.88	54.357	-17765	1901.2	0.17568	-0.023912	1.0058
3.882	54.323	-17763	1901.3	0.17597	-0.023131	1.0058
3.884	54.281	-17762	1901.4	0.17627	-0.02235	1.0058
3.886	54.285	-17762	1901.5	0.17656	-0.02157	1.0058
3.888	54.359	-17761	1901.6	0.17685	-0.020789	1.0058
3.89	54.457	-17760	1901.6	0.17714	-0.020008	1.0058
3.892	54.487	-17754	1901.7	0.17666	-0.020594	1.0063
3.894	54.405	-17748	1901.7	0.17617	-0.021179	1.0067
3.896	54.385	-17749	1901.8	0.17568	-0.021765	1.0072
3.898	54.343	-17751	1901.8	0.17519	-0.02235	1.0077
3.9	54.299	-17753	1901.9	0.1747	-0.022936	1.0082
3.902	54.322	-17755	1901.9	0.17578	-0.022936	1.01
3.904	54.372	-17754	1901.9	0.17685	-0.022936	1.0117
3.906	54.361	-17754	1901.9	0.17792	-0.022936	1.0135
3.908	54.328	-17752	1901.9	0.179	-0.022936	1.0152
3.91	54.293	-17751	1901.9	0.18007	-0.022936	1.017
3.912	54.299	-17748	1902	0.18017	-0.022448	1.0169
3.914	54.304	-17744	1902	0.18027	-0.02196	1.0168
3.916	54.334	-17743	1902.1	0.18036	-0.021472	1.0167
3.918	54.398	-17741	1902.1	0.18046	-0.020984	1.0166
3.92	54.427	-17748	1902.1	0.18056	-0.020496	1.0165
3.922	54.405	-17755	1902.1	0.18085	-0.020106	1.0164
3.924	54.385	-17757	1902.2	0.18115	-0.019715	1.0163
3.926	54.393	-17758	1902.2	0.18144	-0.019325	1.0162
3.928	54.394	-17760	1902.3	0.18173	-0.018934	1.0161
3.93	54.373	-17763	1902.4	0.18202	-0.018544	1.016
3.932	54.348	-17762	1902.4	0.18163	-0.018739	1.0159
3.934	54.335	-17761	1902.5	0.18124	-0.018934	1.0158
3.936	54.326	-17756	1902.6	0.18085	-0.01913	1.0157
3.938	54.356	-17751	1902.6	0.18046	-0.019325	1.0156
3.94	54.414	-17744	1902.6	0.18007	-0.01952	1.0155
3.942	54.437	-17738	1902.7	0.17949	-0.01991	1.0153
3.944	54.412	-17733	1902.7	0.1789	-0.020301	1.0151
3.946	54.357	-17727	1902.7	0.17832	-0.020691	1.0149
3.948	54.347	-17726	1902.7	0.17773	-0.021082	1.0147
3.95	54.342	-17725	1902.6	0.17714	-0.021472	1.0146
3.952	54.339	-17726	1902.7	0.17763	-0.021862	1.0149
3.954	54.38	-17726	1902.7	0.17812	-0.022253	1.0153
3.956	54.38	-17727	1902.7	0.17861	-0.022643	1.0157
3.958	54.431	-17727	1902.7	0.1791	-0.023034	1.0161
3.96	54.467	-17726	1902.8	0.17958	-0.023424	1.0165
3.962	54.467	-17726	1902.7	0.1791	-0.023814	1.017
3.964	54.428	-17722	1902.7	0.17861	-0.024205	1.0175
3.966	54.429	-17719	1902.7	0.17812	-0.024595	1.018
3.968	54.468	-17718	1902.6	0.17763	-0.024986	1.0185
3.97	54.425	-17716	1902.6	0.17714	-0.025376	1.0189
3.972	54.402	-17715	1902.5	0.17773	-0.024595	1.0185
3.974	54.402	-17713	1902.4	0.17832	-0.023814	1.018
3.976	54.378	-17718	1902.4	0.1789	-0.023034	1.0175
3.978	54.368	-17722	1902.4	0.17949	-0.022253	1.017
3.98	54.402	-17720	1902.4	0.18007	-0.021472	1.0165
3.982	54.446	-17717	1902.4	0.18017	-0.021179	1.0166
3.984	54.422	-17712	1902.4	0.18027	-0.020886	1.0167
3.986	54.425	-17706	1902.4	0.18036	-0.020594	1.0168
3.988	54.44	-17705	1902.4	0.18046	-0.020301	1.0169
3.99	54.428	-17703	1902.4	0.18056	-0.020008	1.017
3.992	54.375	-17707	1902.4	0.17861	-0.020789	1.0164
3.994	54.361	-17710	1902.4	0.17666	-0.02157	1.0158
3.996	54.403	-17712	1902.4	0.1747	-0.02235	1.0152
3.998	54.487	-17714	1902.4	0.17275	-0.023131	1.0146
4	54.494	-17709	1902.5	0.1708	-0.023912	1.0141
4.002	54.444	-17704	1902.4	0.16982	-0.023424	1.013
4.004	54.414	-17704	1902.4	0.16885	-0.022936	1.0119
4.006	54.383	-17704	1902.4	0.16787	-0.022448	1.0108
4.008	54.323	-17702	1902.4	0.1669	-0.02196	1.0098
4.01	54.296	-17700	1902.4	0.16592	-0.021472	1.0087
4.012	54.319	-17698	1902.4	0.16641	-0.021667	1.0088
4.014	54.365	-17696	1902.3	0.1669	-0.021862	1.0089
4.016	54.447	-17694	1902.3	0.16738	-0.022058	1.009
4.018	54.471	-17692	1902.3	0.16787	-0.022253	1.0091
4.02	54.431	-17697	1902.2	0.16836	-0.022448	1.0092
4.022	54.431	-17703	1902.2	0.16846	-0.022155	1.0091
4.024	54.442	-17697	1902.1	0.16856	-0.021862	1.009
4.026	54.413	-17692	1902.1	0.16865	-0.02157	1.0089
4.028	54.4	-17687	1902.1	0.16875	-0.021277	1.0088
4.03	54.378	-17682	1902.1	0.16885	-0.020984	1.0087
4.032	54.363	-17684	1902	0.16875	-0.020886	1.0085
4.034	54.381	-17686	1902	0.16865	-0.020789	1.0083
4.036	54.403	-17683	1902	0.16856	-0.020691	1.0081
4.038	54.381	-17681	1901.9	0.16846	-0.020594	1.0079
4.04	54.395	-17683	1901.8	0.16836	-0.020496	1.0077
4.042	54.437	-17686	1901.8	0.16875	-0.021277	1.0081
4.044	54.451	-17685	1901.7	0.16914	-0.022058	1.0085
4.046	54.44	-17684	1901.7	0.16953	-0.022838	1.0089
4.048	54.372	-17684	1901.6	0.16992	-0.023619	1.0093
4.05	54.335	-17683	1901.6	0.17031	-0.0244	1.0097
4.052	54.358	-17678	1901.6	0.16992	-0.023717	1.0085
4.054	54.404	-17673	1901.6	0.16953	-0.023034	1.0073
4.056	54.422	-17676	1901.5	0.16914	-0.02235	1.0062
4.058	54.409	-17678	1901.5	0.16875	-0.021667	1.005
4.06	54.443	-17680	1901.5	0.16836	-0.020984	1.0038
4.062	54.427	-17681	1901.5	0.16992	-0.021667	1.0042
4.064	54.364	-17686	1901.5	0.17148	-0.02235	1.0046
4.066	54.379	-17691	1901.5	0.17304	-0.023034	1.005
4.068	54.421	-17686	1901.6	0.17461	-0.023717	1.0054
4.07	54.396	-17682	1901.6	0.17617	-0.0244	1.0058
4.072	54.394	-17686	1901.6	0.17509	-0.023912	1.0051
4.074	54.423	-17689	1901.6	0.17402	-0.023424	1.0044
4.076	54.384	-17691	1901.6	0.17295	-0.022936	1.0037
4.078	54.29	-17693	1901.6	0.17187	-0.022448	1.003
4.08	54.294	-17685	1901.6	0.1708	-0.02196	1.0024
4.082	54.4	-17678	1901.6	0.16992	-0.021179	1.0014
4.084	54.461	-17683	1901.6	0.16904	-0.020398	1.0004
4.086	54.426	-17688	1901.6	0.16816	-0.019618	0.99942
4.088	54.391	-17689	1901.5	0.16729	-0.018837	0.99845
4.09	54.39	-17689	1901.4	0.16641	-0.018056	0.99747
4.092	54.381	-17686	1901.4	0.16729	-0.018739	0.99786
4.094	54.37	-17683	1901.4	0.16816	-0.019422	0.99825
4.096	54.364	-17685	1901.3	0.16904	-0.020106	0.99864
4.098	54.357	-17687	1901.3	0.16992	-0.020789	0.99903
4.1	54.339	-17689	1901.3	0.1708	-0.021472	0.99942
4.102	54.314	-17690	1901.3	0.17158	-0.022448	1.001
4.104	54.3	-17685	1901.2	0.17236	-0.023424	1.0025
4.106	54.28	-17680	1901.1	0.17314	-0.0244	1.0041
4.108	54.271	-17682	1901.1	0.17392	-0.025376	1.0057
4.11	54.295	-17684	1901.1	0.1747	-0.026352	1.0072
4.112	54.298	-17680	1901.1	0.17441	-0.025864	1.0074
4.114	54.298	-17677	1901.1	0.17412	-0.025376	1.0076
4.116	54.301	-17681	1901.1	0.17383	-0.024888	1.0078
4.118	54.297	-17686	1901.2	0.17353	-0.0244	1.008
4.12	54.297	-17687	1901.2	0.17324	-0.023912	1.0082
4.122	54.347	-17688	1901.2	0.17383	-0.024205	1.0073
4.124	54.34	-17687	1901.2	0.17441	-0.024498	1.0065
4.126	54.367	-17686	1901.2	0.175	-0.02479	1.0056
4.128	54.372	-17686	1901.2	0.17558	-0.025083	1.0047
4.13	54.333	-17686	1901.2	0.17617	-0.025376	1.0038
4.132	54.33	-17689	1901.3	0.17617	-0.025669	1.0039
4.134	54.319	-17691	1901.3	0.17617	-0.025962	1.004
4.136	54.335	-17684	1901.3	0.17617	-0.026254	1.0041
4.138	54.322	-17677	1901.3	0.17617	-0.026547	1.0042
4.14	54.274	-17679	1901.3	0.17617	-0.02684	1.0043
4.142	54.312	-17682	1901.3	0.17529	-0.026352	1.0034
4.144	54.385	-17681	1901.3	0.17441	-0.025864	1.0025
4.146	54.444	-17680	1901.3	0.17353	-0.025376	1.0017
4.148	54.494	-17684	1901.3	0.17265	-0.024888	1.0008
4.15	54.461	-17688	1901.2	0.17178	-0.0244	0.99991
4.152	54.42	-17684	1901.2	0.17275	-0.0244	1.0004
4.154	54.358	-17681	1901.2	0.17373	-0.0244	1.0009
4.156	54.343	-17680	1901.1	0.1747	-0.0244	1.0014
4.158	54.389	-17680	1901.1	0.17568	-0.0244	1.0019
4.16	54.444	-17683	1901	0.17666	-0.0244	1.0024
4.162	54.414	-17685	1901	0.17627	-0.024888	1.003
4.164	54.374	-17685	1901	0.17588	-0.025376	1.0037
4.166	54.398	-17684	1901	0.17548	-0.025864	1.0044
4.168	54.475	-17687	1900.9	0.17509	-0.026352	1.0051
4.17	54.479	-17689	1900.9	0.1747	-0.02684	1.0058
4.172	54.427	-17686	1900.9	0.1748	-0.026059	1.0046
4.174	54.39	-17683	1900.8	0.1749	-0.025278	1.0034
4.176	54.39	-17684	1900.8	0.175	-0.024498	1.0023
4.178	54.453	-17686	1900.8	0.17509	-0.023717	1.0011
4.18	54.489	-17688	1900.7	0.17519	-0.022936	0.99991
4.182	54.471	-17691	1900.7	0.17548	-0.022741	1.0004
4.184	54.459	-17682	1900.7	0.17578	-0.022546	1.0009
4.186	54.417	-17673	1900.7	0.17607	-0.02235	1.0014
4.188	54.39	-17679	1900.7	0.17636	-0.022155	1.0019
4.19	54.428	-17686	1900.8	0.17666	-0.02196	1.0024
4.192	54.452	-17683	1900.7	0.17588	-0.023424	1.0033
4.194	54.421	-17681	1900.7	0.17509	-0.024888	1.0043
4.196	54.41	-17682	1900.7	0.17431	-0.026352	1.0053
4.198	54.442	-17682	1900.6	0.17353	-0.027816	1.0063
4.2	54.449	-17681	1900.6	0.17275	-0.02928	1.0072
4.202	54.477	-17681	1900.6	0.17285	-0.028792	1.0071
4.204	54.475	-17682	1900.5	0.17295	-0.028304	1.007
4.206	54.43	-17683	1900.5	0.17304	-0.027816	1.0069
4.208	54.404	-17686	1900.5	0.17314	-0.027328	1.0068
4.21	54.427	-17688	1900.4	0.17324	-0.02684	1.0067
4.212	54.486	-17686	1900.4	0.17363	-0.027426	1.0071
4.214	54.492	-17684	1900.4	0.17402	-0.028011	1.0075
4.216	54.484	-17686	1900.4	0.17441	-0.028597	1.0079
4.218	54.524	-17689	1900.4	0.1748	-0.029182	1.0083
4.22	54.574	-17685	1900.4	0.17519	-0.029768	1.0087
4.222	54.614	-17682	1900.3	0.175	-0.028987	1.0084
4.224	54.604	-17684	1900.3	0.1748	-0.028206	1.0081
4.226	54.583	-17686	1900.3	0.17461	-0.027426	1.0078
4.228	54.555	-17687	1900.2	0.17441	-0.026645	1.0075
4.23	54.501	-17688	1900.2	0.17422	-0.025864	1.0072
4.232	54.509	-17689	1900.1	0.17353	-0.025278	1.008
4.234	54.428	-17689	1900.1	0.17285	-0.024693	1.0088
4.236	54.369	-17688	1900	0.17217	-0.024107	1.0096
4.238	54.266	-17687	1899.9	0.17148	-0.023522	1.0104
4.24	54.161	-17686	1899.8	0.1708	-0.022936	1.0111
4.242	54.082	-17685	1899.7	0.17109	-0.023619	1.0115
4.244	53.924	-17692	1899.7	0.17139	-0.024302	1.0119
4.246	53.745	-17698	1899.6	0.17168	-0.024986	1.0123
4.248	53.577	-17694	1899.5	0.17197	-0.025669	1.0127
4.25	53.431	-17691	1899.4	0.17226	-0.026352	1.0131
4.252	53.363	-17692	1899.4	0.17178	-0.025766	1.0134
4.254	53.374	-17693	1899.4	0.17129	-0.025181	1.0137
4.256	53.369	-17696	1899.3	0.1708	-0.024595	1.014
4.258	53.398	-17698	1899.3	0.17031	-0.02401	1.0143
4.26	53.546	-17698	1899.2	0.16982	-0.023424	1.0146
4.262	53.734	-17698	1899.2	0.17002	-0.023326	1.0131
4.264	53.885	-17696	1899.2	0.17021	-0.023229	1.0116
4.266	54.033	-17695	1899.2	0.17041	-0.023131	1.0102
4.268	54.194	-17692	1899.1	0.1706	-0.023034	1.0087
4.27	54.296	-17689	1899.1	0.1708	-0.022936	1.0072
4.272	54.328	-17694	1899.1	0.17041	-0.022838	1.0077
4.274	54.364	-17699	1899	0.17002	-0.022741	1.0082
4.276	54.437	-17700	1899	0.16963	-0.022643	1.0087
4.278	54.486	-17701	1899	0.16924	-0.022546	1.0092
4.28	54.448	-17695	1899	0.16885	-0.022448	1.0097
4.282	54.44	-17688	1898.9	0.16973	-0.022838	1.0099
4.284	54.467	-17692	1898.9	0.1706	-0.023229	1.0101
4.286	54.476	-17697	1898.8	0.17148	-0.023619	1.0103
4.288	54.434	-17703	1898.7	0.17236	-0.02401	1.0105
4.29	54.419	-17710	1898.7	0.17324	-0.0244	1.0106
4.292	54.385	-17710	1898.7	0.17314	-0.025766	1.0114
4.294	54.356	-17710	1898.6	0.17304	-0.027133	1.0122
4.296	54.371	-17707	1898.6	0.17295	-0.028499	1.013
4.298	54.394	-17703	1898.6	0.17285	-0.029866	1.0138
4.3	54.389	-17702	1898.6	0.17275	-0.031232	1.0146
4.302	54.389	-17700	1898.6	0.17158	-0.029573	1.0134
4.304	54.38	-17701	1898.6	0.17041	-0.027914	1.0122
4.306	54.379	-17701	1898.6	0.16924	-0.026254	1.011
4.308	54.373	-17701	1898.5	0.16807	-0.024595	1.0099
4.31	54.337	-17701	1898.5	0.1669	-0.022936	1.0087
4.312	54.367	-17701	1898.5	0.16836	-0.023717	1.0083
4.314	54.458	-17701	1898.5	0.16982	-0.024498	1.0079
4.316	54.456	-17705	1898.5	0.17129	-0.025278	1.0075
4.318	54.382	-17709	1898.5	0.17275	-0.026059	1.0071
4.32	54.41	-17710	1898.5	0.17422	-0.02684	1.0067
4.322	54.447	-17711	1898.5	0.17344	-0.026157	1.0072
4.324	54.416	-17710	1898.5	0.17265	-0.025474	1.0077
4.326	54.394	-17709	1898.5	0.17187	-0.02479	1.0082
4.328	54.411	-17713	1898.5	0.17109	-0.024107	1.0087
4.33	54.44	-17717	1898.6	0.17031	-0.023424	1.0092
4.332	54.447	-17717	1898.5	0.1706	-0.023522	1.0087
4.334	54.414	-17717	1898.5	0.1709	-0.023619	1.0082
4.336	54.388	-17718	1898.4	0.17119	-0.023717	1.0077
4.338	54.422	-17720	1898.4	0.17148	-0.023814	1.0072
4.34	54.439	-17720	1898.3	0.17178	-0.023912	1.0067
4.342	54.39	-17719	1898.3	0.17158	-0.024302	1.0071
4.344	54.369	-17716	1898.3	0.17139	-0.024693	1.0075
4.346	54.42	-17713	1898.3	0.17119	-0.025083	1.0079
4.348	54.435	-17716	1898.3	0.171	-0.025474	1.0083
4.35	54.387	-17718	1898.3	0.1708	-0.025864	1.0087
4.352	54.349	-17716	1898.3	0.17129	-0.02645	1.0082
4.354	54.353	-17715	1898.2	0.17178	-0.027035	1.0077
4.356	54.374	-17713	1898.2	0.17226	-0.027621	1.0072
4.358	54.379	-17712	1898.1	0.17275	-0.028206	1.0067
4.36	54.382	-17711	1898.1	0.17324	-0.028792	1.0063
4.362	54.362	-17711	1898.1	0.17217	-0.028694	1.0078
4.364	54.369	-17707	1898.1	0.17109	-0.028597	1.0094
4.366	54.445	-17703	1898	0.17002	-0.028499	1.0109
4.368	54.474	-17704	1898	0.16895	-0.028402	1.0125
4.37	54.431	-17704	1898	0.16787	-0.028304	1.0141
4.372	54.373	-17705	1897.9	0.16816	-0.026547	1.0131
4.374	54.347	-17707	1897.9	0.16846	-0.02479	1.0121
4.376	54.341	-17712	1897.8	0.16875	-0.023034	1.0111
4.378	54.276	-17717	1897.8	0.16904	-0.021277	1.0102
4.38	54.267	-17721	1897.8	0.16934	-0.01952	1.0092
4.382	54.341	-17726	1897.7	0.16914	-0.020496	1.0097
4.384	54.423	-17721	1897.7	0.16895	-0.021472	1.0102
4.386	54.397	-17717	1897.7	0.16875	-0.022448	1.0106
4.388	54.382	-17721	1897.7	0.16856	-0.023424	1.0111
4.39	54.336	-17725	1897.7	0.16836	-0.0244	1.0116
4.392	54.321	-17727	1897.8	0.16797	-0.02401	1.0112
4.394	54.375	-17730	1897.9	0.16758	-0.023619	1.0108
4.396	54.346	-17726	1897.9	0.16719	-0.023229	1.0105
4.398	54.328	-17723	1897.9	0.1668	-0.022838	1.0101
4.4	54.306	-17728	1898	0.16641	-0.022448	1.0097
4.402	54.313	-17732	1898	0.16709	-0.023131	1.0097
4.404	54.29	-17735	1898.1	0.16777	-0.023814	1.0097
4.406	54.333	-17738	1898.2	0.16846	-0.024498	1.0097
4.408	54.368	-17735	1898.3	0.16914	-0.025181	1.0097
4.41	54.361	-17731	1898.3	0.16982	-0.025864	1.0097
4.412	54.354	-17732	1898.4	0.17041	-0.025278	1.0086
4.414	54.331	-17733	1898.5	0.171	-0.024693	1.0075
4.416	54.292	-17735	1898.6	0.17158	-0.024107	1.0065
4.418	54.27	-17736	1898.7	0.17217	-0.023522	1.0054
4.42	54.287	-17737	1898.8	0.17275	-0.022936	1.0043
4.422	54.36	-17737	1898.8	0.17256	-0.02401	1.0064
4.424	54.401	-17736	1898.8	0.17236	-0.025083	1.0084
4.426	54.392	-17734	1898.9	0.17217	-0.026157	1.0105
4.428	54.356	-17730	1899	0.17197	-0.02723	1.0125
4.43	54.329	-17726	1899.1	0.17178	-0.028304	1.0146
4.432	54.341	-17727	1899.2	0.17187	-0.026938	1.0127
4.434	54.363	-17728	1899.3	0.17197	-0.025571	1.0108
4.436	54.358	-17727	1899.4	0.17207	-0.024205	1.009
4.438	54.342	-17726	1899.5	0.17217	-0.022838	1.0071
4.44	54.344	-17726	1899.6	0.17226	-0.021472	1.0053
4.442	54.344	-17726	1899.8	0.17187	-0.021765	1.0065
4.444	54.334	-17728	1899.9	0.17148	-0.022058	1.0078
4.446	54.361	-17729	1900	0.17109	-0.02235	1.0091
4.448	54.39	-17726	1900.2	0.1707	-0.022643	1.0104
4.45	54.361	-17724	1900.3	0.17031	-0.022936	1.0116
4.452	54.386	-17723	1900.4	0.16963	-0.023814	1.0113
4.454	54.391	-17721	1900.6	0.16895	-0.024693	1.011
4.456	54.322	-17721	1900.7	0.16826	-0.025571	1.0107
4.458	54.294	-17722	1900.9	0.16758	-0.02645	1.0105
4.46	54.317	-17724	1901	0.1669	-0.027328	1.0102
4.462	54.348	-17726	1901.2	0.16846	-0.027426	1.0097
4.464	54.368	-17722	1901.3	0.17002	-0.027523	1.0092
4.466	54.337	-17718	1901.4	0.17158	-0.027621	1.0087
4.468	54.384	-17717	1901.6	0.17314	-0.027718	1.0082
4.47	54.44	-17715	1901.7	0.1747	-0.027816	1.0077
4.472	54.43	-17721	1901.8	0.1749	-0.028304	1.0075
4.474	54.396	-17727	1901.9	0.17509	-0.028792	1.0073
4.476	54.368	-17723	1902	0.17529	-0.02928	1.0071
4.478	54.328	-17719	1902.1	0.17548	-0.029768	1.0069
4.48	54.353	-17713	1902.2	0.17568	-0.030256	1.0067
4.482	54.339	-17706	1902.2	0.17646	-0.029378	1.0066
4.484	54.326	-17704	1902.2	0.17724	-0.028499	1.0065
4.486	54.29	-17702	1902.3	0.17802	-0.027621	1.0065
4.488	54.298	-17705	1902.4	0.1788	-0.026742	1.0064
4.49	54.38	-17709	1902.4	0.17958	-0.025864	1.0063
4.492	54.387	-17703	1902.5	0.17783	-0.026059	1.0069
4.494	54.33	-17697	1902.5	0.17607	-0.026254	1.0076
4.496	54.329	-17696	1902.6	0.17431	-0.02645	1.0083
4.498	54.334	-17695	1902.6	0.17256	-0.026645	1.009
4.5	54.312	-17692	1902.6	0.1708	-0.02684	1.0097
4.502	54.325	-17688	1902.6	0.17119	-0.027035	1.0093
4.504	54.349	-17692	1902.6	0.17158	-0.02723	1.0089
4.506	54.349	-17696	1902.6	0.17197	-0.027426	1.0085
4.508	54.366	-17694	1902.6	0.17236	-0.027621	1.0081
4.51	54.415	-17692	1902.6	0.17275	-0.027816	1.0077
4.512	54.402	-17693	1902.7	0.17217	-0.02684	1.0072
4.514	54.358	-17694	1902.7	0.17158	-0.025864	1.0067
4.516	54.362	-17687	1902.7	0.171	-0.024888	1.0063
4.518	54.381	-17681	1902.7	0.17041	-0.023912	1.0058
4.52	54.375	-17685	1902.8	0.16982	-0.022936	1.0053
4.522	54.347	-17689	1902.7	0.16904	-0.023034	1.0063
4.524	54.333	-17685	1902.7	0.16826	-0.023131	1.0072
4.526	54.358	-17681	1902.7	0.16748	-0.023229	1.0082
4.528	54.375	-17676	1902.8	0.1667	-0.023326	1.0092
4.53	54.371	-17672	1902.8	0.16592	-0.023424	1.0102
4.532	54.37	-17673	1902.8	0.16699	-0.023326	1.0094
4.534	54.405	-17674	1902.8	0.16807	-0.023229	1.0086
4.536	54.449	-17672	1902.8	0.16914	-0.023131	1.0078
4.538	54.449	-17671	1902.8	0.17021	-0.023034	1.007
4.54	54.445	-17683	1902.9	0.17129	-0.022936	1.0063
4.542	54.456	-17694	1902.9	0.171	-0.023326	1.0061
4.544	54.44	-17694	1902.9	0.1707	-0.023717	1.0059
4.546	54.405	-17694	1902.9	0.17041	-0.024107	1.0057
4.548	54.376	-17691	1902.9	0.17012	-0.024498	1.0055
4.55	54.368	-17688	1902.9	0.16982	-0.024888	1.0053
4.552	54.411	-17687	1902.8	0.16885	-0.025083	1.0063
4.554	54.44	-17687	1902.8	0.16787	-0.025278	1.0072
4.556	54.42	-17681	1902.8	0.1669	-0.025474	1.0082
4.558	54.411	-17675	1902.8	0.16592	-0.025669	1.0092
4.56	54.465	-17667	1902.8	0.16494	-0.025864	1.0102
4.562	54.399	-17660	1902.7	0.16612	-0.025181	1.0089
4.564	54.371	-17657	1902.6	0.16729	-0.024498	1.0076
4.566	54.374	-17654	1902.5	0.16846	-0.023814	1.0064
4.568	54.391	-17656	1902.4	0.16963	-0.023131	1.0051
4.57	54.407	-17658	1902.3	0.1708	-0.022448	1.0038
4.572	54.402	-17656	1902.3	0.1706	-0.023326	1.0043
4.574	54.391	-17655	1902.2	0.17041	-0.024205	1.0048
4.576	54.384	-17651	1902.2	0.17021	-0.025083	1.0053
4.578	54.406	-17647	1902.1	0.17002	-0.025962	1.0058
4.58	54.438	-17648	1902	0.16982	-0.02684	1.0063
4.582	54.41	-17650	1901.9	0.17012	-0.025766	1.0056
4.584	54.399	-17653	1901.8	0.17041	-0.024693	1.0049
4.586	54.41	-17656	1901.7	0.1707	-0.023619	1.0042
4.588	54.41	-17653	1901.6	0.171	-0.022546	1.0035
4.59	54.408	-17650	1901.5	0.17129	-0.021472	1.0028
4.592	54.393	-17651	1901.5	0.1707	-0.020789	1.0028
4.594	54.35	-17653	1901.4	0.17012	-0.020106	1.0028
4.596	54.311	-17649	1901.4	0.16953	-0.019422	1.0028
4.598	54.313	-17646	1901.3	0.16895	-0.018739	1.0028
4.6	54.358	-17645	1901.2	0.16836	-0.018056	1.0028
4.602	54.406	-17643	1901.2	0.16875	-0.018837	1.0025
4.604	54.433	-17646	1901.2	0.16914	-0.019618	1.0023
4.606	54.435	-17648	1901.1	0.16953	-0.020398	1.002
4.608	54.411	-17648	1901.1	0.16992	-0.021179	1.0017
4.61	54.375	-17649	1901.1	0.17031	-0.02196	1.0014
4.612	54.37	-17648	1901.1	0.16943	-0.021862	1.0006
4.614	54.392	-17648	1901	0.16856	-0.021765	0.99981
4.616	54.398	-17645	1901	0.16768	-0.021667	0.99903
4.618	54.419	-17642	1901	0.1668	-0.02157	0.99825
4.62	54.458	-17643	1901.1	0.16592	-0.021472	0.99747
4.622	54.457	-17643	1901.1	0.1667	-0.021667	0.99786
4.624	54.44	-17644	1901.1	0.16748	-0.021862	0.99825
4.626	54.405	-17644	1901.1	0.16826	-0.022058	0.99864
4.628	54.394	-17644	1901.2	0.16904	-0.022253	0.99903
4.63	54.393	-17644	1901.2	0.16982	-0.022448	0.99942
4.632	54.381	-17645	1901.2	0.17109	-0.02401	1.0002
4.634	54.39	-17647	1901.2	0.17236	-0.025571	1.001
4.636	54.373	-17649	1901.2	0.17363	-0.027133	1.0018
4.638	54.36	-17652	1901.2	0.1749	-0.028694	1.0025
4.64	54.352	-17645	1901.2	0.17617	-0.030256	1.0033
4.642	54.361	-17638	1901.3	0.17646	-0.029475	1.0024
4.644	54.391	-17640	1901.3	0.17675	-0.028694	1.0014
4.646	54.338	-17642	1901.3	0.17705	-0.027914	1.0004
4.648	54.31	-17640	1901.3	0.17734	-0.027133	0.99942
4.65	54.339	-17639	1901.3	0.17763	-0.026352	0.99845
4.652	54.373	-17642	1901.2	0.17753	-0.026938	0.99874
4.654	54.382	-17645	1901.2	0.17744	-0.027523	0.99903
4.656	54.372	-17645	1901.1	0.17734	-0.028109	0.99933
4.658	54.369	-17645	1901	0.17724	-0.028694	0.99962
4.66	54.358	-17644	1900.9	0.17714	-0.02928	0.99991
4.662	54.395	-17644	1900.8	0.17929	-0.029475	1.0013
4.664	54.407	-17646	1900.7	0.18144	-0.02967	1.0026
