t	ekg	optical	pressure	accel_x	accel_y	accel_z
0	47.716	-15359	2356.8	-0.22526	0.927	0.35575
0.002	47.585	-15359	2356.7	-0.22438	0.92661	0.35624
0.004	47.509	-15358	2356.6	-0.2235	0.92622	0.35673
0.006	47.507	-15360	2356.4	-0.22263	0.92583	0.35722
0.008	47.607	-15362	2356.3	-0.22175	0.92544	0.3577
0.01	47.789	-15355	2356.2	-0.22087	0.92505	0.35819
0.012	47.99	-15347	2356.1	-0.21999	0.92466	0.35868
0.014	48.181	-15347	2356	-0.21911	0.92427	0.35917
0.016	48.351	-15346	2355.9	-0.21921	0.92466	0.35917
0.018	48.497	-15349	2355.9	-0.21931	0.92505	0.35917
0.02	48.614	-15352	2355.8	-0.2194	0.92544	0.35917
0.022	48.709	-15357	2355.8	-0.2195	0.92583	0.35917
0.024	48.775	-15362	2355.7	-0.2196	0.92622	0.35917
0.026	48.844	-15359	2355.6	-0.2195	0.92652	0.35858
0.028	48.913	-15355	2355.5	-0.2194	0.92681	0.358
0.03	48.931	-15355	2355.4	-0.21931	0.9271	0.35741
0.032	48.92	-15354	2355.3	-0.21921	0.9274	0.35683
0.034	48.903	-15350	2355.2	-0.21911	0.92769	0.35624
0.036	48.869	-15347	2355.2	-0.2198	0.927	0.35644
0.038	48.837	-15349	2355.1	-0.22048	0.92632	0.35663
0.04	48.822	-15351	2355.1	-0.22116	0.92564	0.35683
0.042	48.812	-15354	2355.1	-0.22184	0.92496	0.35702
0.044	48.806	-15358	2355	-0.22253	0.92427	0.35722
0.046	48.798	-15359	2355	-0.22136	0.92398	0.35741
0.048	48.8	-15361	2354.9	-0.22019	0.92369	0.35761
0.05	48.812	-15359	2354.9	-0.21901	0.92339	0.3578
0.052	48.824	-15357	2354.9	-0.21784	0.9231	0.358
0.054	48.83	-15359	2354.8	-0.21667	0.92281	0.35819
0.056	48.836	-15362	2354.8	-0.21687	0.9233	0.35858
0.058	48.837	-15360	2354.8	-0.21706	0.92378	0.35897
0.06	48.83	-15358	2354.7	-0.21726	0.92427	0.35936
0.062	48.83	-15358	2354.7	-0.21745	0.92476	0.35975
0.064	48.836	-15358	2354.6	-0.21765	0.92525	0.36014
0.066	48.84	-15361	2354.6	-0.21638	0.92535	0.36005
0.068	48.833	-15365	2354.6	-0.21511	0.92544	0.35995
0.07	48.826	-15365	2354.6	-0.21384	0.92554	0.35985
0.072	48.826	-15365	2354.5	-0.21257	0.92564	0.35975
0.074	48.831	-15367	2354.5	-0.2113	0.92574	0.35966
0.076	48.835	-15368	2354.5	-0.21179	0.92476	0.35946
0.078	48.834	-15363	2354.4	-0.21228	0.92378	0.35927
0.08	48.827	-15358	2354.3	-0.21277	0.92281	0.35907
0.082	48.825	-15359	2354.3	-0.21326	0.92183	0.35888
0.084	48.826	-15359	2354.3	-0.21374	0.92086	0.35868
0.086	48.822	-15362	2354.2	-0.2157	0.923	0.3577
0.088	48.819	-15366	2354.2	-0.21765	0.92515	0.35673
0.09	48.818	-15368	2354.1	-0.2196	0.9273	0.35575
0.092	48.816	-15371	2354.1	-0.22155	0.92944	0.35478
0.094	48.813	-15367	2354.1	-0.2235	0.93159	0.3538
0.096	48.811	-15363	2354.1	-0.22282	0.93052	0.354
0.098	48.814	-15359	2354.1	-0.22214	0.92944	0.35419
0.1	48.818	-15356	2354.1	-0.22145	0.92837	0.35439
0.102	48.809	-15364	2354.2	-0.22077	0.9273	0.35458
0.104	48.8	-15372	2354.2	-0.22009	0.92622	0.35478
0.106	48.798	-15371	2354.2	-0.21989	0.92691	0.35439
0.108	48.796	-15369	2354.3	-0.2197	0.92759	0.354
0.11	48.795	-15366	2354.3	-0.2195	0.92827	0.3536
0.112	48.795	-15362	2354.3	-0.21931	0.92896	0.35321
0.114	48.796	-15362	2354.3	-0.21911	0.92964	0.35282
0.116	48.799	-15362	2354.3	-0.21882	0.92876	0.35302
0.118	48.797	-15363	2354.4	-0.21853	0.92788	0.35321
0.12	48.776	-15365	2354.5	-0.21823	0.927	0.35341
0.122	48.784	-15366	2354.6	-0.21794	0.92613	0.3536
0.124	48.782	-15367	2354.7	-0.21765	0.92525	0.3538
0.126	48.773	-15368	2354.7	-0.21794	0.92583	0.35429
0.128	48.769	-15369	2354.8	-0.21823	0.92642	0.35478
0.13	48.771	-15368	2354.9	-0.21853	0.927	0.35526
0.132	48.778	-15367	2355	-0.21882	0.92759	0.35575
0.134	48.771	-15367	2355.1	-0.21911	0.92818	0.35624
0.136	48.769	-15367	2355.2	-0.2197	0.92847	0.35565
0.138	48.767	-15368	2355.3	-0.22028	0.92876	0.35507
0.14	48.757	-15370	2355.4	-0.22087	0.92905	0.35448
0.142	48.748	-15369	2355.6	-0.22145	0.92935	0.3539
0.144	48.742	-15369	2355.8	-0.22204	0.92964	0.35331
0.146	48.744	-15370	2355.9	-0.21999	0.92827	0.35419
0.148	48.741	-15371	2356.1	-0.21794	0.92691	0.35507
0.15	48.733	-15370	2356.3	-0.21589	0.92554	0.35595
0.152	48.73	-15369	2356.5	-0.21384	0.92417	0.35683
0.154	48.728	-15371	2356.8	-0.21179	0.92281	0.3577
0.156	48.726	-15373	2357.1	-0.21199	0.92222	0.35761
0.158	48.728	-15375	2357.4	-0.21218	0.92164	0.35751
0.16	48.726	-15377	2357.7	-0.21238	0.92105	0.35741
0.162	48.725	-15370	2358.1	-0.21257	0.92047	0.35731
0.164	48.729	-15364	2358.5	-0.21277	0.91988	0.35722
0.166	48.735	-15365	2358.9	-0.21404	0.92017	0.35702
0.168	48.737	-15366	2359.3	-0.21531	0.92047	0.35683
0.17	48.733	-15368	2359.7	-0.21657	0.92076	0.35663
0.172	48.734	-15370	2360.2	-0.21784	0.92105	0.35644
0.174	48.737	-15369	2360.6	-0.21911	0.92134	0.35624
0.176	48.738	-15368	2361.2	-0.21911	0.92154	0.35683
0.178	48.734	-15370	2361.7	-0.21911	0.92173	0.35741
0.18	48.727	-15371	2362.3	-0.21911	0.92193	0.358
0.182	48.729	-15371	2362.9	-0.21911	0.92212	0.35858
0.184	48.73	-15372	2363.4	-0.21911	0.92232	0.35917
0.186	48.733	-15372	2364	-0.21901	0.92203	0.35897
0.188	48.738	-15373	2364.6	-0.21892	0.92173	0.35878
0.19	48.741	-15371	2365.2	-0.21882	0.92144	0.35858
0.192	48.74	-15369	2365.8	-0.21872	0.92115	0.35839
0.194	48.741	-15368	2366.4	-0.21862	0.92086	0.35819
0.196	48.743	-15368	2367	-0.21843	0.92232	0.3577
0.198	48.744	-15362	2367.6	-0.21823	0.92378	0.35722
0.2	48.75	-15357	2368.2	-0.21804	0.92525	0.35673
0.202	48.75	-15355	2368.8	-0.21784	0.92671	0.35624
0.204	48.749	-15354	2369.4	-0.21765	0.92818	0.35575
0.206	48.752	-15358	2370	-0.21872	0.92935	0.35497
0.208	48.741	-15362	2370.6	-0.2198	0.93052	0.35419
0.21	48.734	-15363	2371.2	-0.22087	0.93169	0.35341
0.212	48.747	-15363	2371.8	-0.22194	0.93286	0.35263
0.214	48.735	-15363	2372.3	-0.22302	0.93403	0.35185
0.216	48.743	-15362	2372.8	-0.22263	0.93306	0.35302
0.218	48.749	-15367	2373.3	-0.22224	0.93208	0.35419
0.22	48.735	-15372	2373.8	-0.22184	0.9311	0.35536
0.222	48.737	-15372	2374.3	-0.22145	0.93013	0.35653
0.224	48.74	-15372	2374.8	-0.22106	0.92915	0.3577
0.226	48.734	-15372	2375.2	-0.22077	0.92915	0.35692
0.228	48.725	-15372	2375.5	-0.22048	0.92915	0.35614
0.23	48.715	-15361	2375.9	-0.22019	0.92915	0.35536
0.232	48.711	-15349	2376.2	-0.21989	0.92915	0.35458
0.234	48.714	-15348	2376.5	-0.2196	0.92915	0.3538
0.236	48.717	-15347	2376.8	-0.21911	0.92788	0.3539
0.238	48.715	-15347	2377.1	-0.21862	0.92661	0.354
0.24	48.713	-15348	2377.3	-0.21814	0.92535	0.35409
0.242	48.72	-15347	2377.5	-0.21765	0.92408	0.35419
0.244	48.728	-15345	2377.7	-0.21716	0.92281	0.35429
0.246	48.733	-15351	2377.9	-0.21706	0.92212	0.3539
0.248	48.737	-15356	2378	-0.21696	0.92144	0.35351
0.25	48.737	-15353	2378.2	-0.21687	0.92076	0.35312
0.252	48.736	-15349	2378.3	-0.21677	0.92008	0.35273
0.254	48.743	-15345	2378.4	-0.21667	0.91939	0.35234
0.256	48.75	-15341	2378.4	-0.21648	0.91978	0.3537
0.258	48.752	-15341	2378.5	-0.21628	0.92017	0.35507
0.26	48.752	-15342	2378.5	-0.21609	0.92056	0.35644
0.262	48.749	-15347	2378.5	-0.21589	0.92095	0.3578
0.264	48.755	-15351	2378.5	-0.2157	0.92134	0.35917
0.266	48.771	-15345	2378.5	-0.21609	0.92086	0.35761
0.268	48.78	-15339	2378.5	-0.21648	0.92037	0.35604
0.27	48.78	-15342	2378.4	-0.21687	0.91988	0.35448
0.272	48.779	-15345	2378.3	-0.21726	0.91939	0.35292
0.274	48.782	-15344	2378.2	-0.21765	0.9189	0.35136
0.276	48.788	-15343	2378.1	-0.21794	0.91929	0.35146
0.278	48.789	-15338	2378	-0.21823	0.91968	0.35156
0.28	48.794	-15334	2377.8	-0.21853	0.92008	0.35165
0.282	48.801	-15339	2377.7	-0.21882	0.92047	0.35175
0.284	48.805	-15344	2377.6	-0.21911	0.92086	0.35185
0.286	48.803	-15342	2377.4	-0.21911	0.92154	0.35263
0.288	48.792	-15340	2377.3	-0.21911	0.92222	0.35341
0.29	48.793	-15337	2377.1	-0.21911	0.92291	0.35419
0.292	48.8	-15334	2376.9	-0.21911	0.92359	0.35497
0.294	48.8	-15333	2376.7	-0.21911	0.92427	0.35575
0.296	48.799	-15331	2376.4	-0.21872	0.92388	0.35653
0.298	48.794	-15335	2376.2	-0.21833	0.92349	0.35731
0.3	48.788	-15338	2375.9	-0.21794	0.9231	0.35809
0.302	48.804	-15340	2375.7	-0.21755	0.92271	0.35888
0.304	48.804	-15343	2375.5	-0.21716	0.92232	0.35966
0.306	48.8	-15344	2375.2	-0.21745	0.92242	0.35946
0.308	48.798	-15345	2374.9	-0.21775	0.92252	0.35927
0.31	48.795	-15345	2374.6	-0.21804	0.92261	0.35907
0.312	48.8	-15346	2374.3	-0.21833	0.92271	0.35888
0.314	48.804	-15344	2374	-0.21862	0.92281	0.35868
0.316	48.799	-15342	2373.7	-0.21872	0.92261	0.35809
0.318	48.796	-15338	2373.4	-0.21882	0.92242	0.35751
0.32	48.796	-15335	2373.1	-0.21892	0.92222	0.35692
0.322	48.794	-15336	2372.7	-0.21901	0.92203	0.35634
0.324	48.798	-15337	2372.4	-0.21911	0.92183	0.35575
0.326	48.795	-15335	2372.1	-0.21921	0.92281	0.35575
0.328	48.792	-15332	2371.7	-0.21931	0.92378	0.35575
0.33	48.793	-15333	2371.4	-0.2194	0.92476	0.35575
0.332	48.796	-15334	2371.1	-0.2195	0.92574	0.35575
0.334	48.802	-15336	2370.8	-0.2196	0.92671	0.35575
0.336	48.8	-15337	2370.5	-0.2196	0.92593	0.35546
0.338	48.792	-15336	2370.2	-0.2196	0.92515	0.35517
0.34	48.789	-15336	2369.9	-0.2196	0.92437	0.35487
0.342	48.789	-15335	2369.6	-0.2196	0.92359	0.35458
0.344	48.787	-15334	2369.3	-0.2196	0.92281	0.35429
0.346	48.789	-15336	2369.1	-0.2195	0.9232	0.35517
0.348	48.794	-15337	2368.8	-0.2194	0.92359	0.35604
0.35	48.795	-15338	2368.5	-0.21931	0.92398	0.35692
0.352	48.797	-15339	2368.2	-0.21921	0.92437	0.3578
0.354	48.794	-15338	2368	-0.21911	0.92476	0.35868
0.356	48.78	-15337	2367.7	-0.21833	0.92398	0.35848
0.358	48.775	-15337	2367.5	-0.21755	0.9232	0.35829
0.36	48.775	-15336	2367.3	-0.21677	0.92242	0.35809
0.362	48.777	-15346	2367	-0.21599	0.92164	0.3579
0.364	48.786	-15355	2366.8	-0.21521	0.92086	0.3577
0.366	48.793	-15356	2366.6	-0.21667	0.92281	0.35634
0.368	48.789	-15356	2366.4	-0.21814	0.92476	0.35497
0.37	48.777	-15358	2366.2	-0.2196	0.92671	0.3536
0.372	48.779	-15360	2366.1	-0.22106	0.92866	0.35224
0.374	48.784	-15361	2365.9	-0.22253	0.93062	0.35087
0.376	48.782	-15362	2365.7	-0.22165	0.92925	0.35224
0.378	48.778	-15361	2365.6	-0.22077	0.92788	0.3536
0.38	48.776	-15360	2365.5	-0.21989	0.92652	0.35497
0.382	48.779	-15356	2365.3	-0.21901	0.92515	0.35634
0.384	48.783	-15352	2365.2	-0.21814	0.92378	0.3577
0.386	48.787	-15348	2365.1	-0.21736	0.92369	0.35809
0.388	48.777	-15345	2365.1	-0.21657	0.92359	0.35848
0.39	48.757	-15345	2365	-0.21579	0.92349	0.35888
0.392	48.778	-15345	2365	-0.21501	0.92339	0.35927
0.394	48.779	-15342	2364.9	-0.21423	0.9233	0.35966
0.396	48.762	-15339	2364.9	-0.21511	0.92369	0.35936
0.398	48.758	-15343	2364.8	-0.21599	0.92408	0.35907
0.4	48.757	-15348	2364.8	-0.21687	0.92447	0.35878
0.402	48.756	-15349	2364.8	-0.21775	0.92486	0.35848
0.404	48.752	-15349	2364.8	-0.21862	0.92525	0.35819
0.406	48.749	-15346	2364.8	-0.21862	0.92447	0.35722
0.408	48.752	-15342	2364.9	-0.21862	0.92369	0.35624
0.41	48.753	-15344	2364.9	-0.21862	0.92291	0.35526
0.412	48.748	-15345	2364.9	-0.21862	0.92212	0.35429
0.414	48.745	-15346	2365	-0.21862	0.92134	0.35331
0.416	48.751	-15348	2365.1	-0.21901	0.92261	0.3539
0.418	48.764	-15352	2365.2	-0.2194	0.92388	0.35448
0.42	48.764	-15357	2365.2	-0.2198	0.92515	0.35507
0.422	48.758	-15357	2365.3	-0.22019	0.92642	0.35565
0.424	48.749	-15356	2365.4	-0.22058	0.92769	0.35624
0.426	48.733	-15354	2365.5	-0.22028	0.9274	0.35585
0.428	48.706	-15351	2365.7	-0.21999	0.9271	0.35546
0.43	48.679	-15347	2365.8	-0.2197	0.92681	0.35507
0.432	48.664	-15343	2365.9	-0.2194	0.92652	0.35468
0.434	48.666	-15349	2366.1	-0.21911	0.92622	0.35429
0.436	48.677	-15355	2366.2	-0.21872	0.92691	0.354
0.438	48.685	-15355	2366.3	-0.21833	0.92759	0.3537
0.44	48.683	-15355	2366.5	-0.21794	0.92827	0.35341
0.442	48.684	-15349	2366.6	-0.21755	0.92896	0.35312
0.444	48.697	-15343	2366.8	-0.21716	0.92964	0.35282
0.446	48.708	-15344	2367	-0.21696	0.92954	0.35253
0.448	48.714	-15345	2367.1	-0.21677	0.92944	0.35224
0.45	48.719	-15346	2367.2	-0.21657	0.92935	0.35195
0.452	48.722	-15346	2367.3	-0.21638	0.92925	0.35165
0.454	48.718	-15348	2367.4	-0.21618	0.92915	0.35136
0.456	48.711	-15350	2367.5	-0.21609	0.92798	0.35302
0.458	48.706	-15349	2367.6	-0.21599	0.92681	0.35468
0.46	48.717	-15349	2367.7	-0.21589	0.92564	0.35634
0.462	48.724	-15349	2367.8	-0.21579	0.92447	0.358
0.464	48.718	-15350	2367.9	-0.2157	0.9233	0.35966
0.466	48.71	-15354	2368	-0.21657	0.92369	0.35878
0.468	48.715	-15359	2368.1	-0.21745	0.92408	0.3579
0.47	48.722	-15355	2368.1	-0.21833	0.92447	0.35702
0.472	48.739	-15351	2368.2	-0.21921	0.92486	0.35614
0.474	48.757	-15352	2368.2	-0.22009	0.92525	0.35526
0.476	48.771	-15353	2368.3	-0.2194	0.92535	0.35565
0.478	48.776	-15351	2368.3	-0.21872	0.92544	0.35604
0.48	48.79	-15349	2368.4	-0.21804	0.92554	0.35644
0.482	48.798	-15349	2368.4	-0.21736	0.92564	0.35683
0.484	48.788	-15350	2368.4	-0.21667	0.92574	0.35722
0.486	48.801	-15347	2368.4	-0.21609	0.92544	0.3577
0.488	48.807	-15345	2368.4	-0.2155	0.92515	0.35819
0.49	48.81	-15347	2368.4	-0.21492	0.92486	0.35868
0.492	48.812	-15349	2368.3	-0.21433	0.92456	0.35917
0.494	48.812	-15350	2368.3	-0.21374	0.92427	0.35966
0.496	48.811	-15351	2368.3	-0.21413	0.92437	0.35975
0.498	48.812	-15349	2368.2	-0.21452	0.92447	0.35985
0.5	48.819	-15348	2368.2	-0.21492	0.92456	0.35995
0.502	48.818	-15348	2368.1	-0.21531	0.92466	0.36005
0.504	48.81	-15349	2368.1	-0.2157	0.92476	0.36014
0.506	48.806	-15348	2368	-0.21531	0.92447	0.36014
0.508	48.808	-15348	2368	-0.21492	0.92417	0.36014
0.51	48.809	-15346	2367.9	-0.21452	0.92388	0.36014
0.512	48.809	-15344	2367.9	-0.21413	0.92359	0.36014
0.514	48.811	-15346	2367.8	-0.21374	0.9233	0.36014
0.516	48.813	-15347	2367.8	-0.21443	0.92291	0.35946
0.518	48.815	-15348	2367.7	-0.21511	0.92252	0.35878
0.52	48.817	-15349	2367.7	-0.21579	0.92212	0.35809
0.522	48.816	-15348	2367.7	-0.21648	0.92173	0.35741
0.524	48.817	-15347	2367.6	-0.21716	0.92134	0.35673
0.526	48.826	-15344	2367.5	-0.21755	0.92164	0.35663
0.528	48.826	-15342	2367.4	-0.21794	0.92193	0.35653
0.53	48.818	-15340	2367.3	-0.21833	0.92222	0.35644
0.532	48.816	-15338	2367.2	-0.21872	0.92252	0.35634
0.534	48.818	-15343	2367.2	-0.21911	0.92281	0.35624
0.536	48.821	-15347	2367.1	-0.21853	0.92261	0.35644
0.538	48.831	-15346	2367	-0.21794	0.92242	0.35663
0.54	48.84	-15345	2366.9	-0.21736	0.92222	0.35683
0.542	48.857	-15346	2366.7	-0.21677	0.92203	0.35702
0.544	48.882	-15347	2366.6	-0.21618	0.92183	0.35722
0.546	48.92	-15344	2366.5	-0.2157	0.92222	0.35722
0.548	48.963	-15342	2366.4	-0.21521	0.92261	0.35722
0.55	48.993	-15343	2366.2	-0.21472	0.923	0.35722
0.552	49.012	-15344	2366.1	-0.21423	0.92339	0.35722
0.554	48.996	-15348	2366	-0.21374	0.92378	0.35722
0.556	48.955	-15351	2365.8	-0.21394	0.92359	0.35663
0.558	48.913	-15351	2365.7	-0.21413	0.92339	0.35604
0.56	48.847	-15350	2365.5	-0.21433	0.9232	0.35546
0.562	48.763	-15347	2365.4	-0.21452	0.923	0.35487
0.564	48.672	-15344	2365.2	-0.21472	0.92281	0.35429
0.566	48.574	-15344	2365.1	-0.2154	0.92252	0.35448
0.568	48.472	-15344	2364.9	-0.21609	0.92222	0.35468
0.57	48.338	-15354	2364.7	-0.21677	0.92193	0.35487
0.572	48.178	-15363	2364.6	-0.21745	0.92164	0.35507
0.574	48.021	-15361	2364.4	-0.21814	0.92134	0.35526
0.576	47.852	-15359	2364.3	-0.21794	0.92193	0.35526
0.578	47.69	-15356	2364.1	-0.21775	0.92252	0.35526
0.58	47.57	-15354	2364	-0.21755	0.9231	0.35526
0.582	47.507	-15351	2363.9	-0.21736	0.92369	0.35526
0.584	47.527	-15349	2363.8	-0.21716	0.92427	0.35526
0.586	47.648	-15349	2363.6	-0.21736	0.92417	0.35536
0.588	47.824	-15349	2363.5	-0.21755	0.92408	0.35546
0.59	48.013	-15351	2363.4	-0.21775	0.92398	0.35556
0.592	48.192	-15353	2363.3	-0.21794	0.92388	0.35565
0.594	48.368	-15351	2363.3	-0.21814	0.92378	0.35575
0.596	48.529	-15349	2363.1	-0.21804	0.92408	0.35604
0.598	48.643	-15349	2363	-0.21794	0.92437	0.35634
0.6	48.715	-15350	2362.9	-0.21784	0.92466	0.35663
0.602	48.762	-15350	2362.8	-0.21775	0.92496	0.35692
0.604	48.807	-15351	2362.8	-0.21765	0.92525	0.35722
0.606	48.85	-15346	2362.7	-0.21736	0.92535	0.35712
0.608	48.882	-15342	2362.7	-0.21706	0.92544	0.35702
0.61	48.914	-15347	2362.6	-0.21677	0.92554	0.35692
0.612	48.915	-15352	2362.6	-0.21648	0.92564	0.35683
0.614	48.879	-15356	2362.5	-0.21618	0.92574	0.35673
0.616	48.835	-15360	2362.4	-0.21579	0.92505	0.35712
0.618	48.807	-15356	2362.4	-0.2154	0.92437	0.35751
0.62	48.789	-15353	2362.3	-0.21501	0.92369	0.3579
0.622	48.781	-15352	2362.3	-0.21462	0.923	0.35829
0.624	48.781	-15352	2362.3	-0.21423	0.92232	0.35868
0.626	48.778	-15352	2362.2	-0.21531	0.92281	0.35809
0.628	48.78	-15352	2362.1	-0.21638	0.9233	0.35751
0.63	48.789	-15353	2362.1	-0.21745	0.92378	0.35692
0.632	48.801	-15355	2362	-0.21853	0.92427	0.35634
0.634	48.816	-15356	2361.9	-0.2196	0.92476	0.35575
0.636	48.817	-15358	2361.9	-0.21882	0.92447	0.35634
0.638	48.805	-15356	2361.9	-0.21804	0.92417	0.35692
0.64	48.798	-15353	2361.9	-0.21726	0.92388	0.35751
0.642	48.805	-15355	2361.8	-0.21648	0.92359	0.35809
0.644	48.811	-15357	2361.7	-0.2157	0.9233	0.35868
0.646	48.81	-15359	2361.7	-0.21628	0.92359	0.35888
0.648	48.808	-15362	2361.7	-0.21687	0.92388	0.35907
0.65	48.813	-15358	2361.6	-0.21745	0.92417	0.35927
0.652	48.809	-15354	2361.5	-0.21804	0.92447	0.35946
0.654	48.798	-15355	2361.5	-0.21862	0.92476	0.35966
0.656	48.789	-15355	2361.4	-0.21794	0.92456	0.35897
0.658	48.799	-15360	2361.3	-0.21726	0.92437	0.35829
0.66	48.801	-15365	2361.3	-0.21657	0.92417	0.35761
0.662	48.793	-15362	2361.2	-0.21589	0.92398	0.35692
0.664	48.791	-15360	2361.1	-0.21521	0.92378	0.35624
0.666	48.79	-15362	2361.1	-0.2154	0.92388	0.35683
0.668	48.792	-15364	2361	-0.2156	0.92398	0.35741
0.67	48.798	-15362	2361	-0.21579	0.92408	0.358
0.672	48.799	-15361	2361	-0.21599	0.92417	0.35858
0.674	48.795	-15360	2361	-0.21618	0.92427	0.35917
0.676	48.791	-15360	2361	-0.21667	0.92476	0.35809
0.678	48.788	-15359	2361	-0.21716	0.92525	0.35702
0.68	48.787	-15357	2361	-0.21765	0.92574	0.35595
0.682	48.79	-15358	2361	-0.21814	0.92622	0.35487
0.684	48.783	-15358	2361	-0.21862	0.92671	0.3538
0.686	48.771	-15360	2361	-0.21882	0.92642	0.35478
0.688	48.772	-15362	2361	-0.21901	0.92613	0.35575
0.69	48.77	-15364	2361.1	-0.21921	0.92583	0.35673
0.692	48.758	-15367	2361.2	-0.2194	0.92554	0.3577
0.694	48.758	-15362	2361.2	-0.2196	0.92525	0.35868
0.696	48.763	-15357	2361.3	-0.21843	0.92466	0.358
0.698	48.764	-15357	2361.4	-0.21726	0.92408	0.35731
0.7	48.759	-15358	2361.5	-0.21609	0.92349	0.35663
0.702	48.752	-15361	2361.6	-0.21492	0.92291	0.35595
0.704	48.746	-15364	2361.6	-0.21374	0.92232	0.35526
0.706	48.747	-15367	2361.8	-0.21345	0.92271	0.35565
0.708	48.74	-15370	2361.9	-0.21316	0.9231	0.35604
0.71	48.743	-15367	2362	-0.21287	0.92349	0.35644
0.712	48.739	-15363	2362	-0.21257	0.92388	0.35683
0.714	48.732	-15364	2362.1	-0.21228	0.92427	0.35722
0.716	48.727	-15364	2362.2	-0.21384	0.92466	0.35653
0.718	48.731	-15361	2362.3	-0.2154	0.92505	0.35585
0.72	48.728	-15358	2362.3	-0.21696	0.92544	0.35517
0.722	48.724	-15358	2362.4	-0.21853	0.92583	0.35448
0.724	48.725	-15357	2362.5	-0.22009	0.92622	0.3538
0.726	48.73	-15365	2362.7	-0.21911	0.92544	0.3538
0.728	48.717	-15372	2362.8	-0.21814	0.92466	0.3538
0.73	48.714	-15364	2363	-0.21716	0.92388	0.3538
0.732	48.719	-15357	2363.2	-0.21618	0.9231	0.3538
0.734	48.718	-15362	2363.3	-0.21521	0.92232	0.3538
0.736	48.708	-15368	2363.6	-0.21443	0.923	0.354
0.738	48.701	-15365	2363.8	-0.21365	0.92369	0.35419
0.74	48.699	-15363	2364.1	-0.21287	0.92437	0.35439
0.742	48.699	-15367	2364.4	-0.21208	0.92505	0.35458
0.744	48.696	-15370	2364.7	-0.2113	0.92574	0.35478
0.746	48.692	-15372	2365	-0.21228	0.92632	0.35448
0.748	48.697	-15374	2365.4	-0.21326	0.92691	0.35419
0.75	48.703	-15372	2365.8	-0.21423	0.92749	0.3539
0.752	48.706	-15369	2366.2	-0.21521	0.92808	0.3536
0.754	48.705	-15366	2366.6	-0.21618	0.92866	0.35331
0.756	48.706	-15363	2367.1	-0.21648	0.92779	0.3537
0.758	48.707	-15367	2367.6	-0.21677	0.92691	0.35409
0.76	48.706	-15372	2368.2	-0.21706	0.92603	0.35448
0.762	48.706	-15369	2368.7	-0.21736	0.92515	0.35487
0.764	48.705	-15366	2369.3	-0.21765	0.92427	0.35526
0.766	48.705	-15367	2369.9	-0.21745	0.92505	0.35507
0.768	48.711	-15367	2370.5	-0.21726	0.92583	0.35487
0.77	48.715	-15366	2371	-0.21706	0.92661	0.35468
0.772	48.712	-15364	2371.6	-0.21687	0.9274	0.35448
0.774	48.711	-15366	2372.1	-0.21667	0.92818	0.35429
0.776	48.712	-15367	2372.7	-0.21667	0.927	0.35429
0.778	48.716	-15366	2373.2	-0.21667	0.92583	0.35429
0.78	48.72	-15366	2373.8	-0.21667	0.92466	0.35429
0.782	48.712	-15367	2374.4	-0.21667	0.92349	0.35429
0.784	48.708	-15368	2375.1	-0.21667	0.92232	0.35429
0.786	48.714	-15367	2375.7	-0.21628	0.92271	0.35536
0.788	48.719	-15367	2376.3	-0.21589	0.9231	0.35644
0.79	48.721	-15361	2376.9	-0.2155	0.92349	0.35751
0.792	48.711	-15355	2377.4	-0.21511	0.92388	0.35858
0.794	48.704	-15363	2377.9	-0.21472	0.92427	0.35966
0.796	48.706	-15371	2378.4	-0.21462	0.9233	0.35878
0.798	48.697	-15363	2378.9	-0.21452	0.92232	0.3579
0.8	48.702	-15355	2379.3	-0.21443	0.92134	0.35702
0.802	48.705	-15359	2379.8	-0.21433	0.92037	0.35614
0.804	48.695	-15363	2380.3	-0.21423	0.91939	0.35526
0.806	48.694	-15357	2380.6	-0.21462	0.91959	0.35526
0.808	48.689	-15352	2381	-0.21501	0.91978	0.35526
0.81	48.691	-15351	2381.3	-0.2154	0.91998	0.35526
0.812	48.695	-15351	2381.6	-0.21579	0.92017	0.35526
0.814	48.694	-15347	2382	-0.21618	0.92037	0.35526
0.816	48.693	-15342	2382.2	-0.21521	0.92154	0.35458
0.818	48.701	-15343	2382.4	-0.21423	0.92271	0.3539
0.82	48.698	-15344	2382.6	-0.21326	0.92388	0.35321
0.822	48.695	-15341	2382.7	-0.21228	0.92505	0.35253
0.824	48.695	-15339	2382.9	-0.2113	0.92622	0.35185
0.826	48.704	-15346	2383	-0.2113	0.92574	0.35253
0.828	48.706	-15353	2383.2	-0.2113	0.92525	0.35321
0.83	48.705	-15347	2383.3	-0.2113	0.92476	0.3539
0.832	48.708	-15341	2383.4	-0.2113	0.92427	0.35458
0.834	48.712	-15342	2383.6	-0.2113	0.92378	0.35526
0.836	48.711	-15343	2383.6	-0.21121	0.9233	0.35429
0.838	48.718	-15339	2383.6	-0.21111	0.92281	0.35331
0.84	48.724	-15336	2383.6	-0.21101	0.92232	0.35234
0.842	48.728	-15338	2383.7	-0.21091	0.92183	0.35136
0.844	48.73	-15340	2383.7	-0.21082	0.92134	0.35038
0.846	48.74	-15340	2383.6	-0.2115	0.92173	0.35107
0.848	48.751	-15341	2383.6	-0.21218	0.92212	0.35175
0.85	48.757	-15340	2383.5	-0.21287	0.92252	0.35243
0.852	48.76	-15339	2383.5	-0.21355	0.92291	0.35312
0.854	48.761	-15336	2383.4	-0.21423	0.9233	0.3538
0.856	48.762	-15333	2383.3	-0.21482	0.92271	0.3536
0.858	48.765	-15334	2383.2	-0.2154	0.92212	0.35341
0.86	48.765	-15335	2383.1	-0.21599	0.92154	0.35321
0.862	48.764	-15339	2383	-0.21657	0.92095	0.35302
0.864	48.765	-15343	2382.9	-0.21716	0.92037	0.35282
0.866	48.768	-15342	2382.7	-0.21687	0.92066	0.35312
0.868	48.773	-15340	2382.5	-0.21657	0.92095	0.35341
0.87	48.776	-15339	2382.3	-0.21628	0.92125	0.3537
0.872	48.776	-15338	2382.2	-0.21599	0.92154	0.354
0.874	48.773	-15338	2382.1	-0.2157	0.92183	0.35429
0.876	48.769	-15338	2381.9	-0.21462	0.92271	0.3539
0.878	48.773	-15337	2381.7	-0.21355	0.92359	0.35351
0.88	48.777	-15337	2381.6	-0.21248	0.92447	0.35312
0.882	48.764	-15332	2381.3	-0.2114	0.92535	0.35273
0.884	48.751	-15328	2381.1	-0.21033	0.92622	0.35234
0.886	48.769	-15330	2380.8	-0.20955	0.92671	0.35146
0.888	48.774	-15331	2380.6	-0.20877	0.9272	0.35058
0.89	48.775	-15328	2380.4	-0.20799	0.92769	0.3497
0.892	48.771	-15326	2380.1	-0.2072	0.92818	0.34882
0.894	48.77	-15330	2379.8	-0.20642	0.92866	0.34794
0.896	48.774	-15334	2379.5	-0.20642	0.92915	0.34843
0.898	48.777	-15335	2379.1	-0.20642	0.92964	0.34892
0.9	48.771	-15337	2378.8	-0.20642	0.93013	0.34941
0.902	48.765	-15336	2378.5	-0.20642	0.93062	0.3499
0.904	48.768	-15334	2378.2	-0.20642	0.9311	0.35038
0.906	48.762	-15331	2377.9	-0.20613	0.93062	0.35068
0.908	48.758	-15328	2377.5	-0.20584	0.93013	0.35097
0.91	48.759	-15326	2377.2	-0.20555	0.92964	0.35126
0.912	48.761	-15325	2376.8	-0.20525	0.92915	0.35156
0.914	48.756	-15328	2376.4	-0.20496	0.92866	0.35185
0.916	48.755	-15330	2376.1	-0.20516	0.92818	0.35146
0.918	48.757	-15335	2375.8	-0.20535	0.92769	0.35107
0.92	48.76	-15340	2375.5	-0.20555	0.9272	0.35068
0.922	48.767	-15336	2375.2	-0.20574	0.92671	0.35029
0.924	48.767	-15332	2374.8	-0.20594	0.92622	0.3499
0.926	48.758	-15329	2374.5	-0.20672	0.92603	0.35058
0.928	48.751	-15326	2374.2	-0.2075	0.92583	0.35126
0.93	48.753	-15328	2373.9	-0.20828	0.92564	0.35195
0.932	48.755	-15329	2373.6	-0.20906	0.92544	0.35263
0.934	48.756	-15329	2373.3	-0.20984	0.92525	0.35331
0.936	48.752	-15328	2373.1	-0.21121	0.92466	0.354
0.938	48.745	-15327	2372.8	-0.21257	0.92408	0.35468
0.94	48.744	-15325	2372.6	-0.21394	0.92349	0.35536
0.942	48.746	-15330	2372.4	-0.21531	0.92291	0.35604
0.944	48.746	-15335	2372.2	-0.21667	0.92232	0.35673
0.946	48.75	-15337	2372	-0.21648	0.92281	0.35673
0.948	48.756	-15339	2371.8	-0.21628	0.9233	0.35673
0.95	48.762	-15338	2371.6	-0.21609	0.92378	0.35673
0.952	48.765	-15337	2371.5	-0.21589	0.92427	0.35673
0.954	48.754	-15334	2371.3	-0.2157	0.92476	0.35673
0.956	48.746	-15331	2371.2	-0.21511	0.92427	0.35673
0.958	48.748	-15331	2371.1	-0.21452	0.92378	0.35673
0.96	48.755	-15332	2371	-0.21394	0.9233	0.35673
0.962	48.756	-15336	2370.9	-0.21335	0.92281	0.35673
0.964	48.759	-15341	2370.8	-0.21277	0.92232	0.35673
0.966	48.76	-15351	2370.8	-0.21287	0.92252	0.35614
0.968	48.749	-15361	2370.8	-0.21296	0.92271	0.35556
0.97	48.728	-15361	2370.8	-0.21306	0.92291	0.35497
0.972	48.724	-15360	2370.8	-0.21316	0.9231	0.35439
0.974	48.734	-15358	2370.8	-0.21326	0.9233	0.3538
0.976	48.742	-15356	2370.9	-0.21355	0.9231	0.35419
0.978	48.736	-15358	2371	-0.21384	0.92291	0.35458
0.98	48.723	-15359	2371.1	-0.21413	0.92271	0.35497
0.982	48.725	-15352	2371.2	-0.21443	0.92252	0.35536
0.984	48.739	-15346	2371.3	-0.21472	0.92232	0.35575
0.986	48.75	-15338	2371.4	-0.21511	0.9231	0.35585
0.988	48.746	-15330	2371.5	-0.2155	0.92388	0.35595
0.99	48.742	-15336	2371.7	-0.21589	0.92466	0.35604
0.992	48.738	-15342	2371.8	-0.21628	0.92544	0.35614
0.994	48.738	-15344	2371.9	-0.21667	0.92622	0.35624
0.996	48.741	-15345	2372	-0.21657	0.92613	0.35644
0.998	48.743	-15344	2372.2	-0.21648	0.92603	0.35663
1	48.729	-15344	2372.4	-0.21638	0.92593	0.35683
1.002	48.721	-15344	2372.6	-0.21628	0.92583	0.35702
1.004	48.704	-15344	2372.7	-0.21618	0.92574	0.35722
1.006	48.682	-15344	2372.9	-0.21579	0.92583	0.35692
1.008	48.66	-15343	2373	-0.2154	0.92593	0.35663
1.01	48.646	-15343	2373.2	-0.21501	0.92603	0.35634
1.012	48.643	-15342	2373.4	-0.21462	0.92613	0.35604
1.014	48.648	-15344	2373.6	-0.21423	0.92622	0.35575
1.016	48.654	-15345	2373.7	-0.21374	0.9272	0.35526
1.018	48.666	-15346	2373.8	-0.21326	0.92818	0.35478
1.02	48.678	-15348	2374	-0.21277	0.92915	0.35429
1.022	48.688	-15348	2374.2	-0.21228	0.93013	0.3538
1.024	48.692	-15348	2374.4	-0.21179	0.9311	0.35331
1.026	48.692	-15343	2374.5	-0.21199	0.93706	0.35321
1.028	48.695	-15338	2374.6	-0.21218	0.94301	0.35312
1.03	48.699	-15339	2374.4	-0.21238	0.94896	0.35302
1.032	48.7	-15340	2373.9	-0.21257	0.95492	0.35292
1.034	48.698	-15341	2373.3	-0.21277	0.96087	0.35282
1.036	48.699	-15342	2373.3	-0.21277	0.95004	0.354
1.038	48.702	-15342	2373.3	-0.21277	0.9392	0.35517
1.04	48.703	-15343	2373.4	-0.21277	0.92837	0.35634
1.042	48.701	-15343	2373.7	-0.21277	0.91754	0.35751
1.044	48.702	-15343	2374	-0.21277	0.9067	0.35868
1.046	48.71	-15343	2374.2	-0.21257	0.91061	0.35741
1.048	48.715	-15342	2374.4	-0.21238	0.91451	0.35614
1.05	48.732	-15342	2374.4	-0.21218	0.91842	0.35487
1.052	48.754	-15342	2374.3	-0.21199	0.92232	0.3536
1.054	48.763	-15343	2374.2	-0.21179	0.92622	0.35234
1.056	48.768	-15344	2374.1	-0.21121	0.92769	0.35243
1.058	48.781	-15346	2374	-0.21062	0.92915	0.35253
1.06	48.789	-15347	2373.9	-0.21004	0.93062	0.35263
1.062	48.781	-15350	2373.9	-0.20945	0.93208	0.35273
1.064	48.78	-15352	2373.8	-0.20886	0.93354	0.35282
1.066	48.782	-15348	2373.8	-0.20886	0.93149	0.35253
1.068	48.791	-15345	2373.8	-0.20886	0.92944	0.35224
1.07	48.795	-15342	2373.7	-0.20886	0.9274	0.35195
1.072	48.793	-15339	2373.7	-0.20886	0.92535	0.35165
1.074	48.787	-15344	2373.6	-0.20886	0.9233	0.35136
1.076	48.777	-15349	2373.6	-0.20867	0.92535	0.35136
1.078	48.793	-15345	2373.5	-0.20847	0.9274	0.35136
1.08	48.797	-15341	2373.4	-0.20828	0.92944	0.35136
1.082	48.796	-15344	2373.3	-0.20808	0.93149	0.35136
1.084	48.79	-15346	2373.2	-0.20789	0.93354	0.35136
1.086	48.789	-15344	2373.2	-0.20711	0.93228	0.35136
1.088	48.79	-15343	2373.1	-0.20633	0.93101	0.35136
1.09	48.786	-15345	2373	-0.20555	0.92974	0.35136
1.092	48.778	-15347	2373	-0.20476	0.92847	0.35136
1.094	48.784	-15345	2372.9	-0.20398	0.9272	0.35136
1.096	48.794	-15343	2372.8	-0.20545	0.9273	0.35156
1.098	48.794	-15344	2372.7	-0.20691	0.9274	0.35175
1.1	48.797	-15345	2372.6	-0.20838	0.92749	0.35195
1.102	48.799	-15341	2372.5	-0.20984	0.92759	0.35214
1.104	48.794	-15338	2372.5	-0.2113	0.92769	0.35234
1.106	48.788	-15343	2372.4	-0.21189	0.92642	0.35312
1.108	48.791	-15347	2372.3	-0.21248	0.92515	0.3539
1.11	48.794	-15340	2372.1	-0.21306	0.92388	0.35468
1.112	48.795	-15333	2372	-0.21365	0.92261	0.35546
1.114	48.803	-15334	2371.8	-0.21423	0.92134	0.35624
1.116	48.819	-15334	2371.7	-0.21179	0.92232	0.35487
1.118	48.842	-15341	2371.6	-0.20935	0.9233	0.35351
1.12	48.866	-15348	2371.5	-0.20691	0.92427	0.35214
1.122	48.892	-15348	2371.4	-0.20447	0.92525	0.35077
1.124	48.928	-15347	2371.3	-0.20203	0.92622	0.34941
1.126	48.957	-15345	2371.1	-0.20242	0.92691	0.3496
1.128	48.964	-15342	2370.9	-0.20281	0.92759	0.3498
1.13	48.943	-15342	2370.8	-0.2032	0.92827	0.34999
1.132	48.903	-15343	2370.7	-0.20359	0.92896	0.35019
1.134	48.857	-15345	2370.5	-0.20398	0.92964	0.35038
1.136	48.808	-15347	2370.4	-0.20457	0.92944	0.35048
1.138	48.732	-15345	2370.2	-0.20516	0.92925	0.35058
1.14	48.641	-15343	2370.1	-0.20574	0.92905	0.35068
1.142	48.552	-15343	2370	-0.20633	0.92886	0.35077
1.144	48.455	-15344	2369.8	-0.20691	0.92866	0.35087
1.146	48.321	-15342	2369.7	-0.20652	0.92857	0.35029
1.148	48.151	-15340	2369.6	-0.20613	0.92847	0.3497
1.15	47.997	-15338	2369.4	-0.20574	0.92837	0.34912
1.152	47.843	-15335	2369.3	-0.20535	0.92827	0.34853
1.154	47.684	-15339	2369.1	-0.20496	0.92818	0.34794
1.156	47.559	-15343	2369	-0.20496	0.92837	0.34814
1.158	47.508	-15340	2368.9	-0.20496	0.92857	0.34833
1.16	47.519	-15337	2368.7	-0.20496	0.92876	0.34853
1.162	47.631	-15340	2368.6	-0.20496	0.92896	0.34872
1.164	47.806	-15343	2368.5	-0.20496	0.92915	0.34892
1.166	47.996	-15346	2368.4	-0.20525	0.92905	0.34999
1.168	48.173	-15349	2368.3	-0.20555	0.92896	0.35107
1.17	48.345	-15346	2368.2	-0.20584	0.92886	0.35214
1.172	48.501	-15342	2368.1	-0.20613	0.92876	0.35321
1.174	48.616	-15342	2367.9	-0.20642	0.92866	0.35429
1.176	48.686	-15342	2367.8	-0.20584	0.92905	0.35243
1.178	48.717	-15342	2367.7	-0.20525	0.92944	0.35058
1.18	48.776	-15342	2367.6	-0.20467	0.92984	0.34872
1.182	48.825	-15343	2367.5	-0.20408	0.93023	0.34687
1.184	48.853	-15344	2367.4	-0.2035	0.93062	0.34502
1.186	48.869	-15340	2367.3	-0.20389	0.93071	0.3458
1.188	48.856	-15337	2367.2	-0.20428	0.93081	0.34658
1.19	48.823	-15339	2367.1	-0.20467	0.93091	0.34736
1.192	48.794	-15342	2367	-0.20506	0.93101	0.34814
1.194	48.774	-15346	2366.9	-0.20545	0.9311	0.34892
1.196	48.76	-15351	2366.7	-0.20603	0.93032	0.3498
1.198	48.753	-15352	2366.6	-0.20662	0.92954	0.35068
1.2	48.754	-15353	2366.5	-0.2072	0.92876	0.35156
1.202	48.759	-15348	2366.5	-0.20779	0.92798	0.35243
1.204	48.766	-15343	2366.4	-0.20838	0.9272	0.35331
1.206	48.773	-15346	2366.3	-0.2075	0.92827	0.35195
1.208	48.778	-15348	2366.2	-0.20662	0.92935	0.35058
1.21	48.777	-15347	2366.1	-0.20574	0.93042	0.34921
1.212	48.772	-15346	2366	-0.20486	0.93149	0.34785
1.214	48.777	-15349	2365.9	-0.20398	0.93257	0.34648
1.216	48.778	-15353	2365.7	-0.20398	0.93169	0.34736
1.218	48.772	-15351	2365.6	-0.20398	0.93081	0.34824
1.22	48.774	-15350	2365.5	-0.20398	0.92993	0.34912
1.222	48.783	-15349	2365.4	-0.20398	0.92905	0.34999
1.224	48.781	-15348	2365.3	-0.20398	0.92818	0.35087
1.226	48.779	-15348	2365.1	-0.20486	0.92886	0.35077
1.228	48.782	-15348	2365	-0.20574	0.92954	0.35068
1.23	48.784	-15349	2364.9	-0.20662	0.93023	0.35058
1.232	48.786	-15349	2364.8	-0.2075	0.93091	0.35048
1.234	48.772	-15353	2364.7	-0.20838	0.93159	0.35038
1.236	48.767	-15356	2364.6	-0.2074	0.93159	0.3499
1.238	48.765	-15350	2364.4	-0.20642	0.93159	0.34941
1.24	48.768	-15345	2364.3	-0.20545	0.93159	0.34892
1.242	48.779	-15349	2364.2	-0.20447	0.93159	0.34843
1.244	48.776	-15352	2364.1	-0.2035	0.93159	0.34794
1.246	48.772	-15350	2364	-0.2035	0.93149	0.34765
1.248	48.759	-15348	2363.9	-0.2035	0.9314	0.34736
1.25	48.752	-15346	2363.8	-0.2035	0.9313	0.34707
1.252	48.756	-15344	2363.7	-0.2035	0.9312	0.34677
1.254	48.755	-15350	2363.7	-0.2035	0.9311	0.34648
1.256	48.749	-15355	2363.6	-0.20418	0.9314	0.34697
1.258	48.745	-15353	2363.6	-0.20486	0.93169	0.34746
1.26	48.743	-15351	2363.5	-0.20555	0.93198	0.34794
1.262	48.75	-15363	2363.5	-0.20623	0.93228	0.34843
1.264	48.755	-15374	2363.4	-0.20691	0.93257	0.34892
1.266	48.75	-15368	2363.4	-0.20613	0.93228	0.34882
1.268	48.746	-15362	2363.4	-0.20535	0.93198	0.34872
1.27	48.742	-15357	2363.3	-0.20457	0.93169	0.34863
1.272	48.741	-15352	2363.3	-0.20379	0.9314	0.34853
1.274	48.728	-15352	2363.3	-0.20301	0.9311	0.34843
1.276	48.721	-15352	2363.3	-0.20428	0.93032	0.34921
1.278	48.728	-15355	2363.2	-0.20555	0.92954	0.34999
1.28	48.727	-15358	2363.2	-0.20681	0.92876	0.35077
1.282	48.722	-15353	2363.2	-0.20808	0.92798	0.35156
1.284	48.727	-15348	2363.2	-0.20935	0.9272	0.35234
1.286	48.733	-15350	2363.2	-0.20847	0.92769	0.35146
1.288	48.724	-15352	2363.2	-0.2076	0.92818	0.35058
1.29	48.706	-15353	2363.2	-0.20672	0.92866	0.3497
1.292	48.703	-15353	2363.3	-0.20584	0.92915	0.34882
1.294	48.706	-15355	2363.3	-0.20496	0.92964	0.34794
1.296	48.7	-15357	2363.3	-0.20613	0.92876	0.3498
1.298	48.69	-15357	2363.4	-0.2073	0.92788	0.35165
1.3	48.684	-15358	2363.4	-0.20847	0.927	0.35351
1.302	48.69	-15357	2363.5	-0.20964	0.92613	0.35536
1.304	48.686	-15356	2363.6	-0.21082	0.92525	0.35722
1.306	48.688	-15352	2363.7	-0.21189	0.92496	0.35692
1.308	48.693	-15348	2363.9	-0.21296	0.92466	0.35663
1.31	48.69	-15348	2364	-0.21404	0.92437	0.35634
1.312	48.684	-15349	2364.2	-0.21511	0.92408	0.35604
1.314	48.685	-15352	2364.4	-0.21618	0.92378	0.35575
1.316	48.682	-15355	2364.6	-0.21628	0.92369	0.35595
1.318	48.682	-15358	2364.9	-0.21638	0.92359	0.35614
1.32	48.678	-15361	2365.1	-0.21648	0.92349	0.35634
1.322	48.677	-15361	2365.5	-0.21657	0.92339	0.35653
1.324	48.677	-15360	2365.8	-0.21667	0.9233	0.35673
1.326	48.677	-15357	2366.2	-0.21677	0.92291	0.35644
1.328	48.689	-15354	2366.6	-0.21687	0.92252	0.35614
1.33	48.69	-15354	2367	-0.21696	0.92212	0.35585
1.332	48.677	-15353	2367.4	-0.21706	0.92173	0.35556
1.334	48.673	-15356	2367.9	-0.21716	0.92134	0.35526
1.336	48.678	-15358	2368.3	-0.21638	0.92183	0.35546
1.338	48.685	-15357	2368.8	-0.2156	0.92232	0.35565
1.34	48.686	-15357	2369.3	-0.21482	0.92281	0.35585
1.342	48.685	-15355	2369.7	-0.21404	0.9233	0.35604
1.344	48.686	-15353	2370.2	-0.21326	0.92378	0.35624
1.346	48.688	-15356	2370.8	-0.21374	0.92359	0.35624
1.348	48.69	-15360	2371.3	-0.21423	0.92339	0.35624
1.35	48.691	-15359	2371.8	-0.21472	0.9232	0.35624
1.352	48.695	-15358	2372.3	-0.21521	0.923	0.35624
1.354	48.695	-15360	2372.8	-0.2157	0.92281	0.35624
1.356	48.693	-15361	2373.3	-0.2157	0.92291	0.35624
1.358	48.694	-15359	2373.9	-0.2157	0.923	0.35624
1.36	48.698	-15357	2374.4	-0.2157	0.9231	0.35624
1.362	48.695	-15351	2374.9	-0.2157	0.9232	0.35624
1.364	48.693	-15344	2375.5	-0.2157	0.9233	0.35624
1.366	48.694	-15346	2375.8	-0.21482	0.92359	0.35712
1.368	48.691	-15347	2376.1	-0.21394	0.92388	0.358
1.37	48.683	-15351	2376.5	-0.21306	0.92417	0.35888
1.372	48.681	-15356	2377	-0.21218	0.92447	0.35975
1.374	48.681	-15353	2377.5	-0.2113	0.92476	0.36063
1.376	48.665	-15350	2377.9	-0.21091	0.92583	0.35819
1.378	48.658	-15352	2378.3	-0.21052	0.92691	0.35575
1.38	48.674	-15355	2378.6	-0.21013	0.92798	0.35331
1.382	48.671	-15352	2378.7	-0.20974	0.92905	0.35087
1.384	48.662	-15350	2378.9	-0.20935	0.93013	0.34843
1.386	48.671	-15348	2379	-0.21052	0.92905	0.35029
1.388	48.681	-15346	2379.1	-0.21169	0.92798	0.35214
1.39	48.677	-15343	2379.3	-0.21287	0.92691	0.354
1.392	48.674	-15339	2379.5	-0.21404	0.92583	0.35585
1.394	48.674	-15340	2379.7	-0.21521	0.92476	0.3577
1.396	48.677	-15341	2379.9	-0.21599	0.92525	0.35663
1.398	48.68	-15344	2380.1	-0.21677	0.92574	0.35556
1.4	48.678	-15347	2380.2	-0.21755	0.92622	0.35448
1.402	48.682	-15346	2380.3	-0.21833	0.92671	0.35341
1.404	48.687	-15345	2380.3	-0.21911	0.9272	0.35234
1.406	48.693	-15345	2380.3	-0.21872	0.92622	0.35282
1.408	48.699	-15345	2380.3	-0.21833	0.92525	0.35331
1.41	48.695	-15345	2380.4	-0.21794	0.92427	0.3538
1.412	48.704	-15345	2380.4	-0.21755	0.9233	0.35429
1.414	48.713	-15341	2380.4	-0.21716	0.92232	0.35478
1.416	48.704	-15336	2380.3	-0.21609	0.9233	0.3539
1.418	48.7	-15336	2380.2	-0.21501	0.92427	0.35302
1.42	48.708	-15336	2380	-0.21394	0.92525	0.35214
1.422	48.716	-15336	2379.9	-0.21287	0.92622	0.35126
1.424	48.719	-15336	2379.7	-0.21179	0.9272	0.35038
1.426	48.725	-15335	2379.5	-0.21267	0.92622	0.35136
1.428	48.726	-15335	2379.3	-0.21355	0.92525	0.35234
1.43	48.728	-15334	2379.1	-0.21443	0.92427	0.35331
1.432	48.73	-15333	2378.9	-0.21531	0.9233	0.35429
1.434	48.73	-15333	2378.7	-0.21618	0.92232	0.35526
1.436	48.734	-15333	2378.5	-0.21599	0.92252	0.35507
1.438	48.74	-15332	2378.3	-0.21579	0.92271	0.35487
1.44	48.744	-15331	2378.1	-0.2156	0.92291	0.35468
1.442	48.743	-15330	2377.9	-0.2154	0.9231	0.35448
1.444	48.74	-15329	2377.7	-0.21521	0.9233	0.35429
1.446	48.742	-15332	2377.4	-0.21521	0.92271	0.35429
1.448	48.742	-15336	2377.2	-0.21521	0.92212	0.35429
1.45	48.741	-15336	2376.9	-0.21521	0.92154	0.35429
1.452	48.743	-15336	2376.6	-0.21521	0.92095	0.35429
1.454	48.746	-15336	2376.3	-0.21521	0.92037	0.35429
1.456	48.746	-15336	2376.1	-0.21472	0.92125	0.35478
1.458	48.742	-15336	2375.8	-0.21423	0.92212	0.35526
1.46	48.739	-15336	2375.5	-0.21374	0.923	0.35575
1.462	48.743	-15329	2375.1	-0.21326	0.92388	0.35624
1.464	48.745	-15323	2374.8	-0.21277	0.92476	0.35673
1.466	48.745	-15319	2374.5	-0.21335	0.92408	0.35663
1.468	48.746	-15315	2374.2	-0.21394	0.92339	0.35653
1.47	48.744	-15324	2373.9	-0.21452	0.92271	0.35644
1.472	48.744	-15334	2373.5	-0.21511	0.92203	0.35634
1.474	48.748	-15333	2373.2	-0.2157	0.92134	0.35624
1.476	48.754	-15332	2372.8	-0.21599	0.92183	0.35595
1.478	48.75	-15332	2372.3	-0.21628	0.92232	0.35565
1.48	48.731	-15332	2372	-0.21657	0.92281	0.35536
1.482	48.743	-15330	2371.6	-0.21687	0.9233	0.35507
1.484	48.745	-15328	2371.2	-0.21716	0.92378	0.35478
1.486	48.738	-15323	2370.9	-0.21657	0.9232	0.35409
1.488	48.743	-15318	2370.5	-0.21599	0.92261	0.35341
1.49	48.742	-15320	2370.1	-0.2154	0.92203	0.35273
1.492	48.736	-15322	2369.7	-0.21482	0.92144	0.35204
1.494	48.73	-15330	2369.3	-0.21423	0.92086	0.35136
1.496	48.73	-15337	2369	-0.21462	0.92164	0.35243
1.498	48.728	-15337	2368.7	-0.21501	0.92242	0.35351
1.5	48.73	-15338	2368.4	-0.2154	0.9232	0.35458
1.502	48.731	-15339	2368	-0.21579	0.92398	0.35565
1.504	48.735	-15340	2367.6	-0.21618	0.92476	0.35673
1.506	48.736	-15337	2367.3	-0.21628	0.92466	0.35634
1.508	48.725	-15333	2367	-0.21638	0.92456	0.35595
1.51	48.72	-15333	2366.7	-0.21648	0.92447	0.35556
1.512	48.725	-15332	2366.4	-0.21657	0.92437	0.35517
1.514	48.728	-15335	2366.1	-0.21667	0.92427	0.35478
1.516	48.728	-15338	2365.7	-0.21638	0.92339	0.35468
1.518	48.723	-15336	2365.4	-0.21609	0.92252	0.35458
1.52	48.718	-15334	2365.1	-0.21579	0.92164	0.35448
1.522	48.717	-15332	2364.8	-0.2155	0.92076	0.35439
1.524	48.719	-15331	2364.5	-0.21521	0.91988	0.35429
1.526	48.721	-15335	2364.3	-0.21579	0.92037	0.35468
1.528	48.721	-15339	2364	-0.21638	0.92086	0.35507
1.53	48.722	-15337	2363.8	-0.21696	0.92134	0.35546
1.532	48.724	-15336	2363.5	-0.21755	0.92183	0.35585
1.534	48.725	-15338	2363.3	-0.21814	0.92232	0.35624
1.536	48.726	-15339	2363.1	-0.21784	0.92222	0.35595
1.538	48.729	-15338	2362.8	-0.21755	0.92212	0.35565
1.54	48.728	-15338	2362.6	-0.21726	0.92203	0.35536
1.542	48.721	-15339	2362.5	-0.21696	0.92193	0.35507
1.544	48.716	-15340	2362.3	-0.21667	0.92183	0.35478
1.546	48.714	-15338	2362.2	-0.21706	0.92232	0.35507
1.548	48.716	-15335	2362	-0.21745	0.92281	0.35536
1.55	48.714	-15336	2361.9	-0.21784	0.9233	0.35565
1.552	48.705	-15337	2361.8	-0.21823	0.92378	0.35595
1.554	48.698	-15338	2361.7	-0.21862	0.92427	0.35624
1.556	48.701	-15339	2361.6	-0.21892	0.92525	0.35595
1.558	48.702	-15344	2361.6	-0.21921	0.92622	0.35565
1.56	48.712	-15350	2361.5	-0.2195	0.9272	0.35536
1.562	48.717	-15344	2361.4	-0.2198	0.92818	0.35507
1.564	48.716	-15338	2361.3	-0.22009	0.92915	0.35478
1.566	48.713	-15337	2361.3	-0.22009	0.92925	0.35468
1.568	48.715	-15335	2361.3	-0.22009	0.92935	0.35458
1.57	48.714	-15339	2361.3	-0.22009	0.92944	0.35448
1.572	48.706	-15342	2361.3	-0.22009	0.92954	0.35439
1.574	48.695	-15338	2361.2	-0.22009	0.92964	0.35429
1.576	48.692	-15334	2361.2	-0.21931	0.92886	0.35497
1.578	48.682	-15345	2361.2	-0.21853	0.92808	0.35565
1.58	48.661	-15355	2361.2	-0.21775	0.9273	0.35634
1.582	48.639	-15361	2361.3	-0.21696	0.92652	0.35702
1.584	48.642	-15368	2361.3	-0.21618	0.92574	0.3577
1.586	48.636	-15359	2361.3	-0.21628	0.92564	0.3578
1.588	48.608	-15350	2361.4	-0.21638	0.92554	0.3579
1.59	48.622	-15355	2361.4	-0.21648	0.92544	0.358
1.592	48.635	-15359	2361.5	-0.21657	0.92535	0.35809
1.594	48.653	-15359	2361.5	-0.21667	0.92525	0.35819
1.596	48.662	-15359	2361.6	-0.21648	0.92515	0.3578
1.598	48.658	-15354	2361.6	-0.21628	0.92505	0.35741
1.6	48.662	-15350	2361.6	-0.21609	0.92496	0.35702
1.602	48.668	-15348	2361.6	-0.21589	0.92486	0.35663
1.604	48.674	-15347	2361.6	-0.2157	0.92476	0.35624
1.606	48.667	-15346	2361.6	-0.21618	0.92564	0.35595
1.608	48.664	-15345	2361.6	-0.21667	0.92652	0.35565
1.61	48.668	-15348	2361.7	-0.21716	0.9274	0.35536
1.612	48.67	-15351	2361.7	-0.21765	0.92827	0.35507
1.614	48.669	-15345	2361.7	-0.21814	0.92915	0.35478
1.616	48.672	-15339	2361.7	-0.21794	0.92886	0.35478
1.618	48.674	-15340	2361.7	-0.21775	0.92857	0.35478
1.62	48.673	-15341	2361.7	-0.21755	0.92827	0.35478
1.622	48.673	-15347	2361.6	-0.21736	0.92798	0.35478
1.624	48.679	-15352	2361.6	-0.21716	0.92769	0.35478
1.626	48.695	-15354	2361.5	-0.21755	0.927	0.35497
1.628	48.715	-15355	2361.5	-0.21794	0.92632	0.35517
1.63	48.726	-15355	2361.4	-0.21833	0.92564	0.35536
1.632	48.733	-15355	2361.3	-0.21872	0.92496	0.35556
1.634	48.739	-15356	2361.3	-0.21911	0.92427	0.35575
1.636	48.747	-15358	2361.2	-0.21921	0.92486	0.35604
1.638	48.757	-15358	2361.1	-0.21931	0.92544	0.35634
1.64	48.759	-15357	2361	-0.2194	0.92603	0.35663
1.642	48.755	-15354	2361	-0.2195	0.92661	0.35692
1.644	48.755	-15350	2360.9	-0.2196	0.9272	0.35722
1.646	48.758	-15352	2360.8	-0.2196	0.9272	0.35692
1.648	48.761	-15355	2360.8	-0.2196	0.9272	0.35663
1.65	48.766	-15355	2360.8	-0.2196	0.9272	0.35634
1.652	48.764	-15354	2360.7	-0.2196	0.9272	0.35604
1.654	48.766	-15349	2360.6	-0.2196	0.9272	0.35575
1.656	48.767	-15343	2360.5	-0.21892	0.92632	0.35556
1.658	48.759	-15342	2360.4	-0.21823	0.92544	0.35536
1.66	48.756	-15341	2360.3	-0.21755	0.92456	0.35517
1.662	48.761	-15350	2360.2	-0.21687	0.92369	0.35497
1.664	48.765	-15359	2360.1	-0.21618	0.92281	0.35478
1.666	48.762	-15358	2360	-0.21677	0.9232	0.35575
1.668	48.76	-15357	2359.9	-0.21736	0.92359	0.35673
1.67	48.763	-15355	2359.8	-0.21794	0.92398	0.3577
1.672	48.77	-15353	2359.7	-0.21853	0.92437	0.35868
1.674	48.767	-15350	2359.6	-0.21911	0.92476	0.35966
1.676	48.767	-15347	2359.4	-0.21931	0.92476	0.35936
1.678	48.77	-15348	2359.3	-0.2195	0.92476	0.35907
1.68	48.771	-15349	2359.2	-0.2197	0.92476	0.35878
1.682	48.765	-15348	2359.1	-0.21989	0.92476	0.35848
1.684	48.767	-15347	2359	-0.22009	0.92476	0.35819
1.686	48.767	-15352	2358.8	-0.21892	0.92359	0.35663
1.688	48.769	-15356	2358.7	-0.21775	0.92242	0.35507
1.69	48.775	-15349	2358.6	-0.21657	0.92125	0.35351
1.692	48.787	-15341	2358.4	-0.2154	0.92008	0.35195
1.694	48.81	-15346	2358.3	-0.21423	0.9189	0.35038
1.696	48.844	-15352	2358.1	-0.21492	0.91929	0.35107
1.698	48.884	-15350	2358	-0.2156	0.91968	0.35175
1.7	48.929	-15349	2357.8	-0.21628	0.92008	0.35243
1.702	48.963	-15353	2357.6	-0.21696	0.92047	0.35312
1.704	48.968	-15357	2357.4	-0.21765	0.92086	0.3538
1.706	48.944	-15350	2357.2	-0.21804	0.92144	0.3537
1.708	48.903	-15343	2357	-0.21843	0.92203	0.3536
1.71	48.857	-15344	2356.9	-0.21882	0.92261	0.35351
1.712	48.799	-15344	2356.7	-0.21921	0.9232	0.35341
1.714	48.722	-15346	2356.5	-0.2196	0.92378	0.35331
1.716	48.631	-15348	2356.3	-0.2194	0.92339	0.35448
1.718	48.526	-15351	2356.1	-0.21921	0.923	0.35565
1.72	48.407	-15354	2355.9	-0.21901	0.92261	0.35683
1.722	48.261	-15351	2355.8	-0.21882	0.92222	0.358
1.724	48.093	-15349	2355.6	-0.21862	0.92183	0.35917
1.726	47.925	-15353	2355.6	-0.21901	0.92378	0.3579
1.728	47.747	-15357	2355.6	-0.2194	0.92574	0.35663
1.73	47.583	-15359	2355.5	-0.2198	0.92769	0.35536
1.732	47.463	-15361	2355.2	-0.22019	0.92964	0.35409
1.734	47.409	-15355	2354.9	-0.22058	0.93159	0.35282
1.736	47.417	-15349	2354.7	-0.22019	0.92935	0.3537
1.738	47.538	-15351	2354.6	-0.2198	0.9271	0.35458
1.74	47.732	-15353	2354.4	-0.2194	0.92486	0.35546
1.742	47.926	-15352	2354.2	-0.21901	0.92261	0.35634
1.744	48.118	-15351	2354.1	-0.21862	0.92037	0.35722
1.746	48.276	-15355	2354	-0.21921	0.92086	0.35722
1.748	48.422	-15359	2354	-0.2198	0.92134	0.35722
1.75	48.542	-15357	2353.9	-0.22038	0.92183	0.35722
1.752	48.634	-15356	2353.8	-0.22097	0.92232	0.35722
1.754	48.69	-15355	2353.8	-0.22155	0.92281	0.35722
1.756	48.772	-15355	2353.6	-0.22136	0.92456	0.35575
1.758	48.833	-15353	2353.4	-0.22116	0.92632	0.35429
1.76	48.848	-15351	2353.2	-0.22097	0.92808	0.35282
1.762	48.831	-15351	2353	-0.22077	0.92984	0.35136
1.764	48.804	-15352	2352.8	-0.22058	0.93159	0.3499
1.766	48.784	-15356	2352.8	-0.22058	0.92964	0.35048
1.768	48.773	-15359	2352.7	-0.22058	0.92769	0.35107
1.77	48.75	-15359	2352.6	-0.22058	0.92574	0.35165
1.772	48.724	-15358	2352.6	-0.22058	0.92378	0.35224
1.774	48.718	-15359	2352.7	-0.22058	0.92183	0.35282
1.776	48.725	-15360	2352.6	-0.21989	0.92252	0.35282
1.778	48.725	-15360	2352.5	-0.21921	0.9232	0.35282
1.78	48.744	-15361	2352.4	-0.21853	0.92388	0.35282
1.782	48.759	-15362	2352.3	-0.21784	0.92456	0.35282
1.784	48.757	-15363	2352.2	-0.21716	0.92525	0.35282
1.786	48.757	-15363	2352.2	-0.21726	0.92505	0.3536
1.788	48.761	-15362	2352.1	-0.21736	0.92486	0.35439
1.79	48.763	-15360	2352	-0.21745	0.92466	0.35517
1.792	48.765	-15358	2352	-0.21755	0.92447	0.35595
1.794	48.765	-15359	2352	-0.21765	0.92427	0.35673
1.796	48.763	-15360	2351.9	-0.21706	0.92496	0.35712
1.798	48.763	-15362	2351.8	-0.21648	0.92564	0.35751
1.8	48.766	-15363	2351.7	-0.21589	0.92632	0.3579
1.802	48.764	-15364	2351.6	-0.21531	0.927	0.35829
1.804	48.76	-15365	2351.5	-0.21472	0.92769	0.35868
1.806	48.756	-15365	2351.3	-0.2155	0.92779	0.35712
1.808	48.75	-15365	2351.2	-0.21628	0.92788	0.35556
1.81	48.747	-15367	2351.1	-0.21706	0.92798	0.354
1.812	48.741	-15369	2351.1	-0.21784	0.92808	0.35243
1.814	48.75	-15362	2351	-0.21862	0.92818	0.35087
1.816	48.75	-15354	2350.9	-0.21872	0.92808	0.35146
1.818	48.742	-15359	2350.8	-0.21882	0.92798	0.35204
1.82	48.742	-15365	2350.7	-0.21892	0.92788	0.35263
1.822	48.747	-15362	2350.6	-0.21901	0.92779	0.35321
1.824	48.748	-15360	2350.6	-0.21911	0.92769	0.3538
1.826	48.742	-15361	2350.5	-0.21745	0.92808	0.35302
1.828	48.742	-15363	2350.4	-0.21579	0.92847	0.35224
1.83	48.74	-15362	2350.4	-0.21413	0.92886	0.35146
1.832	48.737	-15362	2350.4	-0.21248	0.92925	0.35068
1.834	48.73	-15357	2350.3	-0.21082	0.92964	0.3499
1.836	48.73	-15353	2350.3	-0.21257	0.92915	0.35087
1.838	48.727	-15353	2350.2	-0.21433	0.92866	0.35185
1.84	48.723	-15352	2350.1	-0.21609	0.92818	0.35282
1.842	48.719	-15360	2350.1	-0.21784	0.92769	0.3538
1.844	48.713	-15368	2350.1	-0.2196	0.9272	0.35478
1.846	48.717	-15370	2350.1	-0.21901	0.9274	0.35448
1.848	48.718	-15372	2350	-0.21843	0.92759	0.35419
1.85	48.719	-15369	2350	-0.21784	0.92779	0.3539
1.852	48.713	-15367	2350	-0.21726	0.92798	0.3536
1.854	48.718	-15367	2349.9	-0.21667	0.92818	0.35331
1.856	48.719	-15368	2350	-0.21736	0.92837	0.35331
1.858	48.703	-15368	2350	-0.21804	0.92857	0.35331
1.86	48.694	-15368	2350	-0.21872	0.92876	0.35331
1.862	48.693	-15367	2350	-0.2194	0.92896	0.35331
1.864	48.687	-15365	2350	-0.22009	0.92915	0.35331
1.866	48.684	-15365	2350.1	-0.22028	0.92837	0.3537
1.868	48.685	-15365	2350.1	-0.22048	0.92759	0.35409
1.87	48.688	-15367	2350.2	-0.22067	0.92681	0.35448
1.872	48.683	-15369	2350.3	-0.22087	0.92603	0.35487
1.874	48.673	-15369	2350.4	-0.22106	0.92525	0.35526
1.876	48.673	-15369	2350.6	-0.22106	0.92544	0.35575
1.878	48.675	-15367	2350.7	-0.22106	0.92564	0.35624
1.88	48.672	-15364	2350.8	-0.22106	0.92583	0.35673
1.882	48.672	-15368	2351	-0.22106	0.92603	0.35722
1.884	48.672	-15371	2351.2	-0.22106	0.92622	0.3577
1.886	48.67	-15372	2351.4	-0.21911	0.92574	0.35829
1.888	48.666	-15373	2351.7	-0.21716	0.92525	0.35888
1.89	48.66	-15370	2351.9	-0.21521	0.92476	0.35946
1.892	48.658	-15367	2352.2	-0.21326	0.92427	0.36005
1.894	48.663	-15366	2352.6	-0.2113	0.92378	0.36063
1.896	48.664	-15366	2352.9	-0.21296	0.92339	0.35985
1.898	48.659	-15369	2353.3	-0.21462	0.923	0.35907
1.9	48.656	-15371	2353.7	-0.21628	0.92261	0.35829
1.902	48.66	-15370	2354	-0.21794	0.92222	0.35751
1.904	48.66	-15369	2354.4	-0.2196	0.92183	0.35673
1.906	48.66	-15368	2354.8	-0.2196	0.92212	0.35702
1.908	48.66	-15367	2355.3	-0.2196	0.92242	0.35731
1.91	48.657	-15368	2355.8	-0.2196	0.92271	0.35761
1.912	48.665	-15369	2356.3	-0.2196	0.923	0.3579
1.914	48.669	-15365	2356.8	-0.2196	0.9233	0.35819
1.916	48.67	-15362	2357.3	-0.21999	0.92378	0.35829
1.918	48.674	-15361	2357.8	-0.22038	0.92427	0.35839
1.92	48.671	-15359	2358.3	-0.22077	0.92476	0.35848
1.922	48.669	-15362	2358.8	-0.22116	0.92525	0.35858
1.924	48.675	-15365	2359.3	-0.22155	0.92574	0.35868
1.926	48.676	-15364	2359.8	-0.22077	0.92554	0.35731
1.928	48.675	-15364	2360.4	-0.21999	0.92535	0.35595
1.93	48.677	-15363	2360.9	-0.21921	0.92515	0.35458
1.932	48.684	-15361	2361.4	-0.21843	0.92496	0.35321
1.934	48.683	-15361	2361.9	-0.21765	0.92476	0.35185
1.936	48.674	-15361	2362.4	-0.21823	0.92505	0.35253
1.938	48.674	-15364	2362.9	-0.21882	0.92535	0.35321
1.94	48.682	-15367	2363.4	-0.2194	0.92564	0.3539
1.942	48.683	-15367	2363.9	-0.21999	0.92593	0.35458
1.944	48.674	-15367	2364.3	-0.22058	0.92622	0.35526
1.946	48.673	-15364	2364.7	-0.22058	0.92622	0.35517
1.948	48.674	-15361	2365.1	-0.22058	0.92622	0.35507
1.95	48.663	-15356	2365.5	-0.22058	0.92622	0.35497
1.952	48.653	-15350	2365.9	-0.22058	0.92622	0.35487
1.954	48.653	-15345	2366.3	-0.22058	0.92622	0.35478
1.956	48.66	-15341	2366.5	-0.22097	0.92671	0.35409
1.958	48.661	-15349	2366.8	-0.22136	0.9272	0.35341
1.96	48.659	-15357	2367.1	-0.22175	0.92769	0.35273
1.962	48.659	-15358	2367.4	-0.22214	0.92818	0.35204
1.964	48.653	-15358	2367.6	-0.22253	0.92866	0.35136
1.966	48.648	-15357	2367.8	-0.22233	0.92876	0.35214
1.968	48.652	-15355	2368	-0.22214	0.92886	0.35292
1.97	48.663	-15351	2368.1	-0.22194	0.92896	0.3537
1.972	48.666	-15348	2368.2	-0.22175	0.92905	0.35448
1.974	48.658	-15349	2368.3	-0.22155	0.92915	0.35526
1.976	48.658	-15349	2368.4	-0.22106	0.92808	0.35497
1.978	48.661	-15349	2368.5	-0.22058	0.927	0.35468
1.98	48.657	-15348	2368.6	-0.22009	0.92593	0.35439
1.982	48.667	-15351	2368.7	-0.2196	0.92486	0.35409
1.984	48.675	-15354	2368.7	-0.21911	0.92378	0.3538
1.986	48.677	-15350	2368.8	-0.22019	0.923	0.3536
1.988	48.682	-15346	2368.9	-0.22126	0.92222	0.35341
1.99	48.685	-15350	2369	-0.22233	0.92144	0.35321
1.992	48.685	-15353	2369.1	-0.22341	0.92066	0.35302
1.994	48.683	-15352	2369.2	-0.22448	0.91988	0.35282
1.996	48.69	-15350	2369	-0.22331	0.92125	0.35321
1.998	48.701	-15352	2368.9	-0.22214	0.92261	0.3536
2	48.7	-15354	2368.7	-0.22097	0.92398	0.354
2.002	48.705	-15353	2368.5	-0.2198	0.92535	0.35439
2.004	48.708	-15353	2368.4	-0.21862	0.92671	0.35478
2.006	48.716	-15349	2368.2	-0.21872	0.92574	0.35507
2.008	48.718	-15346	2368.1	-0.21882	0.92476	0.35536
2.01	48.719	-15345	2368	-0.21892	0.92378	0.35565
2.012	48.716	-15345	2367.8	-0.21901	0.92281	0.35595
2.014	48.718	-15347	2367.6	-0.21911	0.92183	0.35624
2.016	48.723	-15350	2367.4	-0.21989	0.92378	0.35575
2.018	48.725	-15344	2367.2	-0.22067	0.92574	0.35526
2.02	48.723	-15338	2367	-0.22145	0.92769	0.35478
2.022	48.725	-15341	2366.8	-0.22224	0.92964	0.35429
2.024	48.724	-15344	2366.5	-0.22302	0.93159	0.3538
2.026	48.723	-15339	2366.3	-0.22253	0.92896	0.35429
2.028	48.734	-15335	2366.1	-0.22204	0.92632	0.35478
2.03	48.736	-15336	2365.9	-0.22155	0.92369	0.35526
2.032	48.73	-15336	2365.8	-0.22106	0.92105	0.35575
2.034	48.732	-15336	2365.6	-0.22058	0.91842	0.35624
2.036	48.733	-15336	2365.3	-0.22097	0.92173	0.35556
2.038	48.726	-15337	2365.1	-0.22136	0.92505	0.35487
2.04	48.719	-15337	2364.7	-0.22175	0.92837	0.35419
2.042	48.721	-15335	2364.4	-0.22214	0.93169	0.35351
2.044	48.72	-15333	2364	-0.22253	0.93501	0.35282
2.046	48.717	-15335	2363.7	-0.22204	0.93364	0.35302
2.048	48.721	-15336	2363.4	-0.22155	0.93228	0.35321
2.05	48.726	-15335	2363	-0.22106	0.93091	0.35341
2.052	48.725	-15334	2362.7	-0.22058	0.92954	0.3536
2.054	48.724	-15337	2362.4	-0.22009	0.92818	0.3538
2.056	48.724	-15341	2362.1	-0.22028	0.92788	0.3539
2.058	48.721	-15340	2361.9	-0.22048	0.92759	0.354
2.06	48.716	-15340	2361.6	-0.22067	0.9273	0.35409
2.062	48.72	-15339	2361.3	-0.22087	0.927	0.35419
2.064	48.72	-15338	2361	-0.22106	0.92671	0.35429
2.066	48.716	-15337	2360.7	-0.2197	0.92642	0.35429
2.068	48.712	-15337	2360.3	-0.21833	0.92613	0.35429
2.07	48.712	-15335	2360	-0.21696	0.92583	0.35429
2.072	48.709	-15334	2359.8	-0.2156	0.92554	0.35429
2.074	48.708	-15337	2359.5	-0.21423	0.92525	0.35429
2.076	48.718	-15340	2359.2	-0.21589	0.92574	0.35517
2.078	48.715	-15336	2358.9	-0.21755	0.92622	0.35604
2.08	48.707	-15332	2358.7	-0.21921	0.92671	0.35692
2.082	48.709	-15333	2358.5	-0.22087	0.9272	0.3578
2.084	48.708	-15334	2358.3	-0.22253	0.92769	0.35868
2.086	48.708	-15336	2358	-0.22243	0.9274	0.3578
2.088	48.705	-15337	2357.7	-0.22233	0.9271	0.35692
2.09	48.697	-15343	2357.5	-0.22224	0.92681	0.35604
2.092	48.697	-15348	2357.2	-0.22214	0.92652	0.35517
2.094	48.706	-15344	2357	-0.22204	0.92622	0.35429
2.096	48.712	-15340	2356.8	-0.22145	0.92613	0.35419
2.098	48.71	-15341	2356.6	-0.22087	0.92603	0.35409
2.1	48.71	-15342	2356.4	-0.22028	0.92593	0.354
2.102	48.71	-15347	2356.2	-0.2197	0.92583	0.3539
2.104	48.71	-15351	2356	-0.21911	0.92574	0.3538
2.106	48.702	-15347	2355.8	-0.2195	0.92583	0.35468
2.108	48.699	-15343	2355.6	-0.21989	0.92593	0.35556
2.11	48.699	-15345	2355.5	-0.22028	0.92603	0.35644
2.112	48.705	-15347	2355.3	-0.22067	0.92613	0.35731
2.114	48.71	-15348	2355.2	-0.22106	0.92622	0.35819
2.116	48.71	-15350	2355	-0.22067	0.92515	0.35809
2.118	48.702	-15347	2354.9	-0.22028	0.92408	0.358
2.12	48.698	-15345	2354.8	-0.21989	0.923	0.3579
2.122	48.699	-15346	2354.7	-0.2195	0.92193	0.3578
2.124	48.697	-15347	2354.6	-0.21911	0.92086	0.3577
2.126	48.692	-15346	2354.5	-0.21872	0.92144	0.3578
2.128	48.693	-15345	2354.5	-0.21833	0.92203	0.3579
2.13	48.699	-15347	2354.4	-0.21794	0.92261	0.358
2.132	48.693	-15349	2354.4	-0.21755	0.9232	0.35809
2.134	48.683	-15351	2354.4	-0.21716	0.92378	0.35819
2.136	48.681	-15352	2354.4	-0.21745	0.92359	0.35829
2.138	48.677	-15352	2354.4	-0.21775	0.92339	0.35839
2.14	48.679	-15353	2354.4	-0.21804	0.9232	0.35848
2.142	48.685	-15345	2354.4	-0.21833	0.923	0.35858
2.144	48.68	-15337	2354.4	-0.21862	0.92281	0.35868
2.146	48.679	-15342	2354.4	-0.21901	0.92339	0.35839
2.148	48.684	-15347	2354.5	-0.2194	0.92398	0.35809
2.15	48.682	-15343	2354.5	-0.2198	0.92456	0.3578
2.152	48.671	-15339	2354.5	-0.22019	0.92515	0.35751
2.154	48.654	-15343	2354.5	-0.22058	0.92574	0.35722
2.156	48.642	-15346	2354.6	-0.22038	0.92583	0.35624
2.158	48.627	-15346	2354.6	-0.22019	0.92593	0.35526
2.16	48.6	-15345	2354.7	-0.21999	0.92603	0.35429
2.162	48.595	-15350	2354.8	-0.2198	0.92613	0.35331
2.164	48.594	-15355	2354.8	-0.2196	0.92622	0.35234
2.166	48.602	-15353	2354.9	-0.2197	0.92691	0.35273
2.168	48.61	-15352	2354.9	-0.2198	0.92759	0.35312
2.17	48.616	-15350	2355	-0.21989	0.92827	0.35351
2.172	48.622	-15349	2355.1	-0.21999	0.92896	0.3539
2.174	48.626	-15349	2355.2	-0.22009	0.92964	0.35429
2.176	48.637	-15350	2355.3	-0.22048	0.92935	0.35487
2.178	48.643	-15347	2355.4	-0.22087	0.92905	0.35546
2.18	48.649	-15343	2355.5	-0.22126	0.92876	0.35604
2.182	48.653	-15345	2355.6	-0.22165	0.92847	0.35663
2.184	48.644	-15346	2355.7	-0.22204	0.92818	0.35722
2.186	48.634	-15353	2355.7	-0.22106	0.92798	0.35751
2.188	48.645	-15360	2355.8	-0.22009	0.92779	0.3578
2.19	48.657	-15365	2355.8	-0.21911	0.92759	0.35809
2.192	48.655	-15371	2355.9	-0.21814	0.9274	0.35839
2.194	48.652	-15366	2355.9	-0.21716	0.9272	0.35868
2.196	48.648	-15362	2356	-0.21872	0.9272	0.3578
2.198	48.646	-15361	2356	-0.22028	0.9272	0.35692
2.2	48.659	-15360	2356	-0.22184	0.9272	0.35604
2.202	48.678	-15363	2356	-0.22341	0.9272	0.35517
2.204	48.69	-15365	2356.1	-0.22497	0.9272	0.35429
2.206	48.699	-15359	2356	-0.22458	0.92827	0.3538
2.208	48.71	-15353	2356	-0.22419	0.92935	0.35331
2.21	48.717	-15353	2356	-0.2238	0.93042	0.35282
2.212	48.728	-15354	2355.9	-0.22341	0.93149	0.35234
2.214	48.741	-15353	2355.9	-0.22302	0.93257	0.35185
2.216	48.742	-15353	2355.9	-0.22214	0.9312	0.3536
2.218	48.731	-15355	2355.9	-0.22126	0.92984	0.35536
2.22	48.721	-15358	2355.8	-0.22038	0.92847	0.35712
2.222	48.723	-15353	2355.7	-0.2195	0.9271	0.35888
2.224	48.734	-15348	2355.6	-0.21862	0.92574	0.36063
2.226	48.739	-15352	2355.6	-0.21853	0.92515	0.36053
2.228	48.737	-15355	2355.6	-0.21843	0.92456	0.36044
2.23	48.735	-15354	2355.5	-0.21833	0.92398	0.36034
2.232	48.733	-15352	2355.4	-0.21823	0.92339	0.36024
2.234	48.733	-15353	2355.3	-0.21814	0.92281	0.36014
2.236	48.732	-15354	2355.2	-0.21823	0.92339	0.35985
2.238	48.73	-15357	2355.1	-0.21833	0.92398	0.35956
2.24	48.735	-15361	2355	-0.21843	0.92456	0.35927
2.242	48.742	-15356	2354.9	-0.21853	0.92515	0.35897
2.244	48.746	-15352	2354.8	-0.21862	0.92574	0.35868
2.246	48.747	-15352	2354.8	-0.21901	0.92554	0.35868
2.248	48.745	-15351	2354.7	-0.2194	0.92535	0.35868
2.25	48.744	-15350	2354.6	-0.2198	0.92515	0.35868
2.252	48.743	-15349	2354.6	-0.22019	0.92496	0.35868
2.254	48.733	-15357	2354.5	-0.22058	0.92476	0.35868
2.256	48.75	-15364	2354.4	-0.22087	0.92525	0.35829
2.258	48.75	-15361	2354.3	-0.22116	0.92574	0.3579
2.26	48.748	-15357	2354.3	-0.22145	0.92622	0.35751
2.262	48.744	-15360	2354.2	-0.22175	0.92671	0.35712
2.264	48.74	-15363	2354.1	-0.22204	0.9272	0.35673
2.266	48.752	-15365	2354	-0.22145	0.92593	0.35683
2.268	48.768	-15366	2353.9	-0.22087	0.92466	0.35692
2.27	48.785	-15361	2353.8	-0.22028	0.92339	0.35702
2.272	48.824	-15356	2353.7	-0.2197	0.92212	0.35712
2.274	48.862	-15358	2353.6	-0.21911	0.92086	0.35722
2.276	48.904	-15360	2353.5	-0.2195	0.92232	0.35624
2.278	48.936	-15360	2353.4	-0.21989	0.92378	0.35526
2.28	48.942	-15360	2353.2	-0.22028	0.92525	0.35429
2.282	48.926	-15358	2353.1	-0.22067	0.92671	0.35331
2.284	48.9	-15355	2352.9	-0.22106	0.92818	0.35234
2.286	48.851	-15357	2352.8	-0.22038	0.92759	0.35409
2.288	48.787	-15359	2352.6	-0.2197	0.927	0.35585
2.29	48.71	-15358	2352.5	-0.21901	0.92642	0.35761
2.292	48.618	-15357	2352.3	-0.21833	0.92583	0.35936
2.294	48.52	-15355	2352.2	-0.21765	0.92525	0.36112
2.296	48.414	-15353	2352	-0.21745	0.92496	0.36132
2.298	48.267	-15354	2351.8	-0.21726	0.92466	0.36151
2.3	48.083	-15356	2351.6	-0.21706	0.92437	0.36171
2.302	47.908	-15357	2351.4	-0.21687	0.92408	0.3619
2.304	47.745	-15358	2351.2	-0.21667	0.92378	0.3621
2.306	47.587	-15358	2351.1	-0.21736	0.92417	0.36151
2.308	47.457	-15358	2350.9	-0.21804	0.92456	0.36092
2.31	47.384	-15359	2350.7	-0.21872	0.92496	0.36034
2.312	47.39	-15360	2350.5	-0.2194	0.92535	0.35975
2.314	47.501	-15361	2350.4	-0.22009	0.92574	0.35917
2.316	47.694	-15361	2350.2	-0.21989	0.92583	0.35917
2.318	47.898	-15359	2350.1	-0.2197	0.92593	0.35917
2.32	48.088	-15357	2350	-0.2195	0.92603	0.35917
2.322	48.249	-15359	2349.8	-0.21931	0.92613	0.35917
2.324	48.393	-15360	2349.6	-0.21911	0.92622	0.35917
2.326	48.516	-15362	2349.5	-0.2197	0.92593	0.35868
2.328	48.611	-15363	2349.4	-0.22028	0.92564	0.35819
2.33	48.679	-15362	2349.2	-0.22087	0.92535	0.3577
2.332	48.753	-15362	2349.1	-0.22145	0.92505	0.35722
2.334	48.808	-15359	2349	-0.22204	0.92476	0.35673
2.336	48.823	-15357	2348.9	-0.22233	0.92564	0.35585
2.338	48.827	-15358	2348.8	-0.22263	0.92652	0.35497
2.34	48.793	-15358	2348.7	-0.22292	0.9274	0.35409
2.342	48.76	-15360	2348.7	-0.22321	0.92827	0.35321
2.344	48.731	-15362	2348.6	-0.2235	0.92915	0.35234
2.346	48.711	-15364	2348.5	-0.22321	0.92905	0.35263
2.348	48.697	-15365	2348.4	-0.22292	0.92896	0.35292
2.35	48.692	-15367	2348.3	-0.22263	0.92886	0.35321
2.352	48.694	-15368	2348.2	-0.22233	0.92876	0.35351
2.354	48.703	-15368	2348.2	-0.22204	0.92866	0.3538
2.356	48.711	-15369	2348.1	-0.22145	0.92847	0.3536
2.358	48.716	-15363	2348.1	-0.22087	0.92827	0.35341
2.36	48.718	-15357	2348	-0.22028	0.92808	0.35321
2.362	48.717	-15358	2348	-0.2197	0.92788	0.35302
2.364	48.719	-15359	2347.9	-0.21911	0.92769	0.35282
2.366	48.719	-15361	2347.8	-0.22028	0.92779	0.35351
2.368	48.721	-15364	2347.8	-0.22145	0.92788	0.35419
2.37	48.724	-15365	2347.8	-0.22263	0.92798	0.35487
2.372	48.722	-15366	2347.7	-0.2238	0.92808	0.35556
2.374	48.722	-15363	2347.6	-0.22497	0.92818	0.35624
2.376	48.729	-15359	2347.6	-0.22428	0.92808	0.35575
2.378	48.734	-15357	2347.5	-0.2236	0.92798	0.35526
2.38	48.733	-15355	2347.5	-0.22292	0.92788	0.35478
2.382	48.728	-15359	2347.4	-0.22224	0.92779	0.35429
2.384	48.721	-15362	2347.3	-0.22155	0.92769	0.3538
2.386	48.719	-15364	2347.3	-0.22194	0.92866	0.35351
2.388	48.717	-15366	2347.3	-0.22233	0.92964	0.35321
2.39	48.713	-15368	2347.3	-0.22272	0.93062	0.35292
2.392	48.707	-15369	2347.2	-0.22311	0.93159	0.35263
2.394	48.707	-15369	2347.2	-0.2235	0.93257	0.35234
2.396	48.711	-15369	2347.2	-0.22292	0.9314	0.35321
2.398	48.707	-15370	2347.2	-0.22233	0.93023	0.35409
2.4	48.705	-15371	2347.2	-0.22175	0.92905	0.35497
2.402	48.704	-15372	2347.2	-0.22116	0.92788	0.35585
2.404	48.696	-15373	2347.3	-0.22058	0.92671	0.35673
2.406	48.691	-15375	2347.2	-0.22097	0.92691	0.35595
2.408	48.692	-15377	2347.2	-0.22136	0.9271	0.35517
2.41	48.689	-15369	2347.1	-0.22175	0.9273	0.35439
2.412	48.685	-15362	2347.1	-0.22214	0.92749	0.3536
2.414	48.682	-15362	2347.1	-0.22253	0.92769	0.35282
2.416	48.679	-15363	2347.1	-0.22233	0.92759	0.35351
2.418	48.676	-15365	2347.1	-0.22214	0.92749	0.35419
2.42	48.676	-15367	2347.1	-0.22194	0.9274	0.35487
2.422	48.678	-15368	2347.1	-0.22175	0.9273	0.35556
2.424	48.663	-15369	2347.1	-0.22155	0.9272	0.35624
2.426	48.658	-15368	2347.1	-0.22116	0.92691	0.35644
2.428	48.667	-15368	2347.1	-0.22077	0.92661	0.35663
2.43	48.666	-15369	2347.1	-0.22038	0.92632	0.35683
2.432	48.663	-15369	2347.1	-0.21999	0.92603	0.35702
2.434	48.66	-15368	2347.1	-0.2196	0.92574	0.35722
2.436	48.666	-15367	2347.2	-0.22028	0.92632	0.35673
2.438	48.663	-15371	2347.2	-0.22097	0.92691	0.35624
2.44	48.656	-15374	2347.3	-0.22165	0.92749	0.35575
2.442	48.645	-15373	2347.4	-0.22233	0.92808	0.35526
2.444	48.637	-15373	2347.4	-0.22302	0.92866	0.35478
2.446	48.639	-15374	2347.5	-0.22311	0.92857	0.35507
2.448	48.634	-15375	2347.6	-0.22321	0.92847	0.35536
2.45	48.639	-15373	2347.7	-0.22331	0.92837	0.35565
2.452	48.637	-15372	2347.8	-0.22341	0.92827	0.35595
2.454	48.624	-15371	2348	-0.2235	0.92818	0.35624
2.456	48.631	-15371	2348.1	-0.22321	0.92847	0.35575
2.458	48.636	-15369	2348.3	-0.22292	0.92876	0.35526
2.46	48.622	-15367	2348.5	-0.22263	0.92905	0.35478
2.462	48.612	-15370	2348.7	-0.22233	0.92935	0.35429
2.464	48.616	-15373	2348.9	-0.22204	0.92964	0.3538
2.466	48.62	-15376	2349.2	-0.22243	0.92974	0.35419
2.468	48.627	-15378	2349.5	-0.22282	0.92984	0.35458
2.47	48.627	-15379	2349.8	-0.22321	0.92993	0.35497
2.472	48.621	-15380	2350.2	-0.2236	0.93003	0.35536
2.474	48.614	-15372	2350.5	-0.22399	0.93013	0.35575
2.476	48.609	-15364	2350.9	-0.22282	0.92798	0.35614
2.478	48.605	-15364	2351.3	-0.22165	0.92583	0.35653
2.48	48.605	-15365	2351.6	-0.22048	0.92369	0.35692
2.482	48.616	-15361	2352	-0.21931	0.92154	0.35731
2.484	48.625	-15358	2352.4	-0.21814	0.91939	0.3577
2.486	48.624	-15363	2352.9	-0.21882	0.92086	0.3578
2.488	48.629	-15369	2353.3	-0.2195	0.92232	0.3579
2.49	48.632	-15371	2353.8	-0.22019	0.92378	0.358
2.492	48.632	-15374	2354.3	-0.22087	0.92525	0.35809
2.494	48.629	-15372	2354.8	-0.22155	0.92671	0.35819
2.496	48.631	-15371	2355.4	-0.22126	0.92642	0.35878
2.498	48.631	-15371	2356	-0.22097	0.92613	0.35936
2.5	48.624	-15371	2356.5	-0.22067	0.92583	0.35995
2.502	48.638	-15366	2357.1	-0.22038	0.92554	0.36053
2.504	48.641	-15361	2357.7	-0.22009	0.92525	0.36112
2.506	48.635	-15358	2358.2	-0.2196	0.92417	0.36083
2.508	48.639	-15355	2358.8	-0.21911	0.9231	0.36053
2.51	48.638	-15362	2359.3	-0.21862	0.92203	0.36024
2.512	48.644	-15369	2359.9	-0.21814	0.92095	0.35995
2.514	48.644	-15368	2360.4	-0.21765	0.91988	0.35966
2.516	48.642	-15367	2361	-0.21862	0.92154	0.35927
2.518	48.638	-15368	2361.5	-0.2196	0.9232	0.35888
2.52	48.633	-15368	2362	-0.22058	0.92486	0.35848
2.522	48.634	-15363	2362.5	-0.22155	0.92652	0.35809
2.524	48.632	-15358	2363	-0.22253	0.92818	0.3577
2.526	48.619	-15357	2363.5	-0.22175	0.92759	0.3577
2.528	48.621	-15357	2364	-0.22097	0.927	0.3577
2.53	48.627	-15364	2364.4	-0.22019	0.92642	0.3577
2.532	48.625	-15371	2364.8	-0.2194	0.92583	0.3577
2.534	48.626	-15369	2365.2	-0.21862	0.92525	0.3577
2.536	48.618	-15366	2365.5	-0.21911	0.92593	0.358
2.538	48.615	-15368	2365.9	-0.2196	0.92661	0.35829
2.54	48.617	-15370	2366.2	-0.22009	0.9273	0.35858
2.542	48.616	-15365	2366.5	-0.22058	0.92798	0.35888
2.544	48.613	-15360	2366.8	-0.22106	0.92866	0.35917
2.546	48.616	-15355	2367.1	-0.22165	0.92876	0.35839
2.548	48.621	-15349	2367.3	-0.22224	0.92886	0.35761
2.55	48.622	-15349	2367.6	-0.22282	0.92896	0.35683
2.552	48.617	-15350	2367.8	-0.22341	0.92905	0.35604
2.554	48.62	-15352	2367.9	-0.22399	0.92915	0.35526
2.556	48.632	-15354	2368.1	-0.22458	0.92827	0.35595
2.558	48.636	-15352	2368.3	-0.22516	0.9274	0.35663
2.56	48.629	-15350	2368.4	-0.22575	0.92652	0.35731
2.562	48.628	-15350	2368.5	-0.22633	0.92564	0.358
2.564	48.643	-15351	2368.6	-0.22692	0.92476	0.35868
2.566	48.657	-15352	2368.7	-0.22565	0.92525	0.3577
2.568	48.659	-15353	2368.7	-0.22438	0.92574	0.35673
2.57	48.661	-15351	2368.8	-0.22311	0.92622	0.35575
2.572	48.663	-15349	2368.7	-0.22184	0.92671	0.35478
2.574	48.662	-15342	2368.7	-0.22058	0.9272	0.3538
2.576	48.663	-15335	2368.7	-0.2195	0.92613	0.35497
2.578	48.669	-15339	2368.7	-0.21843	0.92505	0.35614
2.58	48.672	-15343	2368.7	-0.21736	0.92398	0.35731
2.582	48.673	-15347	2368.6	-0.21628	0.92291	0.35848
2.584	48.673	-15350	2368.5	-0.21521	0.92183	0.35966
2.586	48.675	-15345	2368.5	-0.21638	0.92339	0.35819
2.588	48.682	-15341	2368.4	-0.21755	0.92496	0.35673
2.59	48.69	-15342	2368.3	-0.21872	0.92652	0.35526
2.592	48.691	-15343	2368.2	-0.21989	0.92808	0.3538
2.594	48.695	-15341	2368.1	-0.22106	0.92964	0.35234
2.596	48.701	-15340	2368	-0.22028	0.92984	0.35234
2.598	48.693	-15343	2367.9	-0.2195	0.93003	0.35234
2.6	48.693	-15345	2367.8	-0.21872	0.93023	0.35234
2.602	48.701	-15344	2367.6	-0.21794	0.93042	0.35234
2.604	48.698	-15343	2367.4	-0.21716	0.93062	0.35234
2.606	48.712	-15341	2367.2	-0.21784	0.92915	0.35351
2.608	48.713	-15340	2367	-0.21853	0.92769	0.35468
2.61	48.709	-15335	2366.8	-0.21921	0.92622	0.35585
2.612	48.692	-15331	2366.6	-0.21989	0.92476	0.35702
2.614	48.681	-15330	2366.4	-0.22058	0.9233	0.35819
2.616	48.695	-15330	2366.2	-0.2197	0.923	0.35809
2.618	48.702	-15330	2366	-0.21882	0.92271	0.358
2.62	48.7	-15330	2365.7	-0.21794	0.92242	0.3579
2.622	48.697	-15334	2365.4	-0.21706	0.92212	0.3578
2.624	48.694	-15338	2365.2	-0.21618	0.92183	0.3577
2.626	48.691	-15338	2364.9	-0.21716	0.923	0.35731
2.628	48.687	-15338	2364.6	-0.21814	0.92417	0.35692
2.63	48.682	-15339	2364.3	-0.21911	0.92535	0.35653
2.632	48.689	-15341	2363.9	-0.22009	0.92652	0.35614
2.634	48.694	-15336	2363.6	-0.22106	0.92769	0.35575
2.636	48.693	-15332	2363.3	-0.22106	0.92749	0.35526
2.638	48.692	-15339	2363	-0.22106	0.9273	0.35478
2.64	48.693	-15347	2362.6	-0.22106	0.9271	0.35429
2.642	48.696	-15343	2362.4	-0.22106	0.92691	0.3538
2.644	48.694	-15339	2362.1	-0.22106	0.92671	0.35331
2.646	48.689	-15344	2361.8	-0.22087	0.92613	0.3537
2.648	48.686	-15349	2361.5	-0.22067	0.92554	0.35409
2.65	48.688	-15345	2361.2	-0.22048	0.92496	0.35448
2.652	48.687	-15341	2361	-0.22028	0.92437	0.35487
2.654	48.683	-15342	2360.7	-0.22009	0.92378	0.35526
2.656	48.687	-15342	2360.4	-0.22009	0.92339	0.35526
2.658	48.69	-15341	2360	-0.22009	0.923	0.35526
2.66	48.685	-15340	2359.8	-0.22009	0.92261	0.35526
2.662	48.679	-15337	2359.6	-0.22009	0.92222	0.35526
2.664	48.679	-15334	2359.3	-0.22009	0.92183	0.35526
2.666	48.689	-15338	2359.1	-0.21989	0.92232	0.35624
2.668	48.696	-15342	2358.8	-0.2197	0.92281	0.35722
2.67	48.695	-15344	2358.6	-0.2195	0.9233	0.35819
2.672	48.695	-15346	2358.3	-0.21931	0.92378	0.35917
2.674	48.695	-15347	2358.1	-0.21911	0.92427	0.36014
2.676	48.687	-15348	2357.9	-0.21921	0.92486	0.35956
2.678	48.672	-15347	2357.8	-0.21931	0.92544	0.35897
2.68	48.687	-15345	2357.6	-0.2194	0.92603	0.35839
2.682	48.687	-15347	2357.4	-0.2195	0.92661	0.3578
2.684	48.688	-15350	2357.2	-0.2196	0.9272	0.35722
2.686	48.676	-15345	2357.2	-0.21921	0.92652	0.3577
2.688	48.666	-15341	2357.1	-0.21882	0.92583	0.35819
2.69	48.677	-15338	2357	-0.21843	0.92515	0.35868
2.692	48.683	-15335	2356.9	-0.21804	0.92447	0.35917
2.694	48.687	-15337	2356.9	-0.21765	0.92378	0.35966
2.696	48.681	-15339	2356.8	-0.21804	0.92369	0.35946
2.698	48.673	-15344	2356.8	-0.21843	0.92359	0.35927
2.7	48.672	-15349	2356.7	-0.21882	0.92349	0.35907
2.702	48.672	-15354	2356.7	-0.21921	0.92339	0.35888
2.704	48.674	-15359	2356.7	-0.2196	0.9233	0.35868
2.706	48.671	-15357	2356.7	-0.21872	0.92339	0.35907
2.708	48.658	-15355	2356.7	-0.21784	0.92349	0.35946
2.71	48.651	-15352	2356.8	-0.21696	0.92359	0.35985
2.712	48.66	-15350	2356.8	-0.21609	0.92369	0.36024
2.714	48.663	-15348	2356.8	-0.21521	0.92378	0.36063
2.716	48.66	-15346	2356.8	-0.2156	0.92349	0.36083
2.718	48.662	-15343	2356.9	-0.21599	0.9232	0.36102
2.72	48.663	-15340	2356.9	-0.21638	0.92291	0.36122
2.722	48.661	-15341	2357	-0.21677	0.92261	0.36141
2.724	48.662	-15342	2357	-0.21716	0.92232	0.36161
2.726	48.656	-15343	2357.1	-0.21814	0.9233	0.36092
2.728	48.641	-15345	2357.3	-0.21911	0.92427	0.36024
2.73	48.616	-15342	2357.3	-0.22009	0.92525	0.35956
2.732	48.593	-15340	2357.4	-0.22106	0.92622	0.35888
2.734	48.58	-15343	2357.5	-0.22204	0.9272	0.35819
2.736	48.574	-15345	2357.6	-0.22048	0.92759	0.35673
2.738	48.573	-15350	2357.7	-0.21892	0.92798	0.35526
2.74	48.577	-15355	2357.9	-0.21736	0.92837	0.3538
2.742	48.585	-15354	2358	-0.21579	0.92876	0.35234
2.744	48.593	-15353	2358.2	-0.21423	0.92915	0.35087
2.746	48.601	-15355	2358.4	-0.2156	0.92915	0.35195
2.748	48.61	-15358	2358.6	-0.21696	0.92915	0.35302
2.75	48.62	-15359	2358.7	-0.21833	0.92915	0.35409
2.752	48.626	-15360	2358.9	-0.2197	0.92915	0.35517
2.754	48.625	-15358	2359	-0.22106	0.92915	0.35624
2.756	48.628	-15356	2359.2	-0.22116	0.92944	0.35575
2.758	48.621	-15355	2359.3	-0.22126	0.92974	0.35526
2.76	48.619	-15354	2359.4	-0.22136	0.93003	0.35478
2.762	48.622	-15354	2359.5	-0.22145	0.93032	0.35429
2.764	48.635	-15353	2359.6	-0.22155	0.93062	0.3538
2.766	48.643	-15354	2359.8	-0.22145	0.93052	0.3537
2.768	48.624	-15356	2359.9	-0.22136	0.93042	0.3536
2.77	48.62	-15353	2360.1	-0.22126	0.93032	0.35351
2.772	48.62	-15351	2360.2	-0.22116	0.93023	0.35341
2.774	48.627	-15350	2360.2	-0.22106	0.93013	0.35331
2.776	48.639	-15350	2360.3	-0.22126	0.93003	0.3538
2.778	48.653	-15350	2360.4	-0.22145	0.92993	0.35429
2.78	48.68	-15350	2360.5	-0.22165	0.92984	0.35478
2.782	48.703	-15349	2360.6	-0.22184	0.92974	0.35526
2.784	48.703	-15348	2360.7	-0.22204	0.92964	0.35575
2.786	48.698	-15350	2360.7	-0.22126	0.92925	0.35546
2.788	48.708	-15352	2360.8	-0.22048	0.92886	0.35517
2.79	48.716	-15354	2360.9	-0.2197	0.92847	0.35487
2.792	48.716	-15356	2360.9	-0.21892	0.92808	0.35458
2.794	48.722	-15354	2361	-0.21814	0.92769	0.35429
2.796	48.725	-15352	2361	-0.21765	0.92613	0.35546
2.798	48.722	-15355	2361.1	-0.21716	0.92456	0.35663
2.8	48.717	-15358	2361.1	-0.21667	0.923	0.3578
2.802	48.715	-15364	2361	-0.21618	0.92144	0.35897
2.804	48.715	-15370	2361	-0.2157	0.91988	0.36014
2.806	48.716	-15372	2361	-0.21599	0.92037	0.35985
2.808	48.717	-15374	2361	-0.21628	0.92086	0.35956
2.81	48.718	-15376	2361	-0.21657	0.92134	0.35927
2.812	48.72	-15378	2361	-0.21687	0.92183	0.35897
2.814	48.72	-15372	2361	-0.21716	0.92232	0.35868
2.816	48.719	-15366	2361	-0.21745	0.92212	0.35829
2.818	48.718	-15364	2360.9	-0.21775	0.92193	0.3579
2.82	48.717	-15361	2360.9	-0.21804	0.92173	0.35751
2.822	48.717	-15360	2360.9	-0.21833	0.92154	0.35712
2.824	48.716	-15358	2360.9	-0.21862	0.92134	0.35673
2.826	48.712	-15356	2360.9	-0.21843	0.92252	0.35692
2.828	48.713	-15354	2360.9	-0.21823	0.92369	0.35712
2.83	48.716	-15357	2360.9	-0.21804	0.92486	0.35731
2.832	48.722	-15359	2360.9	-0.21784	0.92603	0.35751
2.834	48.731	-15361	2360.9	-0.21765	0.9272	0.3577
2.836	48.732	-15363	2360.8	-0.21745	0.92652	0.3577
2.838	48.73	-15362	2360.7	-0.21726	0.92583	0.3577
2.84	48.734	-15362	2360.7	-0.21706	0.92515	0.3577
2.842	48.744	-15363	2360.6	-0.21687	0.92447	0.3577
2.844	48.766	-15364	2360.6	-0.21667	0.92378	0.3577
2.846	48.791	-15363	2360.5	-0.21726	0.92369	0.35731
2.848	48.822	-15362	2360.4	-0.21784	0.92359	0.35692
2.85	48.856	-15363	2360.4	-0.21843	0.92349	0.35653
2.852	48.883	-15364	2360.3	-0.21901	0.92339	0.35614
2.854	48.906	-15363	2360.2	-0.2196	0.9233	0.35575
2.856	48.9	-15361	2360	-0.2197	0.92349	0.35614
2.858	48.884	-15361	2359.9	-0.2198	0.92369	0.35653
2.86	48.835	-15360	2359.8	-0.21989	0.92388	0.35692
2.862	48.769	-15363	2359.7	-0.21999	0.92408	0.35731
2.864	48.694	-15367	2359.6	-0.22009	0.92427	0.3577
2.866	48.608	-15363	2359.5	-0.2195	0.92408	0.3578
2.868	48.538	-15359	2359.5	-0.21892	0.92388	0.3579
2.87	48.435	-15358	2359.4	-0.21833	0.92369	0.358
2.872	48.303	-15358	2359.3	-0.21775	0.92349	0.35809
2.874	48.148	-15360	2359.2	-0.21716	0.9233	0.35819
2.876	47.994	-15362	2359.1	-0.21745	0.92252	0.35731
2.878	47.831	-15363	2359	-0.21775	0.92173	0.35644
2.88	47.666	-15364	2358.8	-0.21804	0.92095	0.35556
2.882	47.526	-15364	2358.7	-0.21833	0.92017	0.35468
2.884	47.443	-15364	2358.6	-0.21862	0.91939	0.3538
2.886	47.427	-15364	2358.4	-0.21804	0.91968	0.3536
2.888	47.5	-15364	2358.3	-0.21745	0.91998	0.35341
2.89	47.654	-15366	2358.2	-0.21687	0.92027	0.35321
2.892	47.844	-15367	2358	-0.21628	0.92056	0.35302
2.894	48.027	-15369	2357.9	-0.2157	0.92086	0.35282
2.896	48.203	-15371	2357.8	-0.21628	0.92144	0.35273
2.898	48.375	-15371	2357.7	-0.21687	0.92203	0.35263
2.9	48.522	-15370	2357.7	-0.21745	0.92261	0.35253
2.902	48.616	-15372	2357.5	-0.21804	0.9232	0.35243
2.904	48.659	-15373	2357.4	-0.21862	0.92378	0.35234
2.906	48.697	-15370	2357.3	-0.21853	0.9231	0.35331
2.908	48.749	-15366	2357.2	-0.21843	0.92242	0.35429
2.91	48.789	-15366	2357.1	-0.21833	0.92173	0.35526
2.912	48.814	-15365	2357	-0.21823	0.92105	0.35624
2.914	48.815	-15359	2357	-0.21814	0.92037	0.35722
2.916	48.788	-15352	2356.9	-0.21872	0.92115	0.35702
2.918	48.755	-15356	2356.8	-0.21931	0.92193	0.35683
2.92	48.728	-15359	2356.7	-0.21989	0.92271	0.35663
2.922	48.714	-15357	2356.6	-0.22048	0.92349	0.35644
2.924	48.705	-15355	2356.6	-0.22106	0.92427	0.35624
2.926	48.693	-15360	2356.5	-0.21999	0.92408	0.35575
2.928	48.688	-15365	2356.4	-0.21892	0.92388	0.35526
2.93	48.698	-15366	2356.4	-0.21784	0.92369	0.35478
2.932	48.709	-15367	2356.3	-0.21677	0.92349	0.35429
2.934	48.705	-15366	2356.2	-0.2157	0.9233	0.3538
2.936	48.703	-15364	2356.2	-0.21579	0.92271	0.3539
2.938	48.706	-15366	2356.1	-0.21589	0.92212	0.354
2.94	48.71	-15368	2356	-0.21599	0.92154	0.35409
2.942	48.706	-15367	2355.9	-0.21609	0.92095	0.35419
2.944	48.707	-15367	2355.8	-0.21618	0.92037	0.35429
2.946	48.704	-15368	2355.8	-0.21648	0.92095	0.35497
2.948	48.711	-15369	2355.7	-0.21677	0.92154	0.35565
2.95	48.717	-15367	2355.7	-0.21706	0.92212	0.35634
2.952	48.706	-15365	2355.6	-0.21736	0.92271	0.35702
2.954	48.711	-15367	2355.6	-0.21765	0.9233	0.3577
2.956	48.721	-15369	2355.6	-0.21648	0.92339	0.3579
2.958	48.713	-15372	2355.5	-0.21531	0.92349	0.35809
2.96	48.705	-15374	2355.5	-0.21413	0.92359	0.35829
2.962	48.705	-15373	2355.4	-0.21296	0.92369	0.35848
2.964	48.702	-15373	2355.3	-0.21179	0.92378	0.35868
2.966	48.695	-15368	2355.2	-0.21316	0.92486	0.35819
2.968	48.691	-15362	2355.1	-0.21452	0.92593	0.3577
2.97	48.7	-15365	2355	-0.21589	0.927	0.35722
2.972	48.703	-15368	2354.9	-0.21726	0.92808	0.35673
2.974	48.698	-15371	2354.9	-0.21862	0.92915	0.35624
2.976	48.694	-15374	2354.8	-0.21892	0.92857	0.35624
2.978	48.692	-15369	2354.7	-0.21921	0.92798	0.35624
2.98	48.687	-15364	2354.6	-0.2195	0.9274	0.35624
2.982	48.68	-15367	2354.6	-0.2198	0.92681	0.35624
2.984	48.682	-15370	2354.5	-0.22009	0.92622	0.35624
2.986	48.684	-15372	2354.5	-0.2195	0.92642	0.35604
2.988	48.679	-15374	2354.4	-0.21892	0.92661	0.35585
2.99	48.673	-15370	2354.4	-0.21833	0.92681	0.35565
2.992	48.669	-15365	2354.4	-0.21775	0.927	0.35546
2.994	48.673	-15372	2354.4	-0.21716	0.9272	0.35526
2.996	48.674	-15379	2354.4	-0.21755	0.9273	0.35487
2.998	48.666	-15370	2354.4	-0.21794	0.9274	0.35448
3	48.664	-15362	2354.4	-0.21833	0.92749	0.35409
3.002	48.664	-15368	2354.4	-0.21872	0.92759	0.3537
3.004	48.658	-15375	2354.5	-0.21911	0.92769	0.35331
3.006	48.644	-15374	2354.5	-0.21911	0.92671	0.35331
3.008	48.639	-15373	2354.5	-0.21911	0.92574	0.35331
3.01	48.648	-15371	2354.6	-0.21911	0.92476	0.35331
3.012	48.653	-15369	2354.6	-0.21911	0.92378	0.35331
3.014	48.648	-15370	2354.7	-0.21911	0.92281	0.35331
3.016	48.632	-15371	2354.8	-0.21901	0.923	0.35439
3.018	48.633	-15373	2354.8	-0.21892	0.9232	0.35546
3.02	48.635	-15376	2354.9	-0.21882	0.92339	0.35653
3.022	48.639	-15374	2355	-0.21872	0.92359	0.35761
3.024	48.638	-15373	2355	-0.21862	0.92378	0.35868
3.026	48.632	-15372	2355.1	-0.21833	0.92339	0.358
3.028	48.63	-15371	2355.3	-0.21804	0.923	0.35731
3.03	48.622	-15368	2355.4	-0.21775	0.92261	0.35663
3.032	48.617	-15365	2355.6	-0.21745	0.92222	0.35595
3.034	48.599	-15369	2355.8	-0.21716	0.92183	0.35526
3.036	48.612	-15373	2356	-0.21736	0.92183	0.35546
3.038	48.615	-15373	2356.3	-0.21755	0.92183	0.35565
3.04	48.606	-15372	2356.6	-0.21775	0.92183	0.35585
3.042	48.605	-15374	2356.9	-0.21794	0.92183	0.35604
3.044	48.611	-15376	2357.2	-0.21814	0.92183	0.35624
3.046	48.611	-15365	2357.6	-0.21784	0.92271	0.35614
3.048	48.606	-15355	2358	-0.21755	0.92359	0.35604
3.05	48.597	-15359	2358.3	-0.21726	0.92447	0.35595
3.052	48.593	-15363	2358.7	-0.21696	0.92535	0.35585
3.054	48.603	-15364	2359.1	-0.21667	0.92622	0.35575
3.056	48.61	-15365	2359.5	-0.21657	0.92564	0.35624
3.058	48.605	-15368	2360	-0.21648	0.92505	0.35673
3.06	48.605	-15371	2360.4	-0.21638	0.92447	0.35722
3.062	48.607	-15375	2360.9	-0.21628	0.92388	0.3577
3.064	48.608	-15378	2361.4	-0.21618	0.9233	0.35819
3.066	48.609	-15373	2361.9	-0.21687	0.92339	0.3577
3.068	48.609	-15368	2362.5	-0.21755	0.92349	0.35722
3.07	48.605	-15367	2363	-0.21823	0.92359	0.35673
3.072	48.606	-15367	2363.6	-0.21892	0.92369	0.35624
3.074	48.613	-15367	2364.1	-0.2196	0.92378	0.35575
3.076	48.619	-15367	2364.7	-0.2195	0.92398	0.35634
3.078	48.62	-15370	2365.2	-0.2194	0.92417	0.35692
3.08	48.616	-15372	2365.8	-0.21931	0.92437	0.35751
3.082	48.614	-15370	2366.3	-0.21921	0.92456	0.35809
3.084	48.617	-15368	2366.9	-0.21911	0.92476	0.35868
3.086	48.62	-15367	2367.4	-0.21872	0.92496	0.3577
3.088	48.621	-15365	2368	-0.21833	0.92515	0.35673
3.09	48.618	-15364	2368.5	-0.21794	0.92535	0.35575
3.092	48.615	-15363	2369	-0.21755	0.92554	0.35478
3.094	48.611	-15361	2369.5	-0.21716	0.92574	0.3538
3.096	48.602	-15360	2370	-0.21765	0.92593	0.35448
3.098	48.605	-15360	2370.5	-0.21814	0.92613	0.35517
3.1	48.607	-15361	2371	-0.21862	0.92632	0.35585
3.102	48.598	-15359	2371.4	-0.21911	0.92652	0.35653
3.104	48.595	-15358	2371.8	-0.2196	0.92671	0.35722
3.106	48.598	-15362	2372.2	-0.21833	0.92593	0.35663
3.108	48.597	-15366	2372.6	-0.21706	0.92515	0.35604
3.11	48.588	-15365	2372.9	-0.21579	0.92437	0.35546
3.112	48.59	-15364	2373.3	-0.21452	0.92359	0.35487
3.114	48.597	-15365	2373.6	-0.21326	0.92281	0.35429
3.116	48.591	-15366	2373.9	-0.21355	0.92291	0.3539
3.118	48.597	-15365	2374.1	-0.21384	0.923	0.35351
3.12	48.598	-15365	2374.4	-0.21413	0.9231	0.35312
3.122	48.597	-15363	2374.6	-0.21443	0.9232	0.35273
3.124	48.593	-15361	2374.8	-0.21472	0.9233	0.35234
3.126	48.59	-15361	2375	-0.21531	0.92242	0.35253
3.128	48.598	-15361	2375.2	-0.21589	0.92154	0.35273
3.13	48.609	-15358	2375.4	-0.21648	0.92066	0.35292
3.132	48.615	-15356	2375.5	-0.21706	0.91978	0.35312
3.134	48.623	-15356	2375.6	-0.21765	0.9189	0.35331
3.136	48.619	-15355	2375.7	-0.21755	0.919	0.3538
3.138	48.615	-15357	2375.8	-0.21745	0.9191	0.35429
3.14	48.622	-15359	2375.9	-0.21736	0.9192	0.35478
3.142	48.623	-15353	2375.9	-0.21726	0.91929	0.35526
3.144	48.63	-15347	2376	-0.21716	0.91939	0.35575
3.146	48.635	-15347	2375.9	-0.21745	0.92017	0.35595
3.148	48.633	-15347	2375.9	-0.21775	0.92095	0.35614
3.15	48.635	-15347	2375.9	-0.21804	0.92173	0.35634
3.152	48.639	-15347	2375.8	-0.21833	0.92252	0.35653
3.154	48.648	-15345	2375.7	-0.21862	0.9233	0.35673
3.156	48.658	-15343	2375.6	-0.21833	0.92359	0.35644
3.158	48.663	-15343	2375.4	-0.21804	0.92388	0.35614
3.16	48.665	-15343	2375.3	-0.21775	0.92417	0.35585
3.162	48.671	-15343	2375.1	-0.21745	0.92447	0.35556
3.164	48.672	-15344	2375	-0.21716	0.92476	0.35526
3.166	48.666	-15343	2374.8	-0.21696	0.92437	0.35507
3.168	48.664	-15342	2374.6	-0.21677	0.92398	0.35487
3.17	48.665	-15343	2374.4	-0.21657	0.92359	0.35468
3.172	48.666	-15343	2374.2	-0.21638	0.9232	0.35448
3.174	48.675	-15341	2374	-0.21618	0.92281	0.35429
3.176	48.683	-15339	2373.8	-0.21687	0.92339	0.35439
3.178	48.682	-15342	2373.5	-0.21755	0.92398	0.35448
3.18	48.672	-15346	2373.3	-0.21823	0.92456	0.35458
3.182	48.674	-15348	2373	-0.21892	0.92515	0.35468
3.184	48.676	-15350	2372.8	-0.2196	0.92574	0.35478
3.186	48.665	-15348	2372.5	-0.21882	0.92613	0.35458
3.188	48.66	-15345	2372.2	-0.21804	0.92652	0.35439
3.19	48.669	-15341	2372	-0.21726	0.92691	0.35419
3.192	48.668	-15338	2371.7	-0.21648	0.9273	0.354
3.194	48.668	-15338	2371.4	-0.2157	0.92769	0.3538
3.196	48.666	-15339	2371.1	-0.2157	0.92671	0.35429
3.198	48.662	-15342	2370.7	-0.2157	0.92574	0.35478
3.2	48.661	-15344	2370.4	-0.2157	0.92476	0.35526
3.202	48.658	-15342	2370.1	-0.2157	0.92378	0.35575
3.204	48.658	-15341	2369.7	-0.2157	0.92281	0.35624
3.206	48.662	-15339	2369.4	-0.2157	0.92252	0.35556
3.208	48.666	-15337	2369.1	-0.2157	0.92222	0.35487
3.21	48.668	-15340	2368.7	-0.2157	0.92193	0.35419
3.212	48.668	-15343	2368.4	-0.2157	0.92164	0.35351
3.214	48.67	-15345	2368	-0.2157	0.92134	0.35282
3.216	48.672	-15346	2367.6	-0.21413	0.923	0.35234
3.218	48.666	-15344	2367.3	-0.21257	0.92466	0.35185
3.22	48.673	-15342	2366.9	-0.21101	0.92632	0.35136
3.222	48.672	-15339	2366.6	-0.20945	0.92798	0.35087
3.224	48.661	-15336	2366.3	-0.20789	0.92964	0.35038
3.226	48.651	-15339	2365.9	-0.2075	0.92964	0.35068
3.228	48.653	-15342	2365.6	-0.20711	0.92964	0.35097
3.23	48.651	-15344	2365.3	-0.20672	0.92964	0.35126
3.232	48.652	-15346	2365	-0.20633	0.92964	0.35156
3.234	48.656	-15346	2364.7	-0.20594	0.92964	0.35185
3.236	48.657	-15347	2364.4	-0.20603	0.92993	0.35165
3.238	48.654	-15346	2364.1	-0.20613	0.93023	0.35146
3.24	48.653	-15344	2363.8	-0.20623	0.93052	0.35126
3.242	48.65	-15343	2363.6	-0.20633	0.93081	0.35107
3.244	48.651	-15342	2363.3	-0.20642	0.9311	0.35087
3.246	48.651	-15342	2363.1	-0.20701	0.93071	0.35087
3.248	48.646	-15341	2362.9	-0.2076	0.93032	0.35087
3.25	48.643	-15341	2362.6	-0.20818	0.92993	0.35087
3.252	48.647	-15341	2362.4	-0.20877	0.92954	0.35087
3.254	48.653	-15341	2362.1	-0.20935	0.92915	0.35087
3.256	48.66	-15342	2361.9	-0.20877	0.92964	0.35058
3.258	48.667	-15341	2361.7	-0.20818	0.93013	0.35029
3.26	48.664	-15341	2361.6	-0.2076	0.93062	0.34999
3.262	48.65	-15341	2361.4	-0.20701	0.9311	0.3497
3.264	48.638	-15341	2361.2	-0.20642	0.93159	0.34941
3.266	48.642	-15342	2361.1	-0.20652	0.93169	0.34902
3.268	48.652	-15343	2361	-0.20662	0.93179	0.34863
3.27	48.635	-15345	2361	-0.20672	0.93188	0.34824
3.272	48.633	-15347	2360.9	-0.20681	0.93198	0.34785
3.274	48.63	-15345	2360.8	-0.20691	0.93208	0.34746
3.276	48.627	-15344	2360.8	-0.20662	0.93237	0.34755
3.278	48.624	-15342	2360.7	-0.20633	0.93267	0.34765
3.28	48.625	-15340	2360.7	-0.20603	0.93296	0.34775
3.282	48.635	-15343	2360.7	-0.20574	0.93325	0.34785
3.284	48.635	-15346	2360.7	-0.20545	0.93354	0.34794
3.286	48.633	-15346	2360.7	-0.20545	0.93306	0.34814
3.288	48.625	-15347	2360.8	-0.20545	0.93257	0.34833
3.29	48.625	-15346	2360.8	-0.20545	0.93208	0.34853
3.292	48.629	-15346	2360.8	-0.20545	0.93159	0.34872
3.294	48.625	-15347	2360.8	-0.20545	0.9311	0.34892
3.296	48.625	-15349	2360.9	-0.20535	0.93101	0.34824
3.298	48.612	-15349	2361	-0.20525	0.93091	0.34755
3.3	48.586	-15350	2361.1	-0.20516	0.93081	0.34687
3.302	48.576	-15351	2361.2	-0.20506	0.93071	0.34619
3.304	48.571	-15352	2361.3	-0.20496	0.93062	0.3455
3.306	48.556	-15351	2361.5	-0.20564	0.93101	0.34589
3.308	48.542	-15351	2361.6	-0.20633	0.9314	0.34628
3.31	48.544	-15353	2361.8	-0.20701	0.93179	0.34668
3.312	48.549	-15356	2361.9	-0.20769	0.93218	0.34707
3.314	48.555	-15353	2362.1	-0.20838	0.93257	0.34746
3.316	48.565	-15350	2362.2	-0.2076	0.93198	0.34765
3.318	48.575	-15343	2362.4	-0.20681	0.9314	0.34785
3.32	48.587	-15337	2362.5	-0.20603	0.93081	0.34804
3.322	48.601	-15339	2362.7	-0.20525	0.93023	0.34824
3.324	48.601	-15341	2362.8	-0.20447	0.92964	0.34843
3.326	48.587	-15345	2363	-0.20574	0.92944	0.34882
3.328	48.587	-15350	2363.2	-0.20701	0.92925	0.34921
3.33	48.598	-15349	2363.4	-0.20828	0.92905	0.3496
3.332	48.601	-15349	2363.5	-0.20955	0.92886	0.34999
3.334	48.599	-15353	2363.7	-0.21082	0.92866	0.35038
3.336	48.596	-15357	2363.8	-0.20974	0.92954	0.3499
3.338	48.594	-15351	2363.9	-0.20867	0.93042	0.34941
3.34	48.595	-15344	2364	-0.2076	0.9313	0.34892
3.342	48.598	-15344	2364.1	-0.20652	0.93218	0.34843
3.344	48.6	-15344	2364.3	-0.20545	0.93306	0.34794
3.346	48.606	-15348	2364.4	-0.20584	0.93306	0.34824
3.348	48.628	-15352	2364.4	-0.20623	0.93306	0.34853
3.35	48.65	-15351	2364.5	-0.20662	0.93306	0.34882
3.352	48.664	-15350	2364.7	-0.20701	0.93306	0.34912
3.354	48.67	-15352	2364.8	-0.2074	0.93306	0.34941
3.356	48.676	-15353	2364.8	-0.2072	0.93296	0.34833
3.358	48.685	-15352	2364.8	-0.20701	0.93286	0.34726
3.36	48.689	-15351	2364.9	-0.20681	0.93276	0.34619
3.362	48.69	-15351	2364.9	-0.20662	0.93267	0.34511
3.364	48.692	-15350	2365	-0.20642	0.93257	0.34404
3.366	48.682	-15349	2365	-0.20662	0.93257	0.34472
3.368	48.68	-15348	2365	-0.20681	0.93257	0.34541
3.37	48.677	-15352	2365	-0.20701	0.93257	0.34609
3.372	48.682	-15356	2365	-0.2072	0.93257	0.34677
3.374	48.687	-15353	2365	-0.2074	0.93257	0.34746
3.376	48.678	-15350	2364.8	-0.20691	0.93237	0.34804
3.378	48.677	-15349	2364.7	-0.20642	0.93218	0.34863
3.38	48.683	-15348	2364.5	-0.20594	0.93198	0.34921
3.382	48.69	-15356	2364.5	-0.20545	0.93179	0.3498
3.384	48.686	-15363	2364.4	-0.20496	0.93159	0.35038
3.386	48.684	-15355	2364.5	-0.20603	0.93042	0.35077
3.388	48.685	-15348	2364.6	-0.20711	0.92925	0.35116
3.39	48.691	-15347	2364.6	-0.20818	0.92808	0.35156
3.392	48.701	-15346	2364.6	-0.20925	0.92691	0.35195
3.394	48.704	-15348	2364.5	-0.21033	0.92574	0.35234
3.396	48.705	-15350	2364.5	-0.20906	0.92642	0.35175
3.398	48.69	-15352	2364.4	-0.20779	0.9271	0.35116
3.4	48.692	-15353	2364.4	-0.20652	0.92779	0.35058
3.402	48.7	-15349	2364.4	-0.20525	0.92847	0.34999
3.404	48.701	-15346	2364.3	-0.20398	0.92915	0.34941
3.406	48.7	-15348	2364.2	-0.20486	0.92925	0.34951
3.408	48.7	-15350	2364.1	-0.20574	0.92935	0.3496
3.41	48.703	-15348	2364.1	-0.20662	0.92944	0.3497
3.412	48.716	-15346	2364	-0.2075	0.92954	0.3498
3.414	48.729	-15349	2363.9	-0.20838	0.92964	0.3499
3.416	48.742	-15352	2363.8	-0.20955	0.92769	0.35058
3.418	48.768	-15341	2363.8	-0.21072	0.92574	0.35126
3.42	48.808	-15331	2363.7	-0.21189	0.92378	0.35195
3.422	48.843	-15343	2363.5	-0.21306	0.92183	0.35263
3.424	48.859	-15355	2363.4	-0.21423	0.91988	0.35331
3.426	48.857	-15356	2363.3	-0.21433	0.92017	0.3537
3.428	48.829	-15356	2363.1	-0.21443	0.92047	0.35409
3.43	48.787	-15356	2363	-0.21452	0.92076	0.35448
3.432	48.733	-15356	2362.9	-0.21462	0.92105	0.35487
3.434	48.666	-15366	2362.7	-0.21472	0.92134	0.35526
3.436	48.581	-15376	2362.6	-0.21433	0.92144	0.35478
3.438	48.483	-15372	2362.4	-0.21394	0.92154	0.35429
3.44	48.382	-15369	2362.3	-0.21355	0.92164	0.3538
3.442	48.267	-15372	2362.2	-0.21316	0.92173	0.35331
3.444	48.117	-15376	2362.1	-0.21277	0.92183	0.35282
3.446	47.968	-15374	2361.9	-0.21316	0.92183	0.35302
3.448	47.825	-15372	2361.7	-0.21355	0.92183	0.35321
3.45	47.658	-15373	2361.6	-0.21394	0.92183	0.35341
3.452	47.506	-15374	2361.5	-0.21433	0.92183	0.3536
3.454	47.415	-15362	2361.4	-0.21472	0.92183	0.3538
3.456	47.404	-15350	2361.2	-0.21306	0.9233	0.35312
3.458	47.481	-15350	2361	-0.2114	0.92476	0.35243
3.46	47.63	-15351	2360.9	-0.20974	0.92622	0.35175
3.462	47.813	-15348	2360.8	-0.20808	0.92769	0.35107
3.464	47.993	-15346	2360.7	-0.20642	0.92915	0.35038
3.466	48.166	-15350	2360.6	-0.20623	0.92925	0.34931
3.468	48.349	-15354	2360.5	-0.20603	0.92935	0.34824
3.47	48.486	-15355	2360.3	-0.20584	0.92944	0.34716
3.472	48.572	-15356	2360.2	-0.20564	0.92954	0.34609
3.474	48.613	-15353	2360.2	-0.20545	0.92964	0.34502
3.476	48.657	-15351	2360.1	-0.20525	0.92896	0.34609
3.478	48.71	-15355	2360.1	-0.20506	0.92827	0.34716
3.48	48.748	-15360	2360	-0.20486	0.92759	0.34824
3.482	48.77	-15352	2359.9	-0.20467	0.92691	0.34931
3.484	48.768	-15345	2359.8	-0.20447	0.92622	0.35038
3.486	48.747	-15355	2359.8	-0.20457	0.92661	0.35009
3.488	48.718	-15364	2359.7	-0.20467	0.927	0.3498
3.49	48.691	-15363	2359.7	-0.20476	0.9274	0.34951
3.492	48.67	-15362	2359.7	-0.20486	0.92779	0.34921
3.494	48.658	-15365	2359.7	-0.20496	0.92818	0.34892
3.496	48.658	-15368	2359.6	-0.20545	0.92866	0.34882
3.498	48.656	-15371	2359.6	-0.20594	0.92915	0.34872
3.5	48.657	-15375	2359.6	-0.20642	0.92964	0.34863
3.502	48.674	-15373	2359.6	-0.20691	0.93013	0.34853
3.504	48.686	-15372	2359.6	-0.2074	0.93062	0.34843
3.506	48.678	-15367	2359.6	-0.20681	0.93032	0.34833
3.508	48.677	-15362	2359.5	-0.20623	0.93003	0.34824
3.51	48.684	-15363	2359.5	-0.20564	0.92974	0.34814
3.512	48.683	-15365	2359.4	-0.20506	0.92944	0.34804
3.514	48.678	-15365	2359.4	-0.20447	0.92915	0.34794
3.516	48.679	-15366	2359.3	-0.20476	0.93042	0.34804
3.518	48.685	-15366	2359.3	-0.20506	0.93169	0.34814
3.52	48.681	-15366	2359.3	-0.20535	0.93296	0.34824
3.522	48.677	-15364	2359.2	-0.20564	0.93423	0.34833
3.524	48.689	-15362	2359.2	-0.20594	0.9355	0.34843
3.526	48.692	-15363	2359.2	-0.20545	0.93432	0.34814
3.528	48.682	-15364	2359.1	-0.20496	0.93315	0.34785
3.53	48.691	-15366	2359.1	-0.20447	0.93198	0.34755
3.532	48.69	-15368	2359	-0.20398	0.93081	0.34726
3.534	48.686	-15368	2359	-0.2035	0.92964	0.34697
3.536	48.679	-15368	2359	-0.20457	0.93003	0.34785
3.538	48.673	-15366	2358.9	-0.20564	0.93042	0.34872
3.54	48.664	-15365	2358.9	-0.20672	0.93081	0.3496
3.542	48.668	-15362	2358.9	-0.20779	0.9312	0.35048
3.544	48.674	-15359	2358.9	-0.20886	0.93159	0.35136
3.546	48.671	-15359	2358.8	-0.20877	0.93228	0.35058
3.548	48.669	-15358	2358.8	-0.20867	0.93296	0.3498
3.55	48.663	-15360	2358.8	-0.20857	0.93364	0.34902
3.552	48.661	-15361	2358.9	-0.20847	0.93432	0.34824
3.554	48.661	-15363	2358.9	-0.20838	0.93501	0.34746
3.556	48.658	-15366	2358.9	-0.2076	0.93442	0.34726
3.558	48.655	-15365	2358.9	-0.20681	0.93384	0.34707
3.56	48.643	-15364	2359	-0.20603	0.93325	0.34687
3.562	48.64	-15364	2359	-0.20525	0.93267	0.34668
3.564	48.64	-15363	2359	-0.20447	0.93208	0.34648
3.566	48.642	-15364	2359.1	-0.20389	0.9313	0.34668
3.568	48.637	-15366	2359.2	-0.2033	0.93052	0.34687
3.57	48.635	-15366	2359.3	-0.20272	0.92974	0.34707
3.572	48.637	-15366	2359.3	-0.20213	0.92896	0.34726
3.574	48.636	-15366	2359.4	-0.20154	0.92818	0.34746
3.576	48.63	-15366	2359.4	-0.20193	0.92788	0.34872
3.578	48.626	-15364	2359.5	-0.20232	0.92759	0.34999
3.58	48.626	-15362	2359.5	-0.20272	0.9273	0.35126
3.582	48.626	-15366	2359.6	-0.20311	0.927	0.35253
3.584	48.621	-15371	2359.7	-0.2035	0.92671	0.3538
3.586	48.621	-15366	2359.7	-0.20574	0.92622	0.3538
3.588	48.621	-15361	2359.8	-0.20799	0.92574	0.3538
3.59	48.613	-15363	2359.8	-0.21023	0.92525	0.3538
3.592	48.61	-15365	2359.9	-0.21248	0.92476	0.3538
3.594	48.61	-15362	2360	-0.21472	0.92427	0.3538
3.596	48.605	-15359	2360.2	-0.21413	0.92466	0.35419
3.598	48.599	-15360	2360.3	-0.21355	0.92505	0.35458
3.6	48.605	-15360	2360.4	-0.21296	0.92544	0.35497
3.602	48.601	-15362	2360.5	-0.21238	0.92583	0.35536
3.604	48.594	-15363	2360.7	-0.21179	0.92622	0.35575
3.606	48.586	-15363	2360.9	-0.21218	0.92564	0.35546
3.608	48.572	-15363	2361.1	-0.21257	0.92505	0.35517
3.61	48.571	-15360	2361.3	-0.21296	0.92447	0.35487
3.612	48.591	-15357	2361.5	-0.21335	0.92388	0.35458
3.614	48.584	-15359	2361.8	-0.21374	0.9233	0.35429
3.616	48.578	-15361	2362.1	-0.21404	0.9232	0.35439
3.618	48.581	-15364	2362.4	-0.21433	0.9231	0.35448
3.62	48.582	-15366	2362.7	-0.21462	0.923	0.35458
3.622	48.581	-15360	2363.1	-0.21492	0.92291	0.35468
3.624	48.578	-15354	2363.4	-0.21521	0.92281	0.35478
3.626	48.581	-15357	2363.9	-0.2154	0.92193	0.35409
3.628	48.59	-15360	2364.3	-0.2156	0.92105	0.35341
3.63	48.59	-15362	2364.8	-0.21579	0.92017	0.35273
3.632	48.579	-15365	2365.3	-0.21599	0.91929	0.35204
3.634	48.582	-15359	2365.7	-0.21618	0.91842	0.35136
3.636	48.585	-15353	2366.2	-0.2157	0.9192	0.35204
3.638	48.586	-15360	2366.7	-0.21521	0.91998	0.35273
3.64	48.591	-15368	2367.2	-0.21472	0.92076	0.35341
3.642	48.589	-15366	2367.7	-0.21423	0.92154	0.35409
3.644	48.59	-15364	2368.2	-0.21374	0.92232	0.35478
3.646	48.59	-15362	2368.7	-0.21257	0.92359	0.3538
3.648	48.592	-15360	2369.3	-0.2114	0.92486	0.35282
3.65	48.596	-15359	2369.8	-0.21023	0.92613	0.35185
3.652	48.598	-15358	2370.3	-0.20906	0.9274	0.35087
3.654	48.594	-15359	2370.9	-0.20789	0.92866	0.3499
3.656	48.591	-15361	2371.4	-0.2072	0.92905	0.34951
3.658	48.591	-15360	2371.9	-0.20652	0.92944	0.34912
3.66	48.586	-15358	2372.4	-0.20584	0.92984	0.34872
3.662	48.585	-15356	2372.9	-0.20516	0.93023	0.34833
3.664	48.587	-15354	2373.4	-0.20447	0.93062	0.34794
3.666	48.585	-15355	2373.9	-0.20525	0.93013	0.34872
3.668	48.583	-15356	2374.4	-0.20603	0.92964	0.34951
3.67	48.581	-15356	2374.9	-0.20681	0.92915	0.35029
3.672	48.58	-15356	2375.3	-0.2076	0.92866	0.35107
3.674	48.579	-15358	2375.8	-0.20838	0.92818	0.35185
3.676	48.576	-15360	2376.2	-0.20955	0.9273	0.35273
3.678	48.571	-15358	2376.5	-0.21072	0.92642	0.3536
3.68	48.575	-15355	2376.9	-0.21189	0.92554	0.35448
3.682	48.585	-15352	2377.2	-0.21306	0.92466	0.35536
3.684	48.58	-15348	2377.5	-0.21423	0.92378	0.35624
3.686	48.569	-15349	2377.8	-0.2154	0.92359	0.35546
3.688	48.571	-15350	2378.1	-0.21657	0.92339	0.35468
3.69	48.574	-15353	2378.3	-0.21775	0.9232	0.3539
3.692	48.581	-15356	2378.5	-0.21892	0.923	0.35312
3.694	48.581	-15353	2378.7	-0.22009	0.92281	0.35234
3.696	48.573	-15349	2378.9	-0.2196	0.92291	0.35282
3.698	48.583	-15349	2379.1	-0.21911	0.923	0.35331
3.7	48.585	-15349	2379.2	-0.21862	0.9231	0.3538
3.702	48.583	-15348	2379.3	-0.21814	0.9232	0.35429
3.704	48.597	-15348	2379.4	-0.21765	0.9233	0.35478
3.706	48.602	-15349	2379.5	-0.21755	0.92359	0.35517
3.708	48.602	-15349	2379.6	-0.21745	0.92388	0.35556
3.71	48.608	-15350	2379.6	-0.21736	0.92417	0.35595
3.712	48.61	-15351	2379.6	-0.21726	0.92447	0.35634
3.714	48.611	-15348	2379.5	-0.21716	0.92476	0.35673
3.716	48.611	-15344	2379.5	-0.21784	0.92515	0.35653
3.718	48.616	-15342	2379.4	-0.21853	0.92554	0.35634
3.72	48.617	-15340	2379.4	-0.21921	0.92593	0.35614
3.722	48.617	-15340	2379.3	-0.21989	0.92632	0.35595
3.724	48.623	-15339	2379.1	-0.22058	0.92671	0.35575
3.726	48.631	-15339	2379	-0.2195	0.92593	0.35565
3.728	48.631	-15339	2378.9	-0.21843	0.92515	0.35556
3.73	48.636	-15337	2378.7	-0.21736	0.92437	0.35546
3.732	48.641	-15335	2378.5	-0.21628	0.92359	0.35536
3.734	48.642	-15334	2378.3	-0.21521	0.92281	0.35526
3.736	48.64	-15333	2378.2	-0.21443	0.92291	0.35487
3.738	48.642	-15336	2378	-0.21365	0.923	0.35448
3.74	48.648	-15339	2377.7	-0.21287	0.9231	0.35409
3.742	48.65	-15340	2377.5	-0.21208	0.9232	0.3537
3.744	48.647	-15341	2377.2	-0.2113	0.9233	0.35331
3.746	48.649	-15341	2376.9	-0.21238	0.9231	0.354
3.748	48.651	-15341	2376.7	-0.21345	0.92291	0.35468
3.75	48.652	-15341	2376.4	-0.21452	0.92271	0.35536
3.752	48.649	-15340	2376.1	-0.2156	0.92252	0.35604
3.754	48.646	-15337	2375.8	-0.21667	0.92232	0.35673
3.756	48.655	-15333	2375.5	-0.21696	0.92281	0.35673
3.758	48.667	-15332	2375.2	-0.21726	0.9233	0.35673
3.76	48.672	-15330	2374.8	-0.21755	0.92378	0.35673
3.762	48.67	-15331	2374.5	-0.21784	0.92427	0.35673
3.764	48.658	-15331	2374.2	-0.21814	0.92476	0.35673
3.766	48.644	-15334	2373.9	-0.21677	0.92496	0.35604
3.768	48.644	-15337	2373.5	-0.2154	0.92515	0.35536
3.77	48.644	-15332	2373.2	-0.21404	0.92535	0.35468
3.772	48.641	-15328	2372.8	-0.21267	0.92554	0.354
3.774	48.641	-15330	2372.5	-0.2113	0.92574	0.35331
3.776	48.648	-15332	2372.1	-0.21208	0.92515	0.3536
3.778	48.651	-15329	2371.8	-0.21287	0.92456	0.3539
3.78	48.647	-15326	2371.4	-0.21365	0.92398	0.35419
3.782	48.646	-15326	2371.1	-0.21443	0.92339	0.35448
3.784	48.64	-15326	2370.8	-0.21521	0.92281	0.35478
3.786	48.625	-15327	2370.4	-0.2156	0.92242	0.35487
3.788	48.625	-15329	2370.1	-0.21599	0.92203	0.35497
3.79	48.632	-15324	2369.7	-0.21638	0.92164	0.35507
3.792	48.636	-15319	2369.4	-0.21677	0.92125	0.35517
3.794	48.649	-15322	2369	-0.21716	0.92086	0.35526
3.796	48.648	-15325	2368.7	-0.21726	0.92252	0.35517
3.798	48.634	-15325	2368.4	-0.21736	0.92417	0.35507
3.8	48.63	-15325	2368.1	-0.21745	0.92583	0.35497
3.802	48.632	-15328	2367.8	-0.21755	0.92749	0.35487
3.804	48.636	-15332	2367.4	-0.21765	0.92915	0.35478
3.806	48.633	-15332	2367.1	-0.21726	0.92788	0.35497
3.808	48.631	-15332	2366.8	-0.21687	0.92661	0.35517
3.81	48.632	-15335	2366.6	-0.21648	0.92535	0.35536
3.812	48.634	-15338	2366.3	-0.21609	0.92408	0.35556
3.814	48.631	-15337	2366.1	-0.2157	0.92281	0.35575
3.816	48.621	-15336	2365.8	-0.2155	0.92261	0.35585
3.818	48.622	-15332	2365.5	-0.21531	0.92242	0.35595
3.82	48.624	-15329	2365.2	-0.21511	0.92222	0.35604
3.822	48.625	-15332	2365	-0.21492	0.92203	0.35614
3.824	48.627	-15334	2364.8	-0.21472	0.92183	0.35624
3.826	48.631	-15336	2364.6	-0.21462	0.92232	0.35565
3.828	48.633	-15337	2364.4	-0.21452	0.92281	0.35507
3.83	48.636	-15337	2364.2	-0.21443	0.9233	0.35448
3.832	48.636	-15337	2364.1	-0.21433	0.92378	0.3539
3.834	48.628	-15343	2363.9	-0.21423	0.92427	0.35331
3.836	48.619	-15349	2363.8	-0.21472	0.92427	0.354
3.838	48.614	-15350	2363.7	-0.21521	0.92427	0.35468
3.84	48.617	-15351	2363.6	-0.2157	0.92427	0.35536
3.842	48.624	-15347	2363.5	-0.21618	0.92427	0.35604
3.844	48.621	-15343	2363.4	-0.21667	0.92427	0.35673
3.846	48.608	-15343	2363.3	-0.21599	0.92417	0.35712
3.848	48.605	-15343	2363.3	-0.21531	0.92408	0.35751
3.85	48.617	-15342	2363.3	-0.21462	0.92398	0.3579
3.852	48.623	-15341	2363.2	-0.21394	0.92388	0.35829
3.854	48.612	-15344	2363.2	-0.21326	0.92378	0.35868
3.856	48.601	-15347	2363.1	-0.21365	0.92378	0.35848
3.858	48.6	-15346	2363.1	-0.21404	0.92378	0.35829
3.86	48.605	-15346	2363.1	-0.21443	0.92378	0.35809
3.862	48.605	-15342	2363.1	-0.21482	0.92378	0.3579
3.864	48.609	-15338	2363.1	-0.21521	0.92378	0.3577
3.866	48.607	-15338	2363.1	-0.21521	0.92349	0.35751
3.868	48.596	-15338	2363.2	-0.21521	0.9232	0.35731
3.87	48.575	-15342	2363.2	-0.21521	0.92291	0.35712
3.872	48.548	-15346	2363.2	-0.21521	0.92261	0.35692
3.874	48.534	-15342	2363.2	-0.21521	0.92232	0.35673
3.876	48.526	-15338	2363.3	-0.21589	0.92281	0.35644
3.878	48.522	-15341	2363.3	-0.21657	0.9233	0.35614
3.88	48.532	-15345	2363.4	-0.21726	0.92378	0.35585
3.882	48.528	-15346	2363.4	-0.21794	0.92427	0.35556
3.884	48.549	-15347	2363.5	-0.21862	0.92476	0.35526
3.886	48.556	-15346	2363.5	-0.21843	0.92505	0.35507
3.888	48.561	-15346	2363.5	-0.21823	0.92535	0.35487
3.89	48.564	-15348	2363.6	-0.21804	0.92564	0.35468
3.892	48.564	-15349	2363.6	-0.21784	0.92593	0.35448
3.894	48.573	-15353	2363.7	-0.21765	0.92622	0.35429
3.896	48.564	-15357	2363.7	-0.21775	0.92622	0.35497
3.898	48.567	-15353	2363.7	-0.21784	0.92622	0.35565
3.9	48.577	-15349	2363.8	-0.21794	0.92622	0.35634
3.902	48.583	-15348	2363.8	-0.21804	0.92622	0.35702
3.904	48.585	-15347	2363.9	-0.21814	0.92622	0.3577
3.906	48.584	-15350	2363.8	-0.21794	0.92642	0.35683
3.908	48.577	-15352	2363.8	-0.21775	0.92661	0.35595
3.91	48.572	-15350	2363.8	-0.21755	0.92681	0.35507
3.912	48.58	-15348	2363.8	-0.21736	0.927	0.35419
3.914	48.593	-15353	2363.8	-0.21716	0.9272	0.35331
3.916	48.607	-15358	2363.8	-0.21784	0.9274	0.3536
3.918	48.62	-15353	2363.8	-0.21853	0.92759	0.3539
3.92	48.628	-15349	2363.8	-0.21921	0.92779	0.35419
3.922	48.63	-15355	2363.8	-0.21989	0.92798	0.35448
3.924	48.64	-15361	2363.8	-0.22058	0.92818	0.35478
3.926	48.655	-15356	2363.7	-0.22038	0.92788	0.35497
3.928	48.665	-15351	2363.7	-0.22019	0.92759	0.35517
3.93	48.668	-15352	2363.6	-0.21999	0.9273	0.35536
3.932	48.668	-15352	2363.5	-0.2198	0.927	0.35556
3.934	48.675	-15348	2363.5	-0.2196	0.92671	0.35575
3.936	48.675	-15344	2363.4	-0.21921	0.92603	0.35565
3.938	48.668	-15346	2363.3	-0.21882	0.92535	0.35556
3.94	48.666	-15347	2363.2	-0.21843	0.92466	0.35546
3.942	48.661	-15351	2363.1	-0.21804	0.92398	0.35536
3.944	48.656	-15354	2363	-0.21765	0.9233	0.35526
3.946	48.658	-15351	2362.9	-0.21765	0.92291	0.35546
3.948	48.662	-15348	2362.8	-0.21765	0.92252	0.35565
3.95	48.672	-15353	2362.7	-0.21765	0.92212	0.35585
3.952	48.675	-15358	2362.6	-0.21765	0.92173	0.35604
3.954	48.673	-15352	2362.5	-0.21765	0.92134	0.35624
3.956	48.665	-15347	2362.3	-0.21628	0.92095	0.35546
3.958	48.665	-15349	2362.2	-0.21492	0.92056	0.35468
3.96	48.668	-15351	2362	-0.21355	0.92017	0.3539
3.962	48.673	-15351	2361.8	-0.21218	0.91978	0.35312
3.964	48.673	-15352	2361.7	-0.21082	0.91939	0.35234
3.966	48.671	-15350	2361.5	-0.2114	0.91949	0.35195
3.968	48.671	-15348	2361.3	-0.21199	0.91959	0.35156
3.97	48.672	-15342	2361.1	-0.21257	0.91968	0.35116
3.972	48.67	-15336	2360.9	-0.21316	0.91978	0.35077
3.974	48.667	-15342	2360.7	-0.21374	0.91988	0.35038
3.976	48.671	-15349	2360.5	-0.21326	0.92027	0.35077
3.978	48.677	-15351	2360.3	-0.21277	0.92066	0.35116
3.98	48.682	-15353	2360.1	-0.21228	0.92105	0.35156
3.982	48.69	-15352	2359.9	-0.21179	0.92144	0.35195
3.984	48.708	-15351	2359.7	-0.2113	0.92183	0.35234
3.986	48.742	-15354	2359.5	-0.21189	0.92125	0.35234
3.988	48.78	-15357	2359.3	-0.21248	0.92066	0.35234
3.99	48.822	-15354	2359.1	-0.21306	0.92008	0.35234
3.992	48.855	-15350	2358.8	-0.21365	0.91949	0.35234
3.994	48.86	-15349	2358.6	-0.21423	0.9189	0.35234
3.996	48.844	-15348	2358.4	-0.21394	0.91929	0.35234
3.998	48.815	-15348	2358.1	-0.21365	0.91968	0.35234
4	48.776	-15348	2357.9	-0.21335	0.92008	0.35234
4.002	48.72	-15358	2357.6	-0.21306	0.92047	0.35234
4.004	48.646	-15368	2357.3	-0.21277	0.92086	0.35234
4.006	48.559	-15363	2357.1	-0.21316	0.92105	0.35253
4.008	48.453	-15357	2356.9	-0.21355	0.92125	0.35273
4.01	48.339	-15355	2356.7	-0.21394	0.92144	0.35292
4.012	48.205	-15353	2356.5	-0.21433	0.92164	0.35312
4.014	48.044	-15351	2356.2	-0.21472	0.92183	0.35331
4.016	47.881	-15349	2356	-0.21521	0.92173	0.35321
4.018	47.719	-15353	2355.8	-0.2157	0.92164	0.35312
4.02	47.558	-15358	2355.6	-0.21618	0.92154	0.35302
4.022	47.429	-15359	2355.4	-0.21667	0.92144	0.35292
4.024	47.347	-15360	2355.2	-0.21716	0.92134	0.35282
4.026	47.327	-15358	2355	-0.21657	0.92183	0.35263
4.028	47.401	-15357	2354.8	-0.21599	0.92232	0.35243
4.03	47.579	-15358	2354.7	-0.2154	0.92281	0.35224
4.032	47.782	-15359	2354.5	-0.21482	0.9233	0.35204
4.034	47.972	-15357	2354.3	-0.21423	0.92378	0.35185
4.036	48.139	-15355	2354.1	-0.2155	0.92437	0.35224
4.038	48.298	-15350	2354	-0.21677	0.92496	0.35263
4.04	48.42	-15345	2353.8	-0.21804	0.92554	0.35302
4.042	48.504	-15352	2353.7	-0.21931	0.92613	0.35341
4.044	48.566	-15359	2353.5	-0.22058	0.92671	0.3538
4.046	48.643	-15357	2353.4	-0.22038	0.92574	0.35409
4.048	48.718	-15355	2353.3	-0.22019	0.92476	0.35439
4.05	48.746	-15357	2353.1	-0.21999	0.92378	0.35468
4.052	48.747	-15359	2352.9	-0.2198	0.92281	0.35497
4.054	48.725	-15366	2352.7	-0.2196	0.92183	0.35526
4.056	48.697	-15373	2352.5	-0.21911	0.923	0.35439
4.058	48.673	-15378	2352.4	-0.21862	0.92417	0.35351
4.06	48.655	-15383	2352.3	-0.21814	0.92535	0.35263
4.062	48.643	-15383	2352.1	-0.21765	0.92652	0.35175
4.064	48.627	-15383	2352	-0.21716	0.92769	0.35087
4.066	48.628	-15381	2351.9	-0.21696	0.927	0.35234
4.068	48.638	-15379	2351.7	-0.21677	0.92632	0.3538
4.07	48.641	-15377	2351.6	-0.21657	0.92564	0.35526
4.072	48.647	-15375	2351.4	-0.21638	0.92496	0.35673
4.074	48.657	-15367	2351.3	-0.21618	0.92427	0.35819
4.076	48.658	-15360	2351.2	-0.21648	0.92398	0.35819
4.078	48.661	-15359	2351	-0.21677	0.92369	0.35819
4.08	48.674	-15358	2350.9	-0.21706	0.92339	0.35819
4.082	48.673	-15359	2350.7	-0.21736	0.9231	0.35819
4.084	48.669	-15360	2350.5	-0.21765	0.92281	0.35819
4.086	48.671	-15363	2350.4	-0.21823	0.92417	0.35741
4.088	48.669	-15366	2350.3	-0.21882	0.92554	0.35663
4.09	48.656	-15365	2350.1	-0.2194	0.92691	0.35585
4.092	48.653	-15365	2350	-0.21999	0.92827	0.35507
4.094	48.657	-15363	2349.8	-0.22058	0.92964	0.35429
4.096	48.657	-15362	2349.7	-0.22028	0.92954	0.35341
4.098	48.663	-15370	2349.6	-0.21999	0.92944	0.35253
4.1	48.668	-15378	2349.5	-0.2197	0.92935	0.35165
4.102	48.665	-15377	2349.4	-0.2194	0.92925	0.35077
4.104	48.661	-15377	2349.2	-0.21911	0.92915	0.3499
4.106	48.656	-15373	2349.1	-0.21892	0.92866	0.35058
4.108	48.651	-15370	2349	-0.21872	0.92818	0.35126
4.11	48.647	-15367	2348.8	-0.21853	0.92769	0.35195
4.112	48.642	-15364	2348.8	-0.21833	0.9272	0.35263
4.114	48.641	-15365	2348.7	-0.21814	0.92671	0.35331
4.116	48.639	-15366	2348.6	-0.21892	0.92691	0.35409
4.118	48.639	-15370	2348.5	-0.2197	0.9271	0.35487
4.12	48.646	-15375	2348.4	-0.22048	0.9273	0.35565
4.122	48.641	-15371	2348.3	-0.22126	0.92749	0.35644
4.124	48.638	-15368	2348.2	-0.22204	0.92769	0.35722
4.126	48.637	-15368	2348.1	-0.22048	0.92681	0.35702
4.128	48.631	-15368	2348	-0.21892	0.92593	0.35683
4.13	48.625	-15370	2347.9	-0.21736	0.92505	0.35663
4.132	48.624	-15372	2347.8	-0.21579	0.92417	0.35644
4.134	48.624	-15370	2347.7	-0.21423	0.9233	0.35624
4.136	48.623	-15367	2347.6	-0.21589	0.92476	0.35585
4.138	48.625	-15369	2347.6	-0.21755	0.92622	0.35546
4.14	48.617	-15371	2347.5	-0.21921	0.92769	0.35507
4.142	48.608	-15373	2347.5	-0.22087	0.92915	0.35468
4.144	48.608	-15375	2347.5	-0.22253	0.93062	0.35429
4.146	48.606	-15372	2347.4	-0.22194	0.92974	0.3539
4.148	48.606	-15369	2347.4	-0.22136	0.92886	0.35351
4.15	48.604	-15369	2347.4	-0.22077	0.92798	0.35312
4.152	48.605	-15369	2347.3	-0.22019	0.9271	0.35273
4.154	48.6	-15370	2347.3	-0.2196	0.92622	0.35234
4.156	48.596	-15371	2347.3	-0.21989	0.92632	0.35282
4.158	48.591	-15374	2347.3	-0.22019	0.92642	0.35331
4.16	48.586	-15377	2347.3	-0.22048	0.92652	0.3538
4.162	48.591	-15377	2347.4	-0.22077	0.92661	0.35429
4.164	48.591	-15377	2347.4	-0.22106	0.92671	0.35478
4.166	48.583	-15375	2347.5	-0.22058	0.92661	0.35478
4.168	48.572	-15373	2347.5	-0.22009	0.92652	0.35478
4.17	48.571	-15373	2347.6	-0.2196	0.92642	0.35478
4.172	48.577	-15374	2347.7	-0.21911	0.92632	0.35478
4.174	48.573	-15374	2347.8	-0.21862	0.92622	0.35478
4.176	48.563	-15374	2348	-0.21872	0.92652	0.35507
4.178	48.557	-15369	2348.2	-0.21882	0.92681	0.35536
4.18	48.557	-15364	2348.4	-0.21892	0.9271	0.35565
4.182	48.563	-15365	2348.6	-0.21901	0.9274	0.35595
4.184	48.567	-15366	2348.9	-0.21911	0.92769	0.35624
4.186	48.57	-15369	2349.2	-0.21892	0.92847	0.35536
4.188	48.576	-15373	2349.4	-0.21872	0.92925	0.35448
4.19	48.569	-15372	2349.8	-0.21853	0.93003	0.3536
4.192	48.553	-15372	2350.1	-0.21833	0.93081	0.35273
4.194	48.551	-15372	2350.4	-0.21814	0.93159	0.35185
4.196	48.554	-15372	2350.8	-0.21843	0.92993	0.35282
4.198	48.558	-15372	2351.3	-0.21872	0.92827	0.3538
4.2	48.568	-15372	2351.7	-0.21901	0.92661	0.35478
4.202	48.573	-15368	2352.1	-0.21931	0.92496	0.35575
4.204	48.57	-15364	2352.6	-0.2196	0.9233	0.35673
4.206	48.567	-15361	2353	-0.2196	0.92339	0.35634
4.208	48.571	-15358	2353.5	-0.2196	0.92349	0.35595
4.21	48.573	-15363	2353.9	-0.2196	0.92359	0.35556
4.212	48.573	-15368	2354.4	-0.2196	0.92369	0.35517
4.214	48.574	-15371	2354.8	-0.2196	0.92378	0.35478
4.216	48.576	-15373	2355.4	-0.2197	0.92417	0.35497
4.218	48.584	-15374	2355.9	-0.2198	0.92456	0.35517
4.22	48.587	-15374	2356.4	-0.21989	0.92496	0.35536
4.222	48.578	-15374	2356.9	-0.21999	0.92535	0.35556
4.224	48.573	-15373	2357.4	-0.22009	0.92574	0.35575
4.226	48.573	-15374	2357.9	-0.21989	0.92603	0.35614
4.228	48.577	-15374	2358.3	-0.2197	0.92632	0.35653
4.23	48.577	-15370	2358.8	-0.2195	0.92661	0.35692
4.232	48.578	-15366	2359.3	-0.21931	0.92691	0.35731
4.234	48.576	-15365	2359.8	-0.21911	0.9272	0.3577
4.236	48.575	-15365	2360.2	-0.2196	0.92769	0.35673
4.238	48.575	-15361	2360.7	-0.22009	0.92818	0.35575
4.24	48.571	-15358	2361.1	-0.22058	0.92866	0.35478
4.242	48.563	-15360	2361.4	-0.22106	0.92915	0.3538
4.244	48.56	-15362	2361.8	-0.22155	0.92964	0.35282
4.246	48.559	-15362	2362.2	-0.22224	0.92905	0.35351
4.248	48.556	-15361	2362.5	-0.22292	0.92847	0.35419
4.25	48.561	-15363	2362.8	-0.2236	0.92788	0.35487
4.252	48.566	-15365	2363.1	-0.22428	0.9273	0.35556
4.254	48.55	-15367	2363.3	-0.22497	0.92671	0.35624
4.256	48.549	-15369	2363.6	-0.22477	0.927	0.35653
4.258	48.555	-15371	2363.8	-0.22458	0.9273	0.35683
4.26	48.556	-15373	2364	-0.22438	0.92759	0.35712
4.262	48.556	-15361	2364.2	-0.22419	0.92788	0.35741
4.264	48.558	-15348	2364.3	-0.22399	0.92818	0.3577
4.266	48.559	-15350	2364.4	-0.22292	0.92808	0.35692
4.268	48.561	-15352	2364.5	-0.22184	0.92798	0.35614
4.27	48.565	-15355	2364.6	-0.22077	0.92788	0.35536
4.272	48.571	-15358	2364.7	-0.2197	0.92779	0.35458
4.274	48.577	-15353	2364.7	-0.21862	0.92769	0.3538
4.276	48.576	-15348	2364.8	-0.2195	0.92798	0.354
4.278	48.576	-15345	2364.8	-0.22038	0.92827	0.35419
4.28	48.584	-15341	2364.8	-0.22126	0.92857	0.35439
4.282	48.59	-15341	2364.7	-0.22214	0.92886	0.35458
4.284	48.599	-15341	2364.6	-0.22302	0.92915	0.35478
4.286	48.6	-15342	2364.6	-0.22184	0.92857	0.35439
4.288	48.592	-15343	2364.5	-0.22067	0.92798	0.354
4.29	48.592	-15342	2364.4	-0.2195	0.9274	0.3536
4.292	48.599	-15341	2364.3	-0.21833	0.92681	0.35321
4.294	48.609	-15344	2364.2	-0.21716	0.92622	0.35282
4.296	48.613	-15347	2364.1	-0.21804	0.92769	0.35243
4.298	48.612	-15344	2363.9	-0.21892	0.92915	0.35204
4.3	48.617	-15342	2363.7	-0.2198	0.93062	0.35165
4.302	48.62	-15340	2363.6	-0.22067	0.93208	0.35126
4.304	48.62	-15339	2363.4	-0.22155	0.93354	0.35087
4.306	48.622	-15344	2363.2	-0.22155	0.93218	0.35146
4.308	48.624	-15349	2363.1	-0.22155	0.93081	0.35204
4.31	48.622	-15349	2362.9	-0.22155	0.92944	0.35263
4.312	48.623	-15348	2362.7	-0.22155	0.92808	0.35321
4.314	48.626	-15350	2362.4	-0.22155	0.92671	0.3538
4.316	48.623	-15352	2362.3	-0.22184	0.92554	0.3539
4.318	48.624	-15350	2362.1	-0.22214	0.92437	0.354
4.32	48.631	-15348	2361.9	-0.22243	0.9232	0.35409
4.322	48.635	-15350	2361.8	-0.22272	0.92203	0.35419
4.324	48.635	-15352	2361.6	-0.22302	0.92086	0.35429
4.326	48.631	-15344	2361.3	-0.22272	0.92203	0.35409
4.328	48.622	-15337	2361	-0.22243	0.9232	0.3539
4.33	48.623	-15339	2360.7	-0.22214	0.92437	0.3537
4.332	48.629	-15341	2360.4	-0.22184	0.92554	0.35351
4.334	48.631	-15338	2360.1	-0.22155	0.92671	0.35331
4.336	48.634	-15336	2359.8	-0.22155	0.92671	0.3539
4.338	48.636	-15334	2359.6	-0.22155	0.92671	0.35448
4.34	48.634	-15332	2359.3	-0.22155	0.92671	0.35507
4.342	48.622	-15334	2359.1	-0.22155	0.92671	0.35565
4.344	48.627	-15335	2358.8	-0.22155	0.92671	0.35624
4.346	48.635	-15339	2358.5	-0.22175	0.9272	0.35536
4.348	48.631	-15343	2358.3	-0.22194	0.92769	0.35448
4.35	48.63	-15336	2358	-0.22214	0.92818	0.3536
4.352	48.634	-15329	2357.6	-0.22233	0.92866	0.35273
4.354	48.631	-15342	2357.3	-0.22253	0.92915	0.35185
4.356	48.618	-15354	2357	-0.22194	0.92925	0.35185
4.358	48.612	-15341	2356.6	-0.22136	0.92935	0.35185
4.36	48.618	-15328	2356.3	-0.22077	0.92944	0.35185
4.362	48.617	-15333	2356	-0.22019	0.92954	0.35185
4.364	48.615	-15339	2355.7	-0.2196	0.92964	0.35185
4.366	48.621	-15340	2355.4	-0.21999	0.92925	0.35243
4.368	48.626	-15341	2355.1	-0.22038	0.92886	0.35302
4.37	48.622	-15339	2354.9	-0.22077	0.92847	0.3536
4.372	48.617	-15337	2354.7	-0.22116	0.92808	0.35419
4.374	48.614	-15335	2354.5	-0.22155	0.92769	0.35478
4.376	48.618	-15333	2354.3	-0.22155	0.92788	0.35487
4.378	48.626	-15340	2354.1	-0.22155	0.92808	0.35497
4.38	48.622	-15347	2353.8	-0.22155	0.92827	0.35507
4.382	48.616	-15346	2353.5	-0.22155	0.92847	0.35517
4.384	48.622	-15345	2353.1	-0.22155	0.92866	0.35526
4.386	48.625	-15344	2352.9	-0.22165	0.92827	0.35478
4.388	48.621	-15342	2352.6	-0.22175	0.92788	0.35429
4.39	48.623	-15346	2352.4	-0.22184	0.92749	0.3538
4.392	48.623	-15349	2352.2	-0.22194	0.9271	0.35331
4.394	48.615	-15345	2352	-0.22204	0.92671	0.35282
4.396	48.619	-15342	2351.9	-0.22272	0.92613	0.35302
4.398	48.623	-15346	2351.8	-0.22341	0.92554	0.35321
4.4	48.624	-15349	2351.7	-0.22409	0.92496	0.35341
4.402	48.613	-15350	2351.6	-0.22477	0.92437	0.3536
4.404	48.607	-15350	2351.6	-0.22546	0.92378	0.3538
4.406	48.605	-15352	2351.4	-0.22419	0.92583	0.35341
4.408	48.608	-15353	2351.3	-0.22292	0.92788	0.35302
4.41	48.6	-15353	2351.1	-0.22165	0.92993	0.35263
4.412	48.589	-15353	2351	-0.22038	0.93198	0.35224
4.414	48.596	-15356	2350.8	-0.21911	0.93403	0.35185
4.416	48.597	-15358	2350.7	-0.21911	0.93286	0.35146
4.418	48.594	-15349	2350.6	-0.21911	0.93169	0.35107
4.42	48.602	-15341	2350.6	-0.21911	0.93052	0.35068
4.422	48.608	-15341	2350.6	-0.21911	0.92935	0.35029
4.424	48.604	-15341	2350.5	-0.21911	0.92818	0.3499
4.426	48.595	-15345	2350.5	-0.21911	0.9271	0.35077
4.428	48.601	-15349	2350.5	-0.21911	0.92603	0.35165
4.43	48.602	-15346	2350.6	-0.21911	0.92496	0.35253
4.432	48.585	-15342	2350.6	-0.21911	0.92388	0.35341
4.434	48.585	-15341	2350.7	-0.21911	0.92281	0.35429
4.436	48.589	-15340	2350.8	-0.2196	0.92525	0.354
4.438	48.569	-15351	2350.9	-0.22009	0.92769	0.3537
4.44	48.545	-15362	2350.9	-0.22058	0.93013	0.35341
4.442	48.532	-15359	2350.8	-0.22106	0.93257	0.35312
4.444	48.521	-15357	2350.8	-0.22155	0.93501	0.35282
4.446	48.514	-15357	2350.9	-0.22136	0.93432	0.35273
4.448	48.51	-15356	2350.9	-0.22116	0.93364	0.35263
4.45	48.509	-15353	2351	-0.22097	0.93296	0.35253
4.452	48.517	-15350	2351.1	-0.22077	0.93228	0.35243
4.454	48.53	-15353	2351.1	-0.22058	0.93159	0.35234
4.456	48.539	-15357	2351.2	-0.22058	0.9313	0.35195
4.458	48.546	-15354	2351.3	-0.22058	0.93101	0.35156
4.46	48.552	-15352	2351.4	-0.22058	0.93071	0.35116
4.462	48.557	-15358	2351.5	-0.22058	0.93042	0.35077
4.464	48.552	-15364	2351.5	-0.22058	0.93013	0.35038
4.466	48.545	-15360	2351.6	-0.22087	0.92964	0.35136
4.468	48.558	-15357	2351.7	-0.22116	0.92915	0.35234
4.47	48.569	-15357	2351.8	-0.22145	0.92866	0.35331
4.472	48.567	-15358	2351.9	-0.22175	0.92818	0.35429
4.474	48.563	-15362	2352	-0.22204	0.92769	0.35526
4.476	48.563	-15366	2352.1	-0.22214	0.9272	0.35565
4.478	48.568	-15362	2352.1	-0.22224	0.92671	0.35604
4.48	48.57	-15358	2352.2	-0.22233	0.92622	0.35644
4.482	48.565	-15358	2352.3	-0.22243	0.92574	0.35683
4.484	48.572	-15357	2352.4	-0.22253	0.92525	0.35722
4.486	48.581	-15356	2352.4	-0.22272	0.92652	0.35673
4.488	48.593	-15354	2352.5	-0.22292	0.92779	0.35624
4.49	48.602	-15352	2352.5	-0.22311	0.92905	0.35575
4.492	48.614	-15349	2352.6	-0.22331	0.93032	0.35526
4.494	48.624	-15357	2352.6	-0.2235	0.93159	0.35478
4.496	48.636	-15364	2352.6	-0.2236	0.93032	0.35526
4.498	48.643	-15362	2352.5	-0.2237	0.92905	0.35575
4.5	48.644	-15360	2352.5	-0.2238	0.92779	0.35624
4.502	48.645	-15357	2352.5	-0.22389	0.92652	0.35673
4.504	48.649	-15354	2352.4	-0.22399	0.92525	0.35722
4.506	48.654	-15358	2352.4	-0.22331	0.92515	0.35712
4.508	48.654	-15363	2352.4	-0.22263	0.92505	0.35702
4.51	48.657	-15355	2352.3	-0.22194	0.92496	0.35692
4.512	48.645	-15348	2352.3	-0.22126	0.92486	0.35683
4.514	48.643	-15349	2352.2	-0.22058	0.92476	0.35673
4.516	48.647	-15350	2352.2	-0.22087	0.92505	0.35692
4.518	48.647	-15350	2352.1	-0.22116	0.92535	0.35712
4.52	48.644	-15350	2352	-0.22145	0.92564	0.35731
4.522	48.645	-15355	2351.9	-0.22175	0.92593	0.35751
4.524	48.646	-15361	2351.9	-0.22204	0.92622	0.3577
4.526	48.647	-15362	2351.8	-0.22145	0.92564	0.3577
4.528	48.653	-15363	2351.8	-0.22087	0.92505	0.3577
4.53	48.653	-15358	2351.7	-0.22028	0.92447	0.3577
4.532	48.649	-15354	2351.6	-0.2197	0.92388	0.3577
4.534	48.652	-15357	2351.5	-0.21911	0.9233	0.3577
4.536	48.652	-15360	2351.5	-0.2196	0.92378	0.35751
4.538	48.651	-15359	2351.4	-0.22009	0.92427	0.35731
4.54	48.653	-15357	2351.4	-0.22058	0.92476	0.35712
4.542	48.653	-15358	2351.3	-0.22106	0.92525	0.35692
4.544	48.652	-15359	2351.2	-0.22155	0.92574	0.35673
4.546	48.657	-15361	2351.1	-0.22204	0.92593	0.35731
4.548	48.669	-15363	2350.9	-0.22253	0.92613	0.3579
4.55	48.685	-15362	2350.9	-0.22302	0.92632	0.35848
4.552	48.692	-15362	2350.8	-0.2235	0.92652	0.35907
4.554	48.705	-15362	2350.7	-0.22399	0.92671	0.35966
4.556	48.742	-15362	2350.6	-0.22302	0.92622	0.35936
4.558	48.782	-15360	2350.5	-0.22204	0.92574	0.35907
4.56	48.826	-15359	2350.4	-0.22106	0.92525	0.35878
4.562	48.86	-15356	2350.3	-0.22009	0.92476	0.35848
4.564	48.872	-15354	2350.2	-0.21911	0.92427	0.35819
4.566	48.84	-15353	2350	-0.21901	0.92369	0.35868
4.568	48.809	-15352	2349.8	-0.21892	0.9231	0.35917
4.57	48.767	-15352	2349.7	-0.21882	0.92252	0.35966
4.572	48.7	-15351	2349.6	-0.21872	0.92193	0.36014
4.574	48.624	-15353	2349.4	-0.21862	0.92134	0.36063
4.576	48.529	-15355	2349.3	-0.21999	0.92242	0.36005
4.578	48.427	-15363	2349.1	-0.22136	0.92349	0.35946
4.58	48.313	-15371	2349	-0.22272	0.92456	0.35888
4.582	48.158	-15369	2348.8	-0.22409	0.92564	0.35829
4.584	47.989	-15367	2348.6	-0.22546	0.92671	0.3577
4.586	47.817	-15365	2348.4	-0.22448	0.92603	0.3578
4.588	47.648	-15363	2348.2	-0.2235	0.92535	0.3579
4.59	47.496	-15365	2348.1	-0.22253	0.92466	0.358
4.592	47.372	-15368	2347.9	-0.22155	0.92398	0.35809
4.594	47.295	-15367	2347.8	-0.22058	0.9233	0.35819
4.596	47.31	-15366	2347.6	-0.22106	0.92417	0.35722
4.598	47.442	-15364	2347.4	-0.22155	0.92505	0.35624
4.6	47.627	-15363	2347.2	-0.22204	0.92593	0.35526
4.602	47.81	-15363	2347.1	-0.22253	0.92681	0.35429
4.604	47.996	-15364	2347	-0.22302	0.92769	0.35331
4.606	48.175	-15365	2346.8	-0.22302	0.92759	0.354
4.608	48.321	-15367	2346.7	-0.22302	0.92749	0.35468
4.61	48.435	-15370	2346.6	-0.22302	0.9274	0.35536
4.612	48.523	-15373	2346.5	-0.22302	0.9273	0.35604
4.614	48.596	-15376	2346.4	-0.22302	0.9272	0.35673
4.616	48.669	-15380	2346.2	-0.22243	0.92759	0.35536
4.618	48.725	-15378	2346.1	-0.22184	0.92798	0.354
4.62	48.741	-15376	2346	-0.22126	0.92837	0.35263
4.622	48.73	-15375	2345.9	-0.22067	0.92876	0.35126
4.624	48.706	-15374	2345.8	-0.22009	0.92915	0.3499
4.626	48.677	-15372	2345.7	-0.21999	0.92925	0.35038
4.628	48.648	-15370	2345.7	-0.21989	0.92935	0.35087
4.63	48.628	-15365	2345.6	-0.2198	0.92944	0.35136
4.632	48.616	-15360	2345.6	-0.2197	0.92954	0.35185
4.634	48.609	-15359	2345.5	-0.2196	0.92964	0.35234
4.636	48.609	-15358	2345.5	-0.21989	0.92886	0.35331
4.638	48.614	-15364	2345.5	-0.22019	0.92808	0.35429
4.64	48.627	-15369	2345.5	-0.22048	0.9273	0.35526
4.642	48.645	-15371	2345.5	-0.22077	0.92652	0.35624
4.644	48.646	-15372	2345.4	-0.22106	0.92574	0.35722
4.646	48.656	-15367	2345.4	-0.22019	0.92554	0.3578
4.648	48.661	-15362	2345.4	-0.21931	0.92535	0.35839
4.65	48.654	-15358	2345.4	-0.21843	0.92515	0.35897
4.652	48.656	-15353	2345.3	-0.21755	0.92496	0.35956
4.654	48.652	-15357	2345.3	-0.21667	0.92476	0.36014
4.656	48.637	-15361	2345.2	-0.21657	0.92447	0.36005
4.658	48.641	-15366	2345.2	-0.21648	0.92417	0.35995
4.66	48.651	-15371	2345.1	-0.21638	0.92388	0.35985
4.662	48.657	-15363	2345.1	-0.21628	0.92359	0.35975
4.664	48.649	-15356	2345	-0.21618	0.9233	0.35966
4.666	48.644	-15359	2345	-0.2157	0.9231	0.35966
4.668	48.641	-15361	2345	-0.21521	0.92291	0.35966
4.67	48.641	-15361	2344.9	-0.21472	0.92271	0.35966
4.672	48.64	-15361	2344.9	-0.21423	0.92252	0.35966
4.674	48.643	-15363	2344.8	-0.21374	0.92232	0.35966
4.676	48.643	-15365	2344.7	-0.21531	0.9233	0.35927
4.678	48.633	-15380	2344.7	-0.21687	0.92427	0.35888
4.68	48.627	-15394	2344.7	-0.21843	0.92525	0.35848
4.682	48.627	-15394	2344.6	-0.21999	0.92622	0.35809
4.684	48.629	-15394	2344.5	-0.22155	0.9272	0.3577
4.686	48.629	-15390	2344.5	-0.22175	0.92759	0.35692
4.688	48.627	-15387	2344.5	-0.22194	0.92798	0.35614
4.69	48.625	-15387	2344.4	-0.22214	0.92837	0.35536
4.692	48.612	-15387	2344.4	-0.22233	0.92876	0.35458
4.694	48.604	-15384	2344.3	-0.22253	0.92915	0.3538
