t	ekg	optical	pressure	accel_x	accel_y	accel_z
0	133.53	-19987	2355.5	-0.27377	0.86962	0.44359
0.002	133.53	-19985	2355.3	-0.27465	0.86971	0.44388
0.004	133.53	-19982	2355.2	-0.27552	0.86981	0.44418
0.006	133.53	-19980	2355	-0.2764	0.86991	0.44447
0.008	133.53	-19980	2354.9	-0.27728	0.87001	0.44476
0.01	133.53	-19983	2354.8	-0.27816	0.8701	0.44506
0.012	133.53	-19982	2354.7	-0.27894	0.8701	0.44515
0.014	133.52	-19979	2354.7	-0.27972	0.8701	0.44525
0.016	133.52	-19977	2354.6	-0.2805	0.8701	0.44535
0.018	133.52	-19978	2354.5	-0.28128	0.8701	0.44545
0.02	133.52	-19977	2354.4	-0.28206	0.8701	0.44554
0.022	133.52	-19974	2354.4	-0.28109	0.86952	0.44564
0.024	133.53	-19974	2354.4	-0.28011	0.86893	0.44574
0.026	133.53	-19977	2354.4	-0.27914	0.86835	0.44584
0.028	133.52	-19979	2354.3	-0.27816	0.86776	0.44593
0.03	133.52	-19978	2354.3	-0.27718	0.86718	0.44603
0.032	133.52	-19978	2354.3	-0.27718	0.86708	0.44554
0.034	133.52	-19978	2354.3	-0.27718	0.86698	0.44506
0.036	133.52	-19978	2354.4	-0.27718	0.86688	0.44457
0.038	133.52	-19979	2354.4	-0.27718	0.86679	0.44408
0.04	133.52	-19979	2354.4	-0.27718	0.86669	0.44359
0.042	133.53	-19978	2354.5	-0.27631	0.86688	0.44359
0.044	133.53	-19981	2354.5	-0.27543	0.86708	0.44359
0.046	133.52	-19990	2354.6	-0.27455	0.86727	0.44359
0.048	133.52	-19995	2354.6	-0.27367	0.86747	0.44359
0.05	133.52	-19998	2354.7	-0.27279	0.86766	0.44359
0.052	133.52	-20001	2354.7	-0.27221	0.86884	0.44388
0.054	133.52	-20002	2354.8	-0.27162	0.87001	0.44418
0.056	133.52	-20000	2354.8	-0.27104	0.87118	0.44447
0.058	133.52	-19995	2354.9	-0.27045	0.87235	0.44476
0.06	133.52	-19995	2354.9	-0.26986	0.87352	0.44506
0.062	133.53	-20001	2354.9	-0.26996	0.87352	0.44457
0.064	133.53	-19999	2355	-0.27006	0.87352	0.44408
0.066	133.52	-19990	2355	-0.27016	0.87352	0.44359
0.068	133.52	-19985	2355.1	-0.27025	0.87352	0.4431
0.07	133.52	-19984	2355.2	-0.27035	0.87352	0.44262
0.072	133.53	-19984	2355.2	-0.27084	0.87303	0.44252
0.074	133.53	-19984	2355.2	-0.27133	0.87254	0.44242
0.076	133.53	-19986	2355.3	-0.27182	0.87206	0.44232
0.078	133.53	-19990	2355.3	-0.2723	0.87157	0.44223
0.08	133.53	-19990	2355.3	-0.27279	0.87108	0.44213
0.082	133.52	-19986	2355.4	-0.27338	0.87059	0.44281
0.084	133.51	-19985	2355.4	-0.27396	0.8701	0.44349
0.086	133.51	-19988	2355.4	-0.27455	0.86962	0.44418
0.088	133.51	-19989	2355.5	-0.27513	0.86913	0.44486
0.09	133.51	-19989	2355.5	-0.27572	0.86864	0.44554
0.092	133.52	-19989	2355.5	-0.2767	0.86796	0.44652
0.094	133.52	-19990	2355.6	-0.27767	0.86727	0.4475
0.096	133.51	-19988	2355.6	-0.27865	0.86659	0.44847
0.098	133.51	-19985	2355.5	-0.27962	0.86591	0.44945
0.1	133.51	-19984	2355.5	-0.2806	0.86522	0.45042
0.102	133.51	-19987	2355.5	-0.28011	0.86581	0.44925
0.104	133.5	-19986	2355.4	-0.27962	0.8664	0.44808
0.106	133.5	-19983	2355.4	-0.27914	0.86698	0.44691
0.108	133.49	-19982	2355.4	-0.27865	0.86757	0.44574
0.11	133.48	-19984	2355.4	-0.27816	0.86815	0.44457
0.112	133.48	-19986	2355.3	-0.27894	0.86844	0.44506
0.114	133.48	-19988	2355.2	-0.27972	0.86874	0.44554
0.116	133.48	-19987	2355.1	-0.2805	0.86903	0.44603
0.118	133.47	-19984	2355.1	-0.28128	0.86932	0.44652
0.12	133.46	-19983	2355	-0.28206	0.86962	0.44701
0.122	133.47	-19986	2354.9	-0.28158	0.86942	0.4474
0.124	133.49	-19986	2354.8	-0.28109	0.86923	0.44779
0.126	133.49	-19982	2354.7	-0.2806	0.86903	0.44818
0.128	133.48	-19982	2354.6	-0.28011	0.86884	0.44857
0.13	133.48	-19987	2354.5	-0.27962	0.86864	0.44896
0.132	133.48	-19990	2354.4	-0.28021	0.86913	0.44798
0.134	133.48	-19989	2354.3	-0.2808	0.86962	0.44701
0.136	133.47	-19987	2354.2	-0.28138	0.8701	0.44603
0.138	133.47	-19984	2354.1	-0.28197	0.87059	0.44506
0.14	133.46	-19985	2354	-0.28255	0.87108	0.44408
0.142	133.46	-19988	2353.8	-0.28245	0.87001	0.44545
0.144	133.46	-19989	2353.7	-0.28236	0.86893	0.44681
0.146	133.46	-19987	2353.6	-0.28226	0.86786	0.44818
0.148	133.46	-19987	2353.4	-0.28216	0.86679	0.44955
0.15	133.46	-19989	2353.3	-0.28206	0.86571	0.45091
0.152	133.46	-19988	2353.1	-0.28128	0.86571	0.45003
0.154	133.46	-19986	2353	-0.2805	0.86571	0.44916
0.156	133.46	-19986	2352.8	-0.27972	0.86571	0.44828
0.158	133.47	-19989	2352.6	-0.27894	0.86571	0.4474
0.16	133.47	-19989	2352.5	-0.27816	0.86571	0.44652
0.162	133.47	-19988	2352.3	-0.27845	0.86659	0.44593
0.164	133.47	-19987	2352.1	-0.27875	0.86747	0.44535
0.166	133.47	-19988	2352	-0.27904	0.86835	0.44476
0.168	133.48	-19989	2351.8	-0.27933	0.86923	0.44418
0.17	133.48	-19990	2351.6	-0.27962	0.8701	0.44359
0.172	133.48	-19991	2351.5	-0.27787	0.87059	0.44369
0.174	133.5	-19990	2351.3	-0.27611	0.87108	0.44379
0.176	133.51	-19992	2351.1	-0.27435	0.87157	0.44388
0.178	133.53	-19999	2351	-0.2726	0.87206	0.44398
0.18	133.55	-20000	2350.8	-0.27084	0.87254	0.44408
0.182	133.55	-19997	2350.7	-0.27133	0.87225	0.44388
0.184	133.55	-19995	2350.6	-0.27182	0.87196	0.44369
0.186	133.55	-19993	2350.4	-0.2723	0.87167	0.44349
0.188	133.55	-19992	2350.3	-0.27279	0.87137	0.4433
0.19	133.55	-19991	2350.2	-0.27328	0.87108	0.4431
0.192	133.55	-19990	2350.1	-0.27338	0.87196	0.44349
0.194	133.55	-19990	2350	-0.27348	0.87284	0.44388
0.196	133.55	-19990	2349.9	-0.27357	0.87372	0.44428
0.198	133.55	-19989	2349.8	-0.27367	0.87459	0.44467
0.2	133.54	-19989	2349.6	-0.27377	0.87547	0.44506
0.202	133.54	-19989	2349.5	-0.27348	0.87459	0.44457
0.204	133.54	-19991	2349.4	-0.27318	0.87372	0.44408
0.206	133.54	-19995	2349.3	-0.27289	0.87284	0.44359
0.208	133.54	-19996	2349.2	-0.2726	0.87196	0.4431
0.21	133.54	-19994	2349.1	-0.2723	0.87108	0.44262
0.212	133.54	-19993	2349	-0.27289	0.87196	0.44369
0.214	133.54	-19994	2348.9	-0.27348	0.87284	0.44476
0.216	133.54	-19993	2348.8	-0.27406	0.87372	0.44584
0.218	133.54	-19992	2348.8	-0.27465	0.87459	0.44691
0.22	133.54	-19993	2348.7	-0.27523	0.87547	0.44798
0.222	133.54	-19997	2348.6	-0.27601	0.87381	0.44759
0.224	133.54	-19999	2348.6	-0.27679	0.87215	0.4472
0.226	133.55	-20000	2348.5	-0.27757	0.87049	0.44681
0.228	133.55	-20001	2348.5	-0.27836	0.86884	0.44642
0.23	133.54	-20002	2348.4	-0.27914	0.86718	0.44603
0.232	133.54	-20001	2348.4	-0.27943	0.86747	0.44652
0.234	133.55	-20000	2348.3	-0.27972	0.86776	0.44701
0.236	133.55	-20000	2348.3	-0.28001	0.86805	0.4475
0.238	133.57	-20001	2348.3	-0.28031	0.86835	0.44798
0.24	133.6	-20002	2348.2	-0.2806	0.86864	0.44847
0.242	133.63	-20003	2348.2	-0.27982	0.86864	0.44857
0.244	133.67	-20003	2348.2	-0.27904	0.86864	0.44867
0.246	133.69	-20001	2348.1	-0.27826	0.86864	0.44876
0.248	133.7	-20001	2348	-0.27748	0.86864	0.44886
0.25	133.67	-20004	2348	-0.2767	0.86864	0.44896
0.252	133.64	-20006	2347.9	-0.27689	0.86844	0.44886
0.254	133.58	-20009	2347.9	-0.27709	0.86825	0.44876
0.256	133.51	-20009	2347.9	-0.27728	0.86805	0.44867
0.258	133.43	-20006	2347.8	-0.27748	0.86786	0.44857
0.26	133.33	-20006	2347.8	-0.27767	0.86766	0.44847
0.262	133.22	-20008	2347.7	-0.27777	0.86747	0.44779
0.264	133.11	-20011	2347.7	-0.27787	0.86727	0.44711
0.266	132.97	-20013	2347.7	-0.27796	0.86708	0.44642
0.268	132.81	-20013	2347.6	-0.27806	0.86688	0.44574
0.27	132.65	-20012	2347.6	-0.27816	0.86669	0.44506
0.272	132.51	-20013	2347.6	-0.27738	0.86669	0.44515
0.274	132.37	-20014	2347.5	-0.2766	0.86669	0.44525
0.276	132.24	-20014	2347.5	-0.27582	0.86669	0.44535
0.278	132.16	-20015	2347.4	-0.27504	0.86669	0.44545
0.28	132.13	-20015	2347.4	-0.27426	0.86669	0.44554
0.282	132.18	-20016	2347.4	-0.27416	0.86679	0.44554
0.284	132.34	-20017	2347.3	-0.27406	0.86688	0.44554
0.286	132.55	-20019	2347.3	-0.27396	0.86698	0.44554
0.288	132.78	-20020	2347.2	-0.27387	0.86708	0.44554
0.29	132.98	-20019	2347.2	-0.27377	0.86718	0.44554
0.292	133.14	-20018	2347.1	-0.27426	0.86786	0.44564
0.294	133.27	-20018	2347	-0.27474	0.86854	0.44574
0.296	133.37	-20018	2347	-0.27523	0.86923	0.44584
0.298	133.44	-20019	2346.9	-0.27572	0.86991	0.44593
0.3	133.49	-20019	2346.8	-0.27621	0.87059	0.44603
0.302	133.55	-20017	2346.8	-0.27718	0.8704	0.44564
0.304	133.57	-20019	2346.7	-0.27816	0.8702	0.44525
0.306	133.55	-20026	2346.6	-0.27914	0.87001	0.44486
0.308	133.52	-20029	2346.6	-0.28011	0.86981	0.44447
0.31	133.48	-20030	2346.5	-0.28109	0.86962	0.44408
0.312	133.45	-20029	2346.4	-0.2808	0.86884	0.44467
0.314	133.44	-20026	2346.4	-0.2805	0.86805	0.44525
0.316	133.43	-20024	2346.3	-0.28021	0.86727	0.44584
0.318	133.42	-20023	2346.3	-0.27992	0.86649	0.44642
0.32	133.42	-20023	2346.2	-0.27962	0.86571	0.44701
0.322	133.43	-20025	2346.2	-0.27865	0.866	0.44652
0.324	133.45	-20027	2346.1	-0.27767	0.8663	0.44603
0.326	133.46	-20029	2346.1	-0.2767	0.86659	0.44554
0.328	133.46	-20029	2346	-0.27572	0.86688	0.44506
0.33	133.47	-20027	2346	-0.27474	0.86718	0.44457
0.332	133.47	-20026	2345.9	-0.27523	0.86776	0.44506
0.334	133.47	-20025	2345.8	-0.27572	0.86835	0.44554
0.336	133.48	-20026	2345.8	-0.27621	0.86893	0.44603
0.338	133.48	-20027	2345.7	-0.2767	0.86952	0.44652
0.34	133.48	-20029	2345.6	-0.27718	0.8701	0.44701
0.342	133.49	-20033	2345.5	-0.2766	0.8701	0.44681
0.344	133.48	-20033	2345.5	-0.27601	0.8701	0.44662
0.346	133.48	-20030	2345.4	-0.27543	0.8701	0.44642
0.348	133.48	-20028	2345.4	-0.27484	0.8701	0.44623
0.35	133.48	-20026	2345.3	-0.27426	0.8701	0.44603
0.352	133.48	-20026	2345.2	-0.27396	0.87069	0.44603
0.354	133.48	-20028	2345.2	-0.27367	0.87128	0.44603
0.356	133.47	-20033	2345.2	-0.27338	0.87186	0.44603
0.358	133.47	-20040	2345.1	-0.27308	0.87245	0.44603
0.36	133.47	-20043	2345.1	-0.27279	0.87303	0.44603
0.362	133.47	-20040	2345	-0.27318	0.87215	0.44554
0.364	133.46	-20038	2345	-0.27357	0.87128	0.44506
0.366	133.46	-20037	2344.9	-0.27396	0.8704	0.44457
0.368	133.46	-20035	2344.9	-0.27435	0.86952	0.44408
0.37	133.46	-20034	2344.8	-0.27474	0.86864	0.44359
0.372	133.46	-20037	2344.8	-0.27562	0.86913	0.44408
0.374	133.45	-20045	2344.7	-0.2765	0.86962	0.44457
0.376	133.45	-20049	2344.7	-0.27738	0.8701	0.44506
0.378	133.45	-20048	2344.7	-0.27826	0.87059	0.44554
0.38	133.44	-20046	2344.7	-0.27914	0.87108	0.44603
0.382	133.44	-20043	2344.6	-0.27836	0.87176	0.44632
0.384	133.44	-20043	2344.6	-0.27757	0.87245	0.44662
0.386	133.44	-20046	2344.6	-0.27679	0.87313	0.44691
0.388	133.44	-20047	2344.5	-0.27601	0.87381	0.4472
0.39	133.44	-20048	2344.5	-0.27523	0.8745	0.4475
0.392	133.44	-20049	2344.5	-0.27455	0.87401	0.44691
0.394	133.43	-20052	2344.4	-0.27387	0.87352	0.44632
0.396	133.43	-20053	2344.4	-0.27318	0.87303	0.44574
0.398	133.43	-20053	2344.4	-0.2725	0.87254	0.44515
0.4	133.42	-20054	2344.4	-0.27182	0.87206	0.44457
0.402	133.42	-20054	2344.3	-0.27338	0.87098	0.44486
0.404	133.42	-20053	2344.2	-0.27494	0.86991	0.44515
0.406	133.42	-20051	2344.2	-0.2765	0.86884	0.44545
0.408	133.42	-20052	2344.1	-0.27806	0.86776	0.44574
0.41	133.42	-20056	2344.1	-0.27962	0.86669	0.44603
0.412	133.41	-20058	2344.1	-0.27962	0.86659	0.44593
0.414	133.41	-20058	2344.1	-0.27962	0.86649	0.44584
0.416	133.41	-20056	2344.1	-0.27962	0.8664	0.44574
0.418	133.4	-20053	2344	-0.27962	0.8663	0.44564
0.42	133.4	-20055	2344	-0.27962	0.8662	0.44554
0.422	133.4	-20060	2344	-0.27992	0.8663	0.44652
0.424	133.4	-20061	2344	-0.28021	0.8664	0.4475
0.426	133.4	-20058	2344	-0.2805	0.86649	0.44847
0.428	133.39	-20056	2344	-0.2808	0.86659	0.44945
0.43	133.39	-20054	2344	-0.28109	0.86669	0.45042
0.432	133.38	-20055	2344	-0.27875	0.86835	0.44916
0.434	133.38	-20059	2344.1	-0.2764	0.87001	0.44789
0.436	133.37	-20061	2344.1	-0.27406	0.87167	0.44662
0.438	133.37	-20062	2344.2	-0.27172	0.87332	0.44535
0.44	133.37	-20063	2344.2	-0.26938	0.87498	0.44408
0.442	133.36	-20063	2344.4	-0.27064	0.87401	0.44398
0.444	133.36	-20062	2344.6	-0.27191	0.87303	0.44388
0.446	133.36	-20061	2344.8	-0.27318	0.87206	0.44379
0.448	133.35	-20061	2345	-0.27445	0.87108	0.44369
0.45	133.35	-20064	2345.2	-0.27572	0.8701	0.44359
0.452	133.35	-20066	2345.6	-0.27592	0.87001	0.44349
0.454	133.34	-20069	2345.9	-0.27611	0.86991	0.4434
0.456	133.34	-20068	2346.2	-0.27631	0.86981	0.4433
0.458	133.34	-20064	2346.5	-0.2765	0.86971	0.4432
0.46	133.34	-20063	2346.8	-0.2767	0.86962	0.4431
0.462	133.34	-20066	2347.3	-0.2767	0.87049	0.44418
0.464	133.34	-20068	2347.7	-0.2767	0.87137	0.44525
0.466	133.33	-20069	2348.2	-0.2767	0.87225	0.44632
0.468	133.33	-20072	2348.7	-0.2767	0.87313	0.4474
0.47	133.33	-20076	2349.1	-0.2767	0.87401	0.44847
0.472	133.33	-20077	2349.7	-0.27777	0.87303	0.44798
0.474	133.33	-20075	2350.2	-0.27884	0.87206	0.4475
0.476	133.33	-20071	2350.7	-0.27992	0.87108	0.44701
0.478	133.33	-20066	2351.3	-0.28099	0.8701	0.44652
0.48	133.34	-20065	2351.8	-0.28206	0.86913	0.44603
0.482	133.33	-20068	2352.4	-0.27972	0.86971	0.44574
0.484	133.33	-20068	2353	-0.27738	0.8703	0.44545
0.486	133.34	-20067	2353.6	-0.27504	0.87088	0.44515
0.488	133.34	-20068	2354.2	-0.27269	0.87147	0.44486
0.49	133.34	-20073	2354.8	-0.27035	0.87206	0.44457
0.492	133.34	-20072	2355.4	-0.27279	0.87118	0.44584
0.494	133.34	-20065	2356	-0.27523	0.8703	0.44711
0.496	133.34	-20063	2356.5	-0.27767	0.86942	0.44837
0.498	133.34	-20065	2357.1	-0.28011	0.86854	0.44964
0.5	133.34	-20068	2357.6	-0.28255	0.86766	0.45091
0.502	133.34	-20073	2358.2	-0.28197	0.86796	0.44955
0.504	133.34	-20072	2358.7	-0.28138	0.86825	0.44818
0.506	133.34	-20064	2359.2	-0.2808	0.86854	0.44681
0.508	133.34	-20060	2359.7	-0.28021	0.86884	0.44545
0.51	133.34	-20059	2360.3	-0.27962	0.86913	0.44408
0.512	133.35	-20060	2360.7	-0.27826	0.87001	0.44418
0.514	133.35	-20062	2361.1	-0.27689	0.87088	0.44428
0.516	133.35	-20062	2361.5	-0.27552	0.87176	0.44437
0.518	133.35	-20059	2361.9	-0.27416	0.87264	0.44447
0.52	133.35	-20055	2362.3	-0.27279	0.87352	0.44457
0.522	133.35	-20049	2362.6	-0.27406	0.87157	0.44554
0.524	133.36	-20042	2362.9	-0.27533	0.86962	0.44652
0.526	133.36	-20034	2363.2	-0.2766	0.86766	0.4475
0.528	133.36	-20034	2363.5	-0.27787	0.86571	0.44847
0.53	133.37	-20041	2363.8	-0.27914	0.86376	0.44945
0.532	133.37	-20041	2364	-0.27923	0.86493	0.44876
0.534	133.37	-20036	2364.2	-0.27933	0.8661	0.44808
0.536	133.38	-20035	2364.4	-0.27943	0.86727	0.4474
0.538	133.39	-20038	2364.6	-0.27953	0.86844	0.44672
0.54	133.39	-20041	2364.7	-0.27962	0.86962	0.44603
0.542	133.4	-20044	2364.8	-0.27933	0.86874	0.44613
0.544	133.4	-20044	2364.9	-0.27904	0.86786	0.44623
0.546	133.41	-20043	2365	-0.27875	0.86698	0.44632
0.548	133.41	-20038	2365	-0.27845	0.8661	0.44642
0.55	133.41	-20031	2365.1	-0.27816	0.86522	0.44652
0.552	133.42	-20027	2365.1	-0.27826	0.86532	0.44623
0.554	133.42	-20028	2365.1	-0.27836	0.86542	0.44593
0.556	133.43	-20029	2365.1	-0.27845	0.86552	0.44564
0.558	133.43	-20030	2365.1	-0.27855	0.86561	0.44535
0.56	133.43	-20033	2365.1	-0.27865	0.86571	0.44506
0.562	133.43	-20037	2365	-0.27943	0.86591	0.44584
0.564	133.43	-20035	2364.9	-0.28021	0.8661	0.44662
0.566	133.43	-20027	2364.8	-0.28099	0.8663	0.4474
0.568	133.44	-20024	2364.8	-0.28177	0.86649	0.44818
0.57	133.44	-20024	2364.7	-0.28255	0.86669	0.44896
0.572	133.44	-20023	2364.6	-0.28167	0.86688	0.44837
0.574	133.45	-20018	2364.5	-0.2808	0.86708	0.44779
0.576	133.45	-20016	2364.4	-0.27992	0.86727	0.4472
0.578	133.45	-20016	2364.2	-0.27904	0.86747	0.44662
0.58	133.45	-20014	2364.1	-0.27816	0.86766	0.44603
0.582	133.45	-20009	2363.9	-0.27699	0.86864	0.44535
0.584	133.45	-20005	2363.8	-0.27582	0.86962	0.44467
0.586	133.46	-20003	2363.6	-0.27465	0.87059	0.44398
0.588	133.46	-20002	2363.5	-0.27348	0.87157	0.4433
0.59	133.46	-20002	2363.4	-0.2723	0.87254	0.44262
0.592	133.46	-20001	2363.2	-0.27289	0.87167	0.44281
0.594	133.46	-20000	2363	-0.27348	0.87079	0.44301
0.596	133.46	-19998	2362.8	-0.27406	0.86991	0.4432
0.598	133.45	-19997	2362.7	-0.27465	0.86903	0.4434
0.6	133.45	-19997	2362.6	-0.27523	0.86815	0.44359
0.602	133.45	-19997	2362.4	-0.27484	0.86932	0.44398
0.604	133.45	-19996	2362.2	-0.27445	0.87049	0.44437
0.606	133.45	-19994	2362.1	-0.27406	0.87167	0.44476
0.608	133.45	-19996	2361.9	-0.27367	0.87284	0.44515
0.61	133.45	-20001	2361.7	-0.27328	0.87401	0.44554
0.612	133.45	-20000	2361.5	-0.27367	0.87284	0.44525
0.614	133.45	-19991	2361.2	-0.27406	0.87167	0.44496
0.616	133.45	-19992	2361	-0.27445	0.87049	0.44467
0.618	133.45	-20001	2360.8	-0.27484	0.86932	0.44437
0.62	133.45	-20003	2360.5	-0.27523	0.86815	0.44408
0.622	133.46	-19997	2360.3	-0.27621	0.86844	0.44457
0.624	133.46	-19995	2360.1	-0.27718	0.86874	0.44506
0.626	133.46	-19996	2359.8	-0.27816	0.86903	0.44554
0.628	133.46	-20000	2359.5	-0.27914	0.86932	0.44603
0.63	133.46	-20006	2359.2	-0.28011	0.86962	0.44652
0.632	133.46	-20007	2358.9	-0.27787	0.8703	0.44515
0.634	133.45	-20004	2358.6	-0.27562	0.87098	0.44379
0.636	133.45	-19998	2358.3	-0.27338	0.87167	0.44242
0.638	133.45	-19987	2357.9	-0.27113	0.87235	0.44105
0.64	133.45	-19982	2357.6	-0.26889	0.87303	0.43969
0.642	133.45	-19982	2357.3	-0.27084	0.87264	0.44105
0.644	133.45	-19981	2357	-0.27279	0.87225	0.44242
0.646	133.44	-19980	2356.8	-0.27474	0.87186	0.44379
0.648	133.44	-19979	2356.5	-0.2767	0.87147	0.44515
0.65	133.44	-19980	2356.2	-0.27865	0.87108	0.44652
0.652	133.44	-19983	2356	-0.27777	0.87118	0.44593
0.654	133.44	-19989	2355.8	-0.27689	0.87128	0.44535
0.656	133.44	-19991	2355.6	-0.27601	0.87137	0.44476
0.658	133.44	-19989	2355.4	-0.27513	0.87147	0.44418
0.66	133.44	-19991	2355.2	-0.27426	0.87157	0.44359
0.662	133.44	-19996	2355	-0.27406	0.87137	0.4432
0.664	133.44	-19999	2354.8	-0.27387	0.87118	0.44281
0.666	133.44	-19999	2354.6	-0.27367	0.87098	0.44242
0.668	133.44	-19997	2354.4	-0.27348	0.87079	0.44203
0.67	133.44	-19995	2354.2	-0.27328	0.87059	0.44164
0.672	133.43	-19992	2354.1	-0.27484	0.8704	0.4431
0.674	133.44	-19989	2354	-0.2764	0.8702	0.44457
0.676	133.43	-19989	2353.9	-0.27796	0.87001	0.44603
0.678	133.43	-19991	2353.7	-0.27953	0.86981	0.4475
0.68	133.43	-19993	2353.6	-0.28109	0.86962	0.44896
0.682	133.43	-19993	2353.5	-0.27953	0.86942	0.44789
0.684	133.43	-19993	2353.5	-0.27796	0.86923	0.44681
0.686	133.43	-19992	2353.4	-0.2764	0.86903	0.44574
0.688	133.43	-19991	2353.3	-0.27484	0.86884	0.44467
0.69	133.43	-19990	2353.2	-0.27328	0.86864	0.44359
0.692	133.43	-19988	2353.2	-0.27416	0.86825	0.44418
0.694	133.43	-19982	2353.2	-0.27504	0.86786	0.44476
0.696	133.43	-19980	2353.2	-0.27592	0.86747	0.44535
0.698	133.43	-19980	2353.2	-0.27679	0.86708	0.44593
0.7	133.42	-19982	2353.2	-0.27767	0.86669	0.44652
0.702	133.42	-19985	2353.2	-0.27728	0.86649	0.44672
0.704	133.42	-19986	2353.2	-0.27689	0.8663	0.44691
0.706	133.43	-19986	2353.2	-0.2765	0.8661	0.44711
0.708	133.43	-19986	2353.2	-0.27611	0.86591	0.4473
0.71	133.43	-19986	2353.3	-0.27572	0.86571	0.4475
0.712	133.43	-19986	2353.3	-0.2767	0.86708	0.4472
0.714	133.43	-19986	2353.4	-0.27767	0.86844	0.44691
0.716	133.43	-19986	2353.5	-0.27865	0.86981	0.44662
0.718	133.43	-19987	2353.5	-0.27962	0.87118	0.44632
0.72	133.43	-19988	2353.6	-0.2806	0.87254	0.44603
0.722	133.43	-19989	2353.6	-0.28001	0.87137	0.44554
0.724	133.43	-19988	2353.7	-0.27943	0.8702	0.44506
0.726	133.43	-19987	2353.8	-0.27884	0.86903	0.44457
0.728	133.43	-19985	2353.8	-0.27826	0.86786	0.44408
0.73	133.43	-19981	2353.9	-0.27767	0.86669	0.44359
0.732	133.43	-19978	2354	-0.27679	0.86766	0.44359
0.734	133.43	-19976	2354.1	-0.27592	0.86864	0.44359
0.736	133.43	-19976	2354.1	-0.27504	0.86962	0.44359
0.738	133.43	-19978	2354.2	-0.27416	0.87059	0.44359
0.74	133.43	-19979	2354.2	-0.27328	0.87157	0.44359
0.742	133.43	-19979	2354.3	-0.27338	0.87225	0.44428
0.744	133.43	-19978	2354.3	-0.27348	0.87293	0.44496
0.746	133.43	-19978	2354.4	-0.27357	0.87362	0.44564
0.748	133.43	-19979	2354.4	-0.27367	0.8743	0.44632
0.75	133.43	-19980	2354.4	-0.27377	0.87498	0.44701
0.752	133.44	-19980	2354.5	-0.27406	0.8743	0.44662
0.754	133.44	-19981	2354.5	-0.27435	0.87362	0.44623
0.756	133.43	-19981	2354.5	-0.27465	0.87293	0.44584
0.758	133.43	-19981	2354.6	-0.27494	0.87225	0.44545
0.76	133.42	-19980	2354.6	-0.27523	0.87157	0.44506
0.762	133.42	-19981	2354.6	-0.27572	0.8704	0.44545
0.764	133.42	-19982	2354.6	-0.27621	0.86923	0.44584
0.766	133.42	-19985	2354.6	-0.2767	0.86805	0.44623
0.768	133.42	-19986	2354.5	-0.27718	0.86688	0.44662
0.77	133.42	-19987	2354.5	-0.27767	0.86571	0.44701
0.772	133.42	-19984	2354.5	-0.27836	0.86659	0.44672
0.774	133.42	-19978	2354.5	-0.27904	0.86747	0.44642
0.776	133.41	-19975	2354.4	-0.27972	0.86835	0.44613
0.778	133.41	-19978	2354.4	-0.2804	0.86923	0.44584
0.78	133.4	-19981	2354.3	-0.28109	0.8701	0.44554
0.782	133.4	-19985	2354.3	-0.28001	0.86864	0.44603
0.784	133.39	-19986	2354.2	-0.27894	0.86718	0.44652
0.786	133.38	-19985	2354.1	-0.27787	0.86571	0.44701
0.788	133.37	-19985	2354	-0.27679	0.86425	0.4475
0.79	133.38	-19985	2354	-0.27572	0.86278	0.44798
0.792	133.38	-19986	2353.9	-0.2765	0.86366	0.44818
0.794	133.38	-19989	2353.8	-0.27728	0.86454	0.44837
0.796	133.37	-19991	2353.8	-0.27806	0.86542	0.44857
0.798	133.38	-19992	2353.7	-0.27884	0.8663	0.44876
0.8	133.38	-19993	2353.6	-0.27962	0.86718	0.44896
0.802	133.39	-19993	2353.5	-0.27972	0.86727	0.44857
0.804	133.39	-19990	2353.3	-0.27982	0.86737	0.44818
0.806	133.38	-19984	2353.2	-0.27992	0.86747	0.44779
0.808	133.38	-19980	2353.1	-0.28001	0.86757	0.4474
0.81	133.38	-19978	2353	-0.28011	0.86766	0.44701
0.812	133.38	-19979	2352.9	-0.27943	0.86786	0.44662
0.814	133.37	-19984	2352.7	-0.27875	0.86805	0.44623
0.816	133.37	-19987	2352.6	-0.27806	0.86825	0.44584
0.818	133.37	-19988	2352.4	-0.27738	0.86844	0.44545
0.82	133.37	-19989	2352.3	-0.2767	0.86864	0.44506
0.822	133.37	-19990	2352.1	-0.27718	0.86796	0.44603
0.824	133.37	-19989	2351.9	-0.27767	0.86727	0.44701
0.826	133.37	-19985	2351.8	-0.27816	0.86659	0.44798
0.828	133.37	-19982	2351.6	-0.27865	0.86591	0.44896
0.83	133.37	-19981	2351.5	-0.27914	0.86522	0.44994
0.832	133.37	-19980	2351.3	-0.27806	0.8661	0.44847
0.834	133.37	-19977	2351.2	-0.27699	0.86698	0.44701
0.836	133.37	-19975	2351	-0.27592	0.86786	0.44554
0.838	133.37	-19976	2350.8	-0.27484	0.86874	0.44408
0.84	133.38	-19977	2350.6	-0.27377	0.86962	0.44262
0.842	133.38	-19978	2350.5	-0.27348	0.8702	0.44301
0.844	133.38	-19983	2350.3	-0.27318	0.87079	0.4434
0.846	133.39	-19990	2350.2	-0.27289	0.87137	0.44379
0.848	133.39	-19993	2350	-0.2726	0.87196	0.44418
0.85	133.4	-19994	2349.9	-0.2723	0.87254	0.44457
0.852	133.42	-19992	2349.7	-0.27377	0.87098	0.44525
0.854	133.44	-19989	2349.5	-0.27523	0.86942	0.44593
0.856	133.46	-19989	2349.4	-0.2767	0.86786	0.44662
0.858	133.46	-19991	2349.2	-0.27816	0.8663	0.4473
0.86	133.47	-19992	2349.1	-0.27962	0.86474	0.44798
0.862	133.47	-19991	2349	-0.27972	0.86464	0.44798
0.864	133.46	-19990	2348.9	-0.27982	0.86454	0.44798
0.866	133.46	-19989	2348.8	-0.27992	0.86444	0.44798
0.868	133.45	-19988	2348.7	-0.28001	0.86435	0.44798
0.87	133.45	-19985	2348.5	-0.28011	0.86425	0.44798
0.872	133.45	-19983	2348.4	-0.27923	0.8662	0.44779
0.874	133.45	-19983	2348.3	-0.27836	0.86815	0.44759
0.876	133.45	-19985	2348.3	-0.27748	0.8701	0.4474
0.878	133.45	-19989	2348.2	-0.2766	0.87206	0.4472
0.88	133.45	-19992	2348.1	-0.27572	0.87401	0.44701
0.882	133.45	-19997	2348	-0.27543	0.87323	0.44593
0.884	133.45	-19997	2347.9	-0.27513	0.87245	0.44486
0.886	133.45	-19994	2347.9	-0.27484	0.87167	0.44379
0.888	133.45	-19993	2347.8	-0.27455	0.87088	0.44271
0.89	133.45	-19994	2347.7	-0.27426	0.8701	0.44164
0.892	133.45	-19997	2347.7	-0.27455	0.86981	0.44203
0.894	133.45	-20001	2347.7	-0.27484	0.86952	0.44242
0.896	133.44	-20003	2347.7	-0.27513	0.86923	0.44281
0.898	133.44	-20002	2347.6	-0.27543	0.86893	0.4432
0.9	133.44	-19999	2347.6	-0.27572	0.86864	0.44359
0.902	133.44	-19996	2347.6	-0.27543	0.86903	0.44369
0.904	133.45	-19997	2347.5	-0.27513	0.86942	0.44379
0.906	133.45	-20001	2347.5	-0.27484	0.86981	0.44388
0.908	133.45	-20005	2347.5	-0.27455	0.8702	0.44398
0.91	133.45	-20008	2347.5	-0.27426	0.87059	0.44408
0.912	133.46	-20011	2347.5	-0.27367	0.87118	0.44437
0.914	133.47	-20012	2347.4	-0.27308	0.87176	0.44467
0.916	133.5	-20013	2347.4	-0.2725	0.87235	0.44496
0.918	133.53	-20012	2347.4	-0.27191	0.87293	0.44525
0.92	133.56	-20011	2347.4	-0.27133	0.87352	0.44554
0.922	133.6	-20009	2347.4	-0.2723	0.87284	0.44554
0.924	133.61	-20006	2347.3	-0.27328	0.87215	0.44554
0.926	133.6	-20003	2347.3	-0.27426	0.87147	0.44554
0.928	133.56	-20004	2347.3	-0.27523	0.87079	0.44554
0.93	133.51	-20011	2347.2	-0.27621	0.8701	0.44554
0.932	133.44	-20017	2347.2	-0.27572	0.87049	0.44535
0.934	133.36	-20022	2347.2	-0.27523	0.87088	0.44515
0.936	133.27	-20022	2347.1	-0.27474	0.87128	0.44496
0.938	133.17	-20015	2347.1	-0.27426	0.87167	0.44476
0.94	133.05	-20012	2347.1	-0.27377	0.87206	0.44457
0.942	132.93	-20013	2347.1	-0.27406	0.87254	0.44545
0.944	132.78	-20013	2347	-0.27435	0.87303	0.44632
0.946	132.62	-20013	2347	-0.27465	0.87352	0.4472
0.948	132.46	-20013	2346.9	-0.27494	0.87401	0.44808
0.95	132.31	-20014	2346.9	-0.27523	0.8745	0.44896
0.952	132.18	-20015	2346.8	-0.27426	0.87381	0.44759
0.954	132.08	-20016	2346.7	-0.27328	0.87313	0.44623
0.956	132.04	-20019	2346.6	-0.2723	0.87245	0.44486
0.958	132.08	-20025	2346.5	-0.27133	0.87176	0.44349
0.96	132.21	-20025	2346.5	-0.27035	0.87108	0.44213
0.962	132.4	-20018	2346.4	-0.27152	0.87079	0.44223
0.964	132.61	-20013	2346.3	-0.27269	0.87049	0.44232
0.966	132.81	-20011	2346.3	-0.27387	0.8702	0.44242
0.968	133	-20013	2346.2	-0.27504	0.86991	0.44252
0.97	133.16	-20018	2346.2	-0.27621	0.86962	0.44262
0.972	133.27	-20020	2346.1	-0.27572	0.8703	0.44281
0.974	133.33	-20019	2346	-0.27523	0.87098	0.44301
0.976	133.37	-20020	2346	-0.27474	0.87167	0.4432
0.978	133.43	-20026	2345.9	-0.27426	0.87235	0.4434
0.98	133.46	-20025	2345.8	-0.27377	0.87303	0.44359
0.982	133.47	-20018	2345.7	-0.27367	0.87254	0.44379
0.984	133.45	-20016	2345.6	-0.27357	0.87206	0.44398
0.986	133.42	-20020	2345.6	-0.27348	0.87157	0.44418
0.988	133.38	-20022	2345.5	-0.27338	0.87108	0.44437
0.99	133.36	-20022	2345.5	-0.27328	0.87059	0.44457
0.992	133.35	-20021	2345.4	-0.27289	0.87118	0.44457
0.994	133.34	-20018	2345.4	-0.2725	0.87176	0.44457
0.996	133.33	-20017	2345.3	-0.27211	0.87235	0.44457
0.998	133.33	-20019	2345.3	-0.27172	0.87293	0.44457
1	133.34	-20018	2345.2	-0.27133	0.87352	0.44457
1.002	133.35	-20016	2345.1	-0.27074	0.87342	0.44418
1.004	133.36	-20017	2345.1	-0.27016	0.87332	0.44379
1.006	133.37	-20022	2345	-0.26957	0.87323	0.4434
1.008	133.38	-20024	2345	-0.26899	0.87313	0.44301
1.01	133.38	-20025	2344.9	-0.2684	0.87303	0.44262
1.012	133.38	-20026	2344.8	-0.26977	0.87245	0.4432
1.014	133.38	-20026	2344.8	-0.27113	0.87186	0.44379
1.016	133.38	-20029	2344.7	-0.2725	0.87128	0.44437
1.018	133.38	-20034	2344.7	-0.27387	0.87069	0.44496
1.02	133.38	-20035	2344.6	-0.27523	0.8701	0.44554
1.022	133.38	-20034	2344.5	-0.27455	0.87049	0.44515
1.024	133.38	-20034	2344.4	-0.27387	0.87088	0.44476
1.026	133.38	-20035	2344.4	-0.27318	0.87128	0.44437
1.028	133.38	-20038	2344.3	-0.2725	0.87167	0.44398
1.03	133.38	-20043	2344.3	-0.27182	0.87206	0.44359
1.032	133.37	-20044	2344.3	-0.2724	0.87137	0.44359
1.034	133.37	-20043	2344.2	-0.27299	0.87069	0.44359
1.036	133.37	-20042	2344.1	-0.27357	0.87001	0.44359
1.038	133.37	-20040	2344.1	-0.27416	0.86932	0.44359
1.04	133.37	-20042	2344	-0.27474	0.86864	0.44359
1.042	133.37	-20047	2343.9	-0.27494	0.86932	0.44388
1.044	133.37	-20049	2343.9	-0.27513	0.87001	0.44418
1.046	133.36	-20048	2343.9	-0.27533	0.87069	0.44447
1.048	133.36	-20046	2343.8	-0.27552	0.87137	0.44476
1.05	133.35	-20044	2343.8	-0.27572	0.87206	0.44506
1.052	133.35	-20042	2343.7	-0.27592	0.87118	0.44584
1.054	133.35	-20041	2343.7	-0.27611	0.8703	0.44662
1.056	133.35	-20042	2343.6	-0.27631	0.86942	0.4474
1.058	133.35	-20047	2343.6	-0.2765	0.86854	0.44818
1.06	133.35	-20048	2343.6	-0.2767	0.86766	0.44896
1.062	133.35	-20047	2343.6	-0.27621	0.86864	0.44818
1.064	133.35	-20050	2343.5	-0.27572	0.86962	0.4474
1.066	133.34	-20057	2343.5	-0.27523	0.87059	0.44662
1.068	133.34	-20061	2343.5	-0.27474	0.87157	0.44584
1.07	133.33	-20061	2343.4	-0.27426	0.87254	0.44506
1.072	133.33	-20059	2343.4	-0.27416	0.87215	0.44486
1.074	133.33	-20055	2343.4	-0.27406	0.87176	0.44467
1.076	133.33	-20053	2343.3	-0.27396	0.87137	0.44447
1.078	133.32	-20051	2343.3	-0.27387	0.87098	0.44428
1.08	133.32	-20050	2343.3	-0.27377	0.87059	0.44408
1.082	133.32	-20049	2343.3	-0.27299	0.87098	0.44418
1.084	133.32	-20050	2343.2	-0.27221	0.87137	0.44428
1.086	133.32	-20050	2343.2	-0.27143	0.87176	0.44437
1.088	133.31	-20053	2343.1	-0.27064	0.87215	0.44447
1.09	133.31	-20058	2343.1	-0.26986	0.87254	0.44457
1.092	133.31	-20059	2343	-0.27025	0.87245	0.44437
1.094	133.31	-20055	2343	-0.27064	0.87235	0.44418
1.096	133.3	-20057	2342.9	-0.27104	0.87225	0.44398
1.098	133.3	-20063	2342.9	-0.27143	0.87215	0.44379
1.1	133.3	-20064	2342.9	-0.27182	0.87206	0.44359
1.102	133.29	-20061	2342.9	-0.2724	0.87225	0.44418
1.104	133.29	-20059	2342.8	-0.27299	0.87245	0.44476
1.106	133.29	-20059	2342.8	-0.27357	0.87264	0.44535
1.108	133.28	-20062	2342.9	-0.27416	0.87284	0.44593
1.11	133.28	-20068	2342.9	-0.27474	0.87303	0.44652
1.112	133.27	-20071	2342.9	-0.27387	0.87332	0.44623
1.114	133.27	-20073	2342.9	-0.27299	0.87362	0.44593
1.116	133.26	-20073	2342.9	-0.27211	0.87391	0.44564
1.118	133.26	-20072	2343	-0.27123	0.8742	0.44535
1.12	133.26	-20071	2343.1	-0.27035	0.8745	0.44506
1.122	133.26	-20071	2343.2	-0.27143	0.87352	0.44467
1.124	133.25	-20070	2343.3	-0.2725	0.87254	0.44428
1.126	133.25	-20068	2343.5	-0.27357	0.87157	0.44388
1.128	133.25	-20067	2343.8	-0.27465	0.87059	0.44349
1.13	133.25	-20067	2344	-0.27572	0.86962	0.4431
1.132	133.24	-20068	2344.3	-0.27533	0.86971	0.44349
1.134	133.24	-20069	2344.6	-0.27494	0.86981	0.44388
1.136	133.24	-20072	2345	-0.27455	0.86991	0.44428
1.138	133.24	-20075	2345.4	-0.27416	0.87001	0.44467
1.14	133.24	-20079	2345.7	-0.27377	0.8701	0.44506
1.142	133.23	-20083	2346.2	-0.27445	0.87069	0.44603
1.144	133.23	-20083	2346.7	-0.27513	0.87128	0.44701
1.146	133.23	-20080	2347.2	-0.27582	0.87186	0.44798
1.148	133.23	-20079	2347.7	-0.2765	0.87245	0.44896
1.15	133.22	-20080	2348.2	-0.27718	0.87303	0.44994
1.152	133.22	-20081	2348.7	-0.27865	0.87381	0.45003
1.154	133.22	-20081	2349.2	-0.28011	0.87459	0.45013
1.156	133.23	-20079	2349.8	-0.28158	0.87537	0.45023
1.158	133.23	-20075	2350.4	-0.28304	0.87616	0.45033
1.16	133.23	-20074	2350.9	-0.2845	0.87694	0.45042
1.162	133.23	-20075	2351.5	-0.28255	0.87596	0.44896
1.164	133.23	-20075	2352.1	-0.2806	0.87498	0.4475
1.166	133.23	-20074	2352.6	-0.27865	0.87401	0.44603
1.168	133.24	-20072	2353.2	-0.2767	0.87303	0.44457
1.17	133.23	-20069	2353.8	-0.27474	0.87206	0.4431
1.172	133.23	-20067	2354.3	-0.27533	0.87176	0.44467
1.174	133.23	-20068	2354.9	-0.27592	0.87147	0.44623
1.176	133.24	-20069	2355.4	-0.2765	0.87118	0.44779
1.178	133.24	-20072	2356	-0.27709	0.87088	0.44935
1.18	133.24	-20071	2356.6	-0.27767	0.87059	0.45091
1.182	133.24	-20067	2357.1	-0.27855	0.87049	0.45042
1.184	133.24	-20064	2357.6	-0.27943	0.8704	0.44994
1.186	133.24	-20062	2358.1	-0.28031	0.8703	0.44945
1.188	133.24	-20060	2358.6	-0.28119	0.8702	0.44896
1.19	133.25	-20060	2359.1	-0.28206	0.8701	0.44847
1.192	133.25	-20059	2359.5	-0.27992	0.8704	0.4473
1.194	133.25	-20059	2360	-0.27777	0.87069	0.44613
1.196	133.25	-20063	2360.4	-0.27562	0.87098	0.44496
1.198	133.25	-20071	2360.7	-0.27348	0.87128	0.44379
1.2	133.25	-20077	2361.1	-0.27133	0.87157	0.44262
1.202	133.26	-20079	2361.4	-0.27221	0.87128	0.44281
1.204	133.26	-20077	2361.7	-0.27308	0.87098	0.44301
1.206	133.27	-20070	2362	-0.27396	0.87069	0.4432
1.208	133.27	-20068	2362.3	-0.27484	0.8704	0.4434
1.21	133.28	-20070	2362.6	-0.27572	0.8701	0.44359
1.212	133.28	-20070	2362.8	-0.27513	0.87069	0.44359
1.214	133.29	-20067	2363	-0.27455	0.87128	0.44359
1.216	133.29	-20067	2363.2	-0.27396	0.87186	0.44359
1.218	133.29	-20069	2363.3	-0.27338	0.87245	0.44359
1.22	133.3	-20066	2363.4	-0.27279	0.87303	0.44359
1.222	133.3	-20059	2363.5	-0.27279	0.87254	0.4434
1.224	133.31	-20052	2363.7	-0.27279	0.87206	0.4432
1.226	133.31	-20046	2363.7	-0.27279	0.87157	0.44301
1.228	133.32	-20042	2363.8	-0.27279	0.87108	0.44281
1.23	133.32	-20040	2363.9	-0.27279	0.87059	0.44262
1.232	133.32	-20036	2363.8	-0.27269	0.87118	0.4433
1.234	133.32	-20033	2363.8	-0.2726	0.87176	0.44398
1.236	133.33	-20032	2363.8	-0.2725	0.87235	0.44467
1.238	133.33	-20035	2363.8	-0.2724	0.87293	0.44535
1.24	133.34	-20039	2363.8	-0.2723	0.87352	0.44603
1.242	133.34	-20042	2363.7	-0.27162	0.87381	0.44632
1.244	133.35	-20042	2363.6	-0.27094	0.87411	0.44662
1.246	133.35	-20039	2363.5	-0.27025	0.8744	0.44691
1.248	133.35	-20036	2363.4	-0.26957	0.87469	0.4472
1.25	133.35	-20035	2363.3	-0.26889	0.87498	0.4475
1.252	133.35	-20033	2363.2	-0.27045	0.87381	0.44681
1.254	133.35	-20031	2363.1	-0.27201	0.87264	0.44613
1.256	133.35	-20030	2362.9	-0.27357	0.87147	0.44545
1.258	133.35	-20029	2362.8	-0.27513	0.8703	0.44476
1.26	133.35	-20029	2362.6	-0.2767	0.86913	0.44408
1.262	133.36	-20028	2362.5	-0.27601	0.86903	0.44398
1.264	133.36	-20027	2362.3	-0.27533	0.86893	0.44388
1.266	133.35	-20024	2362.2	-0.27465	0.86884	0.44379
1.268	133.35	-20022	2362.1	-0.27396	0.86874	0.44369
1.27	133.35	-20021	2362	-0.27328	0.86864	0.44359
1.272	133.36	-20021	2361.8	-0.27348	0.86962	0.44408
1.274	133.36	-20022	2361.6	-0.27367	0.87059	0.44457
1.276	133.36	-20022	2361.4	-0.27387	0.87157	0.44506
1.278	133.36	-20023	2361.2	-0.27406	0.87254	0.44554
1.28	133.36	-20023	2361.1	-0.27426	0.87352	0.44603
1.282	133.36	-20022	2360.9	-0.27328	0.87332	0.44554
1.284	133.36	-20019	2360.7	-0.2723	0.87313	0.44506
1.286	133.36	-20015	2360.5	-0.27133	0.87293	0.44457
1.288	133.36	-20013	2360.3	-0.27035	0.87274	0.44408
1.29	133.36	-20012	2360	-0.26938	0.87254	0.44359
1.292	133.36	-20011	2359.8	-0.26947	0.87206	0.4431
1.294	133.36	-20010	2359.5	-0.26957	0.87157	0.44262
1.296	133.36	-20008	2359.3	-0.26967	0.87108	0.44213
1.298	133.36	-20005	2359	-0.26977	0.87059	0.44164
1.3	133.36	-20003	2358.7	-0.26986	0.8701	0.44115
1.302	133.36	-20002	2358.4	-0.27094	0.8703	0.44174
1.304	133.36	-20003	2358.1	-0.27201	0.87049	0.44232
1.306	133.36	-20007	2357.8	-0.27308	0.87069	0.44291
1.308	133.36	-20007	2357.5	-0.27416	0.87088	0.44349
1.31	133.36	-20004	2357.2	-0.27523	0.87108	0.44408
1.312	133.36	-20001	2356.9	-0.27396	0.87167	0.44379
1.314	133.36	-19997	2356.6	-0.27269	0.87225	0.44349
1.316	133.36	-19994	2356.3	-0.27143	0.87284	0.4432
1.318	133.36	-19992	2355.9	-0.27016	0.87342	0.44291
1.32	133.35	-19993	2355.6	-0.26889	0.87401	0.44262
1.322	133.35	-19997	2355.3	-0.26986	0.87284	0.44301
1.324	133.36	-20000	2355.1	-0.27084	0.87167	0.4434
1.326	133.35	-20004	2354.8	-0.27182	0.87049	0.44379
1.328	133.35	-20006	2354.6	-0.27279	0.86932	0.44418
1.33	133.34	-20006	2354.3	-0.27377	0.86815	0.44457
1.332	133.35	-20004	2354.1	-0.27338	0.86913	0.44418
1.334	133.34	-19999	2353.9	-0.27299	0.8701	0.44379
1.336	133.34	-19996	2353.6	-0.2726	0.87108	0.4434
1.338	133.34	-19994	2353.4	-0.27221	0.87206	0.44301
1.34	133.34	-19995	2353.2	-0.27182	0.87303	0.44262
1.342	133.34	-20000	2353.1	-0.27172	0.87342	0.4431
1.344	133.33	-20002	2352.9	-0.27162	0.87381	0.44359
1.346	133.33	-20001	2352.7	-0.27152	0.8742	0.44408
1.348	133.33	-20000	2352.6	-0.27143	0.87459	0.44457
1.35	133.33	-20000	2352.4	-0.27133	0.87498	0.44506
1.352	133.33	-19998	2352.3	-0.27162	0.87498	0.44525
1.354	133.33	-19996	2352.2	-0.27191	0.87498	0.44545
1.356	133.34	-19997	2352.1	-0.27221	0.87498	0.44564
1.358	133.34	-20000	2352	-0.2725	0.87498	0.44584
1.36	133.33	-20000	2351.9	-0.27279	0.87498	0.44603
1.362	133.33	-19998	2351.9	-0.27289	0.8743	0.44574
1.364	133.33	-19994	2351.8	-0.27299	0.87362	0.44545
1.366	133.33	-19990	2351.8	-0.27308	0.87293	0.44515
1.368	133.33	-19989	2351.8	-0.27318	0.87225	0.44486
1.37	133.33	-19992	2351.7	-0.27328	0.87157	0.44457
1.372	133.33	-19993	2351.7	-0.27357	0.87088	0.44457
1.374	133.33	-19991	2351.6	-0.27387	0.8702	0.44457
1.376	133.33	-19995	2351.6	-0.27416	0.86952	0.44457
1.378	133.34	-20006	2351.6	-0.27445	0.86884	0.44457
1.38	133.33	-20009	2351.5	-0.27474	0.86815	0.44457
1.382	133.33	-20004	2351.5	-0.27484	0.86835	0.44418
1.384	133.33	-20002	2351.6	-0.27494	0.86854	0.44379
1.386	133.33	-20003	2351.6	-0.27504	0.86874	0.4434
1.388	133.33	-20001	2351.6	-0.27513	0.86893	0.44301
1.39	133.33	-19998	2351.7	-0.27523	0.86913	0.44262
1.392	133.33	-19998	2351.7	-0.27552	0.86854	0.44291
1.394	133.34	-20000	2351.8	-0.27582	0.86796	0.4432
1.396	133.33	-20001	2351.9	-0.27611	0.86737	0.44349
1.398	133.33	-20002	2351.9	-0.2764	0.86679	0.44379
1.4	133.33	-20001	2352	-0.2767	0.8662	0.44408
1.402	133.33	-20000	2352.1	-0.27631	0.86698	0.44467
1.404	133.33	-19998	2352.1	-0.27592	0.86776	0.44525
1.406	133.33	-19997	2352.1	-0.27552	0.86854	0.44584
1.408	133.33	-19997	2352.2	-0.27513	0.86932	0.44642
1.41	133.33	-20000	2352.2	-0.27474	0.8701	0.44701
1.412	133.33	-20002	2352.3	-0.27367	0.87118	0.44672
1.414	133.33	-20005	2352.3	-0.2726	0.87225	0.44642
1.416	133.33	-20006	2352.4	-0.27152	0.87332	0.44613
1.418	133.33	-20005	2352.4	-0.27045	0.8744	0.44584
1.42	133.33	-20006	2352.4	-0.26938	0.87547	0.44554
1.422	133.33	-20008	2352.5	-0.27104	0.87401	0.44574
1.424	133.33	-20010	2352.5	-0.27269	0.87254	0.44593
1.426	133.32	-20010	2352.6	-0.27435	0.87108	0.44613
1.428	133.32	-20011	2352.6	-0.27601	0.86962	0.44632
1.43	133.32	-20012	2352.6	-0.27767	0.86815	0.44652
1.432	133.32	-20009	2352.6	-0.27748	0.86786	0.44623
1.434	133.31	-20002	2352.6	-0.27728	0.86757	0.44593
1.436	133.31	-20000	2352.6	-0.27709	0.86727	0.44564
1.438	133.31	-20003	2352.6	-0.27689	0.86698	0.44535
1.44	133.31	-20004	2352.6	-0.2767	0.86669	0.44506
1.442	133.31	-20004	2352.6	-0.27718	0.8663	0.44574
1.444	133.31	-20002	2352.6	-0.27767	0.86591	0.44642
1.446	133.3	-20000	2352.6	-0.27816	0.86552	0.44711
1.448	133.3	-19999	2352.6	-0.27865	0.86513	0.44779
1.45	133.3	-20000	2352.6	-0.27914	0.86474	0.44847
1.452	133.28	-20003	2352.5	-0.27787	0.86561	0.44789
1.454	133.28	-20008	2352.5	-0.2766	0.86649	0.4473
1.456	133.28	-20011	2352.4	-0.27533	0.86737	0.44672
1.458	133.27	-20012	2352.4	-0.27406	0.86825	0.44613
1.46	133.27	-20008	2352.4	-0.27279	0.86913	0.44554
1.462	133.27	-20000	2352.3	-0.2724	0.86923	0.44525
1.464	133.28	-19999	2352.3	-0.27201	0.86932	0.44496
1.466	133.28	-20006	2352.2	-0.27162	0.86942	0.44467
1.468	133.28	-20010	2352.1	-0.27123	0.86952	0.44437
1.47	133.28	-20011	2352	-0.27084	0.86962	0.44408
1.472	133.28	-20008	2352	-0.26996	0.8702	0.44369
1.474	133.28	-20002	2351.9	-0.26908	0.87079	0.4433
1.476	133.28	-20003	2351.8	-0.2682	0.87137	0.44291
1.478	133.28	-20011	2351.6	-0.26733	0.87196	0.44252
1.48	133.27	-20014	2351.5	-0.26645	0.87254	0.44213
1.482	133.27	-20012	2351.5	-0.26879	0.87215	0.44281
1.484	133.27	-20010	2351.4	-0.27113	0.87176	0.44349
1.486	133.27	-20009	2351.3	-0.27348	0.87137	0.44418
1.488	133.27	-20008	2351.1	-0.27582	0.87098	0.44486
1.49	133.27	-20006	2351	-0.27816	0.87059	0.44554
1.492	133.27	-20004	2350.8	-0.2764	0.87079	0.44515
1.494	133.27	-20003	2350.7	-0.27465	0.87098	0.44476
1.496	133.27	-20003	2350.6	-0.27289	0.87118	0.44437
1.498	133.27	-20006	2350.5	-0.27113	0.87137	0.44398
1.5	133.27	-20007	2350.3	-0.26938	0.87157	0.44359
1.502	133.27	-20008	2350.2	-0.26938	0.87186	0.44359
1.504	133.27	-20009	2350.1	-0.26938	0.87215	0.44359
1.506	133.28	-20009	2350	-0.26938	0.87245	0.44359
1.508	133.29	-20010	2349.8	-0.26938	0.87274	0.44359
1.51	133.29	-20011	2349.7	-0.26938	0.87303	0.44359
1.512	133.29	-20010	2349.6	-0.26947	0.87342	0.44379
1.514	133.3	-20008	2349.4	-0.26957	0.87381	0.44398
1.516	133.31	-20006	2349.3	-0.26967	0.8742	0.44418
1.518	133.32	-20006	2349.2	-0.26977	0.87459	0.44437
1.52	133.34	-20006	2349	-0.26986	0.87498	0.44457
1.522	133.35	-20006	2348.9	-0.27045	0.8745	0.44418
1.524	133.36	-20006	2348.8	-0.27104	0.87401	0.44379
1.526	133.37	-20007	2348.6	-0.27162	0.87352	0.4434
1.528	133.37	-20008	2348.5	-0.27221	0.87303	0.44301
1.53	133.36	-20010	2348.4	-0.27279	0.87254	0.44262
1.532	133.36	-20012	2348.3	-0.27308	0.87284	0.44398
1.534	133.35	-20015	2348.2	-0.27338	0.87313	0.44535
1.536	133.35	-20018	2348.1	-0.27367	0.87342	0.44672
1.538	133.35	-20020	2348	-0.27396	0.87372	0.44808
1.54	133.35	-20019	2347.9	-0.27426	0.87401	0.44945
1.542	133.35	-20015	2347.8	-0.27308	0.8743	0.44857
1.544	133.35	-20014	2347.6	-0.27191	0.87459	0.44769
1.546	133.35	-20016	2347.6	-0.27074	0.87489	0.44681
1.548	133.35	-20015	2347.5	-0.26957	0.87518	0.44593
1.55	133.35	-20012	2347.4	-0.2684	0.87547	0.44506
1.552	133.35	-20008	2347.4	-0.26967	0.87489	0.44486
1.554	133.35	-20005	2347.3	-0.27094	0.8743	0.44467
1.556	133.35	-20005	2347.2	-0.27221	0.87372	0.44447
1.558	133.35	-20007	2347.1	-0.27348	0.87313	0.44428
1.56	133.35	-20009	2347.1	-0.27474	0.87254	0.44408
1.562	133.35	-20010	2347	-0.27416	0.87293	0.44447
1.564	133.35	-20011	2347	-0.27357	0.87332	0.44486
1.566	133.35	-20011	2347	-0.27299	0.87372	0.44525
1.568	133.34	-20014	2347	-0.2724	0.87411	0.44564
1.57	133.34	-20020	2346.9	-0.27182	0.8745	0.44603
1.572	133.35	-20023	2346.9	-0.27221	0.87362	0.44525
1.574	133.34	-20023	2346.9	-0.2726	0.87274	0.44447
1.576	133.35	-20022	2346.9	-0.27299	0.87186	0.44369
1.578	133.36	-20020	2346.8	-0.27338	0.87098	0.44291
1.58	133.38	-20020	2346.8	-0.27377	0.8701	0.44213
1.582	133.41	-20022	2346.8	-0.27406	0.87069	0.44291
1.584	133.44	-20022	2346.8	-0.27435	0.87128	0.44369
1.586	133.47	-20022	2346.8	-0.27465	0.87186	0.44447
1.588	133.5	-20021	2346.8	-0.27494	0.87245	0.44525
1.59	133.5	-20021	2346.8	-0.27523	0.87303	0.44603
1.592	133.47	-20021	2346.7	-0.27435	0.87362	0.44613
1.594	133.42	-20022	2346.7	-0.27348	0.8742	0.44623
1.596	133.36	-20023	2346.7	-0.2726	0.87479	0.44632
1.598	133.28	-20024	2346.6	-0.27172	0.87537	0.44642
1.6	133.19	-20025	2346.5	-0.27084	0.87596	0.44652
1.602	133.09	-20026	2346.5	-0.27113	0.87528	0.44603
1.604	132.98	-20027	2346.5	-0.27143	0.87459	0.44554
1.606	132.86	-20026	2346.4	-0.27172	0.87391	0.44506
1.608	132.73	-20026	2346.4	-0.27201	0.87323	0.44457
1.61	132.57	-20025	2346.3	-0.2723	0.87254	0.44408
1.612	132.42	-20026	2346.3	-0.27211	0.87196	0.4432
1.614	132.27	-20029	2346.3	-0.27191	0.87137	0.44232
1.616	132.12	-20031	2346.3	-0.27172	0.87079	0.44144
1.618	132.01	-20030	2346.3	-0.27152	0.8702	0.44057
1.62	131.97	-20029	2346.2	-0.27133	0.86962	0.43969
1.622	132	-20028	2346.2	-0.2723	0.8704	0.44096
1.624	132.12	-20029	2346.1	-0.27328	0.87118	0.44223
1.626	132.29	-20029	2346.1	-0.27426	0.87196	0.44349
1.628	132.49	-20027	2346.1	-0.27523	0.87274	0.44476
1.63	132.68	-20023	2346	-0.27621	0.87352	0.44603
1.632	132.88	-20021	2346	-0.27504	0.87391	0.44632
1.634	133.06	-20023	2346	-0.27387	0.8743	0.44662
1.636	133.2	-20027	2345.9	-0.27269	0.87469	0.44691
1.638	133.26	-20033	2345.8	-0.27152	0.87508	0.4472
1.64	133.29	-20037	2345.8	-0.27035	0.87547	0.4475
1.642	133.31	-20038	2345.7	-0.27094	0.87586	0.4475
1.644	133.34	-20039	2345.7	-0.27152	0.87625	0.4475
1.646	133.35	-20039	2345.7	-0.27211	0.87664	0.4475
1.648	133.37	-20037	2345.6	-0.27269	0.87703	0.4475
1.65	133.36	-20035	2345.6	-0.27328	0.87742	0.4475
1.652	133.34	-20034	2345.5	-0.2725	0.87616	0.44623
1.654	133.3	-20035	2345.5	-0.27172	0.87489	0.44496
1.656	133.27	-20035	2345.4	-0.27094	0.87362	0.44369
1.658	133.26	-20035	2345.4	-0.27016	0.87235	0.44242
1.66	133.24	-20037	2345.3	-0.26938	0.87108	0.44115
1.662	133.24	-20042	2345.3	-0.27094	0.87088	0.44232
1.664	133.23	-20046	2345.2	-0.2725	0.87069	0.44349
1.666	133.24	-20049	2345.1	-0.27406	0.87049	0.44467
1.668	133.26	-20048	2345.1	-0.27562	0.8703	0.44584
1.67	133.27	-20045	2345	-0.27718	0.8701	0.44701
1.672	133.27	-20044	2345	-0.27601	0.87079	0.44662
1.674	133.28	-20044	2344.9	-0.27484	0.87147	0.44623
1.676	133.28	-20045	2344.9	-0.27367	0.87215	0.44584
1.678	133.28	-20047	2344.8	-0.2725	0.87284	0.44545
1.68	133.28	-20048	2344.7	-0.27133	0.87352	0.44506
1.682	133.28	-20048	2344.6	-0.2724	0.87245	0.44525
1.684	133.28	-20047	2344.5	-0.27348	0.87137	0.44545
1.686	133.28	-20045	2344.4	-0.27455	0.8703	0.44564
1.688	133.28	-20043	2344.3	-0.27562	0.86923	0.44584
1.69	133.28	-20043	2344.3	-0.2767	0.86815	0.44603
1.692	133.28	-20047	2344.2	-0.27611	0.86932	0.44593
1.694	133.28	-20054	2344.1	-0.27552	0.87049	0.44584
1.696	133.28	-20056	2344	-0.27494	0.87167	0.44574
1.698	133.27	-20052	2343.9	-0.27435	0.87284	0.44564
1.7	133.27	-20050	2343.9	-0.27377	0.87401	0.44554
1.702	133.27	-20050	2343.8	-0.27367	0.87411	0.44584
1.704	133.26	-20051	2343.7	-0.27357	0.8742	0.44613
1.706	133.26	-20052	2343.7	-0.27348	0.8743	0.44642
1.708	133.26	-20053	2343.6	-0.27338	0.8744	0.44672
1.71	133.26	-20054	2343.5	-0.27328	0.8745	0.44701
1.712	133.26	-20057	2343.5	-0.27377	0.87352	0.44691
1.714	133.26	-20060	2343.4	-0.27426	0.87254	0.44681
1.716	133.26	-20062	2343.4	-0.27474	0.87157	0.44672
1.718	133.25	-20063	2343.3	-0.27523	0.87059	0.44662
1.72	133.25	-20064	2343.3	-0.27572	0.86962	0.44652
1.722	133.25	-20063	2343.2	-0.27533	0.87059	0.44642
1.724	133.25	-20061	2343.2	-0.27494	0.87157	0.44632
1.726	133.25	-20057	2343.1	-0.27455	0.87254	0.44623
1.728	133.25	-20058	2343.1	-0.27416	0.87352	0.44613
1.73	133.24	-20064	2343	-0.27377	0.8745	0.44603
1.732	133.24	-20069	2343	-0.27308	0.87381	0.44515
1.734	133.24	-20072	2343	-0.2724	0.87313	0.44428
1.736	133.23	-20073	2343	-0.27172	0.87245	0.4434
1.738	133.23	-20072	2343	-0.27104	0.87176	0.44252
1.74	133.23	-20069	2343	-0.27035	0.87108	0.44164
1.742	133.23	-20065	2343	-0.27045	0.87137	0.44193
1.744	133.23	-20064	2343	-0.27055	0.87167	0.44223
1.746	133.22	-20066	2343	-0.27064	0.87196	0.44252
1.748	133.22	-20066	2343	-0.27074	0.87225	0.44281
1.75	133.22	-20065	2342.9	-0.27084	0.87254	0.4431
1.752	133.22	-20064	2342.9	-0.27113	0.87284	0.44388
1.754	133.22	-20062	2342.9	-0.27143	0.87313	0.44467
1.756	133.22	-20063	2342.9	-0.27172	0.87342	0.44545
1.758	133.22	-20065	2342.9	-0.27201	0.87372	0.44623
1.76	133.21	-20066	2342.8	-0.2723	0.87401	0.44701
1.762	133.21	-20065	2342.8	-0.27221	0.87381	0.44642
1.764	133.2	-20072	2342.7	-0.27211	0.87362	0.44584
1.766	133.2	-20087	2342.7	-0.27201	0.87342	0.44525
1.768	133.19	-20092	2342.7	-0.27191	0.87323	0.44467
1.77	133.19	-20088	2342.7	-0.27182	0.87303	0.44408
1.772	133.19	-20086	2342.7	-0.2723	0.87254	0.44428
1.774	133.18	-20087	2342.7	-0.27279	0.87206	0.44447
1.776	133.18	-20088	2342.7	-0.27328	0.87157	0.44467
1.778	133.18	-20091	2342.6	-0.27377	0.87108	0.44486
1.78	133.17	-20093	2342.6	-0.27426	0.87059	0.44506
1.782	133.17	-20092	2342.7	-0.27357	0.87245	0.44515
1.784	133.16	-20088	2342.8	-0.27289	0.8743	0.44525
1.786	133.16	-20080	2342.9	-0.27221	0.87616	0.44535
1.788	133.15	-20080	2342.9	-0.27152	0.87801	0.44545
1.79	133.15	-20088	2343	-0.27084	0.87986	0.44554
1.792	133.15	-20091	2343.2	-0.27113	0.8783	0.44535
1.794	133.15	-20088	2343.3	-0.27143	0.87674	0.44515
1.796	133.14	-20089	2343.5	-0.27172	0.87518	0.44496
1.798	133.14	-20094	2343.8	-0.27201	0.87362	0.44476
1.8	133.14	-20096	2344	-0.2723	0.87206	0.44457
1.802	133.13	-20093	2344.3	-0.27221	0.87196	0.44467
1.804	133.13	-20092	2344.6	-0.27211	0.87186	0.44476
1.806	133.13	-20093	2345	-0.27201	0.87176	0.44486
1.808	133.13	-20095	2345.3	-0.27191	0.87167	0.44496
1.81	133.13	-20097	2345.7	-0.27182	0.87157	0.44506
1.812	133.13	-20098	2346.1	-0.27191	0.87245	0.44564
1.814	133.13	-20099	2346.5	-0.27201	0.87332	0.44623
1.816	133.13	-20097	2346.9	-0.27211	0.8742	0.44681
1.818	133.13	-20090	2347.3	-0.27221	0.87508	0.4474
1.82	133.13	-20088	2347.8	-0.2723	0.87596	0.44798
1.822	133.13	-20090	2348.3	-0.27191	0.87498	0.44681
1.824	133.13	-20091	2348.7	-0.27152	0.87401	0.44564
1.826	133.13	-20090	2349.2	-0.27113	0.87303	0.44447
1.828	133.13	-20089	2349.8	-0.27074	0.87206	0.4433
1.83	133.13	-20088	2350.3	-0.27035	0.87108	0.44213
1.832	133.13	-20088	2350.9	-0.27113	0.87137	0.44291
1.834	133.13	-20089	2351.4	-0.27191	0.87167	0.44369
1.836	133.13	-20086	2352	-0.27269	0.87196	0.44447
1.838	133.13	-20081	2352.5	-0.27348	0.87225	0.44525
1.84	133.13	-20082	2353	-0.27426	0.87254	0.44603
1.842	133.14	-20087	2353.6	-0.27377	0.87323	0.44642
1.844	133.14	-20089	2354.2	-0.27328	0.87391	0.44681
1.846	133.14	-20086	2354.7	-0.27279	0.87459	0.4472
1.848	133.14	-20086	2355.2	-0.2723	0.87528	0.44759
1.85	133.14	-20089	2355.7	-0.27182	0.87596	0.44798
1.852	133.15	-20086	2356.3	-0.27152	0.87537	0.44779
1.854	133.15	-20076	2356.8	-0.27123	0.87479	0.44759
1.856	133.15	-20073	2357.3	-0.27094	0.8742	0.4474
1.858	133.15	-20076	2357.8	-0.27064	0.87362	0.4472
1.86	133.15	-20077	2358.2	-0.27035	0.87303	0.44701
1.862	133.15	-20077	2358.6	-0.27084	0.87332	0.44672
1.864	133.15	-20078	2359	-0.27133	0.87362	0.44642
1.866	133.15	-20079	2359.4	-0.27182	0.87391	0.44613
1.868	133.16	-20078	2359.8	-0.2723	0.8742	0.44584
1.87	133.16	-20075	2360.1	-0.27279	0.8745	0.44554
1.872	133.16	-20072	2360.4	-0.27299	0.87362	0.44554
1.874	133.17	-20069	2360.8	-0.27318	0.87274	0.44554
1.876	133.18	-20069	2361	-0.27338	0.87186	0.44554
1.878	133.18	-20071	2361.3	-0.27357	0.87098	0.44554
1.88	133.19	-20072	2361.5	-0.27377	0.8701	0.44554
1.882	133.19	-20072	2361.7	-0.27328	0.87069	0.44515
1.884	133.2	-20072	2361.9	-0.27279	0.87128	0.44476
1.886	133.2	-20071	2362	-0.2723	0.87186	0.44437
1.888	133.21	-20068	2362.1	-0.27182	0.87245	0.44398
1.89	133.21	-20063	2362.2	-0.27133	0.87303	0.44359
1.892	133.22	-20059	2362.3	-0.27064	0.87323	0.44379
1.894	133.22	-20056	2362.3	-0.26996	0.87342	0.44398
1.896	133.22	-20054	2362.4	-0.26928	0.87362	0.44418
1.898	133.23	-20052	2362.4	-0.2686	0.87381	0.44437
1.9	133.23	-20051	2362.4	-0.26791	0.87401	0.44457
1.902	133.23	-20053	2362.4	-0.26879	0.87459	0.44457
1.904	133.23	-20054	2362.4	-0.26967	0.87518	0.44457
1.906	133.24	-20053	2362.3	-0.27055	0.87576	0.44457
1.908	133.24	-20053	2362.3	-0.27143	0.87635	0.44457
1.91	133.24	-20054	2362.2	-0.2723	0.87694	0.44457
1.912	133.24	-20053	2362.1	-0.27299	0.87557	0.44428
1.914	133.24	-20049	2361.9	-0.27367	0.8742	0.44398
1.916	133.25	-20051	2361.8	-0.27435	0.87284	0.44369
1.918	133.25	-20059	2361.7	-0.27504	0.87147	0.4434
1.92	133.25	-20061	2361.7	-0.27572	0.8701	0.4431
1.922	133.25	-20057	2361.5	-0.27426	0.87108	0.44379
1.924	133.26	-20052	2361.4	-0.27279	0.87206	0.44447
1.926	133.26	-20045	2361.3	-0.27133	0.87303	0.44515
1.928	133.26	-20041	2361.2	-0.26986	0.87401	0.44584
1.93	133.25	-20039	2361	-0.2684	0.87498	0.44652
1.932	133.25	-20039	2360.9	-0.26899	0.8745	0.44574
1.934	133.26	-20040	2360.8	-0.26957	0.87401	0.44496
1.936	133.25	-20041	2360.6	-0.27016	0.87352	0.44418
1.938	133.25	-20044	2360.5	-0.27074	0.87303	0.4434
1.94	133.26	-20042	2360.3	-0.27133	0.87254	0.44262
1.942	133.26	-20037	2360.2	-0.27221	0.87245	0.4431
1.944	133.25	-20031	2360.1	-0.27308	0.87235	0.44359
1.946	133.25	-20025	2359.9	-0.27396	0.87225	0.44408
1.948	133.25	-20023	2359.7	-0.27484	0.87215	0.44457
1.95	133.25	-20024	2359.5	-0.27572	0.87206	0.44506
1.952	133.25	-20026	2359.3	-0.27513	0.87284	0.44603
1.954	133.25	-20028	2359	-0.27455	0.87362	0.44701
1.956	133.25	-20030	2358.8	-0.27396	0.8744	0.44798
1.958	133.25	-20031	2358.6	-0.27338	0.87518	0.44896
1.96	133.25	-20033	2358.4	-0.27279	0.87596	0.44994
1.962	133.25	-20035	2358.1	-0.27221	0.87635	0.44935
1.964	133.25	-20033	2357.9	-0.27162	0.87674	0.44876
1.966	133.25	-20027	2357.6	-0.27104	0.87713	0.44818
1.968	133.25	-20026	2357.3	-0.27045	0.87752	0.44759
1.97	133.25	-20030	2357.1	-0.26986	0.87791	0.44701
1.972	133.25	-20030	2356.8	-0.27025	0.87703	0.44652
1.974	133.25	-20024	2356.5	-0.27064	0.87616	0.44603
1.976	133.25	-20021	2356.2	-0.27104	0.87528	0.44554
1.978	133.25	-20020	2355.8	-0.27143	0.8744	0.44506
1.98	133.25	-20020	2355.5	-0.27182	0.87352	0.44457
1.982	133.24	-20021	2355.2	-0.2723	0.87342	0.44418
1.984	133.24	-20023	2354.9	-0.27279	0.87332	0.44379
1.986	133.24	-20027	2354.6	-0.27328	0.87323	0.4434
1.988	133.24	-20030	2354.3	-0.27377	0.87313	0.44301
1.99	133.24	-20031	2354	-0.27426	0.87303	0.44262
1.992	133.24	-20031	2353.7	-0.27504	0.87284	0.4434
1.994	133.24	-20030	2353.4	-0.27582	0.87264	0.44418
1.996	133.23	-20028	2353.2	-0.2766	0.87245	0.44496
1.998	133.23	-20023	2352.9	-0.27738	0.87225	0.44574
2	133.23	-20020	2352.6	-0.27816	0.87206	0.44652
2.002	133.23	-20020	2352.4	-0.27767	0.87245	0.44701
2.004	133.23	-20020	2352.2	-0.27718	0.87284	0.4475
2.006	133.23	-20020	2352	-0.2767	0.87323	0.44798
2.008	133.22	-20020	2351.8	-0.27621	0.87362	0.44847
2.01	133.22	-20019	2351.6	-0.27572	0.87401	0.44896
2.012	133.22	-20020	2351.4	-0.27552	0.87342	0.44798
2.014	133.22	-20023	2351.3	-0.27533	0.87284	0.44701
2.016	133.22	-20026	2351.1	-0.27513	0.87225	0.44603
2.018	133.22	-20028	2350.9	-0.27494	0.87167	0.44506
2.02	133.22	-20026	2350.8	-0.27474	0.87108	0.44408
2.022	133.22	-20022	2350.7	-0.27435	0.87088	0.44408
2.024	133.22	-20021	2350.6	-0.27396	0.87069	0.44408
2.026	133.22	-20025	2350.5	-0.27357	0.87049	0.44408
2.028	133.22	-20027	2350.4	-0.27318	0.8703	0.44408
2.03	133.22	-20028	2350.2	-0.27279	0.8701	0.44408
2.032	133.22	-20028	2350.2	-0.27435	0.87049	0.44437
2.034	133.22	-20027	2350.2	-0.27592	0.87088	0.44467
2.036	133.21	-20026	2350.1	-0.27748	0.87128	0.44496
2.038	133.21	-20026	2350.1	-0.27904	0.87167	0.44525
2.04	133.21	-20024	2350.1	-0.2806	0.87206	0.44554
2.042	133.21	-20021	2350.1	-0.27943	0.87137	0.44506
2.044	133.21	-20019	2350.1	-0.27826	0.87069	0.44457
2.046	133.21	-20018	2350.1	-0.27709	0.87001	0.44408
2.048	133.21	-20021	2350.1	-0.27592	0.86932	0.44359
2.05	133.21	-20027	2350.1	-0.27474	0.86864	0.4431
2.052	133.21	-20030	2350.1	-0.27465	0.86942	0.44428
2.054	133.21	-20031	2350.2	-0.27455	0.8702	0.44545
2.056	133.21	-20030	2350.3	-0.27445	0.87098	0.44662
2.058	133.21	-20027	2350.3	-0.27435	0.87176	0.44779
2.06	133.21	-20025	2350.4	-0.27426	0.87254	0.44896
2.062	133.21	-20022	2350.4	-0.27367	0.87274	0.44769
2.064	133.21	-20020	2350.5	-0.27308	0.87293	0.44642
2.066	133.21	-20019	2350.5	-0.2725	0.87313	0.44515
2.068	133.22	-20021	2350.6	-0.27191	0.87332	0.44388
2.07	133.22	-20026	2350.7	-0.27133	0.87352	0.44262
2.072	133.22	-20028	2350.7	-0.27123	0.87332	0.44242
2.074	133.22	-20029	2350.8	-0.27113	0.87313	0.44223
2.076	133.22	-20029	2350.9	-0.27104	0.87293	0.44203
2.078	133.22	-20028	2350.9	-0.27094	0.87274	0.44184
2.08	133.22	-20026	2350.9	-0.27084	0.87254	0.44164
2.082	133.22	-20023	2351	-0.27221	0.87264	0.44242
2.084	133.22	-20021	2351.1	-0.27357	0.87274	0.4432
2.086	133.22	-20020	2351.1	-0.27494	0.87284	0.44398
2.088	133.22	-20020	2351.1	-0.27631	0.87293	0.44476
2.09	133.22	-20021	2351.1	-0.27767	0.87303	0.44554
2.092	133.21	-20021	2351.2	-0.27806	0.87293	0.44593
2.094	133.21	-20021	2351.2	-0.27845	0.87284	0.44632
2.096	133.21	-20020	2351.2	-0.27884	0.87274	0.44672
2.098	133.2	-20016	2351.2	-0.27923	0.87264	0.44711
2.1	133.21	-20018	2351.2	-0.27962	0.87254	0.4475
2.102	133.21	-20025	2351.2	-0.27884	0.87254	0.4474
2.104	133.2	-20028	2351.2	-0.27806	0.87254	0.4473
2.106	133.2	-20026	2351.1	-0.27728	0.87254	0.4472
2.108	133.2	-20027	2351.1	-0.2765	0.87254	0.44711
2.11	133.2	-20029	2351.1	-0.27572	0.87254	0.44701
2.112	133.19	-20028	2351.1	-0.27601	0.87186	0.44623
2.114	133.18	-20025	2351	-0.27631	0.87118	0.44545
2.116	133.18	-20025	2351	-0.2766	0.87049	0.44467
2.118	133.17	-20027	2351	-0.27689	0.86981	0.44388
2.12	133.16	-20028	2351	-0.27718	0.86913	0.4431
2.122	133.16	-20029	2350.9	-0.2767	0.86971	0.4434
2.124	133.16	-20029	2350.8	-0.27621	0.8703	0.44369
2.126	133.15	-20027	2350.7	-0.27572	0.87088	0.44398
2.128	133.15	-20026	2350.6	-0.27523	0.87147	0.44428
2.13	133.16	-20025	2350.6	-0.27474	0.87206	0.44457
2.132	133.17	-20024	2350.5	-0.27406	0.87206	0.44418
2.134	133.17	-20024	2350.4	-0.27338	0.87206	0.44379
2.136	133.17	-20023	2350.3	-0.27269	0.87206	0.4434
2.138	133.17	-20021	2350.2	-0.27201	0.87206	0.44301
2.14	133.17	-20021	2350.1	-0.27133	0.87206	0.44262
2.142	133.17	-20022	2350	-0.2723	0.87147	0.4434
2.144	133.16	-20020	2349.8	-0.27328	0.87088	0.44418
2.146	133.16	-20016	2349.7	-0.27426	0.8703	0.44496
2.148	133.16	-20016	2349.6	-0.27523	0.86971	0.44574
2.15	133.16	-20020	2349.5	-0.27621	0.86913	0.44652
2.152	133.15	-20022	2349.4	-0.27533	0.8703	0.44691
2.154	133.15	-20020	2349.3	-0.27445	0.87147	0.4473
2.156	133.15	-20020	2349.1	-0.27357	0.87264	0.44769
2.158	133.15	-20024	2349	-0.27269	0.87381	0.44808
2.16	133.16	-20026	2348.8	-0.27182	0.87498	0.44847
2.162	133.16	-20026	2348.7	-0.27182	0.87498	0.44779
2.164	133.16	-20028	2348.6	-0.27182	0.87498	0.44711
2.166	133.16	-20030	2348.5	-0.27182	0.87498	0.44642
2.168	133.16	-20031	2348.4	-0.27182	0.87498	0.44574
2.17	133.16	-20032	2348.3	-0.27182	0.87498	0.44506
2.172	133.16	-20032	2348.2	-0.27133	0.87508	0.44457
2.174	133.17	-20029	2348.1	-0.27084	0.87518	0.44408
2.176	133.18	-20027	2348	-0.27035	0.87528	0.44359
2.178	133.18	-20025	2347.9	-0.26986	0.87537	0.4431
2.18	133.18	-20026	2347.8	-0.26938	0.87547	0.44262
2.182	133.18	-20029	2347.7	-0.27084	0.87411	0.44281
2.184	133.2	-20030	2347.6	-0.2723	0.87274	0.44301
2.186	133.22	-20029	2347.5	-0.27377	0.87137	0.4432
2.188	133.24	-20030	2347.3	-0.27523	0.87001	0.4434
2.19	133.24	-20032	2347.2	-0.2767	0.86864	0.44359
2.192	133.25	-20032	2347.1	-0.27679	0.86981	0.44447
2.194	133.24	-20029	2346.9	-0.27689	0.87098	0.44535
2.196	133.24	-20030	2346.8	-0.27699	0.87215	0.44623
2.198	133.24	-20034	2346.7	-0.27709	0.87332	0.44711
2.2	133.24	-20035	2346.6	-0.27718	0.8745	0.44798
2.202	133.23	-20033	2346.5	-0.27611	0.8743	0.4475
2.204	133.23	-20033	2346.4	-0.27504	0.87411	0.44701
2.206	133.24	-20034	2346.3	-0.27396	0.87391	0.44652
2.208	133.24	-20032	2346.2	-0.27289	0.87372	0.44603
2.21	133.23	-20028	2346.1	-0.27182	0.87352	0.44554
2.212	133.23	-20026	2346	-0.27191	0.87303	0.44535
2.214	133.23	-20027	2346	-0.27201	0.87254	0.44515
2.216	133.23	-20028	2345.9	-0.27211	0.87206	0.44496
2.218	133.23	-20029	2345.9	-0.27221	0.87157	0.44476
2.22	133.23	-20030	2345.8	-0.2723	0.87108	0.44457
2.222	133.23	-20032	2345.7	-0.27318	0.87108	0.44486
2.224	133.23	-20034	2345.7	-0.27406	0.87108	0.44515
2.226	133.23	-20036	2345.7	-0.27494	0.87108	0.44545
2.228	133.23	-20032	2345.6	-0.27582	0.87108	0.44574
2.23	133.23	-20023	2345.6	-0.2767	0.87108	0.44603
2.232	133.23	-20021	2345.5	-0.27689	0.87118	0.44623
2.234	133.23	-20027	2345.5	-0.27709	0.87128	0.44642
2.236	133.23	-20031	2345.4	-0.27728	0.87137	0.44662
2.238	133.23	-20032	2345.4	-0.27748	0.87147	0.44681
2.24	133.23	-20034	2345.3	-0.27767	0.87157	0.44701
2.242	133.23	-20036	2345.2	-0.27611	0.87235	0.44672
2.244	133.24	-20037	2345.2	-0.27455	0.87313	0.44642
2.246	133.26	-20037	2345.1	-0.27299	0.87391	0.44613
2.248	133.29	-20039	2345.1	-0.27143	0.87469	0.44584
2.25	133.32	-20043	2345	-0.26986	0.87547	0.44554
2.252	133.35	-20043	2345	-0.27016	0.87469	0.44486
2.254	133.38	-20038	2344.9	-0.27045	0.87391	0.44418
2.256	133.38	-20036	2344.9	-0.27074	0.87313	0.44349
2.258	133.35	-20037	2344.8	-0.27104	0.87235	0.44281
2.26	133.31	-20038	2344.7	-0.27133	0.87157	0.44213
2.262	133.25	-20039	2344.7	-0.27152	0.87157	0.44252
2.264	133.17	-20041	2344.7	-0.27172	0.87157	0.44291
2.266	133.09	-20044	2344.6	-0.27191	0.87157	0.4433
2.268	132.99	-20045	2344.6	-0.27211	0.87157	0.44369
2.27	132.89	-20045	2344.5	-0.2723	0.87157	0.44408
2.272	132.77	-20044	2344.5	-0.2725	0.87176	0.44437
2.274	132.64	-20042	2344.4	-0.27269	0.87196	0.44467
2.276	132.47	-20045	2344.3	-0.27289	0.87215	0.44496
2.278	132.33	-20053	2344.3	-0.27308	0.87235	0.44525
2.28	132.18	-20053	2344.2	-0.27328	0.87254	0.44554
2.282	132.04	-20046	2344.1	-0.27279	0.87303	0.44554
2.284	131.93	-20044	2344	-0.2723	0.87352	0.44554
2.286	131.86	-20046	2344	-0.27182	0.87401	0.44554
2.288	131.86	-20047	2343.9	-0.27133	0.8745	0.44554
2.29	131.94	-20047	2343.8	-0.27084	0.87498	0.44554
2.292	132.11	-20047	2343.7	-0.27162	0.87372	0.44506
2.294	132.31	-20046	2343.6	-0.2724	0.87245	0.44457
2.296	132.52	-20044	2343.5	-0.27318	0.87118	0.44408
2.298	132.7	-20041	2343.4	-0.27396	0.86991	0.44359
2.3	132.88	-20041	2343.3	-0.27474	0.86864	0.4431
2.302	133.01	-20043	2343.2	-0.27445	0.86962	0.4434
2.304	133.1	-20044	2343.2	-0.27416	0.87059	0.44369
2.306	133.14	-20045	2343.1	-0.27387	0.87157	0.44398
2.308	133.19	-20047	2343	-0.27357	0.87254	0.44428
2.31	133.22	-20051	2342.9	-0.27328	0.87352	0.44457
2.312	133.24	-20053	2342.8	-0.27308	0.87362	0.44467
2.314	133.25	-20054	2342.8	-0.27289	0.87372	0.44476
2.316	133.22	-20055	2342.7	-0.27269	0.87381	0.44486
2.318	133.19	-20055	2342.7	-0.2725	0.87391	0.44496
2.32	133.16	-20054	2342.6	-0.2723	0.87401	0.44506
2.322	133.14	-20052	2342.5	-0.2723	0.87332	0.44496
2.324	133.13	-20052	2342.5	-0.2723	0.87264	0.44486
2.326	133.12	-20055	2342.4	-0.2723	0.87196	0.44476
2.328	133.12	-20053	2342.4	-0.2723	0.87128	0.44467
2.33	133.12	-20046	2342.3	-0.2723	0.87059	0.44457
2.332	133.13	-20048	2342.2	-0.27211	0.87079	0.44408
2.334	133.14	-20060	2342.1	-0.27191	0.87098	0.44359
2.336	133.15	-20066	2342.1	-0.27172	0.87118	0.4431
2.338	133.15	-20068	2342	-0.27152	0.87137	0.44262
2.34	133.16	-20071	2342	-0.27133	0.87157	0.44213
2.342	133.16	-20075	2341.9	-0.27152	0.87137	0.44252
2.344	133.16	-20076	2341.8	-0.27172	0.87118	0.44291
2.346	133.16	-20074	2341.7	-0.27191	0.87098	0.4433
2.348	133.16	-20071	2341.7	-0.27211	0.87079	0.44369
2.35	133.16	-20066	2341.6	-0.2723	0.87059	0.44408
2.352	133.16	-20064	2341.6	-0.27269	0.87128	0.44506
2.354	133.16	-20065	2341.5	-0.27308	0.87196	0.44603
2.356	133.16	-20066	2341.5	-0.27348	0.87264	0.44701
2.358	133.17	-20066	2341.5	-0.27387	0.87332	0.44798
2.36	133.16	-20066	2341.4	-0.27426	0.87401	0.44896
2.362	133.16	-20067	2341.3	-0.27445	0.87381	0.44876
2.364	133.16	-20066	2341.3	-0.27465	0.87362	0.44857
2.366	133.16	-20065	2341.2	-0.27484	0.87342	0.44837
2.368	133.15	-20066	2341.2	-0.27504	0.87323	0.44818
2.37	133.15	-20068	2341.1	-0.27523	0.87303	0.44798
2.372	133.15	-20068	2341.1	-0.27543	0.87206	0.4473
2.374	133.15	-20067	2341	-0.27562	0.87108	0.44662
2.376	133.15	-20067	2341	-0.27582	0.8701	0.44593
2.378	133.14	-20069	2341	-0.27601	0.86913	0.44525
2.38	133.14	-20071	2340.9	-0.27621	0.86815	0.44457
2.382	133.14	-20073	2340.9	-0.27572	0.86854	0.44398
2.384	133.13	-20075	2340.8	-0.27523	0.86893	0.4434
2.386	133.13	-20076	2340.8	-0.27474	0.86932	0.44281
2.388	133.13	-20079	2340.7	-0.27426	0.86971	0.44223
2.39	133.13	-20082	2340.7	-0.27377	0.8701	0.44164
2.392	133.13	-20084	2340.7	-0.27318	0.87118	0.44271
2.394	133.12	-20085	2340.6	-0.2726	0.87225	0.44379
2.396	133.12	-20083	2340.6	-0.27201	0.87332	0.44486
2.398	133.12	-20079	2340.6	-0.27143	0.8744	0.44593
2.4	133.12	-20079	2340.5	-0.27084	0.87547	0.44701
2.402	133.12	-20084	2340.5	-0.2725	0.87342	0.4474
2.404	133.11	-20087	2340.5	-0.27416	0.87137	0.44779
2.406	133.11	-20088	2340.5	-0.27582	0.86932	0.44818
2.408	133.11	-20088	2340.4	-0.27748	0.86727	0.44857
2.41	133.11	-20087	2340.4	-0.27914	0.86522	0.44896
2.412	133.11	-20086	2340.4	-0.27767	0.86679	0.44828
2.414	133.11	-20084	2340.3	-0.27621	0.86835	0.44759
2.416	133.1	-20084	2340.3	-0.27474	0.86991	0.44691
2.418	133.1	-20087	2340.3	-0.27328	0.87147	0.44623
2.42	133.1	-20089	2340.2	-0.27182	0.87303	0.44554
2.422	133.1	-20091	2340.2	-0.2724	0.87196	0.44545
2.424	133.09	-20091	2340.2	-0.27299	0.87088	0.44535
2.426	133.09	-20089	2340.1	-0.27357	0.86981	0.44525
2.428	133.09	-20087	2340.1	-0.27416	0.86874	0.44515
2.43	133.08	-20085	2340.1	-0.27474	0.86766	0.44506
2.432	133.08	-20085	2340.1	-0.27416	0.86864	0.44476
2.434	133.07	-20087	2340.1	-0.27357	0.86962	0.44447
2.436	133.07	-20090	2340	-0.27299	0.87059	0.44418
2.438	133.07	-20092	2340	-0.2724	0.87157	0.44388
2.44	133.06	-20094	2340	-0.27182	0.87254	0.44359
2.442	133.06	-20094	2340.1	-0.27162	0.87303	0.44379
2.444	133.06	-20094	2340.1	-0.27143	0.87352	0.44398
2.446	133.05	-20092	2340.2	-0.27123	0.87401	0.44418
2.448	133.05	-20092	2340.3	-0.27104	0.8745	0.44437
2.45	133.05	-20093	2340.4	-0.27084	0.87498	0.44457
2.452	133.04	-20096	2340.6	-0.27211	0.87391	0.44496
2.454	133.04	-20100	2340.8	-0.27338	0.87284	0.44535
2.456	133.04	-20102	2341	-0.27465	0.87176	0.44574
2.458	133.03	-20102	2341.2	-0.27592	0.87069	0.44613
2.46	133.03	-20101	2341.5	-0.27718	0.86962	0.44652
2.462	133.03	-20101	2341.8	-0.2765	0.86981	0.44545
2.464	133.02	-20100	2342.1	-0.27582	0.87001	0.44437
2.466	133.02	-20098	2342.4	-0.27513	0.8702	0.4433
2.468	133.02	-20097	2342.8	-0.27445	0.8704	0.44223
2.47	133.02	-20096	2343.2	-0.27377	0.87059	0.44115
2.472	133.02	-20097	2343.6	-0.27484	0.87069	0.44193
2.474	133.02	-20100	2344.1	-0.27592	0.87079	0.44271
2.476	133.02	-20101	2344.5	-0.27699	0.87088	0.44349
2.478	133.02	-20100	2345	-0.27806	0.87098	0.44428
2.48	133.02	-20100	2345.5	-0.27914	0.87108	0.44506
2.482	133.01	-20099	2346	-0.27845	0.87098	0.44496
2.484	133.01	-20099	2346.5	-0.27777	0.87088	0.44486
2.486	133.01	-20100	2347.1	-0.27709	0.87079	0.44476
2.488	133.01	-20100	2347.6	-0.2764	0.87069	0.44467
2.49	133.01	-20099	2348.1	-0.27572	0.87059	0.44457
2.492	133.02	-20098	2348.7	-0.27543	0.87079	0.44467
2.494	133.02	-20098	2349.3	-0.27513	0.87098	0.44476
2.496	133.02	-20098	2349.9	-0.27484	0.87118	0.44486
2.498	133.02	-20099	2350.5	-0.27455	0.87137	0.44496
2.5	133.02	-20099	2351	-0.27426	0.87157	0.44506
2.502	133.02	-20098	2351.6	-0.27552	0.87118	0.44525
2.504	133.02	-20098	2352.1	-0.27679	0.87079	0.44545
2.506	133.02	-20097	2352.6	-0.27806	0.8704	0.44564
2.508	133.02	-20098	2353.2	-0.27933	0.87001	0.44584
2.51	133.03	-20098	2353.7	-0.2806	0.86962	0.44603
2.512	133.03	-20097	2354.2	-0.27914	0.86981	0.44574
2.514	133.03	-20095	2354.7	-0.27767	0.87001	0.44545
2.516	133.02	-20093	2355.2	-0.27621	0.8702	0.44515
2.518	133.03	-20093	2355.7	-0.27474	0.8704	0.44486
2.52	133.03	-20092	2356.2	-0.27328	0.87059	0.44457
2.522	133.03	-20092	2356.6	-0.27308	0.87069	0.44428
2.524	133.03	-20092	2357	-0.27289	0.87079	0.44398
2.526	133.03	-20092	2357.4	-0.27269	0.87088	0.44369
2.528	133.04	-20093	2357.8	-0.2725	0.87098	0.4434
2.53	133.04	-20095	2358.2	-0.2723	0.87108	0.4431
2.532	133.04	-20091	2358.5	-0.27299	0.87118	0.44359
2.534	133.05	-20082	2358.8	-0.27367	0.87128	0.44408
2.536	133.05	-20079	2359.1	-0.27435	0.87137	0.44457
2.538	133.05	-20081	2359.3	-0.27504	0.87147	0.44506
2.54	133.06	-20083	2359.6	-0.27572	0.87157	0.44554
2.542	133.06	-20084	2359.8	-0.27513	0.87176	0.44515
2.544	133.07	-20082	2360	-0.27455	0.87196	0.44476
2.546	133.07	-20076	2360.2	-0.27396	0.87215	0.44437
2.548	133.08	-20075	2360.3	-0.27338	0.87235	0.44398
2.55	133.08	-20077	2360.5	-0.27279	0.87254	0.44359
2.552	133.08	-20077	2360.5	-0.27279	0.87215	0.4434
2.554	133.09	-20074	2360.6	-0.27279	0.87176	0.4432
2.556	133.09	-20072	2360.6	-0.27279	0.87137	0.44301
2.558	133.1	-20069	2360.7	-0.27279	0.87098	0.44281
2.56	133.1	-20067	2360.8	-0.27279	0.87059	0.44262
2.562	133.1	-20064	2360.7	-0.27308	0.87108	0.4434
2.564	133.11	-20063	2360.7	-0.27338	0.87157	0.44418
2.566	133.11	-20064	2360.6	-0.27367	0.87206	0.44496
2.568	133.11	-20062	2360.6	-0.27396	0.87254	0.44574
2.57	133.12	-20058	2360.6	-0.27426	0.87303	0.44652
2.572	133.12	-20056	2360.5	-0.27426	0.87206	0.44642
2.574	133.12	-20054	2360.4	-0.27426	0.87108	0.44632
2.576	133.12	-20053	2360.3	-0.27426	0.8701	0.44623
2.578	133.12	-20052	2360.2	-0.27426	0.86913	0.44613
2.58	133.13	-20053	2360.1	-0.27426	0.86815	0.44603
2.582	133.13	-20055	2360	-0.27377	0.86952	0.44574
2.584	133.13	-20055	2359.9	-0.27328	0.87088	0.44545
2.586	133.13	-20054	2359.7	-0.27279	0.87225	0.44515
2.588	133.13	-20055	2359.6	-0.2723	0.87362	0.44486
2.59	133.14	-20058	2359.5	-0.27182	0.87498	0.44457
2.592	133.14	-20057	2359.3	-0.2725	0.87401	0.44398
2.594	133.14	-20050	2359.2	-0.27318	0.87303	0.4434
2.596	133.14	-20045	2359	-0.27387	0.87206	0.44281
2.598	133.13	-20042	2358.9	-0.27455	0.87108	0.44223
2.6	133.13	-20038	2358.8	-0.27523	0.8701	0.44164
2.602	133.13	-20034	2358.6	-0.27494	0.87079	0.44223
2.604	133.13	-20035	2358.4	-0.27465	0.87147	0.44281
2.606	133.13	-20041	2358.3	-0.27435	0.87215	0.4434
2.608	133.13	-20043	2358.1	-0.27406	0.87284	0.44398
2.61	133.13	-20043	2358	-0.27377	0.87352	0.44457
2.612	133.13	-20040	2357.8	-0.27328	0.87313	0.44398
2.614	133.13	-20034	2357.6	-0.27279	0.87274	0.4434
2.616	133.13	-20032	2357.4	-0.2723	0.87235	0.44281
2.618	133.13	-20035	2357.2	-0.27182	0.87196	0.44223
2.62	133.13	-20035	2357	-0.27133	0.87157	0.44164
2.622	133.13	-20032	2356.8	-0.27172	0.87137	0.44242
2.624	133.13	-20031	2356.6	-0.27211	0.87118	0.4432
2.626	133.13	-20033	2356.4	-0.2725	0.87098	0.44398
2.628	133.14	-20036	2356.2	-0.27289	0.87079	0.44476
2.63	133.14	-20039	2356	-0.27328	0.87059	0.44554
2.632	133.14	-20040	2355.7	-0.2726	0.87108	0.44506
2.634	133.14	-20039	2355.4	-0.27191	0.87157	0.44457
2.636	133.14	-20035	2355.2	-0.27123	0.87206	0.44408
2.638	133.14	-20028	2354.9	-0.27055	0.87254	0.44359
2.64	133.14	-20027	2354.6	-0.26986	0.87303	0.4431
2.642	133.14	-20032	2354.3	-0.26996	0.87332	0.4433
2.644	133.13	-20033	2354	-0.27006	0.87362	0.44349
2.646	133.13	-20027	2353.7	-0.27016	0.87391	0.44369
2.648	133.13	-20027	2353.4	-0.27025	0.8742	0.44388
2.65	133.13	-20032	2353.1	-0.27035	0.8745	0.44408
2.652	133.13	-20034	2352.8	-0.27104	0.87332	0.44437
2.654	133.13	-20034	2352.5	-0.27172	0.87215	0.44467
2.656	133.12	-20031	2352.2	-0.2724	0.87098	0.44496
2.658	133.13	-20024	2351.9	-0.27308	0.86981	0.44525
2.66	133.13	-20023	2351.6	-0.27377	0.86864	0.44554
2.662	133.12	-20026	2351.3	-0.27396	0.86952	0.44584
2.664	133.12	-20028	2351.1	-0.27416	0.8704	0.44613
2.666	133.12	-20027	2350.8	-0.27435	0.87128	0.44642
2.668	133.11	-20025	2350.6	-0.27455	0.87215	0.44672
2.67	133.11	-20022	2350.3	-0.27474	0.87303	0.44701
2.672	133.11	-20021	2350.1	-0.27523	0.87176	0.44681
2.674	133.11	-20023	2349.9	-0.27572	0.87049	0.44662
2.676	133.11	-20022	2349.7	-0.27621	0.86923	0.44642
2.678	133.11	-20017	2349.6	-0.2767	0.86796	0.44623
2.68	133.11	-20018	2349.4	-0.27718	0.86669	0.44603
2.682	133.11	-20025	2349.2	-0.2765	0.86747	0.44564
2.684	133.11	-20026	2349.1	-0.27582	0.86825	0.44525
2.686	133.11	-20022	2348.9	-0.27513	0.86903	0.44486
2.688	133.11	-20021	2348.8	-0.27445	0.86981	0.44447
2.69	133.11	-20024	2348.7	-0.27377	0.87059	0.44408
2.692	133.11	-20023	2348.6	-0.27348	0.87069	0.44408
2.694	133.11	-20019	2348.5	-0.27318	0.87079	0.44408
2.696	133.11	-20019	2348.4	-0.27289	0.87088	0.44408
2.698	133.11	-20024	2348.4	-0.2726	0.87098	0.44408
2.7	133.11	-20026	2348.3	-0.2723	0.87108	0.44408
2.702	133.11	-20024	2348.3	-0.27279	0.87079	0.44369
2.704	133.11	-20023	2348.2	-0.27328	0.87049	0.4433
2.706	133.11	-20023	2348.2	-0.27377	0.8702	0.44291
2.708	133.11	-20022	2348.2	-0.27426	0.86991	0.44252
2.71	133.11	-20021	2348.1	-0.27474	0.86962	0.44213
2.712	133.11	-20022	2348.1	-0.27435	0.87001	0.44271
2.714	133.11	-20026	2348.1	-0.27396	0.8704	0.4433
2.716	133.11	-20030	2348.2	-0.27357	0.87079	0.44388
2.718	133.11	-20034	2348.2	-0.27318	0.87118	0.44447
2.72	133.11	-20031	2348.3	-0.27279	0.87157	0.44506
2.722	133.11	-20021	2348.3	-0.27328	0.87108	0.44447
2.724	133.11	-20019	2348.3	-0.27377	0.87059	0.44388
2.726	133.11	-20024	2348.3	-0.27426	0.8701	0.4433
2.728	133.11	-20026	2348.4	-0.27474	0.86962	0.44271
2.73	133.11	-20027	2348.4	-0.27523	0.86913	0.44213
2.732	133.1	-20026	2348.5	-0.27435	0.86962	0.44203
2.734	133.1	-20025	2348.6	-0.27348	0.8701	0.44193
2.736	133.11	-20024	2348.6	-0.2726	0.87059	0.44184
2.738	133.11	-20025	2348.6	-0.27172	0.87108	0.44174
2.74	133.11	-20025	2348.7	-0.27084	0.87157	0.44164
2.742	133.11	-20023	2348.7	-0.27123	0.87215	0.44262
2.744	133.11	-20022	2348.7	-0.27162	0.87274	0.44359
2.746	133.11	-20023	2348.8	-0.27201	0.87332	0.44457
2.748	133.11	-20023	2348.9	-0.2724	0.87391	0.44554
2.75	133.11	-20023	2349	-0.27279	0.8745	0.44652
2.752	133.11	-20024	2349	-0.27328	0.87323	0.44642
2.754	133.11	-20025	2349.1	-0.27377	0.87196	0.44632
2.756	133.11	-20022	2349.1	-0.27426	0.87069	0.44623
2.758	133.11	-20017	2349.1	-0.27474	0.86942	0.44613
2.76	133.1	-20014	2349.2	-0.27523	0.86815	0.44603
2.762	133.1	-20015	2349.2	-0.27552	0.86893	0.44525
2.764	133.09	-20017	2349.2	-0.27582	0.86971	0.44447
2.766	133.09	-20019	2349.2	-0.27611	0.87049	0.44369
2.768	133.1	-20018	2349.2	-0.2764	0.87128	0.44291
2.77	133.1	-20013	2349.2	-0.2767	0.87206	0.44213
2.772	133.1	-20011	2349.2	-0.27621	0.87157	0.44242
2.774	133.1	-20011	2349.3	-0.27572	0.87108	0.44271
2.776	133.09	-20013	2349.2	-0.27523	0.87059	0.44301
2.778	133.09	-20016	2349.2	-0.27474	0.8701	0.4433
2.78	133.09	-20020	2349.1	-0.27426	0.86962	0.44359
2.782	133.08	-20025	2349.1	-0.27504	0.86854	0.44408
2.784	133.07	-20028	2349.1	-0.27582	0.86747	0.44457
2.786	133.06	-20028	2349.1	-0.2766	0.8664	0.44506
2.788	133.05	-20027	2349	-0.27738	0.86532	0.44554
2.79	133.06	-20025	2348.9	-0.27816	0.86425	0.44603
2.792	133.06	-20025	2348.9	-0.27806	0.86454	0.44613
2.794	133.05	-20027	2348.8	-0.27796	0.86483	0.44623
2.796	133.05	-20029	2348.8	-0.27787	0.86513	0.44632
2.798	133.05	-20030	2348.7	-0.27777	0.86542	0.44642
2.8	133.06	-20030	2348.6	-0.27767	0.86571	0.44652
2.802	133.06	-20029	2348.5	-0.27865	0.86659	0.44672
2.804	133.06	-20027	2348.5	-0.27962	0.86747	0.44691
2.806	133.06	-20024	2348.4	-0.2806	0.86835	0.44711
2.808	133.06	-20024	2348.3	-0.28158	0.86923	0.4473
2.81	133.06	-20027	2348.2	-0.28255	0.8701	0.4475
2.812	133.06	-20028	2348.1	-0.28187	0.86932	0.4473
2.814	133.05	-20027	2348	-0.28119	0.86854	0.44711
2.816	133.05	-20026	2347.9	-0.2805	0.86776	0.44691
2.818	133.05	-20025	2347.8	-0.27982	0.86698	0.44672
2.82	133.05	-20022	2347.7	-0.27914	0.8662	0.44652
2.822	133.05	-20017	2347.6	-0.27953	0.86581	0.44711
2.824	133.05	-20016	2347.4	-0.27992	0.86542	0.44769
2.826	133.05	-20018	2347.3	-0.28031	0.86503	0.44828
2.828	133.05	-20019	2347.2	-0.2807	0.86464	0.44886
2.83	133.04	-20019	2347.1	-0.28109	0.86425	0.44945
2.832	133.05	-20022	2347	-0.28177	0.86454	0.44925
2.834	133.05	-20027	2346.9	-0.28245	0.86483	0.44906
2.836	133.05	-20030	2346.7	-0.28314	0.86513	0.44886
2.838	133.05	-20031	2346.6	-0.28382	0.86542	0.44867
2.84	133.05	-20031	2346.4	-0.2845	0.86571	0.44847
2.842	133.06	-20029	2346.3	-0.28187	0.86698	0.4475
2.844	133.06	-20029	2346.2	-0.27923	0.86825	0.44652
2.846	133.07	-20029	2346	-0.2766	0.86952	0.44554
2.848	133.07	-20029	2345.8	-0.27396	0.87079	0.44457
2.85	133.07	-20029	2345.7	-0.27133	0.87206	0.44359
2.852	133.08	-20030	2345.6	-0.2723	0.87079	0.44379
2.854	133.1	-20032	2345.4	-0.27328	0.86952	0.44398
2.856	133.12	-20034	2345.3	-0.27426	0.86825	0.44418
2.858	133.14	-20036	2345.1	-0.27523	0.86698	0.44437
2.86	133.14	-20033	2344.9	-0.27621	0.86571	0.44457
2.862	133.14	-20026	2344.8	-0.2764	0.86571	0.44457
2.864	133.14	-20022	2344.7	-0.2766	0.86571	0.44457
2.866	133.14	-20020	2344.6	-0.27679	0.86571	0.44457
2.868	133.13	-20019	2344.4	-0.27699	0.86571	0.44457
2.87	133.13	-20020	2344.3	-0.27718	0.86571	0.44457
2.872	133.13	-20022	2344.1	-0.27582	0.86727	0.44437
2.874	133.13	-20024	2344	-0.27445	0.86884	0.44418
2.876	133.13	-20028	2343.9	-0.27308	0.8704	0.44398
2.878	133.13	-20032	2343.8	-0.27172	0.87196	0.44379
2.88	133.13	-20034	2343.7	-0.27035	0.87352	0.44359
2.882	133.12	-20035	2343.6	-0.27064	0.87313	0.44359
2.884	133.12	-20034	2343.6	-0.27094	0.87274	0.44359
2.886	133.12	-20032	2343.5	-0.27123	0.87235	0.44359
2.888	133.12	-20031	2343.4	-0.27152	0.87196	0.44359
2.89	133.12	-20033	2343.4	-0.27182	0.87157	0.44359
2.892	133.12	-20035	2343.3	-0.2725	0.87137	0.44398
2.894	133.12	-20039	2343.2	-0.27318	0.87118	0.44437
2.896	133.12	-20043	2343.1	-0.27387	0.87098	0.44476
2.898	133.12	-20048	2343	-0.27455	0.87079	0.44515
2.9	133.12	-20052	2343	-0.27523	0.87059	0.44554
2.902	133.12	-20056	2342.9	-0.27465	0.87098	0.44525
2.904	133.12	-20059	2342.8	-0.27406	0.87137	0.44496
2.906	133.12	-20061	2342.8	-0.27348	0.87176	0.44467
2.908	133.13	-20060	2342.7	-0.27289	0.87215	0.44437
2.91	133.13	-20055	2342.6	-0.2723	0.87254	0.44408
2.912	133.13	-20052	2342.6	-0.27211	0.87264	0.44398
2.914	133.14	-20052	2342.6	-0.27191	0.87274	0.44388
2.916	133.16	-20051	2342.6	-0.27172	0.87284	0.44379
2.918	133.19	-20050	2342.5	-0.27152	0.87293	0.44369
2.92	133.23	-20048	2342.5	-0.27133	0.87303	0.44359
2.922	133.26	-20044	2342.4	-0.27182	0.87284	0.44428
2.924	133.28	-20043	2342.3	-0.2723	0.87264	0.44496
2.926	133.27	-20044	2342.2	-0.27279	0.87245	0.44564
2.928	133.23	-20045	2342.2	-0.27328	0.87225	0.44632
2.93	133.18	-20045	2342.2	-0.27377	0.87206	0.44701
2.932	133.12	-20047	2342.1	-0.27318	0.87235	0.44652
2.934	133.04	-20050	2342	-0.2726	0.87264	0.44603
2.936	132.94	-20055	2342	-0.27201	0.87293	0.44554
2.938	132.84	-20062	2342	-0.27143	0.87323	0.44506
2.94	132.73	-20065	2341.9	-0.27084	0.87352	0.44457
2.942	132.61	-20064	2341.9	-0.27191	0.87264	0.44437
2.944	132.46	-20061	2341.8	-0.27299	0.87176	0.44418
2.946	132.29	-20055	2341.8	-0.27406	0.87088	0.44398
2.948	132.14	-20057	2341.7	-0.27513	0.87001	0.44379
2.95	131.99	-20065	2341.7	-0.27621	0.86913	0.44359
2.952	131.86	-20066	2341.6	-0.27543	0.86971	0.44359
2.954	131.75	-20060	2341.6	-0.27465	0.8703	0.44359
2.956	131.7	-20056	2341.6	-0.27387	0.87088	0.44359
2.958	131.71	-20054	2341.5	-0.27308	0.87147	0.44359
2.96	131.85	-20054	2341.5	-0.2723	0.87206	0.44359
2.962	132.05	-20055	2341.4	-0.27426	0.87059	0.44447
2.964	132.27	-20056	2341.3	-0.27621	0.86913	0.44535
2.966	132.48	-20059	2341.2	-0.27816	0.86766	0.44623
2.968	132.65	-20060	2341.2	-0.28011	0.8662	0.44711
2.97	132.8	-20060	2341.1	-0.28206	0.86474	0.44798
2.972	132.91	-20061	2341.1	-0.28138	0.86552	0.44691
2.974	132.99	-20062	2341	-0.2807	0.8663	0.44584
2.976	133.05	-20064	2341	-0.28001	0.86708	0.44476
2.978	133.11	-20066	2340.9	-0.27933	0.86786	0.44369
2.98	133.14	-20066	2340.8	-0.27865	0.86864	0.44262
2.982	133.14	-20063	2340.8	-0.27796	0.86884	0.44262
2.984	133.11	-20062	2340.7	-0.27728	0.86903	0.44262
2.986	133.07	-20062	2340.6	-0.2766	0.86923	0.44262
2.988	133.04	-20063	2340.5	-0.27592	0.86942	0.44262
2.99	133.02	-20064	2340.5	-0.27523	0.86962	0.44262
2.992	133.01	-20064	2340.4	-0.27582	0.86893	0.44349
2.994	133	-20064	2340.3	-0.2764	0.86825	0.44437
2.996	133	-20064	2340.3	-0.27699	0.86757	0.44525
2.998	133.01	-20065	2340.2	-0.27757	0.86688	0.44613
3	133.02	-20067	2340.1	-0.27816	0.8662	0.44701
3.002	133.03	-20070	2340.1	-0.27709	0.86679	0.44642
3.004	133.04	-20073	2340	-0.27601	0.86737	0.44584
3.006	133.04	-20076	2340	-0.27494	0.86796	0.44525
3.008	133.05	-20075	2339.9	-0.27387	0.86854	0.44467
3.01	133.05	-20070	2339.8	-0.27279	0.86913	0.44408
3.012	133.05	-20068	2339.8	-0.27396	0.86835	0.44437
3.014	133.05	-20068	2339.7	-0.27513	0.86757	0.44467
3.016	133.06	-20070	2339.6	-0.27631	0.86679	0.44496
3.018	133.06	-20074	2339.5	-0.27748	0.866	0.44525
3.02	133.06	-20076	2339.5	-0.27865	0.86522	0.44554
3.022	133.06	-20077	2339.5	-0.27894	0.8663	0.44525
3.024	133.06	-20076	2339.4	-0.27923	0.86737	0.44496
3.026	133.06	-20074	2339.4	-0.27953	0.86844	0.44467
3.028	133.06	-20074	2339.3	-0.27982	0.86952	0.44437
3.03	133.06	-20075	2339.2	-0.28011	0.87059	0.44408
3.032	133.05	-20076	2339.2	-0.27923	0.8703	0.44398
3.034	133.05	-20077	2339.1	-0.27836	0.87001	0.44388
3.036	133.05	-20078	2339	-0.27748	0.86971	0.44379
3.038	133.05	-20079	2339	-0.2766	0.86942	0.44369
3.04	133.05	-20080	2338.9	-0.27572	0.86913	0.44359
3.042	133.04	-20082	2338.9	-0.27552	0.86923	0.4431
3.044	133.04	-20084	2338.9	-0.27533	0.86932	0.44262
3.046	133.04	-20087	2338.9	-0.27513	0.86942	0.44213
3.048	133.03	-20087	2338.9	-0.27494	0.86952	0.44164
3.05	133.03	-20082	2338.8	-0.27474	0.86962	0.44115
3.052	133.03	-20081	2338.8	-0.27494	0.86981	0.44154
3.054	133.02	-20084	2338.8	-0.27513	0.87001	0.44193
3.056	133.02	-20086	2338.8	-0.27533	0.8702	0.44232
3.058	133.02	-20087	2338.8	-0.27552	0.8704	0.44271
3.06	133.02	-20088	2338.8	-0.27572	0.87059	0.4431
3.062	133.02	-20089	2338.8	-0.27572	0.8702	0.44359
3.064	133.02	-20090	2338.8	-0.27572	0.86981	0.44408
3.066	133.02	-20091	2338.7	-0.27572	0.86942	0.44457
3.068	133.02	-20090	2338.7	-0.27572	0.86903	0.44506
3.07	133.01	-20088	2338.7	-0.27572	0.86864	0.44554
3.072	133.01	-20088	2338.7	-0.27689	0.86903	0.44554
3.074	133.01	-20090	2338.7	-0.27806	0.86942	0.44554
3.076	133.01	-20091	2338.7	-0.27923	0.86981	0.44554
3.078	133	-20091	2338.7	-0.2804	0.8702	0.44554
3.08	133	-20092	2338.7	-0.28158	0.87059	0.44554
3.082	133	-20093	2338.6	-0.28138	0.86952	0.44632
3.084	132.99	-20094	2338.6	-0.28119	0.86844	0.44711
3.086	132.99	-20095	2338.5	-0.28099	0.86737	0.44789
3.088	132.99	-20094	2338.5	-0.2808	0.8663	0.44867
3.09	132.99	-20092	2338.5	-0.2806	0.86522	0.44945
3.092	132.99	-20094	2338.4	-0.2805	0.86542	0.44906
3.094	132.99	-20099	2338.4	-0.2804	0.86561	0.44867
3.096	132.98	-20101	2338.4	-0.28031	0.86581	0.44828
3.098	132.98	-20101	2338.4	-0.28021	0.866	0.44789
3.1	132.98	-20104	2338.4	-0.28011	0.8662	0.4475
3.102	132.97	-20107	2338.4	-0.27992	0.86659	0.4472
3.104	132.97	-20109	2338.4	-0.27972	0.86698	0.44691
3.106	132.97	-20107	2338.4	-0.27953	0.86737	0.44662
3.108	132.97	-20105	2338.5	-0.27933	0.86776	0.44632
3.11	132.96	-20102	2338.6	-0.27914	0.86815	0.44603
3.112	132.96	-20102	2338.6	-0.27777	0.86874	0.44564
3.114	132.95	-20103	2338.7	-0.2764	0.86932	0.44525
3.116	132.95	-20103	2338.8	-0.27504	0.86991	0.44486
3.118	132.95	-20102	2338.9	-0.27367	0.87049	0.44447
3.12	132.95	-20102	2339.1	-0.2723	0.87108	0.44408
3.122	132.94	-20101	2339.3	-0.27279	0.87069	0.44408
3.124	132.94	-20100	2339.5	-0.27328	0.8703	0.44408
3.126	132.94	-20099	2339.8	-0.27377	0.86991	0.44408
3.128	132.93	-20099	2340.1	-0.27426	0.86952	0.44408
3.13	132.93	-20100	2340.4	-0.27474	0.86913	0.44408
3.132	132.93	-20102	2340.7	-0.27426	0.86971	0.44428
3.134	132.92	-20107	2341.1	-0.27377	0.8703	0.44447
3.136	132.92	-20108	2341.5	-0.27328	0.87088	0.44467
3.138	132.92	-20106	2341.9	-0.27279	0.87147	0.44486
3.14	132.92	-20105	2342.3	-0.2723	0.87206	0.44506
3.142	132.92	-20107	2342.8	-0.27269	0.87147	0.44486
3.144	132.91	-20107	2343.2	-0.27308	0.87088	0.44467
3.146	132.91	-20105	2343.7	-0.27348	0.8703	0.44447
3.148	132.91	-20104	2344.2	-0.27387	0.86971	0.44428
3.15	132.91	-20104	2344.8	-0.27426	0.86913	0.44408
3.152	132.91	-20103	2345.3	-0.27416	0.86971	0.44379
3.154	132.91	-20101	2345.8	-0.27406	0.8703	0.44349
3.156	132.92	-20103	2346.4	-0.27396	0.87088	0.4432
3.158	132.92	-20108	2347	-0.27387	0.87147	0.44291
3.16	132.92	-20109	2347.6	-0.27377	0.87206	0.44262
3.162	132.91	-20104	2348.1	-0.27484	0.87079	0.4431
3.164	132.92	-20105	2348.7	-0.27592	0.86952	0.44359
3.166	132.92	-20112	2349.3	-0.27699	0.86825	0.44408
3.168	132.92	-20114	2349.9	-0.27806	0.86698	0.44457
3.17	132.92	-20109	2350.4	-0.27914	0.86571	0.44506
3.172	132.92	-20107	2351	-0.27962	0.866	0.44545
3.174	132.92	-20110	2351.5	-0.28011	0.8663	0.44584
3.176	132.92	-20107	2352.1	-0.2806	0.86659	0.44623
3.178	132.93	-20101	2352.6	-0.28109	0.86688	0.44662
3.18	132.93	-20098	2353.2	-0.28158	0.86718	0.44701
3.182	132.93	-20097	2353.7	-0.2805	0.86698	0.4472
3.184	132.93	-20097	2354.1	-0.27943	0.86679	0.4474
3.186	132.93	-20099	2354.6	-0.27836	0.86659	0.44759
3.188	132.93	-20098	2355.1	-0.27728	0.8664	0.44779
3.19	132.93	-20095	2355.5	-0.27621	0.8662	0.44798
3.192	132.93	-20093	2355.9	-0.27748	0.8664	0.44828
3.194	132.93	-20092	2356.3	-0.27875	0.86659	0.44857
3.196	132.93	-20089	2356.7	-0.28001	0.86679	0.44886
3.198	132.94	-20086	2357	-0.28128	0.86698	0.44916
3.2	132.94	-20087	2357.3	-0.28255	0.86718	0.44945
3.202	132.94	-20092	2357.6	-0.28206	0.86708	0.44896
3.204	132.94	-20092	2357.9	-0.28158	0.86698	0.44847
3.206	132.95	-20087	2358.1	-0.28109	0.86688	0.44798
3.208	132.96	-20084	2358.3	-0.2806	0.86679	0.4475
3.21	132.96	-20084	2358.6	-0.28011	0.86669	0.44701
3.212	132.97	-20082	2358.7	-0.27982	0.86649	0.44672
3.214	132.97	-20078	2358.8	-0.27953	0.8663	0.44642
3.216	132.97	-20076	2359	-0.27923	0.8661	0.44613
3.218	132.98	-20075	2359.1	-0.27894	0.86591	0.44584
3.22	132.98	-20077	2359.2	-0.27865	0.86571	0.44554
3.222	132.98	-20081	2359.3	-0.27845	0.8661	0.44554
3.224	132.99	-20082	2359.3	-0.27826	0.86649	0.44554
3.226	132.99	-20080	2359.3	-0.27806	0.86688	0.44554
3.228	133	-20079	2359.3	-0.27787	0.86727	0.44554
3.23	133	-20078	2359.3	-0.27767	0.86766	0.44554
3.232	133	-20077	2359.3	-0.27767	0.86796	0.44506
3.234	133	-20075	2359.3	-0.27767	0.86825	0.44457
3.236	133.01	-20070	2359.3	-0.27767	0.86854	0.44408
3.238	133.01	-20062	2359.2	-0.27767	0.86884	0.44359
3.24	133.02	-20059	2359.1	-0.27767	0.86913	0.4431
3.242	133.02	-20061	2359.1	-0.27816	0.86923	0.44359
3.244	133.02	-20061	2359	-0.27865	0.86932	0.44408
3.246	133.02	-20059	2358.9	-0.27914	0.86942	0.44457
3.248	133.02	-20056	2358.8	-0.27962	0.86952	0.44506
3.25	133.03	-20051	2358.7	-0.28011	0.86962	0.44554
3.252	133.03	-20049	2358.6	-0.28109	0.86952	0.44584
3.254	133.03	-20052	2358.5	-0.28206	0.86942	0.44613
3.256	133.03	-20051	2358.4	-0.28304	0.86932	0.44642
3.258	133.03	-20048	2358.2	-0.28402	0.86923	0.44672
3.26	133.04	-20048	2358.1	-0.28499	0.86913	0.44701
3.262	133.04	-20051	2358	-0.28431	0.86893	0.44672
3.264	133.03	-20049	2357.8	-0.28363	0.86874	0.44642
3.266	133.03	-20042	2357.7	-0.28294	0.86854	0.44613
3.268	133.03	-20039	2357.6	-0.28226	0.86835	0.44584
3.27	133.03	-20039	2357.5	-0.28158	0.86815	0.44554
3.272	133.03	-20040	2357.4	-0.27992	0.86884	0.44496
3.274	133.03	-20042	2357.2	-0.27826	0.86952	0.44437
3.276	133.03	-20043	2357.1	-0.2766	0.8702	0.44379
3.278	133.03	-20043	2356.9	-0.27494	0.87088	0.4432
3.28	133.03	-20041	2356.8	-0.27328	0.87157	0.44262
3.282	133.03	-20037	2356.7	-0.27299	0.87196	0.44301
3.284	133.03	-20035	2356.5	-0.27269	0.87235	0.4434
3.286	133.03	-20036	2356.4	-0.2724	0.87274	0.44379
3.288	133.03	-20037	2356.2	-0.27211	0.87313	0.44418
3.29	133.03	-20038	2356	-0.27182	0.87352	0.44457
3.292	133.03	-20037	2355.7	-0.27367	0.87245	0.44457
3.294	133.03	-20032	2355.5	-0.27552	0.87137	0.44457
3.296	133.03	-20027	2355.3	-0.27738	0.8703	0.44457
3.298	133.04	-20024	2355.1	-0.27923	0.86923	0.44457
3.3	133.04	-20021	2355	-0.28109	0.86815	0.44457
3.302	133.04	-20020	2354.7	-0.27943	0.86893	0.44379
3.304	133.04	-20022	2354.5	-0.27777	0.86971	0.44301
3.306	133.04	-20026	2354.2	-0.27611	0.87049	0.44223
3.308	133.04	-20028	2353.9	-0.27445	0.87128	0.44144
3.31	133.04	-20027	2353.6	-0.27279	0.87206	0.44066
3.312	133.04	-20027	2353.3	-0.27377	0.87118	0.44174
3.314	133.04	-20026	2353	-0.27474	0.8703	0.44281
3.316	133.03	-20024	2352.7	-0.27572	0.86942	0.44388
3.318	133.03	-20022	2352.4	-0.2767	0.86854	0.44496
3.32	133.03	-20019	2352.1	-0.27767	0.86766	0.44603
3.322	133.03	-20015	2351.8	-0.27738	0.86854	0.44593
3.324	133.03	-20014	2351.5	-0.27709	0.86942	0.44584
3.326	133.03	-20016	2351.3	-0.27679	0.8703	0.44574
3.328	133.03	-20019	2351	-0.2765	0.87118	0.44564
3.33	133.03	-20023	2350.7	-0.27621	0.87206	0.44554
3.332	133.02	-20024	2350.5	-0.2764	0.87157	0.44554
3.334	133.03	-20023	2350.3	-0.2766	0.87108	0.44554
3.336	133.02	-20022	2350	-0.27679	0.87059	0.44554
3.338	133.02	-20022	2349.8	-0.27699	0.8701	0.44554
3.34	133.02	-20021	2349.6	-0.27718	0.86962	0.44554
3.342	133.03	-20020	2349.4	-0.27679	0.86962	0.44515
3.344	133.02	-20019	2349.2	-0.2764	0.86962	0.44476
3.346	133.02	-20019	2349	-0.27601	0.86962	0.44437
3.348	133.02	-20018	2348.9	-0.27562	0.86962	0.44398
3.35	133.02	-20018	2348.7	-0.27523	0.86962	0.44359
3.352	133.02	-20018	2348.6	-0.27416	0.87001	0.44379
3.354	133.02	-20017	2348.4	-0.27308	0.8704	0.44398
3.356	133.02	-20016	2348.3	-0.27201	0.87079	0.44418
3.358	133.01	-20016	2348.2	-0.27094	0.87118	0.44437
3.36	133.02	-20017	2348.1	-0.26986	0.87157	0.44457
3.362	133.02	-20019	2348	-0.27084	0.87118	0.44437
3.364	133.01	-20021	2348	-0.27182	0.87079	0.44418
3.366	133.01	-20024	2347.9	-0.27279	0.8704	0.44398
3.368	133.01	-20025	2347.8	-0.27377	0.87001	0.44379
3.37	133.01	-20025	2347.7	-0.27474	0.86962	0.44359
3.372	133.01	-20024	2347.7	-0.2764	0.86981	0.44408
3.374	133.01	-20024	2347.6	-0.27806	0.87001	0.44457
3.376	133.01	-20021	2347.6	-0.27972	0.8702	0.44506
3.378	133.01	-20016	2347.6	-0.28138	0.8704	0.44554
3.38	133.01	-20014	2347.6	-0.28304	0.87059	0.44603
3.382	133.01	-20016	2347.6	-0.28177	0.86952	0.44593
3.384	133.01	-20018	2347.6	-0.2805	0.86844	0.44584
3.386	133.01	-20021	2347.6	-0.27923	0.86737	0.44574
3.388	133.01	-20022	2347.6	-0.27796	0.8663	0.44564
3.39	133.01	-20020	2347.7	-0.2767	0.86522	0.44554
3.392	133.01	-20020	2347.7	-0.27748	0.86552	0.44593
3.394	133.01	-20020	2347.7	-0.27826	0.86581	0.44632
3.396	133.01	-20020	2347.7	-0.27904	0.8661	0.44672
3.398	133.01	-20020	2347.8	-0.27982	0.8664	0.44711
3.4	133.01	-20020	2347.8	-0.2806	0.86669	0.4475
3.402	133.01	-20020	2347.8	-0.28021	0.86649	0.44681
3.404	133.01	-20020	2347.9	-0.27982	0.8663	0.44613
3.406	133.01	-20019	2347.9	-0.27943	0.8661	0.44545
3.408	133.01	-20018	2347.9	-0.27904	0.86591	0.44476
3.41	133.02	-20018	2347.9	-0.27865	0.86571	0.44408
3.412	133.01	-20021	2348	-0.27962	0.86571	0.44496
3.414	133.01	-20028	2348	-0.2806	0.86571	0.44584
3.416	133.01	-20032	2348.1	-0.28158	0.86571	0.44672
3.418	133.01	-20034	2348.1	-0.28255	0.86571	0.44759
3.42	133.01	-20032	2348.1	-0.28353	0.86571	0.44847
3.422	133.02	-20025	2348.2	-0.28187	0.86581	0.44759
3.424	133.02	-20023	2348.3	-0.28021	0.86591	0.44672
3.426	133.02	-20026	2348.3	-0.27855	0.866	0.44584
3.428	133.02	-20022	2348.3	-0.27689	0.8661	0.44496
3.43	133.01	-20012	2348.3	-0.27523	0.8662	0.44408
3.432	133	-20010	2348.3	-0.27523	0.86688	0.44428
3.434	133	-20016	2348.3	-0.27523	0.86757	0.44447
3.436	133	-20017	2348.3	-0.27523	0.86825	0.44467
3.438	133	-20012	2348.3	-0.27523	0.86893	0.44486
3.44	133	-20009	2348.2	-0.27523	0.86962	0.44506
3.442	133	-20008	2348.2	-0.27504	0.86932	0.44506
3.444	133	-20011	2348.2	-0.27484	0.86903	0.44506
3.446	133	-20018	2348.2	-0.27465	0.86874	0.44506
3.448	132.99	-20022	2348.2	-0.27445	0.86844	0.44506
3.45	132.99	-20023	2348.1	-0.27426	0.86815	0.44506
3.452	132.98	-20021	2348.1	-0.27552	0.86805	0.44525
3.454	132.98	-20014	2348.1	-0.27679	0.86796	0.44545
3.456	132.98	-20012	2348.1	-0.27806	0.86786	0.44564
3.458	132.97	-20016	2348	-0.27933	0.86776	0.44584
3.46	132.96	-20019	2347.9	-0.2806	0.86766	0.44603
3.462	132.97	-20020	2347.8	-0.2807	0.86776	0.44593
3.464	132.96	-20019	2347.8	-0.2808	0.86786	0.44584
3.466	132.95	-20017	2347.7	-0.28089	0.86796	0.44574
3.468	132.95	-20017	2347.7	-0.28099	0.86805	0.44564
3.47	132.96	-20018	2347.6	-0.28109	0.86815	0.44554
3.472	132.97	-20025	2347.5	-0.2805	0.86776	0.44554
3.474	132.97	-20038	2347.4	-0.27992	0.86737	0.44554
3.476	132.97	-20044	2347.3	-0.27933	0.86698	0.44554
3.478	132.96	-20043	2347.2	-0.27875	0.86659	0.44554
3.48	132.96	-20040	2347.1	-0.27816	0.8662	0.44554
3.482	132.96	-20036	2347	-0.27826	0.86591	0.44525
3.484	132.96	-20033	2346.9	-0.27836	0.86561	0.44496
3.486	132.95	-20032	2346.8	-0.27845	0.86532	0.44467
3.488	132.95	-20028	2346.7	-0.27855	0.86503	0.44437
3.49	132.95	-20021	2346.6	-0.27865	0.86474	0.44408
3.492	132.95	-20017	2346.5	-0.27894	0.86532	0.44398
3.494	132.95	-20014	2346.4	-0.27923	0.86591	0.44388
3.496	132.94	-20013	2346.2	-0.27953	0.86649	0.44379
3.498	132.94	-20014	2346.1	-0.27982	0.86708	0.44369
3.5	132.95	-20018	2345.9	-0.28011	0.86766	0.44359
3.502	132.95	-20026	2345.8	-0.28011	0.86718	0.44467
3.504	132.95	-20029	2345.7	-0.28011	0.86669	0.44574
3.506	132.95	-20026	2345.5	-0.28011	0.8662	0.44681
3.508	132.96	-20026	2345.4	-0.28011	0.86571	0.44789
3.51	132.96	-20030	2345.3	-0.28011	0.86522	0.44896
3.512	132.96	-20030	2345.1	-0.27972	0.86591	0.44808
3.514	132.96	-20028	2345	-0.27933	0.86659	0.4472
3.516	132.96	-20027	2344.8	-0.27894	0.86727	0.44632
3.518	132.97	-20027	2344.7	-0.27855	0.86796	0.44545
3.52	132.97	-20026	2344.5	-0.27816	0.86864	0.44457
3.522	132.99	-20024	2344.4	-0.27855	0.86805	0.44535
3.524	133.01	-20023	2344.2	-0.27894	0.86747	0.44613
3.526	133.03	-20024	2344.1	-0.27933	0.86688	0.44691
3.528	133.04	-20028	2343.9	-0.27972	0.8663	0.44769
3.53	133.04	-20033	2343.8	-0.28011	0.86571	0.44847
3.532	133.04	-20037	2343.6	-0.28001	0.8663	0.44828
3.534	133.04	-20040	2343.5	-0.27992	0.86688	0.44808
3.536	133.04	-20040	2343.4	-0.27982	0.86747	0.44789
3.538	133.04	-20037	2343.3	-0.27972	0.86805	0.44769
3.54	133.03	-20035	2343.2	-0.27962	0.86864	0.4475
3.542	133.03	-20036	2343	-0.27914	0.86815	0.44759
3.544	133.04	-20035	2342.9	-0.27865	0.86766	0.44769
3.546	133.03	-20031	2342.8	-0.27816	0.86718	0.44779
3.548	133.03	-20031	2342.7	-0.27767	0.86669	0.44789
3.55	133.03	-20034	2342.6	-0.27718	0.8662	0.44798
3.552	133.03	-20036	2342.5	-0.27611	0.86766	0.4475
3.554	133.03	-20039	2342.3	-0.27504	0.86913	0.44701
3.556	133.04	-20040	2342.2	-0.27396	0.87059	0.44652
3.558	133.04	-20039	2342.2	-0.27289	0.87206	0.44603
3.56	133.04	-20038	2342.1	-0.27182	0.87352	0.44554
3.562	133.03	-20038	2342	-0.27299	0.87186	0.44584
3.564	133.03	-20040	2342	-0.27416	0.8702	0.44613
3.566	133.03	-20043	2341.9	-0.27533	0.86854	0.44642
3.568	133.03	-20046	2341.8	-0.2765	0.86688	0.44672
3.57	133.03	-20048	2341.7	-0.27767	0.86522	0.44701
3.572	133.03	-20044	2341.7	-0.27826	0.86581	0.44672
3.574	133.03	-20033	2341.6	-0.27884	0.8664	0.44642
3.576	133.03	-20030	2341.6	-0.27943	0.86698	0.44613
3.578	133.03	-20035	2341.6	-0.28001	0.86757	0.44584
3.58	133.02	-20038	2341.5	-0.2806	0.86815	0.44554
3.582	133.03	-20039	2341.5	-0.2805	0.86718	0.44662
3.584	133.04	-20039	2341.4	-0.2804	0.8662	0.44769
3.586	133.06	-20038	2341.3	-0.28031	0.86522	0.44876
3.588	133.08	-20039	2341.3	-0.28021	0.86425	0.44984
3.59	133.12	-20042	2341.3	-0.28011	0.86327	0.45091
3.592	133.15	-20043	2341.2	-0.28021	0.86474	0.44945
3.594	133.18	-20044	2341.2	-0.28031	0.8662	0.44798
3.596	133.19	-20043	2341.1	-0.2804	0.86766	0.44652
3.598	133.17	-20038	2341.1	-0.2805	0.86913	0.44506
3.6	133.13	-20040	2341	-0.2806	0.87059	0.44359
3.602	133.07	-20049	2341	-0.27962	0.87001	0.44349
3.604	133	-20053	2340.9	-0.27865	0.86942	0.4434
3.606	132.92	-20052	2340.9	-0.27767	0.86884	0.4433
3.608	132.82	-20051	2340.8	-0.2767	0.86825	0.4432
3.61	132.72	-20048	2340.8	-0.27572	0.86766	0.4431
3.612	132.6	-20047	2340.7	-0.27679	0.86747	0.44369
3.614	132.46	-20048	2340.7	-0.27787	0.86727	0.44428
3.616	132.3	-20050	2340.6	-0.27894	0.86708	0.44486
3.618	132.14	-20052	2340.6	-0.28001	0.86688	0.44545
3.62	131.99	-20054	2340.5	-0.28109	0.86669	0.44603
3.622	131.85	-20055	2340.5	-0.2808	0.8663	0.44632
3.624	131.72	-20054	2340.5	-0.2805	0.86591	0.44662
3.626	131.64	-20051	2340.5	-0.28021	0.86552	0.44691
3.628	131.61	-20051	2340.4	-0.27992	0.86513	0.4472
3.63	131.66	-20052	2340.4	-0.27962	0.86474	0.4475
3.632	131.83	-20054	2340.3	-0.27884	0.86561	0.44681
3.634	132.04	-20055	2340.2	-0.27806	0.86649	0.44613
3.636	132.26	-20056	2340.2	-0.27728	0.86737	0.44545
3.638	132.46	-20057	2340.1	-0.2765	0.86825	0.44476
3.64	132.63	-20059	2340	-0.27572	0.86913	0.44408
3.642	132.76	-20062	2340	-0.27484	0.86981	0.44369
3.644	132.86	-20062	2340	-0.27396	0.87049	0.4433
3.646	132.92	-20058	2339.9	-0.27308	0.87118	0.44291
3.648	132.98	-20057	2339.8	-0.27221	0.87186	0.44252
3.65	133.04	-20059	2339.8	-0.27133	0.87254	0.44213
3.652	133.06	-20062	2339.7	-0.27182	0.87157	0.44193
3.654	133.05	-20065	2339.6	-0.2723	0.87059	0.44174
3.656	133.02	-20065	2339.5	-0.27279	0.86962	0.44154
3.658	132.98	-20063	2339.5	-0.27328	0.86864	0.44135
3.66	132.95	-20062	2339.5	-0.27377	0.86766	0.44115
3.662	132.93	-20063	2339.4	-0.27348	0.86766	0.44144
3.664	132.92	-20066	2339.4	-0.27318	0.86766	0.44174
3.666	132.92	-20070	2339.4	-0.27289	0.86766	0.44203
3.668	132.92	-20072	2339.3	-0.2726	0.86766	0.44232
3.67	132.92	-20072	2339.3	-0.2723	0.86766	0.44262
3.672	132.93	-20072	2339.2	-0.27269	0.86825	0.44291
3.674	132.94	-20072	2339.1	-0.27308	0.86884	0.4432
3.676	132.95	-20070	2339	-0.27348	0.86942	0.44349
3.678	132.95	-20068	2339	-0.27387	0.87001	0.44379
3.68	132.96	-20067	2339	-0.27426	0.87059	0.44408
3.682	132.96	-20068	2338.9	-0.27406	0.87069	0.44428
3.684	132.96	-20069	2338.9	-0.27387	0.87079	0.44447
3.686	132.96	-20070	2338.8	-0.27367	0.87088	0.44467
3.688	132.97	-20071	2338.7	-0.27348	0.87098	0.44486
3.69	132.97	-20071	2338.7	-0.27328	0.87108	0.44506
3.692	132.97	-20073	2338.6	-0.27348	0.87098	0.44476
3.694	132.97	-20076	2338.6	-0.27367	0.87088	0.44447
3.696	132.97	-20076	2338.5	-0.27387	0.87079	0.44418
3.698	132.97	-20073	2338.5	-0.27406	0.87069	0.44388
3.7	132.97	-20073	2338.4	-0.27426	0.87059	0.44359
3.702	132.97	-20075	2338.4	-0.27474	0.87059	0.44349
3.704	132.96	-20076	2338.4	-0.27523	0.87059	0.4434
3.706	132.96	-20075	2338.4	-0.27572	0.87059	0.4433
3.708	132.96	-20077	2338.3	-0.27621	0.87059	0.4432
3.71	132.96	-20080	2338.3	-0.2767	0.87059	0.4431
3.712	132.95	-20080	2338.2	-0.27679	0.86991	0.44349
3.714	132.95	-20076	2338.2	-0.27689	0.86923	0.44388
3.716	132.95	-20077	2338.1	-0.27699	0.86854	0.44428
3.718	132.95	-20082	2338.1	-0.27709	0.86786	0.44467
3.72	132.95	-20085	2338.1	-0.27718	0.86718	0.44506
3.722	132.95	-20084	2338.1	-0.2765	0.86708	0.44457
3.724	132.95	-20082	2338	-0.27582	0.86698	0.44408
3.726	132.95	-20078	2338	-0.27513	0.86688	0.44359
3.728	132.95	-20076	2338	-0.27445	0.86679	0.4431
3.73	132.94	-20076	2338	-0.27377	0.86669	0.44262
3.732	132.94	-20079	2338	-0.27445	0.86679	0.4431
3.734	132.94	-20085	2338	-0.27513	0.86688	0.44359
3.736	132.93	-20089	2337.9	-0.27582	0.86698	0.44408
3.738	132.93	-20092	2337.9	-0.2765	0.86708	0.44457
3.74	132.93	-20094	2337.8	-0.27718	0.86718	0.44506
3.742	132.93	-20095	2337.8	-0.27748	0.86747	0.44457
3.744	132.92	-20096	2337.8	-0.27777	0.86776	0.44408
3.746	132.92	-20096	2337.8	-0.27806	0.86805	0.44359
3.748	132.92	-20094	2337.7	-0.27836	0.86835	0.4431
3.75	132.92	-20090	2337.7	-0.27865	0.86864	0.44262
3.752	132.91	-20089	2337.6	-0.27777	0.86864	0.44291
3.754	132.91	-20091	2337.6	-0.27689	0.86864	0.4432
3.756	132.91	-20094	2337.6	-0.27601	0.86864	0.44349
3.758	132.91	-20096	2337.5	-0.27513	0.86864	0.44379
3.76	132.9	-20099	2337.5	-0.27426	0.86864	0.44408
3.762	132.9	-20101	2337.4	-0.27377	0.86923	0.4434
3.764	132.9	-20101	2337.4	-0.27328	0.86981	0.44271
3.766	132.89	-20098	2337.4	-0.27279	0.8704	0.44203
3.768	132.89	-20096	2337.3	-0.2723	0.87098	0.44135
3.77	132.88	-20095	2337.3	-0.27182	0.87157	0.44066
3.772	132.88	-20096	2337.3	-0.2725	0.87059	0.44154
3.774	132.88	-20101	2337.3	-0.27318	0.86962	0.44242
3.776	132.88	-20104	2337.3	-0.27387	0.86864	0.4433
3.778	132.87	-20103	2337.3	-0.27455	0.86766	0.44418
3.78	132.87	-20103	2337.3	-0.27523	0.86669	0.44506
3.782	132.86	-20104	2337.3	-0.27416	0.86766	0.44437
3.784	132.85	-20106	2337.4	-0.27308	0.86864	0.44369
3.786	132.85	-20108	2337.4	-0.27201	0.86962	0.44301
3.788	132.85	-20110	2337.5	-0.27094	0.87059	0.44232
3.79	132.85	-20111	2337.6	-0.26986	0.87157	0.44164
3.792	132.85	-20112	2337.8	-0.27094	0.87157	0.44184
3.794	132.84	-20112	2338	-0.27201	0.87157	0.44203
3.796	132.83	-20111	2338.2	-0.27308	0.87157	0.44223
3.798	132.83	-20108	2338.4	-0.27416	0.87157	0.44242
3.8	132.83	-20106	2338.7	-0.27523	0.87157	0.44262
3.802	132.83	-20106	2339	-0.27543	0.87108	0.44301
3.804	132.83	-20106	2339.3	-0.27562	0.87059	0.4434
3.806	132.83	-20105	2339.6	-0.27582	0.8701	0.44379
3.808	132.83	-20104	2340	-0.27601	0.86962	0.44418
3.81	132.83	-20104	2340.4	-0.27621	0.86913	0.44457
3.812	132.83	-20106	2340.8	-0.27572	0.86913	0.44437
3.814	132.82	-20108	2341.2	-0.27523	0.86913	0.44418
3.816	132.82	-20109	2341.7	-0.27474	0.86913	0.44398
3.818	132.82	-20110	2342.2	-0.27426	0.86913	0.44379
3.82	132.81	-20112	2342.6	-0.27377	0.86913	0.44359
3.822	132.82	-20114	2343.1	-0.27435	0.86952	0.44398
3.824	132.82	-20115	2343.6	-0.27494	0.86991	0.44437
3.826	132.81	-20115	2344.2	-0.27552	0.8703	0.44476
3.828	132.81	-20116	2344.7	-0.27611	0.87069	0.44515
3.83	132.81	-20115	2345.2	-0.2767	0.87108	0.44554
3.832	132.81	-20115	2345.8	-0.27757	0.8704	0.44623
3.834	132.81	-20113	2346.3	-0.27845	0.86971	0.44691
3.836	132.81	-20112	2346.9	-0.27933	0.86903	0.44759
3.838	132.81	-20112	2347.4	-0.28021	0.86835	0.44828
3.84	132.81	-20110	2348	-0.28109	0.86766	0.44896
3.842	132.82	-20107	2348.5	-0.2804	0.86747	0.44837
3.844	132.82	-20108	2349	-0.27972	0.86727	0.44779
3.846	132.82	-20114	2349.5	-0.27904	0.86708	0.4472
3.848	132.82	-20114	2350.1	-0.27836	0.86688	0.44662
3.85	132.82	-20108	2350.6	-0.27767	0.86669	0.44603
3.852	132.81	-20105	2351.1	-0.27679	0.86718	0.44535
3.854	132.82	-20104	2351.6	-0.27592	0.86766	0.44467
3.856	132.82	-20104	2352.1	-0.27504	0.86815	0.44398
3.858	132.82	-20106	2352.6	-0.27416	0.86864	0.4433
3.86	132.82	-20106	2353	-0.27328	0.86913	0.44262
3.862	132.82	-20105	2353.5	-0.27445	0.86835	0.44379
3.864	132.82	-20105	2353.9	-0.27562	0.86757	0.44496
3.866	132.83	-20104	2354.3	-0.27679	0.86679	0.44613
3.868	132.83	-20104	2354.6	-0.27796	0.866	0.4473
3.87	132.83	-20105	2355	-0.27914	0.86522	0.44847
3.872	132.84	-20103	2355.3	-0.27806	0.8662	0.44769
3.874	132.84	-20097	2355.7	-0.27699	0.86718	0.44691
3.876	132.85	-20093	2356	-0.27592	0.86815	0.44613
3.878	132.85	-20092	2356.2	-0.27484	0.86913	0.44535
3.88	132.86	-20094	2356.4	-0.27377	0.8701	0.44457
3.882	132.86	-20099	2356.7	-0.27269	0.87069	0.44418
3.884	132.87	-20099	2356.9	-0.27162	0.87128	0.44379
3.886	132.87	-20093	2357.1	-0.27055	0.87186	0.4434
3.888	132.88	-20090	2357.2	-0.26947	0.87245	0.44301
3.89	132.88	-20089	2357.4	-0.2684	0.87303	0.44262
3.892	132.89	-20086	2357.4	-0.26918	0.87293	0.44291
3.894	132.89	-20082	2357.5	-0.26996	0.87284	0.4432
3.896	132.9	-20081	2357.6	-0.27074	0.87274	0.44349
3.898	132.9	-20085	2357.6	-0.27152	0.87264	0.44379
3.9	132.9	-20084	2357.6	-0.2723	0.87254	0.44408
3.902	132.91	-20079	2357.6	-0.27318	0.87235	0.44388
3.904	132.91	-20076	2357.6	-0.27406	0.87215	0.44369
3.906	132.91	-20075	2357.6	-0.27494	0.87196	0.44349
3.908	132.92	-20074	2357.5	-0.27582	0.87176	0.4433
3.91	132.92	-20075	2357.5	-0.2767	0.87157	0.4431
3.912	132.92	-20072	2357.4	-0.27592	0.87108	0.4434
3.914	132.92	-20066	2357.4	-0.27513	0.87059	0.44369
3.916	132.93	-20064	2357.3	-0.27435	0.8701	0.44398
3.918	132.93	-20065	2357.1	-0.27357	0.86962	0.44428
3.92	132.93	-20064	2357	-0.27279	0.86913	0.44457
3.922	132.93	-20061	2356.9	-0.27348	0.86962	0.44437
3.924	132.94	-20059	2356.8	-0.27416	0.8701	0.44418
3.926	132.94	-20060	2356.6	-0.27484	0.87059	0.44398
3.928	132.94	-20059	2356.5	-0.27552	0.87108	0.44379
3.93	132.94	-20058	2356.3	-0.27621	0.87157	0.44359
3.932	132.94	-20058	2356.2	-0.27572	0.87137	0.44271
3.934	132.94	-20059	2356.1	-0.27523	0.87118	0.44184
3.936	132.94	-20059	2356	-0.27474	0.87098	0.44096
3.938	132.94	-20057	2355.8	-0.27426	0.87079	0.44008
3.94	132.94	-20054	2355.7	-0.27377	0.87059	0.4392
3.942	132.95	-20051	2355.5	-0.27387	0.87088	0.44018
3.944	132.95	-20048	2355.4	-0.27396	0.87118	0.44115
3.946	132.95	-20047	2355.2	-0.27406	0.87147	0.44213
3.948	132.95	-20046	2355	-0.27416	0.87176	0.4431
3.95	132.94	-20043	2354.8	-0.27426	0.87206	0.44408
3.952	132.94	-20042	2354.6	-0.27338	0.87206	0.44379
3.954	132.94	-20044	2354.4	-0.2725	0.87206	0.44349
3.956	132.94	-20047	2354.2	-0.27162	0.87206	0.4432
3.958	132.94	-20052	2354	-0.27074	0.87206	0.44291
3.96	132.94	-20051	2353.8	-0.26986	0.87206	0.44262
3.962	132.94	-20046	2353.5	-0.27055	0.87206	0.44281
3.964	132.94	-20045	2353.3	-0.27123	0.87206	0.44301
3.966	132.94	-20048	2353.1	-0.27191	0.87206	0.4432
3.968	132.94	-20047	2352.8	-0.2726	0.87206	0.4434
3.97	132.94	-20040	2352.5	-0.27328	0.87206	0.44359
3.972	132.95	-20037	2352.2	-0.27357	0.87225	0.44398
3.974	132.95	-20038	2352	-0.27387	0.87245	0.44437
3.976	132.95	-20041	2351.7	-0.27416	0.87264	0.44476
3.978	132.95	-20044	2351.4	-0.27445	0.87284	0.44515
3.98	132.94	-20044	2351.1	-0.27474	0.87303	0.44554
3.982	132.94	-20041	2350.8	-0.27523	0.87264	0.44584
3.984	132.94	-20042	2350.5	-0.27572	0.87225	0.44613
3.986	132.94	-20048	2350.2	-0.27621	0.87186	0.44642
3.988	132.94	-20051	2349.8	-0.2767	0.87147	0.44672
3.99	132.94	-20051	2349.4	-0.27718	0.87108	0.44701
3.992	132.94	-20053	2349.2	-0.27621	0.87186	0.44642
3.994	132.94	-20056	2348.9	-0.27523	0.87264	0.44584
3.996	132.93	-20053	2348.6	-0.27426	0.87342	0.44525
3.998	132.93	-20044	2348.3	-0.27328	0.8742	0.44467
4	132.93	-20039	2348.1	-0.2723	0.87498	0.44408
4.002	132.93	-20040	2347.8	-0.27367	0.87401	0.44418
4.004	132.93	-20041	2347.5	-0.27504	0.87303	0.44428
4.006	132.93	-20042	2347.3	-0.2764	0.87206	0.44437
4.008	132.94	-20041	2347.1	-0.27777	0.87108	0.44447
4.01	132.94	-20039	2346.8	-0.27914	0.8701	0.44457
4.012	132.93	-20038	2346.6	-0.27845	0.87049	0.44437
4.014	132.93	-20037	2346.4	-0.27777	0.87088	0.44418
4.016	132.93	-20034	2346.2	-0.27709	0.87128	0.44398
4.018	132.93	-20028	2346	-0.2764	0.87167	0.44379
4.02	132.93	-20029	2345.8	-0.27572	0.87206	0.44359
4.022	132.93	-20037	2345.7	-0.27572	0.87128	0.44369
4.024	132.93	-20041	2345.5	-0.27572	0.87049	0.44379
4.026	132.93	-20042	2345.4	-0.27572	0.86971	0.44388
4.028	132.93	-20040	2345.3	-0.27572	0.86893	0.44398
4.03	132.93	-20037	2345.2	-0.27572	0.86815	0.44408
4.032	132.93	-20037	2345.1	-0.27592	0.86874	0.44388
4.034	132.92	-20038	2345	-0.27611	0.86932	0.44369
4.036	132.92	-20036	2344.9	-0.27631	0.86991	0.44349
4.038	132.92	-20033	2344.8	-0.2765	0.87049	0.4433
4.04	132.93	-20032	2344.8	-0.2767	0.87108	0.4431
4.042	132.93	-20033	2344.7	-0.27611	0.87098	0.44349
4.044	132.92	-20038	2344.7	-0.27552	0.87088	0.44388
4.046	132.92	-20047	2344.7	-0.27494	0.87079	0.44428
4.048	132.92	-20052	2344.6	-0.27435	0.87069	0.44467
4.05	132.92	-20055	2344.6	-0.27377	0.87059	0.44506
4.052	132.91	-20051	2344.6	-0.27357	0.87098	0.44467
4.054	132.92	-20042	2344.7	-0.27338	0.87137	0.44428
4.056	132.92	-20041	2344.7	-0.27318	0.87176	0.44388
4.058	132.92	-20049	2344.6	-0.27299	0.87215	0.44349
4.06	132.92	-20052	2344.6	-0.27279	0.87254	0.4431
4.062	132.92	-20050	2344.7	-0.27279	0.87235	0.44301
4.064	132.92	-20047	2344.7	-0.27279	0.87215	0.44291
4.066	132.92	-20042	2344.8	-0.27279	0.87196	0.44281
4.068	132.92	-20040	2344.8	-0.27279	0.87176	0.44271
4.07	132.92	-20040	2344.9	-0.27279	0.87157	0.44262
4.072	132.92	-20038	2345	-0.27269	0.87225	0.44291
4.074	132.92	-20036	2345	-0.2726	0.87293	0.4432
4.076	132.92	-20039	2345.1	-0.2725	0.87362	0.44349
4.078	132.92	-20046	2345.1	-0.2724	0.8743	0.44379
4.08	132.92	-20049	2345.1	-0.2723	0.87498	0.44408
4.082	132.92	-20048	2345.2	-0.2726	0.87469	0.44428
4.084	132.92	-20049	2345.2	-0.27289	0.8744	0.44447
4.086	132.92	-20052	2345.3	-0.27318	0.87411	0.44467
4.088	132.93	-20050	2345.3	-0.27348	0.87381	0.44486
4.09	132.93	-20045	2345.3	-0.27377	0.87352	0.44506
4.092	132.93	-20044	2345.3	-0.27308	0.87303	0.44467
4.094	132.92	-20046	2345.3	-0.2724	0.87254	0.44428
4.096	132.91	-20047	2345.4	-0.27172	0.87206	0.44388
4.098	132.9	-20047	2345.4	-0.27104	0.87157	0.44349
4.1	132.9	-20046	2345.4	-0.27035	0.87108	0.4431
4.102	132.9	-20042	2345.4	-0.27143	0.87059	0.44369
4.104	132.9	-20041	2345.4	-0.2725	0.8701	0.44428
4.106	132.91	-20044	2345.4	-0.27357	0.86962	0.44486
4.108	132.91	-20046	2345.4	-0.27465	0.86913	0.44545
4.11	132.9	-20046	2345.4	-0.27572	0.86864	0.44603
4.112	132.9	-20046	2345.4	-0.27494	0.86923	0.44515
4.114	132.9	-20045	2345.4	-0.27416	0.86981	0.44428
4.116	132.89	-20043	2345.4	-0.27338	0.8704	0.4434
4.118	132.89	-20041	2345.3	-0.2726	0.87098	0.44252
4.12	132.88	-20041	2345.3	-0.27182	0.87157	0.44164
4.122	132.88	-20044	2345.3	-0.27299	0.87079	0.44262
4.124	132.87	-20044	2345.2	-0.27416	0.87001	0.44359
4.126	132.86	-20041	2345.2	-0.27533	0.86923	0.44457
4.128	132.86	-20041	2345.1	-0.2765	0.86844	0.44554
4.13	132.86	-20044	2345	-0.27767	0.86766	0.44652
4.132	132.86	-20047	2345	-0.27738	0.86825	0.44623
4.134	132.85	-20049	2344.9	-0.27709	0.86884	0.44593
4.136	132.86	-20051	2344.8	-0.27679	0.86942	0.44564
4.138	132.88	-20052	2344.7	-0.2765	0.87001	0.44535
4.14	132.88	-20053	2344.6	-0.27621	0.87059	0.44506
4.142	132.88	-20052	2344.6	-0.27504	0.87098	0.44457
4.144	132.88	-20051	2344.5	-0.27387	0.87137	0.44408
4.146	132.87	-20049	2344.4	-0.27269	0.87176	0.44359
4.148	132.87	-20047	2344.3	-0.27152	0.87215	0.4431
4.15	132.87	-20044	2344.2	-0.27035	0.87254	0.44262
4.152	132.86	-20044	2344.1	-0.27221	0.87137	0.4432
4.154	132.86	-20048	2344	-0.27406	0.8702	0.44379
4.156	132.86	-20048	2343.9	-0.27592	0.86903	0.44437
4.158	132.86	-20044	2343.8	-0.27777	0.86786	0.44496
4.16	132.86	-20043	2343.7	-0.27962	0.86669	0.44554
4.162	132.86	-20044	2343.5	-0.27787	0.86727	0.44486
4.164	132.86	-20045	2343.4	-0.27611	0.86786	0.44418
4.166	132.86	-20048	2343.3	-0.27435	0.86844	0.44349
4.168	132.86	-20047	2343.1	-0.2726	0.86903	0.44281
4.17	132.86	-20043	2343	-0.27084	0.86962	0.44213
4.172	132.86	-20040	2342.9	-0.27152	0.86952	0.44271
4.174	132.86	-20040	2342.7	-0.27221	0.86942	0.4433
4.176	132.86	-20042	2342.6	-0.27289	0.86932	0.44388
4.178	132.86	-20045	2342.5	-0.27357	0.86923	0.44447
4.18	132.86	-20048	2342.4	-0.27426	0.86913	0.44506
4.182	132.87	-20051	2342.2	-0.27387	0.86981	0.44447
4.184	132.87	-20052	2342.1	-0.27348	0.87049	0.44388
4.186	132.88	-20054	2341.9	-0.27308	0.87118	0.4433
4.188	132.89	-20055	2341.8	-0.27269	0.87186	0.44271
4.19	132.9	-20055	2341.7	-0.2723	0.87254	0.44213
4.192	132.92	-20057	2341.5	-0.27182	0.87235	0.44184
4.194	132.94	-20059	2341.4	-0.27133	0.87215	0.44154
4.196	132.94	-20059	2341.2	-0.27084	0.87196	0.44125
4.198	132.95	-20058	2341.1	-0.27035	0.87176	0.44096
4.2	132.94	-20058	2341	-0.26986	0.87157	0.44066
4.202	132.94	-20057	2340.8	-0.27055	0.87254	0.44174
4.204	132.94	-20055	2340.7	-0.27123	0.87352	0.44281
4.206	132.94	-20052	2340.5	-0.27191	0.8745	0.44388
4.208	132.94	-20051	2340.4	-0.2726	0.87547	0.44496
4.21	132.94	-20052	2340.3	-0.27328	0.87645	0.44603
4.212	132.94	-20053	2340.2	-0.27308	0.87586	0.44535
4.214	132.94	-20055	2340.1	-0.27289	0.87528	0.44467
4.216	132.94	-20056	2340.1	-0.27269	0.87469	0.44398
4.218	132.94	-20058	2340	-0.2725	0.87411	0.4433
4.22	132.94	-20059	2339.9	-0.2723	0.87352	0.44262
4.222	132.94	-20060	2339.8	-0.27211	0.87352	0.44281
4.224	132.94	-20060	2339.7	-0.27191	0.87352	0.44301
4.226	132.94	-20060	2339.6	-0.27172	0.87352	0.4432
4.228	132.94	-20061	2339.6	-0.27152	0.87352	0.4434
4.23	132.94	-20063	2339.6	-0.27133	0.87352	0.44359
4.232	132.93	-20063	2339.6	-0.27172	0.87332	0.44359
4.234	132.94	-20063	2339.6	-0.27211	0.87313	0.44359
4.236	132.94	-20064	2339.6	-0.2725	0.87293	0.44359
4.238	132.94	-20064	2339.6	-0.27289	0.87274	0.44359
4.24	132.94	-20069	2339.7	-0.27328	0.87254	0.44359
4.242	132.94	-20078	2339.8	-0.27299	0.87293	0.44398
4.244	132.94	-20080	2339.9	-0.27269	0.87332	0.44437
4.246	132.94	-20076	2340	-0.2724	0.87372	0.44476
4.248	132.94	-20072	2340.1	-0.27211	0.87411	0.44515
4.25	132.95	-20067	2340.1	-0.27182	0.8745	0.44554
4.252	132.96	-20067	2340.2	-0.2723	0.8742	0.44603
4.254	132.98	-20070	2340.2	-0.27279	0.87391	0.44652
4.256	133.01	-20071	2340.2	-0.27328	0.87362	0.44701
4.258	133.05	-20069	2340.2	-0.27377	0.87332	0.4475
4.26	133.08	-20067	2340.2	-0.27426	0.87303	0.44798
4.262	133.09	-20067	2340.2	-0.27387	0.87293	0.44672
4.264	133.07	-20070	2340.2	-0.27348	0.87284	0.44545
4.266	133.03	-20074	2340.1	-0.27308	0.87274	0.44418
4.268	132.98	-20077	2340.1	-0.27269	0.87264	0.44291
4.27	132.91	-20077	2340	-0.2723	0.87254	0.44164
4.272	132.82	-20078	2339.9	-0.27269	0.87225	0.44223
4.274	132.73	-20078	2339.8	-0.27308	0.87196	0.44281
4.276	132.63	-20076	2339.8	-0.27348	0.87167	0.4434
4.278	132.51	-20074	2339.7	-0.27387	0.87137	0.44398
4.28	132.38	-20072	2339.7	-0.27426	0.87108	0.44457
4.282	132.23	-20072	2339.6	-0.27474	0.87176	0.44496
4.284	132.07	-20073	2339.6	-0.27523	0.87245	0.44535
4.286	131.93	-20075	2339.5	-0.27572	0.87313	0.44574
4.288	131.78	-20077	2339.5	-0.27621	0.87381	0.44613
4.29	131.65	-20077	2339.4	-0.2767	0.8745	0.44652
4.292	131.56	-20077	2339.3	-0.27504	0.87401	0.44554
4.294	131.55	-20077	2339.2	-0.27338	0.87352	0.44457
4.296	131.62	-20078	2339.1	-0.27172	0.87303	0.44359
4.298	131.77	-20080	2339	-0.27006	0.87254	0.44262
4.3	131.96	-20082	2339	-0.2684	0.87206	0.44164
4.302	132.17	-20084	2338.9	-0.26899	0.87313	0.44262
4.304	132.35	-20083	2338.9	-0.26957	0.8742	0.44359
4.306	132.55	-20080	2338.8	-0.27016	0.87528	0.44457
4.308	132.73	-20081	2338.8	-0.27074	0.87635	0.44554
4.31	132.83	-20086	2338.7	-0.27133	0.87742	0.44652
4.312	132.86	-20090	2338.6	-0.2723	0.87625	0.44623
4.314	132.88	-20092	2338.5	-0.27328	0.87508	0.44593
4.316	132.91	-20091	2338.5	-0.27426	0.87391	0.44564
4.318	132.93	-20086	2338.4	-0.27523	0.87274	0.44535
4.32	132.95	-20087	2338.4	-0.27621	0.87157	0.44506
4.322	132.96	-20094	2338.3	-0.27572	0.87186	0.44467
4.324	132.94	-20094	2338.2	-0.27523	0.87215	0.44428
4.326	132.91	-20089	2338.2	-0.27474	0.87245	0.44388
4.328	132.87	-20089	2338.1	-0.27426	0.87274	0.44349
4.33	132.85	-20092	2338.1	-0.27377	0.87303	0.4431
4.332	132.83	-20095	2338.1	-0.27328	0.87303	0.44359
4.334	132.83	-20096	2338.1	-0.27279	0.87303	0.44408
4.336	132.83	-20097	2338	-0.2723	0.87303	0.44457
4.338	132.84	-20098	2337.9	-0.27182	0.87303	0.44506
4.34	132.85	-20098	2337.9	-0.27133	0.87303	0.44554
4.342	132.86	-20097	2337.8	-0.27221	0.87313	0.44584
4.344	132.86	-20098	2337.8	-0.27308	0.87323	0.44613
4.346	132.86	-20100	2337.7	-0.27396	0.87332	0.44642
4.348	132.86	-20101	2337.7	-0.27484	0.87342	0.44672
4.35	132.87	-20100	2337.6	-0.27572	0.87352	0.44701
4.352	132.87	-20101	2337.6	-0.27543	0.87264	0.44613
4.354	132.87	-20104	2337.5	-0.27513	0.87176	0.44525
4.356	132.87	-20106	2337.5	-0.27484	0.87088	0.44437
4.358	132.88	-20108	2337.4	-0.27455	0.87001	0.44349
4.36	132.88	-20107	2337.4	-0.27426	0.86913	0.44262
4.362	132.88	-20103	2337.3	-0.27465	0.86952	0.4432
4.364	132.87	-20101	2337.2	-0.27504	0.86991	0.44379
4.366	132.87	-20102	2337.1	-0.27543	0.8703	0.44437
4.368	132.87	-20104	2337.1	-0.27582	0.87069	0.44496
4.37	132.87	-20105	2337	-0.27621	0.87108	0.44554
4.372	132.86	-20106	2337	-0.27562	0.87176	0.44476
4.374	132.86	-20107	2337	-0.27504	0.87245	0.44398
4.376	132.85	-20110	2337	-0.27445	0.87313	0.4432
4.378	132.85	-20115	2337.1	-0.27387	0.87381	0.44242
4.38	132.86	-20117	2337.1	-0.27328	0.8745	0.44164
4.382	132.86	-20114	2337.1	-0.27269	0.8744	0.44232
4.384	132.85	-20113	2337.1	-0.27211	0.8743	0.44301
4.386	132.85	-20116	2337.2	-0.27152	0.8742	0.44369
4.388	132.85	-20118	2337.3	-0.27094	0.87411	0.44437
4.39	132.85	-20121	2337.4	-0.27035	0.87401	0.44506
4.392	132.85	-20121	2337.4	-0.27094	0.87372	0.44447
4.394	132.84	-20118	2337.5	-0.27152	0.87342	0.44388
4.396	132.84	-20117	2337.5	-0.27211	0.87313	0.4433
4.398	132.84	-20118	2337.5	-0.27269	0.87284	0.44271
4.4	132.83	-20119	2337.6	-0.27328	0.87254	0.44213
4.402	132.83	-20119	2337.5	-0.27377	0.87225	0.44281
4.404	132.83	-20117	2337.5	-0.27426	0.87196	0.44349
4.406	132.83	-20112	2337.5	-0.27474	0.87167	0.44418
4.408	132.83	-20112	2337.5	-0.27523	0.87137	0.44486
4.41	132.83	-20118	2337.5	-0.27572	0.87108	0.44554
4.412	132.83	-20117	2337.4	-0.27543	0.87128	0.44554
4.414	132.83	-20110	2337.4	-0.27513	0.87147	0.44554
4.416	132.83	-20113	2337.3	-0.27484	0.87167	0.44554
4.418	132.83	-20125	2337.2	-0.27455	0.87186	0.44554
4.42	132.82	-20130	2337.2	-0.27426	0.87206	0.44554
4.422	132.82	-20128	2337.1	-0.27367	0.87225	0.44506
4.424	132.82	-20129	2337.1	-0.27308	0.87245	0.44457
4.426	132.82	-20132	2337	-0.2725	0.87264	0.44408
4.428	132.81	-20135	2336.9	-0.27191	0.87284	0.44359
4.43	132.8	-20138	2336.8	-0.27133	0.87303	0.4431
4.432	132.8	-20138	2336.7	-0.27182	0.87206	0.4431
4.434	132.79	-20137	2336.7	-0.2723	0.87108	0.4431
4.436	132.79	-20134	2336.6	-0.27279	0.8701	0.4431
4.438	132.79	-20129	2336.5	-0.27328	0.86913	0.4431
4.44	132.79	-20129	2336.4	-0.27377	0.86815	0.4431
4.442	132.79	-20134	2336.4	-0.27435	0.86952	0.44418
4.444	132.78	-20136	2336.3	-0.27494	0.87088	0.44525
4.446	132.77	-20137	2336.3	-0.27552	0.87225	0.44632
4.448	132.76	-20138	2336.2	-0.27611	0.87362	0.4474
4.45	132.76	-20137	2336.2	-0.2767	0.87498	0.44847
4.452	132.76	-20138	2336.1	-0.27631	0.87401	0.44681
4.454	132.75	-20141	2336.1	-0.27592	0.87303	0.44515
4.456	132.75	-20139	2336.2	-0.27552	0.87206	0.44349
4.458	132.75	-20134	2336.2	-0.27513	0.87108	0.44184
4.46	132.75	-20131	2336.3	-0.27474	0.8701	0.44018
4.462	132.74	-20130	2336.4	-0.27523	0.8703	0.44144
4.464	132.74	-20132	2336.5	-0.27572	0.87049	0.44271
4.466	132.74	-20138	2336.6	-0.27621	0.87069	0.44398
4.468	132.74	-20143	2336.9	-0.2767	0.87088	0.44525
4.47	132.74	-20149	2337.1	-0.27718	0.87108	0.44652
4.472	132.74	-20148	2337.3	-0.2765	0.87137	0.44623
4.474	132.73	-20142	2337.6	-0.27582	0.87167	0.44593
4.476	132.73	-20140	2337.8	-0.27513	0.87196	0.44564
4.478	132.73	-20143	2338.1	-0.27445	0.87225	0.44535
4.48	132.72	-20146	2338.4	-0.27377	0.87254	0.44506
4.482	132.72	-20149	2338.8	-0.27406	0.87215	0.44476
4.484	132.72	-20148	2339.1	-0.27435	0.87176	0.44447
4.486	132.72	-20142	2339.5	-0.27465	0.87137	0.44418
4.488	132.72	-20143	2340	-0.27494	0.87098	0.44388
4.49	132.72	-20152	2340.4	-0.27523	0.87059	0.44359
4.492	132.72	-20155	2340.8	-0.27494	0.87088	0.44388
4.494	132.72	-20152	2341.3	-0.27465	0.87118	0.44418
4.496	132.72	-20150	2341.7	-0.27435	0.87147	0.44447
4.498	132.72	-20149	2342.2	-0.27406	0.87176	0.44476
4.5	132.72	-20151	2342.7	-0.27377	0.87206	0.44506
4.502	132.72	-20154	2343.2	-0.27416	0.87206	0.44496
4.504	132.72	-20153	2343.7	-0.27455	0.87206	0.44486
4.506	132.72	-20149	2344.3	-0.27494	0.87206	0.44476
4.508	132.73	-20150	2344.8	-0.27533	0.87206	0.44467
4.51	132.72	-20158	2345.3	-0.27572	0.87206	0.44457
4.512	132.72	-20161	2345.9	-0.27592	0.87235	0.44515
4.514	132.72	-20158	2346.4	-0.27611	0.87264	0.44574
4.516	132.72	-20156	2346.9	-0.27631	0.87293	0.44632
4.518	132.72	-20155	2347.4	-0.2765	0.87323	0.44691
4.52	132.72	-20154	2347.9	-0.2767	0.87352	0.4475
4.522	132.73	-20154	2348.5	-0.27552	0.87284	0.44623
4.524	132.73	-20154	2349	-0.27435	0.87215	0.44496
4.526	132.73	-20155	2349.4	-0.27318	0.87147	0.44369
4.528	132.73	-20153	2349.9	-0.27201	0.87079	0.44242
4.53	132.73	-20149	2350.4	-0.27084	0.8701	0.44115
4.532	132.73	-20145	2350.9	-0.27182	0.87059	0.44193
4.534	132.74	-20143	2351.3	-0.27279	0.87108	0.44271
4.536	132.74	-20143	2351.7	-0.27377	0.87157	0.44349
4.538	132.75	-20145	2352.1	-0.27474	0.87206	0.44428
4.54	132.75	-20144	2352.5	-0.27572	0.87254	0.44506
4.542	132.76	-20141	2352.8	-0.27426	0.87293	0.44476
4.544	132.76	-20140	2353.1	-0.27279	0.87332	0.44447
4.546	132.77	-20141	2353.4	-0.27133	0.87372	0.44418
4.548	132.77	-20140	2353.7	-0.26986	0.87411	0.44388
4.55	132.78	-20138	2353.9	-0.2684	0.8745	0.44359
4.552	132.78	-20136	2354.1	-0.26986	0.87372	0.44418
4.554	132.78	-20134	2354.4	-0.27133	0.87293	0.44476
4.556	132.79	-20134	2354.5	-0.27279	0.87215	0.44535
4.558	132.79	-20137	2354.7	-0.27426	0.87137	0.44593
4.56	132.8	-20136	2354.8	-0.27572	0.87059	0.44652
4.562	132.8	-20131	2355	-0.27484	0.87118	0.44593
4.564	132.8	-20130	2355.1	-0.27396	0.87176	0.44535
4.566	132.81	-20132	2355.2	-0.27308	0.87235	0.44476
4.568	132.81	-20133	2355.2	-0.27221	0.87293	0.44418
4.57	132.82	-20134	2355.2	-0.27133	0.87352	0.44359
4.572	132.82	-20134	2355.2	-0.27191	0.87323	0.4434
4.574	132.83	-20133	2355.2	-0.2725	0.87293	0.4432
4.576	132.84	-20131	2355.2	-0.27308	0.87264	0.44301
4.578	132.84	-20128	2355.2	-0.27367	0.87235	0.44281
4.58	132.85	-20125	2355.2	-0.27426	0.87206	0.44262
4.582	132.85	-20122	2355.2	-0.27377	0.87196	0.44281
4.584	132.84	-20120	2355.1	-0.27328	0.87186	0.44301
4.586	132.85	-20119	2355	-0.27279	0.87176	0.4432
4.588	132.85	-20119	2354.9	-0.2723	0.87167	0.4434
4.59	132.85	-20119	2354.8	-0.27182	0.87157	0.44359
4.592	132.85	-20115	2354.7	-0.27201	0.87167	0.44369
4.594	132.85	-20109	2354.6	-0.27221	0.87176	0.44379
4.596	132.85	-20104	2354.4	-0.2724	0.87186	0.44388
4.598	132.85	-20101	2354.3	-0.2726	0.87196	0.44398
4.6	132.85	-20103	2354.2	-0.27279	0.87206	0.44408
4.602	132.86	-20111	2354.1	-0.2723	0.87284	0.44428
4.604	132.86	-20115	2353.9	-0.27182	0.87362	0.44447
4.606	132.86	-20116	2353.8	-0.27133	0.8744	0.44467
4.608	132.86	-20116	2353.6	-0.27084	0.87518	0.44486
4.61	132.86	-20114	2353.4	-0.27035	0.87596	0.44506
4.612	132.86	-20110	2353.3	-0.27045	0.87557	0.44476
4.614	132.86	-20104	2353.1	-0.27055	0.87518	0.44447
4.616	132.86	-20103	2353	-0.27064	0.87479	0.44418
4.618	132.86	-20109	2352.7	-0.27074	0.8744	0.44388
4.62	132.86	-20116	2352.5	-0.27084	0.87401	0.44359
4.622	132.86	-20122	2352.3	-0.27074	0.87284	0.4434
4.624	132.86	-20122	2352.1	-0.27064	0.87167	0.4432
4.626	132.86	-20117	2351.8	-0.27055	0.87049	0.44301
4.628	132.86	-20114	2351.6	-0.27045	0.86932	0.44281
4.63	132.86	-20114	2351.4	-0.27035	0.86815	0.44262
4.632	132.86	-20113	2351.1	-0.27074	0.86903	0.44252
4.634	132.86	-20112	2350.9	-0.27113	0.86991	0.44242
4.636	132.86	-20108	2350.7	-0.27152	0.87079	0.44232
4.638	132.86	-20102	2350.5	-0.27191	0.87167	0.44223
4.64	132.86	-20099	2350.3	-0.2723	0.87254	0.44213
4.642	132.85	-20100	2349.9	-0.27289	0.87274	0.44262
4.644	132.85	-20100	2349.6	-0.27348	0.87293	0.4431
4.646	132.85	-20099	2349.2	-0.27406	0.87313	0.44359
4.648	132.85	-20098	2348.9	-0.27465	0.87332	0.44408
4.65	132.85	-20097	2348.7	-0.27523	0.87352	0.44457
4.652	132.85	-20096	2348.4	-0.27465	0.87342	0.44379
4.654	132.85	-20097	2348	-0.27406	0.87332	0.44301
4.656	132.85	-20098	2347.7	-0.27348	0.87323	0.44223
4.658	132.85	-20101	2347.4	-0.27289	0.87313	0.44144
4.66	132.85	-20101	2347	-0.2723	0.87303	0.44066
4.662	132.85	-20099	2346.7	-0.27308	0.87293	0.44203
4.664	132.84	-20099	2346.4	-0.27387	0.87284	0.4434
4.666	132.84	-20101	2346.2	-0.27465	0.87274	0.44476
4.668	132.83	-20103	2345.9	-0.27543	0.87264	0.44613
4.67	132.84	-20105	2345.6	-0.27621	0.87254	0.4475
4.672	132.84	-20103	2345.3	-0.27504	0.87245	0.44613
4.674	132.84	-20097	2345.1	-0.27387	0.87235	0.44476
4.676	132.84	-20095	2344.9	-0.27269	0.87225	0.4434
4.678	132.84	-20095	2344.7	-0.27152	0.87215	0.44203
4.68	132.83	-20097	2344.5	-0.27035	0.87206	0.44066
4.682	132.83	-20100	2344.2	-0.27143	0.87108	0.44174
