t	ekg	optical	pressure	accel_x	accel_y	accel_z
0	49.462	-15183	2556.8	-0.61332	0.48898	-0.62679
0.002	49.468	-15187	2556.9	-0.61215	0.48898	-0.6262
0.004	49.45	-15190	2557	-0.61098	0.48898	-0.62562
0.006	49.426	-15188	2557.1	-0.6098	0.48898	-0.62503
0.008	49.419	-15186	2557.2	-0.60863	0.48898	-0.62444
0.01	49.428	-15188	2557.2	-0.60746	0.48898	-0.62386
0.012	49.425	-15190	2557.3	-0.60629	0.48898	-0.62327
0.014	49.403	-15181	2557.4	-0.60512	0.48898	-0.62269
0.016	49.415	-15172	2557.4	-0.60492	0.48878	-0.62191
0.018	49.434	-15175	2557.4	-0.60473	0.48859	-0.62113
0.02	49.453	-15178	2557.5	-0.60453	0.48839	-0.62035
0.022	49.47	-15177	2557.5	-0.60434	0.4882	-0.61956
0.024	49.476	-15177	2557.6	-0.60414	0.488	-0.61878
0.026	49.47	-15175	2557.5	-0.60444	0.4878	-0.61908
0.028	49.481	-15172	2557.5	-0.60473	0.48761	-0.61937
0.03	49.492	-15168	2557.4	-0.60502	0.48741	-0.61966
0.032	49.461	-15163	2557.4	-0.60532	0.48722	-0.61996
0.034	49.454	-15160	2557.3	-0.60561	0.48702	-0.62025
0.036	49.452	-15157	2557.2	-0.60561	0.48693	-0.62074
0.038	49.461	-15167	2557.1	-0.60561	0.48683	-0.62122
0.04	49.491	-15176	2557	-0.60561	0.48673	-0.62171
0.042	49.506	-15177	2556.8	-0.60561	0.48663	-0.6222
0.044	49.506	-15177	2556.7	-0.60561	0.48654	-0.62269
0.046	49.515	-15173	2556.5	-0.60717	0.48878	-0.62425
0.048	49.498	-15170	2556.4	-0.60873	0.49103	-0.62581
0.05	49.5	-15171	2556.2	-0.61029	0.49327	-0.62737
0.052	49.507	-15171	2556	-0.61185	0.49552	-0.62893
0.054	49.483	-15172	2555.8	-0.61342	0.49776	-0.6305
0.056	49.466	-15173	2555.5	-0.61381	0.49805	-0.63011
0.058	49.483	-15174	2555.3	-0.6142	0.49835	-0.62972
0.06	49.497	-15175	2555	-0.61459	0.49864	-0.62932
0.062	49.501	-15172	2554.8	-0.61498	0.49893	-0.62893
0.064	49.489	-15168	2554.6	-0.61537	0.49922	-0.62854
0.066	49.467	-15169	2554.4	-0.61478	0.49932	-0.62932
0.068	49.456	-15171	2554.2	-0.6142	0.49942	-0.63011
0.07	49.454	-15169	2553.9	-0.61361	0.49952	-0.63089
0.072	49.452	-15168	2553.6	-0.61303	0.49961	-0.63167
0.074	49.462	-15164	2553.3	-0.61244	0.49971	-0.63245
0.076	49.471	-15160	2552.9	-0.61098	0.49756	-0.63196
0.078	49.473	-15163	2552.6	-0.60951	0.49542	-0.63147
0.08	49.474	-15165	2552.2	-0.60805	0.49327	-0.63098
0.082	49.476	-15172	2551.8	-0.60658	0.49112	-0.6305
0.084	49.478	-15179	2551.5	-0.60512	0.48898	-0.63001
0.086	49.479	-15176	2551.1	-0.6058	0.48966	-0.63059
0.088	49.484	-15173	2550.7	-0.60649	0.49034	-0.63118
0.09	49.499	-15170	2550.3	-0.60717	0.49103	-0.63176
0.092	49.501	-15167	2549.9	-0.60785	0.49171	-0.63235
0.094	49.493	-15169	2549.5	-0.60854	0.49239	-0.63294
0.096	49.5	-15171	2549.3	-0.60893	0.49298	-0.63235
0.098	49.498	-15178	2549	-0.60932	0.49356	-0.63176
0.1	49.48	-15185	2548.8	-0.60971	0.49415	-0.63118
0.102	49.47	-15183	2548.6	-0.6101	0.49473	-0.63059
0.104	49.449	-15182	2548.4	-0.61049	0.49532	-0.63001
0.106	49.461	-15178	2548.2	-0.61039	0.49532	-0.6303
0.108	49.482	-15173	2548.1	-0.61029	0.49532	-0.63059
0.11	49.485	-15176	2547.9	-0.6102	0.49532	-0.63089
0.112	49.481	-15179	2547.8	-0.6101	0.49532	-0.63118
0.114	49.48	-15177	2547.6	-0.61	0.49532	-0.63147
0.116	49.478	-15174	2547.6	-0.61117	0.49542	-0.63069
0.118	49.467	-15178	2547.5	-0.61234	0.49552	-0.62991
0.12	49.441	-15183	2547.4	-0.61351	0.49561	-0.62913
0.122	49.467	-15174	2547.3	-0.61468	0.49571	-0.62835
0.124	49.5	-15165	2547.2	-0.61586	0.49581	-0.62757
0.126	49.492	-15169	2547.2	-0.61537	0.49522	-0.62688
0.128	49.471	-15173	2547.2	-0.61488	0.49464	-0.6262
0.13	49.463	-15171	2547.3	-0.61439	0.49405	-0.62552
0.132	49.456	-15168	2547.2	-0.6139	0.49347	-0.62484
0.134	49.448	-15172	2547.2	-0.61342	0.49288	-0.62415
0.136	49.463	-15176	2547.3	-0.61429	0.4922	-0.62396
0.138	49.451	-15174	2547.3	-0.61517	0.49151	-0.62376
0.14	49.448	-15173	2547.4	-0.61605	0.49083	-0.62357
0.142	49.456	-15172	2547.4	-0.61693	0.49015	-0.62337
0.144	49.468	-15171	2547.5	-0.61781	0.48946	-0.62318
0.146	49.468	-15175	2547.6	-0.61839	0.48868	-0.62327
0.148	49.464	-15178	2547.7	-0.61898	0.4879	-0.62337
0.15	49.447	-15176	2547.7	-0.61956	0.48712	-0.62347
0.152	49.453	-15174	2547.8	-0.62015	0.48634	-0.62357
0.154	49.476	-15177	2547.9	-0.62074	0.48556	-0.62366
0.156	49.471	-15179	2547.9	-0.62015	0.48693	-0.62444
0.158	49.452	-15181	2548	-0.61956	0.48829	-0.62523
0.16	49.448	-15183	2548	-0.61898	0.48966	-0.62601
0.162	49.449	-15181	2548	-0.61839	0.49103	-0.62679
0.164	49.463	-15179	2548.1	-0.61781	0.49239	-0.62757
0.166	49.455	-15184	2548.1	-0.61752	0.492	-0.62688
0.168	49.451	-15190	2548.1	-0.61722	0.49161	-0.6262
0.17	49.464	-15194	2548.2	-0.61693	0.49122	-0.62552
0.172	49.467	-15199	2548.2	-0.61664	0.49083	-0.62484
0.174	49.468	-15202	2548.3	-0.61634	0.49044	-0.62415
0.176	49.469	-15205	2548.4	-0.61576	0.49122	-0.62562
0.178	49.463	-15200	2548.5	-0.61517	0.492	-0.62708
0.18	49.449	-15194	2548.5	-0.61459	0.49278	-0.62854
0.182	49.423	-15194	2548.7	-0.614	0.49356	-0.63001
0.184	49.391	-15194	2548.8	-0.61342	0.49434	-0.63147
0.186	49.356	-15191	2549	-0.61332	0.49376	-0.63128
0.188	49.339	-15188	2549.1	-0.61322	0.49317	-0.63108
0.19	49.345	-15187	2549.3	-0.61312	0.49259	-0.63089
0.192	49.363	-15185	2549.5	-0.61303	0.492	-0.63069
0.194	49.385	-15184	2549.7	-0.61293	0.49142	-0.6305
0.196	49.402	-15183	2549.8	-0.61322	0.49132	-0.62991
0.198	49.409	-15183	2550	-0.61351	0.49122	-0.62932
0.2	49.416	-15183	2550.1	-0.61381	0.49112	-0.62874
0.202	49.42	-15189	2550.2	-0.6141	0.49103	-0.62815
0.204	49.425	-15194	2550.4	-0.61439	0.49093	-0.62757
0.206	49.42	-15196	2550.5	-0.61449	0.4922	-0.62825
0.208	49.419	-15197	2550.6	-0.61459	0.49347	-0.62893
0.21	49.428	-15198	2550.8	-0.61468	0.49473	-0.62962
0.212	49.434	-15198	2550.9	-0.61478	0.496	-0.6303
0.214	49.424	-15195	2551.1	-0.61488	0.49727	-0.63098
0.216	49.427	-15192	2551.2	-0.61478	0.49669	-0.63118
0.218	49.433	-15195	2551.4	-0.61468	0.4961	-0.63137
0.22	49.447	-15198	2551.5	-0.61459	0.49552	-0.63157
0.222	49.456	-15198	2551.6	-0.61449	0.49493	-0.63176
0.224	49.46	-15198	2551.8	-0.61439	0.49434	-0.63196
0.226	49.438	-15192	2552	-0.61488	0.49444	-0.63216
0.228	49.439	-15186	2552.1	-0.61537	0.49454	-0.63235
0.23	49.453	-15186	2552.3	-0.61586	0.49464	-0.63255
0.232	49.464	-15187	2552.4	-0.61634	0.49473	-0.63274
0.234	49.476	-15190	2552.5	-0.61683	0.49483	-0.63294
0.236	49.495	-15194	2552.6	-0.61722	0.49366	-0.63098
0.238	49.512	-15196	2552.6	-0.61761	0.49249	-0.62903
0.24	49.505	-15198	2552.6	-0.618	0.49132	-0.62708
0.242	49.501	-15193	2552.7	-0.61839	0.49015	-0.62513
0.244	49.522	-15188	2552.7	-0.61878	0.48898	-0.62318
0.246	49.527	-15187	2552.7	-0.61859	0.48966	-0.62366
0.248	49.521	-15185	2552.6	-0.61839	0.49034	-0.62415
0.25	49.515	-15189	2552.6	-0.6182	0.49103	-0.62464
0.252	49.519	-15194	2552.5	-0.618	0.49171	-0.62513
0.254	49.524	-15199	2552.4	-0.61781	0.49239	-0.62562
0.256	49.513	-15205	2552.3	-0.61791	0.4921	-0.62552
0.258	49.521	-15200	2552.3	-0.618	0.49181	-0.62542
0.26	49.544	-15196	2552.2	-0.6181	0.49151	-0.62532
0.262	49.53	-15200	2552.2	-0.6182	0.49122	-0.62523
0.264	49.509	-15204	2552.2	-0.6183	0.49093	-0.62513
0.266	49.528	-15204	2552.2	-0.6182	0.49054	-0.62532
0.268	49.549	-15204	2552.2	-0.6181	0.49015	-0.62552
0.27	49.554	-15203	2552.2	-0.618	0.48976	-0.62571
0.272	49.555	-15202	2552.3	-0.61791	0.48937	-0.62591
0.274	49.551	-15200	2552.3	-0.61781	0.48898	-0.6261
0.276	49.539	-15197	2552.5	-0.61752	0.49034	-0.62718
0.278	49.518	-15196	2552.6	-0.61722	0.49171	-0.62825
0.28	49.497	-15195	2552.8	-0.61693	0.49308	-0.62932
0.282	49.506	-15195	2553	-0.61664	0.49444	-0.6304
0.284	49.506	-15195	2553.2	-0.61634	0.49581	-0.63147
0.286	49.499	-15196	2553.3	-0.61654	0.49542	-0.63059
0.288	49.515	-15196	2553.5	-0.61673	0.49503	-0.62972
0.29	49.528	-15198	2553.6	-0.61693	0.49464	-0.62884
0.292	49.535	-15200	2553.7	-0.61712	0.49425	-0.62796
0.294	49.569	-15205	2553.8	-0.61732	0.49386	-0.62708
0.296	49.591	-15210	2553.9	-0.61703	0.49434	-0.62698
0.298	49.646	-15211	2554.1	-0.61673	0.49483	-0.62688
0.3	49.704	-15211	2554.2	-0.61644	0.49532	-0.62679
0.302	49.763	-15210	2554.3	-0.61615	0.49581	-0.62669
0.304	49.768	-15209	2554.4	-0.61586	0.4963	-0.62659
0.306	49.741	-15205	2554.5	-0.61566	0.4963	-0.62708
0.308	49.706	-15201	2554.6	-0.61547	0.4963	-0.62757
0.31	49.624	-15202	2554.7	-0.61527	0.4963	-0.62806
0.312	49.549	-15203	2554.8	-0.61508	0.4963	-0.62854
0.314	49.482	-15204	2554.9	-0.61488	0.4963	-0.62903
0.316	49.405	-15204	2555	-0.61576	0.49561	-0.62874
0.318	49.323	-15206	2555.1	-0.61664	0.49493	-0.62845
0.32	49.221	-15208	2555.1	-0.61752	0.49425	-0.62815
0.322	49.09	-15209	2555.2	-0.61839	0.49356	-0.62786
0.324	48.935	-15209	2555.3	-0.61927	0.49288	-0.62757
0.326	48.766	-15209	2555.4	-0.6183	0.49298	-0.62688
0.328	48.595	-15209	2555.6	-0.61732	0.49308	-0.6262
0.33	48.437	-15211	2555.6	-0.61634	0.49317	-0.62552
0.332	48.295	-15213	2555.7	-0.61537	0.49327	-0.62484
0.334	48.212	-15212	2555.8	-0.61439	0.49337	-0.62415
0.336	48.206	-15210	2555.8	-0.6142	0.49415	-0.62444
0.338	48.263	-15208	2555.9	-0.614	0.49493	-0.62474
0.34	48.398	-15206	2555.9	-0.61381	0.49571	-0.62503
0.342	48.605	-15210	2555.9	-0.61361	0.49649	-0.62532
0.344	48.821	-15214	2555.9	-0.61342	0.49727	-0.62562
0.346	49.012	-15215	2555.9	-0.61351	0.49737	-0.62581
0.348	49.174	-15217	2555.9	-0.61361	0.49747	-0.62601
0.35	49.29	-15217	2556	-0.61371	0.49756	-0.6262
0.352	49.362	-15216	2556	-0.61381	0.49766	-0.6264
0.354	49.412	-15218	2556.1	-0.6139	0.49776	-0.62659
0.356	49.479	-15220	2556.1	-0.61517	0.49591	-0.62659
0.358	49.546	-15219	2556	-0.61644	0.49405	-0.62659
0.36	49.59	-15218	2556	-0.61771	0.4922	-0.62659
0.362	49.613	-15213	2555.9	-0.61898	0.49034	-0.62659
0.364	49.592	-15208	2555.9	-0.62025	0.48849	-0.62659
0.366	49.554	-15210	2555.9	-0.61917	0.48985	-0.62679
0.368	49.527	-15212	2555.9	-0.6181	0.49122	-0.62698
0.37	49.499	-15215	2555.9	-0.61703	0.49259	-0.62718
0.372	49.477	-15218	2556	-0.61595	0.49395	-0.62737
0.374	49.467	-15219	2556	-0.61488	0.49532	-0.62757
0.376	49.462	-15221	2556	-0.61537	0.49532	-0.62796
0.378	49.47	-15224	2556	-0.61586	0.49532	-0.62835
0.38	49.489	-15226	2556	-0.61634	0.49532	-0.62874
0.382	49.497	-15221	2556	-0.61683	0.49532	-0.62913
0.384	49.515	-15216	2556	-0.61732	0.49532	-0.62952
0.386	49.516	-15215	2556	-0.61703	0.49376	-0.62835
0.388	49.504	-15214	2556	-0.61673	0.4922	-0.62718
0.39	49.507	-15220	2556	-0.61644	0.49064	-0.62601
0.392	49.521	-15227	2556	-0.61615	0.48907	-0.62484
0.394	49.531	-15229	2556	-0.61586	0.48751	-0.62366
0.396	49.543	-15231	2556	-0.61703	0.48771	-0.62454
0.398	49.531	-15227	2556.1	-0.6182	0.4879	-0.62542
0.4	49.532	-15223	2556.1	-0.61937	0.4881	-0.6263
0.402	49.484	-15221	2556.2	-0.62054	0.48829	-0.62718
0.404	49.457	-15220	2556.3	-0.62171	0.48849	-0.62806
0.406	49.481	-15220	2556.4	-0.62093	0.48927	-0.62786
0.408	49.492	-15220	2556.5	-0.62015	0.49005	-0.62767
0.41	49.492	-15222	2556.5	-0.61937	0.49083	-0.62747
0.412	49.477	-15224	2556.6	-0.61859	0.49161	-0.62728
0.414	49.471	-15223	2556.6	-0.61781	0.49239	-0.62708
0.416	49.48	-15223	2556.7	-0.61771	0.49132	-0.62581
0.418	49.482	-15227	2556.8	-0.61761	0.49024	-0.62454
0.42	49.484	-15231	2556.8	-0.61752	0.48917	-0.62327
0.422	49.493	-15230	2556.9	-0.61742	0.4881	-0.622
0.424	49.499	-15229	2557	-0.61732	0.48702	-0.62074
0.426	49.5	-15230	2557.1	-0.61722	0.4879	-0.622
0.428	49.499	-15231	2557.1	-0.61712	0.48878	-0.62327
0.43	49.499	-15236	2557.2	-0.61703	0.48966	-0.62454
0.432	49.498	-15241	2557.2	-0.61693	0.49054	-0.62581
0.434	49.492	-15235	2557.3	-0.61683	0.49142	-0.62708
0.436	49.485	-15229	2557.3	-0.61595	0.49151	-0.62601
0.438	49.476	-15229	2557.4	-0.61508	0.49161	-0.62493
0.44	49.463	-15229	2557.3	-0.6142	0.49171	-0.62386
0.442	49.466	-15229	2557.3	-0.61332	0.49181	-0.62279
0.444	49.465	-15229	2557.2	-0.61244	0.4919	-0.62171
0.446	49.467	-15232	2557.3	-0.61283	0.49181	-0.6224
0.448	49.466	-15234	2557.4	-0.61322	0.49171	-0.62308
0.45	49.449	-15239	2557.4	-0.61361	0.49161	-0.62376
0.452	49.448	-15244	2557.5	-0.614	0.49151	-0.62444
0.454	49.446	-15238	2557.5	-0.61439	0.49142	-0.62513
0.456	49.45	-15231	2557.6	-0.61429	0.49142	-0.62474
0.458	49.453	-15232	2557.7	-0.6142	0.49142	-0.62435
0.46	49.441	-15233	2557.7	-0.6141	0.49142	-0.62396
0.462	49.42	-15234	2557.8	-0.614	0.49142	-0.62357
0.464	49.432	-15234	2557.8	-0.6139	0.49142	-0.62318
0.466	49.453	-15237	2557.8	-0.61478	0.49142	-0.62415
0.468	49.461	-15240	2557.9	-0.61566	0.49142	-0.62513
0.47	49.445	-15234	2557.9	-0.61654	0.49142	-0.6261
0.472	49.438	-15227	2557.9	-0.61742	0.49142	-0.62708
0.474	49.444	-15235	2557.9	-0.6183	0.49142	-0.62806
0.476	49.441	-15243	2557.9	-0.61683	0.49151	-0.62728
0.478	49.415	-15240	2558	-0.61537	0.49161	-0.62649
0.48	49.42	-15237	2558.1	-0.6139	0.49171	-0.62571
0.482	49.435	-15239	2558.1	-0.61244	0.49181	-0.62493
0.484	49.424	-15242	2558.2	-0.61098	0.4919	-0.62415
0.486	49.409	-15242	2558.4	-0.61244	0.49239	-0.62464
0.488	49.413	-15242	2558.5	-0.6139	0.49288	-0.62513
0.49	49.439	-15241	2558.8	-0.61537	0.49337	-0.62562
0.492	49.444	-15240	2559.1	-0.61683	0.49386	-0.6261
0.494	49.45	-15244	2559.4	-0.6183	0.49434	-0.62659
0.496	49.451	-15249	2559.9	-0.61781	0.49327	-0.62581
0.498	49.431	-15247	2560.3	-0.61732	0.4922	-0.62503
0.5	49.416	-15246	2560.8	-0.61683	0.49112	-0.62425
0.502	49.414	-15242	2561.3	-0.61634	0.49005	-0.62347
0.504	49.406	-15237	2561.9	-0.61586	0.48898	-0.62269
0.506	49.413	-15238	2562.5	-0.61644	0.48976	-0.62357
0.508	49.437	-15239	2563.2	-0.61703	0.49054	-0.62444
0.51	49.418	-15237	2563.9	-0.61761	0.49132	-0.62532
0.512	49.377	-15234	2564.6	-0.6182	0.4921	-0.6262
0.514	49.373	-15236	2565.4	-0.61878	0.49288	-0.62708
0.516	49.381	-15238	2566.1	-0.61752	0.49278	-0.62669
0.518	49.381	-15238	2566.9	-0.61625	0.49268	-0.6263
0.52	49.4	-15238	2567.7	-0.61498	0.49259	-0.62591
0.522	49.424	-15240	2568.4	-0.61371	0.49249	-0.62552
0.524	49.417	-15243	2569.2	-0.61244	0.49239	-0.62513
0.526	49.412	-15236	2569.9	-0.61312	0.492	-0.62444
0.528	49.416	-15229	2570.6	-0.61381	0.49161	-0.62376
0.53	49.414	-15232	2571.3	-0.61449	0.49122	-0.62308
0.532	49.426	-15234	2572	-0.61517	0.49083	-0.6224
0.534	49.442	-15235	2572.7	-0.61586	0.49044	-0.62171
0.536	49.436	-15236	2573.3	-0.61644	0.49112	-0.62249
0.538	49.423	-15237	2573.9	-0.61703	0.49181	-0.62327
0.54	49.421	-15239	2574.5	-0.61761	0.49249	-0.62405
0.542	49.419	-15237	2575.1	-0.6182	0.49317	-0.62484
0.544	49.431	-15235	2575.6	-0.61878	0.49386	-0.62562
0.546	49.429	-15235	2576	-0.61839	0.49337	-0.62562
0.548	49.428	-15235	2576.4	-0.618	0.49288	-0.62562
0.55	49.427	-15241	2576.8	-0.61761	0.49239	-0.62562
0.552	49.426	-15247	2577.2	-0.61722	0.4919	-0.62562
0.554	49.41	-15249	2577.5	-0.61683	0.49142	-0.62562
0.556	49.41	-15251	2577.8	-0.61703	0.49132	-0.62591
0.558	49.402	-15237	2578	-0.61722	0.49122	-0.6262
0.56	49.39	-15222	2578.3	-0.61742	0.49112	-0.62649
0.562	49.41	-15224	2578.4	-0.61761	0.49103	-0.62679
0.564	49.436	-15227	2578.6	-0.61781	0.49093	-0.62708
0.566	49.426	-15231	2578.7	-0.61761	0.49093	-0.62688
0.568	49.433	-15235	2578.9	-0.61742	0.49093	-0.62669
0.57	49.416	-15234	2579	-0.61722	0.49093	-0.62649
0.572	49.406	-15234	2579.1	-0.61703	0.49093	-0.6263
0.574	49.411	-15230	2579.2	-0.61683	0.49093	-0.6261
0.576	49.42	-15227	2579.2	-0.61683	0.49142	-0.62669
0.578	49.446	-15225	2579.2	-0.61683	0.4919	-0.62728
0.58	49.458	-15222	2579.3	-0.61683	0.49239	-0.62786
0.582	49.448	-15222	2579.3	-0.61683	0.49288	-0.62845
0.584	49.443	-15222	2579.4	-0.61683	0.49337	-0.62903
0.586	49.439	-15224	2579.5	-0.61693	0.49308	-0.62815
0.588	49.423	-15226	2579.6	-0.61703	0.49278	-0.62728
0.59	49.43	-15224	2579.6	-0.61712	0.49249	-0.6264
0.592	49.416	-15221	2579.7	-0.61722	0.4922	-0.62552
0.594	49.389	-15221	2579.7	-0.61732	0.4919	-0.62464
0.596	49.401	-15220	2579.7	-0.61712	0.49151	-0.62386
0.598	49.422	-15223	2579.7	-0.61693	0.49112	-0.62308
0.6	49.436	-15225	2579.6	-0.61673	0.49073	-0.6223
0.602	49.457	-15221	2579.6	-0.61654	0.49034	-0.62152
0.604	49.462	-15218	2579.5	-0.61634	0.48995	-0.62074
0.606	49.454	-15215	2579.4	-0.61615	0.49151	-0.62142
0.608	49.464	-15213	2579.3	-0.61595	0.49308	-0.6221
0.61	49.478	-15216	2579.1	-0.61576	0.49464	-0.62279
0.612	49.48	-15219	2578.9	-0.61556	0.4962	-0.62347
0.614	49.479	-15217	2578.6	-0.61537	0.49776	-0.62415
0.616	49.489	-15215	2578.4	-0.61576	0.49669	-0.62444
0.618	49.481	-15215	2578.1	-0.61615	0.49561	-0.62474
0.62	49.475	-15214	2577.8	-0.61654	0.49454	-0.62503
0.622	49.497	-15214	2577.6	-0.61693	0.49347	-0.62532
0.624	49.497	-15214	2577.3	-0.61732	0.49239	-0.62562
0.626	49.491	-15212	2577	-0.61752	0.49259	-0.62601
0.628	49.483	-15209	2576.7	-0.61771	0.49278	-0.6264
0.63	49.486	-15209	2576.3	-0.61791	0.49298	-0.62679
0.632	49.497	-15208	2576	-0.6181	0.49317	-0.62718
0.634	49.484	-15212	2575.7	-0.6183	0.49337	-0.62757
0.636	49.489	-15215	2575.4	-0.61693	0.49376	-0.62737
0.638	49.502	-15211	2575	-0.61556	0.49415	-0.62718
0.64	49.5	-15208	2574.7	-0.6142	0.49454	-0.62698
0.642	49.491	-15205	2574.4	-0.61283	0.49493	-0.62679
0.644	49.483	-15202	2574	-0.61146	0.49532	-0.62659
0.646	49.489	-15210	2573.7	-0.61273	0.49542	-0.62698
0.648	49.51	-15218	2573.4	-0.614	0.49552	-0.62737
0.65	49.493	-15213	2573	-0.61527	0.49561	-0.62776
0.652	49.478	-15208	2572.6	-0.61654	0.49571	-0.62815
0.654	49.483	-15210	2572.1	-0.61781	0.49581	-0.62854
0.656	49.465	-15211	2571.7	-0.61781	0.49532	-0.62835
0.658	49.465	-15207	2571.3	-0.61781	0.49483	-0.62815
0.66	49.476	-15203	2570.9	-0.61781	0.49434	-0.62796
0.662	49.46	-15204	2570.5	-0.61781	0.49386	-0.62776
0.664	49.474	-15206	2570.1	-0.61781	0.49337	-0.62757
0.666	49.505	-15206	2569.7	-0.61732	0.49356	-0.62776
0.668	49.518	-15207	2569.3	-0.61683	0.49376	-0.62796
0.67	49.512	-15209	2568.8	-0.61634	0.49395	-0.62815
0.672	49.505	-15211	2568.4	-0.61586	0.49415	-0.62835
0.674	49.492	-15210	2568	-0.61537	0.49434	-0.62854
0.676	49.46	-15209	2567.6	-0.61625	0.49493	-0.62796
0.678	49.431	-15206	2567.2	-0.61712	0.49552	-0.62737
0.68	49.44	-15202	2566.8	-0.618	0.4961	-0.62679
0.682	49.457	-15207	2566.4	-0.61888	0.49669	-0.6262
0.684	49.45	-15211	2566	-0.61976	0.49727	-0.62562
0.686	49.445	-15211	2565.6	-0.61869	0.49727	-0.62571
0.688	49.457	-15211	2565.2	-0.61761	0.49727	-0.62581
0.69	49.475	-15209	2564.8	-0.61654	0.49727	-0.62591
0.692	49.488	-15207	2564.4	-0.61547	0.49727	-0.62601
0.694	49.492	-15207	2564	-0.61439	0.49727	-0.6261
0.696	49.49	-15208	2563.7	-0.61547	0.49669	-0.6261
0.698	49.482	-15210	2563.5	-0.61654	0.4961	-0.6261
0.7	49.487	-15213	2563.3	-0.61761	0.49552	-0.6261
0.702	49.489	-15211	2563.1	-0.61869	0.49493	-0.6261
0.704	49.478	-15209	2562.9	-0.61976	0.49434	-0.6261
0.706	49.466	-15208	2562.7	-0.61859	0.49483	-0.62562
0.708	49.453	-15207	2562.5	-0.61742	0.49532	-0.62513
0.71	49.458	-15208	2562.3	-0.61625	0.49581	-0.62464
0.712	49.462	-15208	2562.1	-0.61508	0.4963	-0.62415
0.714	49.471	-15209	2562	-0.6139	0.49678	-0.62366
0.716	49.483	-15210	2561.8	-0.6142	0.49678	-0.62386
0.718	49.476	-15210	2561.7	-0.61449	0.49678	-0.62405
0.72	49.446	-15210	2561.6	-0.61478	0.49678	-0.62425
0.722	49.462	-15213	2561.6	-0.61508	0.49678	-0.62444
0.724	49.443	-15215	2561.5	-0.61537	0.49678	-0.62464
0.726	49.447	-15220	2561.4	-0.61605	0.49542	-0.62386
0.728	49.451	-15225	2561.3	-0.61673	0.49405	-0.62308
0.73	49.469	-15223	2561.2	-0.61742	0.49268	-0.6223
0.732	49.453	-15221	2561.2	-0.6181	0.49132	-0.62152
0.734	49.444	-15218	2561.2	-0.61878	0.48995	-0.62074
0.736	49.451	-15216	2561.1	-0.61839	0.49083	-0.62152
0.738	49.441	-15217	2561	-0.618	0.49171	-0.6223
0.74	49.438	-15218	2560.9	-0.61761	0.49259	-0.62308
0.742	49.432	-15218	2560.8	-0.61722	0.49347	-0.62386
0.744	49.441	-15218	2560.7	-0.61683	0.49434	-0.62464
0.746	49.45	-15219	2560.6	-0.61712	0.49366	-0.62405
0.748	49.448	-15221	2560.5	-0.61742	0.49298	-0.62347
0.75	49.444	-15219	2560.4	-0.61771	0.49229	-0.62288
0.752	49.445	-15218	2560.4	-0.618	0.49161	-0.6223
0.754	49.465	-15217	2560.3	-0.6183	0.49093	-0.62171
0.756	49.458	-15215	2560.3	-0.61869	0.49073	-0.62191
0.758	49.434	-15220	2560.4	-0.61908	0.49054	-0.6221
0.76	49.413	-15225	2560.4	-0.61947	0.49034	-0.6223
0.762	49.417	-15223	2560.4	-0.61986	0.49015	-0.62249
0.764	49.43	-15222	2560.5	-0.62025	0.48995	-0.62269
0.766	49.406	-15221	2560.6	-0.62015	0.49034	-0.62415
0.768	49.358	-15221	2560.6	-0.62005	0.49073	-0.62562
0.77	49.336	-15222	2560.7	-0.61996	0.49112	-0.62708
0.772	49.35	-15222	2560.8	-0.61986	0.49151	-0.62854
0.774	49.368	-15218	2560.9	-0.61976	0.4919	-0.63001
0.776	49.376	-15214	2561	-0.61849	0.49161	-0.62893
0.778	49.39	-15215	2561.2	-0.61722	0.49132	-0.62786
0.78	49.395	-15215	2561.2	-0.61595	0.49103	-0.62679
0.782	49.398	-15219	2561.3	-0.61468	0.49073	-0.62571
0.784	49.415	-15224	2561.4	-0.61342	0.49044	-0.62464
0.786	49.419	-15230	2561.4	-0.6142	0.49073	-0.62523
0.788	49.416	-15237	2561.5	-0.61498	0.49103	-0.62581
0.79	49.4	-15238	2561.5	-0.61576	0.49132	-0.6264
0.792	49.413	-15239	2561.6	-0.61654	0.49161	-0.62698
0.794	49.435	-15243	2561.6	-0.61732	0.4919	-0.62757
0.796	49.431	-15246	2561.6	-0.61537	0.49122	-0.6261
0.798	49.436	-15242	2561.6	-0.61342	0.49054	-0.62464
0.8	49.442	-15237	2561.6	-0.61146	0.48985	-0.62318
0.802	49.46	-15234	2561.6	-0.60951	0.48917	-0.62171
0.804	49.467	-15231	2561.7	-0.60756	0.48849	-0.62025
0.806	49.479	-15231	2561.6	-0.60785	0.48898	-0.62015
0.808	49.477	-15230	2561.6	-0.60815	0.48946	-0.62005
0.81	49.506	-15230	2561.6	-0.60844	0.48995	-0.61996
0.812	49.513	-15229	2561.6	-0.60873	0.49044	-0.61986
0.814	49.518	-15231	2561.6	-0.60902	0.49093	-0.61976
0.816	49.53	-15233	2561.7	-0.60844	0.49064	-0.62025
0.818	49.531	-15235	2561.7	-0.60785	0.49034	-0.62074
0.82	49.51	-15237	2561.8	-0.60727	0.49005	-0.62122
0.822	49.497	-15238	2561.9	-0.60668	0.48976	-0.62171
0.824	49.479	-15239	2562	-0.6061	0.48946	-0.6222
0.826	49.489	-15236	2562	-0.60678	0.48898	-0.62181
0.828	49.499	-15232	2562	-0.60746	0.48849	-0.62142
0.83	49.499	-15235	2562	-0.60815	0.488	-0.62103
0.832	49.493	-15238	2562	-0.60883	0.48751	-0.62064
0.834	49.502	-15238	2562	-0.60951	0.48702	-0.62025
0.836	49.507	-15238	2562	-0.60951	0.48839	-0.62074
0.838	49.501	-15239	2562	-0.60951	0.48976	-0.62122
0.84	49.512	-15240	2562	-0.60951	0.49112	-0.62171
0.842	49.526	-15239	2562	-0.60951	0.49249	-0.6222
0.844	49.517	-15238	2562	-0.60951	0.49386	-0.62269
0.846	49.507	-15242	2561.9	-0.61078	0.49405	-0.62327
0.848	49.519	-15247	2561.8	-0.61205	0.49425	-0.62386
0.85	49.528	-15242	2561.7	-0.61332	0.49444	-0.62444
0.852	49.519	-15237	2561.7	-0.61459	0.49464	-0.62503
0.854	49.511	-15233	2561.6	-0.61586	0.49483	-0.62562
0.856	49.51	-15229	2561.6	-0.61498	0.49512	-0.62552
0.858	49.516	-15233	2561.5	-0.6141	0.49542	-0.62542
0.86	49.525	-15236	2561.4	-0.61322	0.49571	-0.62532
0.862	49.522	-15236	2561.4	-0.61234	0.496	-0.62523
0.864	49.511	-15235	2561.4	-0.61146	0.4963	-0.62513
0.866	49.511	-15238	2561.3	-0.61176	0.4962	-0.62542
0.868	49.549	-15242	2561.3	-0.61205	0.4961	-0.62571
0.87	49.598	-15242	2561.3	-0.61234	0.496	-0.62601
0.872	49.619	-15242	2561.3	-0.61264	0.49591	-0.6263
0.874	49.64	-15240	2561.3	-0.61293	0.49581	-0.62659
0.876	49.669	-15238	2561.3	-0.61332	0.49669	-0.6263
0.878	49.708	-15238	2561.3	-0.61371	0.49756	-0.62601
0.88	49.716	-15239	2561.3	-0.6141	0.49844	-0.62571
0.882	49.67	-15241	2561.4	-0.61449	0.49932	-0.62542
0.884	49.606	-15244	2561.4	-0.61488	0.5002	-0.62513
0.886	49.576	-15243	2561.4	-0.61488	0.49961	-0.62503
0.888	49.563	-15243	2561.4	-0.61488	0.49903	-0.62493
0.89	49.493	-15244	2561.3	-0.61488	0.49844	-0.62484
0.892	49.412	-15245	2561.3	-0.61488	0.49786	-0.62474
0.894	49.323	-15244	2561.2	-0.61488	0.49727	-0.62464
0.896	49.222	-15243	2561.2	-0.614	0.49698	-0.62474
0.898	49.103	-15243	2561.1	-0.61312	0.49669	-0.62484
0.9	48.954	-15242	2561.1	-0.61224	0.49639	-0.62493
0.902	48.775	-15240	2561.1	-0.61137	0.4961	-0.62503
0.904	48.624	-15239	2561.1	-0.61049	0.49581	-0.62513
0.906	48.468	-15243	2561.1	-0.61156	0.49581	-0.62562
0.908	48.327	-15247	2561.2	-0.61264	0.49581	-0.6261
0.91	48.235	-15250	2561.2	-0.61371	0.49581	-0.62659
0.912	48.241	-15254	2561.2	-0.61478	0.49581	-0.62708
0.914	48.336	-15248	2561.2	-0.61586	0.49581	-0.62757
0.916	48.491	-15241	2561.3	-0.61537	0.49591	-0.62737
0.918	48.67	-15239	2561.3	-0.61488	0.496	-0.62718
0.92	48.843	-15238	2561.5	-0.61439	0.4961	-0.62698
0.922	49.033	-15241	2561.7	-0.6139	0.4962	-0.62679
0.924	49.2	-15245	2561.9	-0.61342	0.4963	-0.62659
0.926	49.321	-15244	2562.4	-0.6099	0.4963	-0.62571
0.928	49.39	-15244	2563	-0.60639	0.4963	-0.62484
0.93	49.432	-15246	2563.6	-0.60288	0.4963	-0.62396
0.932	49.464	-15248	2564.2	-0.59936	0.4963	-0.62308
0.934	49.494	-15246	2564.9	-0.59585	0.4963	-0.6222
0.936	49.533	-15245	2565.2	-0.60151	0.49552	-0.6222
0.938	49.58	-15248	2565.4	-0.60717	0.49473	-0.6222
0.94	49.608	-15252	2565.6	-0.61283	0.49395	-0.6222
0.942	49.6	-15253	2565.6	-0.61849	0.49317	-0.6222
0.944	49.574	-15254	2565.7	-0.62415	0.49239	-0.6222
0.946	49.541	-15245	2565.6	-0.62405	0.49249	-0.62347
0.948	49.505	-15237	2565.6	-0.62396	0.49259	-0.62474
0.95	49.473	-15245	2565.6	-0.62386	0.49268	-0.62601
0.952	49.442	-15252	2565.6	-0.62376	0.49278	-0.62728
0.954	49.438	-15249	2565.6	-0.62366	0.49288	-0.62854
0.956	49.457	-15245	2565.6	-0.62161	0.49337	-0.62796
0.958	49.474	-15244	2565.7	-0.61956	0.49386	-0.62737
0.96	49.484	-15242	2565.7	-0.61752	0.49434	-0.62679
0.962	49.509	-15247	2565.8	-0.61547	0.49483	-0.6262
0.964	49.512	-15251	2565.8	-0.61342	0.49532	-0.62562
0.966	49.502	-15247	2565.8	-0.61478	0.49405	-0.62571
0.968	49.498	-15242	2565.9	-0.61615	0.49278	-0.62581
0.97	49.507	-15242	2565.9	-0.61752	0.49151	-0.62591
0.972	49.523	-15242	2565.9	-0.61888	0.49024	-0.62601
0.974	49.51	-15247	2565.9	-0.62025	0.48898	-0.6261
0.976	49.502	-15253	2565.9	-0.61888	0.49054	-0.62679
0.978	49.475	-15253	2565.9	-0.61752	0.4921	-0.62747
0.98	49.446	-15252	2566	-0.61615	0.49366	-0.62815
0.982	49.456	-15248	2566	-0.61478	0.49522	-0.62884
0.984	49.468	-15244	2566.1	-0.61342	0.49678	-0.62952
0.986	49.477	-15250	2566.1	-0.6142	0.49698	-0.62864
0.988	49.507	-15255	2566.1	-0.61498	0.49717	-0.62776
0.99	49.519	-15257	2566.1	-0.61576	0.49737	-0.62688
0.992	49.495	-15258	2566.1	-0.61654	0.49756	-0.62601
0.994	49.491	-15262	2566.2	-0.61732	0.49776	-0.62513
0.996	49.495	-15266	2566.2	-0.61752	0.49669	-0.62571
0.998	49.489	-15261	2566.3	-0.61771	0.49561	-0.6263
1	49.491	-15256	2566.3	-0.61791	0.49454	-0.62688
1.002	49.488	-15259	2566.3	-0.6181	0.49347	-0.62747
1.004	49.502	-15263	2566.2	-0.6183	0.49239	-0.62806
1.006	49.498	-15258	2566.2	-0.61771	0.49259	-0.62728
1.008	49.48	-15253	2566.2	-0.61712	0.49278	-0.62649
1.01	49.477	-15259	2566.2	-0.61654	0.49298	-0.62571
1.012	49.473	-15264	2566.2	-0.61595	0.49317	-0.62493
1.014	49.478	-15268	2566.2	-0.61537	0.49337	-0.62415
1.016	49.474	-15272	2566.2	-0.6141	0.49356	-0.62405
1.018	49.465	-15263	2566.1	-0.61283	0.49376	-0.62396
1.02	49.46	-15254	2566.1	-0.61156	0.49395	-0.62386
1.022	49.461	-15259	2566	-0.61029	0.49415	-0.62376
1.024	49.449	-15264	2566	-0.60902	0.49434	-0.62366
1.026	49.427	-15261	2566	-0.61029	0.49483	-0.62435
1.028	49.428	-15257	2566.1	-0.61156	0.49532	-0.62503
1.03	49.443	-15256	2566.1	-0.61283	0.49581	-0.62571
1.032	49.451	-15256	2566.1	-0.6141	0.4963	-0.6264
1.034	49.449	-15260	2566.1	-0.61537	0.49678	-0.62708
1.036	49.436	-15265	2566.2	-0.61488	0.49639	-0.6263
1.038	49.445	-15263	2566.2	-0.61439	0.496	-0.62552
1.04	49.46	-15260	2566.2	-0.6139	0.49561	-0.62474
1.042	49.446	-15262	2566.2	-0.61342	0.49522	-0.62396
1.044	49.418	-15263	2566.1	-0.61293	0.49483	-0.62318
1.046	49.424	-15267	2566.2	-0.61185	0.49405	-0.622
1.048	49.44	-15271	2566.3	-0.61078	0.49327	-0.62083
1.05	49.43	-15268	2566.3	-0.60971	0.49249	-0.61966
1.052	49.409	-15264	2566.4	-0.60863	0.49171	-0.61849
1.054	49.422	-15264	2566.4	-0.60756	0.49093	-0.61732
1.056	49.431	-15264	2566.5	-0.60815	0.4919	-0.61859
1.058	49.447	-15271	2566.6	-0.60873	0.49288	-0.61986
1.06	49.45	-15278	2566.7	-0.60932	0.49386	-0.62113
1.062	49.46	-15276	2567	-0.6099	0.49483	-0.6224
1.064	49.4	-15275	2567.2	-0.61049	0.49581	-0.62366
1.066	49.374	-15265	2567.7	-0.61137	0.49532	-0.62357
1.068	49.392	-15255	2568.1	-0.61224	0.49483	-0.62347
1.07	49.398	-15260	2568.6	-0.61312	0.49434	-0.62337
1.072	49.383	-15265	2569.1	-0.614	0.49386	-0.62327
1.074	49.394	-15267	2569.6	-0.61488	0.49337	-0.62318
1.076	49.398	-15270	2570.3	-0.61508	0.49483	-0.6221
1.078	49.407	-15270	2571	-0.61527	0.4963	-0.62103
1.08	49.395	-15270	2571.6	-0.61547	0.49776	-0.61996
1.082	49.391	-15270	2572.3	-0.61566	0.49922	-0.61888
1.084	49.386	-15271	2573.1	-0.61586	0.50069	-0.61781
1.086	49.402	-15269	2573.8	-0.61517	0.49991	-0.61849
1.088	49.398	-15267	2574.6	-0.61449	0.49913	-0.61917
1.09	49.403	-15274	2575.4	-0.61381	0.49835	-0.61986
1.092	49.42	-15280	2576.2	-0.61312	0.49756	-0.62054
1.094	49.435	-15282	2577	-0.61244	0.49678	-0.62122
1.096	49.416	-15284	2577.8	-0.61322	0.49678	-0.62122
1.098	49.404	-15280	2578.6	-0.614	0.49678	-0.62122
1.1	49.404	-15277	2579.3	-0.61478	0.49678	-0.62122
1.102	49.398	-15273	2580.1	-0.61556	0.49678	-0.62122
1.104	49.407	-15269	2580.8	-0.61634	0.49678	-0.62122
1.106	49.41	-15269	2581.5	-0.61595	0.49708	-0.62161
1.108	49.402	-15268	2582.2	-0.61556	0.49737	-0.622
1.11	49.411	-15273	2582.9	-0.61517	0.49766	-0.6224
1.112	49.417	-15277	2583.6	-0.61478	0.49796	-0.62279
1.114	49.417	-15269	2584.2	-0.61439	0.49825	-0.62318
1.116	49.43	-15261	2584.8	-0.61429	0.49844	-0.62259
1.118	49.431	-15266	2585.4	-0.6142	0.49864	-0.622
1.12	49.409	-15271	2585.9	-0.6141	0.49883	-0.62142
1.122	49.401	-15266	2586.5	-0.614	0.49903	-0.62083
1.124	49.416	-15262	2587	-0.6139	0.49922	-0.62025
1.126	49.43	-15258	2587.5	-0.61381	0.49913	-0.62054
1.128	49.427	-15255	2587.9	-0.61371	0.49903	-0.62083
1.13	49.422	-15258	2588.4	-0.61361	0.49893	-0.62113
1.132	49.437	-15260	2588.8	-0.61351	0.49883	-0.62142
1.134	49.428	-15265	2589.3	-0.61342	0.49874	-0.62171
1.136	49.408	-15270	2589.7	-0.6141	0.49786	-0.62259
1.138	49.396	-15259	2590.2	-0.61478	0.49698	-0.62347
1.14	49.408	-15248	2590.6	-0.61547	0.4961	-0.62435
1.142	49.413	-15256	2591	-0.61615	0.49522	-0.62523
1.144	49.408	-15264	2591.4	-0.61683	0.49434	-0.6261
1.146	49.397	-15263	2591.7	-0.61654	0.49405	-0.62523
1.148	49.389	-15263	2592	-0.61625	0.49376	-0.62435
1.15	49.394	-15263	2592.3	-0.61595	0.49347	-0.62347
1.152	49.406	-15262	2592.6	-0.61566	0.49317	-0.62259
1.154	49.4	-15252	2592.9	-0.61537	0.49288	-0.62171
1.156	49.407	-15243	2593.2	-0.61449	0.49366	-0.62161
1.158	49.4	-15244	2593.5	-0.61361	0.49444	-0.62152
1.16	49.386	-15246	2593.7	-0.61273	0.49522	-0.62142
1.162	49.419	-15244	2593.8	-0.61185	0.496	-0.62132
1.164	49.429	-15242	2594	-0.61098	0.49678	-0.62122
1.166	49.424	-15242	2594.1	-0.61039	0.49571	-0.62113
1.168	49.445	-15241	2594.1	-0.6098	0.49464	-0.62103
1.17	49.447	-15242	2594.2	-0.60922	0.49356	-0.62093
1.172	49.459	-15243	2594.2	-0.60863	0.49249	-0.62083
1.174	49.47	-15247	2594.2	-0.60805	0.49142	-0.62074
1.176	49.45	-15251	2594.1	-0.60844	0.4919	-0.62054
1.178	49.462	-15251	2594.1	-0.60883	0.49239	-0.62035
1.18	49.471	-15251	2594	-0.60922	0.49288	-0.62015
1.182	49.469	-15248	2593.9	-0.60961	0.49337	-0.61996
1.184	49.45	-15246	2593.8	-0.61	0.49386	-0.61976
1.186	49.436	-15244	2593.6	-0.6098	0.49434	-0.62064
1.188	49.456	-15242	2593.5	-0.60961	0.49483	-0.62152
1.19	49.499	-15240	2593.2	-0.60941	0.49532	-0.6224
1.192	49.508	-15237	2593	-0.60922	0.49581	-0.62327
1.194	49.488	-15238	2592.8	-0.60902	0.4963	-0.62415
1.196	49.482	-15239	2592.5	-0.60922	0.49708	-0.62347
1.198	49.488	-15237	2592.3	-0.60941	0.49786	-0.62279
1.2	49.491	-15234	2592.1	-0.60961	0.49864	-0.6221
1.202	49.49	-15235	2591.8	-0.6098	0.49942	-0.62142
1.204	49.488	-15236	2591.6	-0.61	0.5002	-0.62074
1.206	49.487	-15243	2591.3	-0.61098	0.49991	-0.62152
1.208	49.487	-15250	2591.1	-0.61195	0.49961	-0.6223
1.21	49.488	-15246	2590.8	-0.61293	0.49932	-0.62308
1.212	49.49	-15243	2590.5	-0.6139	0.49903	-0.62386
1.214	49.489	-15239	2590.2	-0.61488	0.49874	-0.62464
1.216	49.478	-15235	2589.8	-0.6141	0.49874	-0.62415
1.218	49.468	-15239	2589.4	-0.61332	0.49874	-0.62366
1.22	49.49	-15242	2589.1	-0.61254	0.49874	-0.62318
1.222	49.505	-15240	2588.8	-0.61176	0.49874	-0.62269
1.224	49.503	-15238	2588.5	-0.61098	0.49874	-0.6222
1.226	49.511	-15235	2588.2	-0.61078	0.49903	-0.6221
1.228	49.501	-15233	2588	-0.61059	0.49932	-0.622
1.23	49.502	-15234	2587.7	-0.61039	0.49961	-0.62191
1.232	49.5	-15235	2587.4	-0.6102	0.49991	-0.62181
1.234	49.485	-15230	2587.1	-0.61	0.5002	-0.62171
1.236	49.463	-15224	2586.8	-0.61078	0.49981	-0.62181
1.238	49.466	-15223	2586.5	-0.61156	0.49942	-0.62191
1.24	49.473	-15221	2586.2	-0.61234	0.49903	-0.622
1.242	49.474	-15227	2585.9	-0.61312	0.49864	-0.6221
1.244	49.491	-15234	2585.6	-0.6139	0.49825	-0.6222
1.246	49.487	-15232	2585.3	-0.61361	0.49805	-0.622
1.248	49.476	-15230	2584.9	-0.61332	0.49786	-0.62181
1.25	49.462	-15229	2584.6	-0.61303	0.49766	-0.62161
1.252	49.471	-15228	2584.2	-0.61273	0.49747	-0.62142
1.254	49.467	-15231	2583.9	-0.61244	0.49727	-0.62122
1.256	49.468	-15234	2583.6	-0.61244	0.49708	-0.62093
1.258	49.485	-15234	2583.2	-0.61244	0.49688	-0.62064
1.26	49.502	-15234	2582.9	-0.61244	0.49669	-0.62035
1.262	49.502	-15234	2582.6	-0.61244	0.49649	-0.62005
1.264	49.491	-15234	2582.3	-0.61244	0.4963	-0.61976
1.266	49.483	-15231	2582	-0.61224	0.49659	-0.62005
1.268	49.459	-15229	2581.6	-0.61205	0.49688	-0.62035
1.27	49.44	-15228	2581.4	-0.61185	0.49717	-0.62064
1.272	49.432	-15228	2581.1	-0.61166	0.49747	-0.62093
1.274	49.441	-15230	2580.9	-0.61146	0.49776	-0.62122
1.276	49.457	-15233	2580.7	-0.61215	0.49805	-0.62074
1.278	49.468	-15236	2580.4	-0.61283	0.49835	-0.62025
1.28	49.468	-15240	2580.2	-0.61351	0.49864	-0.61976
1.282	49.465	-15237	2580	-0.6142	0.49893	-0.61927
1.284	49.456	-15234	2579.8	-0.61488	0.49922	-0.61878
1.286	49.454	-15240	2579.6	-0.61517	0.49883	-0.61888
1.288	49.477	-15246	2579.4	-0.61547	0.49844	-0.61898
1.29	49.483	-15239	2579.2	-0.61576	0.49805	-0.61908
1.292	49.478	-15233	2579	-0.61605	0.49766	-0.61917
1.294	49.48	-15230	2578.8	-0.61634	0.49727	-0.61927
1.296	49.455	-15228	2578.7	-0.61537	0.49737	-0.61937
1.298	49.456	-15232	2578.5	-0.61439	0.49747	-0.61947
1.3	49.482	-15237	2578.4	-0.61342	0.49756	-0.61956
1.302	49.468	-15239	2578.3	-0.61244	0.49766	-0.61966
1.304	49.449	-15242	2578.1	-0.61146	0.49776	-0.61976
1.306	49.459	-15244	2578.1	-0.61215	0.49796	-0.62093
1.308	49.46	-15246	2578	-0.61283	0.49815	-0.6221
1.31	49.449	-15242	2577.9	-0.61351	0.49835	-0.62327
1.312	49.459	-15237	2577.9	-0.6142	0.49854	-0.62444
1.314	49.474	-15240	2577.9	-0.61488	0.49874	-0.62562
1.316	49.467	-15243	2577.9	-0.61439	0.49854	-0.62484
1.318	49.48	-15242	2577.8	-0.6139	0.49835	-0.62405
1.32	49.485	-15242	2577.8	-0.61342	0.49815	-0.62327
1.322	49.454	-15245	2577.8	-0.61293	0.49796	-0.62249
1.324	49.44	-15248	2577.7	-0.61244	0.49776	-0.62171
1.326	49.459	-15251	2577.7	-0.61273	0.49786	-0.62161
1.328	49.464	-15254	2577.6	-0.61303	0.49796	-0.62152
1.33	49.482	-15256	2577.6	-0.61332	0.49805	-0.62142
1.332	49.431	-15257	2577.6	-0.61361	0.49815	-0.62132
1.334	49.381	-15252	2577.6	-0.6139	0.49825	-0.62122
1.336	49.385	-15247	2577.7	-0.61303	0.49737	-0.62181
1.338	49.39	-15245	2577.7	-0.61215	0.49649	-0.6224
1.34	49.386	-15243	2577.7	-0.61127	0.49561	-0.62298
1.342	49.384	-15246	2577.7	-0.61039	0.49473	-0.62357
1.344	49.386	-15248	2577.7	-0.60951	0.49386	-0.62415
1.346	49.369	-15248	2577.7	-0.61117	0.49337	-0.62396
1.348	49.346	-15248	2577.8	-0.61283	0.49288	-0.62376
1.35	49.365	-15250	2577.8	-0.61449	0.49239	-0.62357
1.352	49.392	-15252	2577.8	-0.61615	0.4919	-0.62337
1.354	49.408	-15258	2577.8	-0.61781	0.49142	-0.62318
1.356	49.409	-15265	2577.7	-0.61703	0.49259	-0.62259
1.358	49.416	-15259	2577.7	-0.61625	0.49376	-0.622
1.36	49.439	-15254	2577.7	-0.61547	0.49493	-0.62142
1.362	49.44	-15245	2577.7	-0.61468	0.4961	-0.62083
1.364	49.435	-15236	2577.7	-0.6139	0.49727	-0.62025
1.366	49.439	-15231	2577.6	-0.61429	0.4963	-0.61976
1.368	49.437	-15226	2577.5	-0.61468	0.49532	-0.61927
1.37	49.435	-15234	2577.5	-0.61508	0.49434	-0.61878
1.372	49.44	-15242	2577.4	-0.61547	0.49337	-0.6183
1.374	49.448	-15241	2577.3	-0.61586	0.49239	-0.61781
1.376	49.445	-15241	2577.2	-0.61566	0.49366	-0.61771
1.378	49.446	-15238	2577.1	-0.61547	0.49493	-0.61761
1.38	49.464	-15235	2577	-0.61527	0.4962	-0.61752
1.382	49.473	-15239	2576.8	-0.61508	0.49747	-0.61742
1.384	49.482	-15243	2576.6	-0.61488	0.49874	-0.61732
1.386	49.505	-15246	2576.5	-0.61439	0.49805	-0.61859
1.388	49.528	-15250	2576.3	-0.6139	0.49737	-0.61986
1.39	49.535	-15248	2576.1	-0.61342	0.49669	-0.62113
1.392	49.534	-15247	2576	-0.61293	0.496	-0.6224
1.394	49.543	-15248	2575.8	-0.61244	0.49532	-0.62366
1.396	49.55	-15249	2575.8	-0.61234	0.49581	-0.62347
1.398	49.549	-15246	2575.8	-0.61224	0.4963	-0.62327
1.4	49.556	-15242	2575.7	-0.61215	0.49678	-0.62308
1.402	49.543	-15245	2575.7	-0.61205	0.49727	-0.62288
1.404	49.53	-15248	2575.6	-0.61195	0.49776	-0.62269
1.406	49.497	-15258	2575.6	-0.61176	0.49796	-0.62191
1.408	49.497	-15268	2575.6	-0.61156	0.49815	-0.62113
1.41	49.496	-15270	2575.5	-0.61137	0.49835	-0.62035
1.412	49.5	-15273	2575.5	-0.61117	0.49854	-0.61956
1.414	49.491	-15272	2575.4	-0.61098	0.49874	-0.61878
1.416	49.473	-15271	2575.3	-0.61117	0.49854	-0.61947
1.418	49.501	-15270	2575.2	-0.61137	0.49835	-0.62015
1.42	49.523	-15269	2575.1	-0.61156	0.49815	-0.62083
1.422	49.523	-15273	2575	-0.61176	0.49796	-0.62152
1.424	49.517	-15277	2574.9	-0.61195	0.49776	-0.6222
1.426	49.518	-15270	2574.8	-0.61137	0.49737	-0.62249
1.428	49.533	-15262	2574.7	-0.61078	0.49698	-0.62279
1.43	49.533	-15257	2574.6	-0.6102	0.49659	-0.62308
1.432	49.522	-15252	2574.4	-0.60961	0.4962	-0.62337
1.434	49.508	-15252	2574.2	-0.60902	0.49581	-0.62366
1.436	49.499	-15252	2574	-0.60932	0.4961	-0.62357
1.438	49.503	-15253	2573.8	-0.60961	0.49639	-0.62347
1.44	49.518	-15255	2573.7	-0.6099	0.49669	-0.62337
1.442	49.534	-15252	2573.5	-0.6102	0.49698	-0.62327
1.444	49.542	-15248	2573.4	-0.61049	0.49727	-0.62318
1.446	49.572	-15254	2573.3	-0.61059	0.49678	-0.62318
1.448	49.61	-15260	2573.1	-0.61068	0.4963	-0.62318
1.45	49.64	-15253	2573	-0.61078	0.49581	-0.62318
1.452	49.663	-15246	2572.8	-0.61088	0.49532	-0.62318
1.454	49.682	-15251	2572.7	-0.61098	0.49483	-0.62318
1.456	49.693	-15255	2572.5	-0.61088	0.49512	-0.62249
1.458	49.666	-15259	2572.3	-0.61078	0.49542	-0.62181
1.46	49.622	-15263	2572.1	-0.61068	0.49571	-0.62113
1.462	49.588	-15264	2571.9	-0.61059	0.496	-0.62044
1.464	49.54	-15266	2571.7	-0.61049	0.4963	-0.61976
1.466	49.487	-15263	2571.4	-0.6102	0.496	-0.61996
1.468	49.419	-15260	2571.2	-0.6099	0.49571	-0.62015
1.47	49.308	-15260	2571	-0.60961	0.49542	-0.62035
1.472	49.154	-15261	2570.8	-0.60932	0.49512	-0.62054
1.474	48.975	-15260	2570.6	-0.60902	0.49483	-0.62074
1.476	48.814	-15259	2570.3	-0.60922	0.49483	-0.62122
1.478	48.675	-15257	2570.1	-0.60941	0.49483	-0.62171
1.48	48.528	-15255	2569.9	-0.60961	0.49483	-0.6222
1.482	48.389	-15254	2569.6	-0.6098	0.49483	-0.62269
1.484	48.309	-15252	2569.4	-0.61	0.49483	-0.62318
1.486	48.271	-15261	2569.2	-0.61059	0.4961	-0.62279
1.488	48.312	-15270	2569	-0.61117	0.49737	-0.6224
1.49	48.458	-15267	2568.7	-0.61176	0.49864	-0.622
1.492	48.615	-15265	2568.5	-0.61234	0.49991	-0.62161
1.494	48.771	-15268	2568.3	-0.61293	0.50118	-0.62122
1.496	48.913	-15272	2568	-0.61303	0.50079	-0.62064
1.498	49.097	-15268	2567.8	-0.61312	0.5004	-0.62005
1.5	49.253	-15263	2567.5	-0.61322	0.5	-0.61947
1.502	49.361	-15261	2567.2	-0.61332	0.49961	-0.61888
1.504	49.405	-15259	2566.9	-0.61342	0.49922	-0.6183
1.506	49.435	-15261	2566.6	-0.61244	0.49922	-0.6183
1.508	49.502	-15263	2566.4	-0.61146	0.49922	-0.6183
1.51	49.534	-15268	2566.1	-0.61049	0.49922	-0.6183
1.512	49.558	-15273	2565.8	-0.60951	0.49922	-0.6183
1.514	49.57	-15269	2565.5	-0.60854	0.49922	-0.6183
1.516	49.553	-15264	2565.2	-0.60951	0.49874	-0.61966
1.518	49.533	-15263	2564.9	-0.61049	0.49825	-0.62103
1.52	49.524	-15261	2564.6	-0.61146	0.49776	-0.6224
1.522	49.508	-15257	2564.2	-0.61244	0.49727	-0.62376
1.524	49.483	-15253	2563.8	-0.61342	0.49678	-0.62513
1.526	49.468	-15255	2563.5	-0.6141	0.49659	-0.62503
1.528	49.485	-15257	2563.2	-0.61478	0.49639	-0.62493
1.53	49.515	-15256	2562.9	-0.61547	0.4962	-0.62484
1.532	49.52	-15256	2562.6	-0.61615	0.496	-0.62474
1.534	49.514	-15260	2562.2	-0.61683	0.49581	-0.62464
1.536	49.512	-15264	2561.9	-0.61547	0.49561	-0.62425
1.538	49.508	-15266	2561.6	-0.6141	0.49542	-0.62386
1.54	49.508	-15268	2561.3	-0.61273	0.49522	-0.62347
1.542	49.499	-15268	2561	-0.61137	0.49503	-0.62308
1.544	49.492	-15269	2560.7	-0.61	0.49483	-0.62269
1.546	49.507	-15263	2560.4	-0.61137	0.49532	-0.62298
1.548	49.517	-15258	2560.1	-0.61273	0.49581	-0.62327
1.55	49.511	-15261	2559.8	-0.6141	0.4963	-0.62357
1.552	49.508	-15265	2559.4	-0.61547	0.49678	-0.62386
1.554	49.52	-15267	2559	-0.61683	0.49727	-0.62415
1.556	49.541	-15269	2558.8	-0.61634	0.49766	-0.62366
1.558	49.534	-15270	2558.5	-0.61586	0.49805	-0.62318
1.56	49.518	-15271	2558.2	-0.61537	0.49844	-0.62269
1.562	49.514	-15272	2557.9	-0.61488	0.49883	-0.6222
1.564	49.507	-15273	2557.6	-0.61439	0.49922	-0.62171
1.566	49.511	-15276	2557.4	-0.61468	0.49913	-0.62083
1.568	49.508	-15278	2557.1	-0.61498	0.49903	-0.61996
1.57	49.507	-15269	2556.8	-0.61527	0.49893	-0.61908
1.572	49.515	-15259	2556.5	-0.61556	0.49883	-0.6182
1.574	49.539	-15262	2556.3	-0.61586	0.49874	-0.61732
1.576	49.543	-15266	2556.1	-0.61459	0.49854	-0.61791
1.578	49.492	-15267	2555.9	-0.61332	0.49835	-0.61849
1.58	49.489	-15268	2555.7	-0.61205	0.49815	-0.61908
1.582	49.493	-15268	2555.6	-0.61078	0.49796	-0.61966
1.584	49.512	-15269	2555.5	-0.60951	0.49776	-0.62025
1.586	49.515	-15271	2555.4	-0.6101	0.49796	-0.62122
1.588	49.492	-15274	2555.4	-0.61068	0.49815	-0.6222
1.59	49.48	-15276	2555.3	-0.61127	0.49835	-0.62318
1.592	49.463	-15278	2555.2	-0.61185	0.49854	-0.62415
1.594	49.447	-15275	2555.1	-0.61244	0.49874	-0.62513
1.596	49.431	-15273	2555.1	-0.61264	0.49854	-0.62493
1.598	49.434	-15273	2555	-0.61283	0.49835	-0.62474
1.6	49.453	-15273	2555	-0.61303	0.49815	-0.62454
1.602	49.458	-15275	2554.9	-0.61322	0.49796	-0.62435
1.604	49.454	-15277	2554.8	-0.61342	0.49776	-0.62415
1.606	49.457	-15278	2554.7	-0.61224	0.49727	-0.62376
1.608	49.45	-15278	2554.5	-0.61107	0.49678	-0.62337
1.61	49.461	-15279	2554.4	-0.6099	0.4963	-0.62298
1.612	49.479	-15280	2554.2	-0.60873	0.49581	-0.62259
1.614	49.479	-15275	2554	-0.60756	0.49532	-0.6222
1.616	49.467	-15271	2553.9	-0.60883	0.49591	-0.6222
1.618	49.449	-15273	2553.8	-0.6101	0.49649	-0.6222
1.62	49.44	-15274	2553.6	-0.61137	0.49708	-0.6222
1.622	49.438	-15278	2553.5	-0.61264	0.49766	-0.6222
1.624	49.432	-15282	2553.3	-0.6139	0.49825	-0.6222
1.626	49.434	-15279	2553.3	-0.61342	0.49805	-0.6223
1.628	49.442	-15276	2553.2	-0.61293	0.49786	-0.6224
1.63	49.444	-15277	2553.2	-0.61244	0.49766	-0.62249
1.632	49.444	-15277	2553.2	-0.61195	0.49747	-0.62259
1.634	49.443	-15278	2553.3	-0.61146	0.49727	-0.62269
1.636	49.44	-15279	2553.4	-0.61176	0.49766	-0.62269
1.638	49.448	-15279	2553.5	-0.61205	0.49805	-0.62269
1.64	49.449	-15279	2553.7	-0.61234	0.49844	-0.62269
1.642	49.428	-15278	2553.9	-0.61264	0.49883	-0.62269
1.644	49.417	-15278	2554.1	-0.61293	0.49922	-0.62269
1.646	49.425	-15277	2554.4	-0.61234	0.49903	-0.6222
1.648	49.448	-15276	2554.8	-0.61176	0.49883	-0.62171
1.65	49.445	-15279	2555.1	-0.61117	0.49864	-0.62122
1.652	49.4	-15282	2555.5	-0.61059	0.49844	-0.62074
1.654	49.39	-15279	2555.8	-0.61	0.49825	-0.62025
1.656	49.415	-15277	2556.3	-0.61049	0.49796	-0.62074
1.658	49.433	-15275	2556.7	-0.61098	0.49766	-0.62122
1.66	49.452	-15273	2557.2	-0.61146	0.49737	-0.62171
1.662	49.437	-15276	2557.7	-0.61195	0.49708	-0.6222
1.664	49.434	-15278	2558.2	-0.61244	0.49678	-0.62269
1.666	49.422	-15278	2558.6	-0.61224	0.49669	-0.62288
1.668	49.4	-15278	2559.1	-0.61205	0.49659	-0.62308
1.67	49.404	-15279	2559.6	-0.61185	0.49649	-0.62327
1.672	49.393	-15279	2560.2	-0.61166	0.49639	-0.62347
1.674	49.43	-15280	2560.8	-0.61146	0.4963	-0.62366
1.676	49.43	-15282	2561.3	-0.61234	0.49669	-0.62327
1.678	49.411	-15278	2561.9	-0.61322	0.49708	-0.62288
1.68	49.418	-15275	2562.4	-0.6141	0.49747	-0.62249
1.682	49.438	-15271	2563	-0.61498	0.49786	-0.6221
1.684	49.447	-15267	2563.5	-0.61586	0.49825	-0.62171
1.686	49.451	-15273	2564	-0.61508	0.49737	-0.62249
1.688	49.453	-15279	2564.5	-0.61429	0.49649	-0.62327
1.69	49.435	-15279	2564.9	-0.61351	0.49561	-0.62405
1.692	49.431	-15279	2565.3	-0.61273	0.49473	-0.62484
1.694	49.437	-15275	2565.6	-0.61195	0.49386	-0.62562
1.696	49.422	-15271	2565.9	-0.61195	0.49386	-0.62532
1.698	49.421	-15270	2566.2	-0.61195	0.49386	-0.62503
1.7	49.434	-15269	2566.5	-0.61195	0.49386	-0.62474
1.702	49.447	-15270	2566.7	-0.61195	0.49386	-0.62444
1.704	49.433	-15271	2567	-0.61195	0.49386	-0.62415
1.706	49.417	-15273	2567.2	-0.61273	0.49434	-0.62444
1.708	49.428	-15274	2567.4	-0.61351	0.49483	-0.62474
1.71	49.435	-15268	2567.7	-0.61429	0.49532	-0.62503
1.712	49.421	-15262	2567.9	-0.61508	0.49581	-0.62532
1.714	49.406	-15265	2568.1	-0.61586	0.4963	-0.62562
1.716	49.41	-15269	2568.3	-0.61586	0.49561	-0.62542
1.718	49.43	-15273	2568.6	-0.61586	0.49493	-0.62523
1.72	49.455	-15277	2568.8	-0.61586	0.49425	-0.62503
1.722	49.459	-15268	2568.9	-0.61586	0.49356	-0.62484
1.724	49.443	-15259	2569.1	-0.61586	0.49288	-0.62464
1.726	49.444	-15258	2569.2	-0.61517	0.49259	-0.62357
1.728	49.465	-15258	2569.4	-0.61449	0.49229	-0.62249
1.73	49.465	-15260	2569.5	-0.61381	0.492	-0.62142
1.732	49.446	-15262	2569.6	-0.61312	0.49171	-0.62035
1.734	49.415	-15263	2569.6	-0.61244	0.49142	-0.61927
1.736	49.397	-15264	2569.7	-0.61166	0.49112	-0.61917
1.738	49.409	-15259	2569.7	-0.61088	0.49083	-0.61908
1.74	49.411	-15254	2569.7	-0.6101	0.49054	-0.61898
1.742	49.423	-15253	2569.7	-0.60932	0.49024	-0.61888
1.744	49.436	-15253	2569.6	-0.60854	0.48995	-0.61878
1.746	49.438	-15252	2569.6	-0.60922	0.49093	-0.62015
1.748	49.478	-15252	2569.5	-0.6099	0.4919	-0.62152
1.75	49.508	-15254	2569.4	-0.61059	0.49288	-0.62288
1.752	49.523	-15256	2569.4	-0.61127	0.49386	-0.62425
1.754	49.506	-15253	2569.3	-0.61195	0.49483	-0.62562
1.756	49.474	-15251	2569.2	-0.61254	0.49444	-0.62562
1.758	49.479	-15248	2569.1	-0.61312	0.49405	-0.62562
1.76	49.48	-15246	2568.9	-0.61371	0.49366	-0.62562
1.762	49.483	-15249	2568.7	-0.61429	0.49327	-0.62562
1.764	49.486	-15252	2568.5	-0.61488	0.49288	-0.62562
1.766	49.487	-15249	2568.2	-0.61537	0.4921	-0.62542
1.768	49.481	-15246	2567.9	-0.61586	0.49132	-0.62523
1.77	49.489	-15246	2567.7	-0.61634	0.49054	-0.62503
1.772	49.477	-15246	2567.5	-0.61683	0.48976	-0.62484
1.774	49.471	-15248	2567.2	-0.61732	0.48898	-0.62464
1.776	49.47	-15250	2567	-0.61781	0.48985	-0.62532
1.778	49.476	-15247	2566.7	-0.6183	0.49073	-0.62601
1.78	49.498	-15243	2566.5	-0.61878	0.49161	-0.62669
1.782	49.495	-15241	2566.2	-0.61927	0.49249	-0.62737
1.784	49.486	-15240	2565.9	-0.61976	0.49337	-0.62806
1.786	49.494	-15242	2565.5	-0.6181	0.49434	-0.62718
1.788	49.514	-15244	2565.1	-0.61644	0.49532	-0.6263
1.79	49.522	-15239	2564.8	-0.61478	0.4963	-0.62542
1.792	49.522	-15235	2564.4	-0.61312	0.49727	-0.62454
1.794	49.503	-15234	2564.1	-0.61146	0.49825	-0.62366
1.796	49.485	-15233	2563.8	-0.61224	0.49796	-0.62396
1.798	49.503	-15229	2563.4	-0.61303	0.49766	-0.62425
1.8	49.516	-15225	2563.1	-0.61381	0.49737	-0.62454
1.802	49.508	-15230	2562.7	-0.61459	0.49708	-0.62484
1.804	49.503	-15235	2562.4	-0.61537	0.49678	-0.62513
1.806	49.501	-15233	2562	-0.61488	0.49688	-0.62523
1.808	49.498	-15231	2561.6	-0.61439	0.49698	-0.62532
1.81	49.488	-15236	2561.1	-0.6139	0.49708	-0.62542
1.812	49.483	-15240	2560.7	-0.61342	0.49717	-0.62552
1.814	49.487	-15235	2560.3	-0.61293	0.49727	-0.62562
1.816	49.485	-15230	2559.9	-0.61332	0.49786	-0.62542
1.818	49.486	-15232	2559.5	-0.61371	0.49844	-0.62523
1.82	49.493	-15234	2559.1	-0.6141	0.49903	-0.62503
1.822	49.488	-15232	2558.8	-0.61449	0.49961	-0.62484
1.824	49.47	-15229	2558.4	-0.61488	0.5002	-0.62464
1.826	49.495	-15226	2558	-0.61429	0.49942	-0.62503
1.828	49.512	-15222	2557.7	-0.61371	0.49864	-0.62542
1.83	49.51	-15226	2557.3	-0.61312	0.49786	-0.62581
1.832	49.507	-15229	2557	-0.61254	0.49708	-0.6262
1.834	49.475	-15230	2556.7	-0.61195	0.4963	-0.62659
1.836	49.474	-15231	2556.3	-0.61117	0.49581	-0.6263
1.838	49.473	-15228	2556	-0.61039	0.49532	-0.62601
1.84	49.497	-15226	2555.7	-0.60961	0.49483	-0.62571
1.842	49.497	-15231	2555.4	-0.60883	0.49434	-0.62542
1.844	49.471	-15237	2555.2	-0.60805	0.49386	-0.62513
1.846	49.428	-15237	2555	-0.60873	0.49532	-0.62435
1.848	49.442	-15237	2554.8	-0.60941	0.49678	-0.62357
1.85	49.468	-15234	2554.5	-0.6101	0.49825	-0.62279
1.852	49.465	-15230	2554.3	-0.61078	0.49971	-0.622
1.854	49.457	-15227	2554.1	-0.61146	0.50118	-0.62122
1.856	49.472	-15223	2553.8	-0.61039	0.49981	-0.62142
1.858	49.481	-15230	2553.5	-0.60932	0.49844	-0.62161
1.86	49.481	-15236	2553.3	-0.60824	0.49708	-0.62181
1.862	49.488	-15232	2553	-0.60717	0.49571	-0.622
1.864	49.493	-15228	2552.8	-0.6061	0.49434	-0.6222
1.866	49.485	-15231	2552.5	-0.60707	0.49542	-0.62171
1.868	49.482	-15234	2552.2	-0.60805	0.49649	-0.62122
1.87	49.482	-15227	2552	-0.60902	0.49756	-0.62074
1.872	49.478	-15221	2551.8	-0.61	0.49864	-0.62025
1.874	49.468	-15236	2551.6	-0.61098	0.49971	-0.61976
1.876	49.457	-15250	2551.4	-0.61117	0.49961	-0.61996
1.878	49.455	-15241	2551.2	-0.61137	0.49952	-0.62015
1.88	49.444	-15231	2551	-0.61156	0.49942	-0.62035
1.882	49.434	-15237	2550.8	-0.61176	0.49932	-0.62054
1.884	49.447	-15244	2550.6	-0.61195	0.49922	-0.62074
1.886	49.463	-15236	2550.4	-0.61283	0.49883	-0.62103
1.888	49.467	-15228	2550.2	-0.61371	0.49844	-0.62132
1.89	49.467	-15228	2549.9	-0.61459	0.49805	-0.62161
1.892	49.472	-15228	2549.7	-0.61547	0.49766	-0.62191
1.894	49.468	-15229	2549.5	-0.61634	0.49727	-0.6222
1.896	49.463	-15231	2549.3	-0.61634	0.49669	-0.62269
1.898	49.458	-15231	2549.1	-0.61634	0.4961	-0.62318
1.9	49.458	-15231	2548.8	-0.61634	0.49552	-0.62366
1.902	49.457	-15231	2548.6	-0.61634	0.49493	-0.62415
1.904	49.433	-15232	2548.3	-0.61634	0.49434	-0.62464
1.906	49.408	-15235	2548.2	-0.61693	0.49366	-0.62493
1.908	49.401	-15239	2548	-0.61752	0.49298	-0.62523
1.91	49.401	-15236	2547.9	-0.6181	0.49229	-0.62552
1.912	49.405	-15234	2547.7	-0.61869	0.49161	-0.62581
1.914	49.414	-15238	2547.6	-0.61927	0.49093	-0.6261
1.916	49.412	-15243	2547.5	-0.61976	0.49112	-0.6264
1.918	49.421	-15238	2547.4	-0.62025	0.49132	-0.62669
1.92	49.419	-15233	2547.3	-0.62074	0.49151	-0.62698
1.922	49.44	-15232	2547.2	-0.62122	0.49171	-0.62728
1.924	49.456	-15232	2547.1	-0.62171	0.4919	-0.62757
1.926	49.454	-15237	2547.1	-0.62083	0.49239	-0.62728
1.928	49.431	-15242	2547	-0.61996	0.49288	-0.62698
1.93	49.443	-15242	2547	-0.61908	0.49337	-0.62669
1.932	49.454	-15241	2547	-0.6182	0.49386	-0.6264
1.934	49.424	-15243	2547	-0.61732	0.49434	-0.6261
1.936	49.402	-15246	2547	-0.61849	0.49317	-0.6262
1.938	49.403	-15240	2547	-0.61966	0.492	-0.6263
1.94	49.415	-15233	2546.9	-0.62083	0.49083	-0.6264
1.942	49.408	-15241	2546.9	-0.622	0.48966	-0.62649
1.944	49.411	-15248	2546.9	-0.62318	0.48849	-0.62659
1.946	49.406	-15243	2546.8	-0.6221	0.48946	-0.62698
1.948	49.413	-15238	2546.7	-0.62103	0.49044	-0.62737
1.95	49.448	-15243	2546.6	-0.61996	0.49142	-0.62776
1.952	49.478	-15248	2546.6	-0.61888	0.49239	-0.62815
1.954	49.489	-15247	2546.5	-0.61781	0.49337	-0.62854
1.956	49.497	-15245	2546.5	-0.61752	0.49298	-0.62776
1.958	49.5	-15245	2546.5	-0.61722	0.49259	-0.62698
1.96	49.513	-15246	2546.4	-0.61693	0.4922	-0.6262
1.962	49.525	-15246	2546.3	-0.61664	0.49181	-0.62542
1.964	49.521	-15245	2546.3	-0.61634	0.49142	-0.62464
1.966	49.513	-15244	2546.3	-0.61673	0.49112	-0.62474
1.968	49.514	-15243	2546.4	-0.61712	0.49083	-0.62484
1.97	49.52	-15246	2546.4	-0.61752	0.49054	-0.62493
1.972	49.52	-15249	2546.4	-0.61791	0.49024	-0.62503
1.974	49.516	-15244	2546.3	-0.6183	0.48995	-0.62513
1.976	49.509	-15240	2546.3	-0.6183	0.49112	-0.62523
1.978	49.523	-15242	2546.3	-0.6183	0.49229	-0.62532
1.98	49.532	-15245	2546.3	-0.6183	0.49347	-0.62542
1.982	49.516	-15242	2546.3	-0.6183	0.49464	-0.62552
1.984	49.493	-15238	2546.3	-0.6183	0.49581	-0.62562
1.986	49.509	-15237	2546.3	-0.6181	0.49454	-0.62435
1.988	49.527	-15237	2546.2	-0.61791	0.49327	-0.62308
1.99	49.533	-15239	2546.1	-0.61771	0.492	-0.62181
1.992	49.544	-15241	2546.1	-0.61752	0.49073	-0.62054
1.994	49.554	-15241	2546	-0.61732	0.48946	-0.61927
1.996	49.544	-15241	2545.9	-0.61752	0.49005	-0.62044
1.998	49.539	-15242	2545.8	-0.61771	0.49064	-0.62161
2	49.564	-15243	2545.7	-0.61791	0.49122	-0.62279
2.002	49.576	-15244	2545.6	-0.6181	0.49181	-0.62396
2.004	49.552	-15246	2545.5	-0.6183	0.49239	-0.62513
2.006	49.505	-15247	2545.5	-0.61761	0.49268	-0.62552
2.008	49.455	-15248	2545.4	-0.61693	0.49298	-0.62591
2.01	49.482	-15245	2545.3	-0.61625	0.49327	-0.6263
2.012	49.538	-15241	2545.2	-0.61556	0.49356	-0.62669
2.014	49.544	-15251	2545.2	-0.61488	0.49386	-0.62708
2.016	49.552	-15261	2545.1	-0.61429	0.49347	-0.62601
2.018	49.545	-15261	2545.1	-0.61371	0.49308	-0.62493
2.02	49.57	-15260	2545	-0.61312	0.49268	-0.62386
2.022	49.607	-15258	2544.9	-0.61254	0.49229	-0.62279
2.024	49.648	-15256	2544.8	-0.61195	0.4919	-0.62171
2.026	49.684	-15259	2544.6	-0.61273	0.49171	-0.622
2.028	49.73	-15262	2544.4	-0.61351	0.49151	-0.6223
2.03	49.721	-15261	2544.2	-0.61429	0.49132	-0.62259
2.032	49.693	-15260	2544.2	-0.61508	0.49112	-0.62288
2.034	49.675	-15252	2544.2	-0.61586	0.49093	-0.62318
2.036	49.622	-15245	2544.1	-0.61449	0.49073	-0.62249
2.038	49.564	-15249	2544.1	-0.61312	0.49054	-0.62181
2.04	49.495	-15253	2544	-0.61176	0.49034	-0.62113
2.042	49.398	-15247	2544	-0.61039	0.49015	-0.62044
2.044	49.299	-15242	2543.9	-0.60902	0.48995	-0.61976
2.046	49.172	-15239	2543.8	-0.6098	0.49093	-0.62074
2.048	49.005	-15236	2543.7	-0.61059	0.4919	-0.62171
2.05	48.843	-15237	2543.6	-0.61137	0.49288	-0.62269
2.052	48.689	-15238	2543.5	-0.61215	0.49386	-0.62366
2.054	48.518	-15243	2543.4	-0.61293	0.49483	-0.62464
2.056	48.354	-15248	2543.2	-0.61322	0.49415	-0.62425
2.058	48.242	-15251	2543.1	-0.61351	0.49347	-0.62386
2.06	48.179	-15255	2542.9	-0.61381	0.49278	-0.62347
2.062	48.171	-15250	2542.7	-0.6141	0.4921	-0.62308
2.064	48.289	-15245	2542.5	-0.61439	0.49142	-0.62269
2.066	48.494	-15246	2542.4	-0.61478	0.49171	-0.62376
2.068	48.692	-15247	2542.2	-0.61517	0.492	-0.62484
2.07	48.863	-15251	2542	-0.61556	0.49229	-0.62591
2.072	49.027	-15255	2541.8	-0.61595	0.49259	-0.62698
2.074	49.175	-15251	2541.6	-0.61634	0.49288	-0.62806
2.076	49.291	-15248	2541.4	-0.61605	0.49356	-0.62825
2.078	49.396	-15248	2541.2	-0.61576	0.49425	-0.62845
2.08	49.472	-15248	2540.9	-0.61547	0.49493	-0.62864
2.082	49.535	-15251	2540.7	-0.61517	0.49561	-0.62884
2.084	49.568	-15254	2540.5	-0.61488	0.4963	-0.62903
2.086	49.585	-15256	2540.4	-0.61508	0.49581	-0.62932
2.088	49.569	-15257	2540.3	-0.61527	0.49532	-0.62962
2.09	49.545	-15258	2540.2	-0.61547	0.49483	-0.62991
2.092	49.52	-15259	2540.2	-0.61566	0.49434	-0.6302
2.094	49.506	-15261	2540.1	-0.61586	0.49386	-0.6305
2.096	49.483	-15263	2540.1	-0.61517	0.49366	-0.62893
2.098	49.473	-15262	2540	-0.61449	0.49347	-0.62737
2.1	49.479	-15261	2539.9	-0.61381	0.49327	-0.62581
2.102	49.474	-15260	2539.8	-0.61312	0.49308	-0.62425
2.104	49.471	-15260	2539.7	-0.61244	0.49288	-0.62269
2.106	49.46	-15260	2539.6	-0.61244	0.49327	-0.62298
2.108	49.484	-15261	2539.4	-0.61244	0.49366	-0.62327
2.11	49.513	-15261	2539.3	-0.61244	0.49405	-0.62357
2.112	49.54	-15261	2539.2	-0.61244	0.49444	-0.62386
2.114	49.522	-15263	2539.1	-0.61244	0.49483	-0.62415
2.116	49.498	-15264	2539	-0.61264	0.49434	-0.62396
2.118	49.507	-15264	2538.9	-0.61283	0.49386	-0.62376
2.12	49.517	-15264	2538.8	-0.61303	0.49337	-0.62357
2.122	49.52	-15262	2538.7	-0.61322	0.49288	-0.62337
2.124	49.525	-15261	2538.6	-0.61342	0.49239	-0.62318
2.126	49.518	-15259	2538.5	-0.61381	0.49239	-0.62347
2.128	49.504	-15257	2538.4	-0.6142	0.49239	-0.62376
2.13	49.49	-15255	2538.3	-0.61459	0.49239	-0.62405
2.132	49.489	-15252	2538.1	-0.61498	0.49239	-0.62435
2.134	49.497	-15257	2538	-0.61537	0.49239	-0.62464
2.136	49.487	-15262	2537.9	-0.61439	0.49239	-0.62396
2.138	49.483	-15267	2537.8	-0.61342	0.49239	-0.62327
2.14	49.506	-15272	2537.7	-0.61244	0.49239	-0.62259
2.142	49.531	-15270	2537.6	-0.61146	0.49239	-0.62191
2.144	49.537	-15267	2537.5	-0.61049	0.49239	-0.62122
2.146	49.526	-15267	2537.5	-0.61156	0.49327	-0.6224
2.148	49.507	-15267	2537.4	-0.61264	0.49415	-0.62357
2.15	49.501	-15268	2537.3	-0.61371	0.49503	-0.62474
2.152	49.49	-15268	2537.2	-0.61478	0.49591	-0.62591
2.154	49.463	-15267	2537.1	-0.61586	0.49678	-0.62708
2.156	49.473	-15267	2537	-0.61625	0.4962	-0.62698
2.158	49.474	-15268	2537	-0.61664	0.49561	-0.62688
2.16	49.467	-15269	2536.9	-0.61703	0.49503	-0.62679
2.162	49.483	-15270	2536.7	-0.61742	0.49444	-0.62669
2.164	49.487	-15272	2536.6	-0.61781	0.49386	-0.62659
2.166	49.482	-15268	2536.4	-0.61693	0.49454	-0.6263
2.168	49.474	-15264	2536.3	-0.61605	0.49522	-0.62601
2.17	49.496	-15263	2536.2	-0.61517	0.49591	-0.62571
2.172	49.493	-15263	2536.1	-0.61429	0.49659	-0.62542
2.174	49.483	-15263	2536	-0.61342	0.49727	-0.62513
2.176	49.472	-15262	2535.9	-0.61449	0.49688	-0.62562
2.178	49.468	-15262	2535.7	-0.61556	0.49649	-0.6261
2.18	49.439	-15262	2535.6	-0.61664	0.4961	-0.62659
2.182	49.453	-15264	2535.6	-0.61771	0.49571	-0.62708
2.184	49.472	-15266	2535.5	-0.61878	0.49532	-0.62757
2.186	49.47	-15266	2535.4	-0.61761	0.49552	-0.62688
2.188	49.461	-15266	2535.3	-0.61644	0.49571	-0.6262
2.19	49.457	-15270	2535.2	-0.61527	0.49591	-0.62552
2.192	49.431	-15274	2535.1	-0.6141	0.4961	-0.62484
2.194	49.43	-15270	2535	-0.61293	0.4963	-0.62415
2.196	49.451	-15266	2535	-0.61293	0.49649	-0.62444
2.198	49.437	-15268	2534.9	-0.61293	0.49669	-0.62474
2.2	49.42	-15270	2534.9	-0.61293	0.49688	-0.62503
2.202	49.425	-15278	2534.9	-0.61293	0.49708	-0.62532
2.204	49.418	-15285	2534.9	-0.61293	0.49727	-0.62562
2.206	49.417	-15283	2535	-0.61303	0.49639	-0.62562
2.208	49.416	-15281	2535.1	-0.61312	0.49552	-0.62562
2.21	49.416	-15276	2535.3	-0.61322	0.49464	-0.62562
2.212	49.426	-15271	2535.5	-0.61332	0.49376	-0.62562
2.214	49.43	-15274	2535.7	-0.61342	0.49288	-0.62562
2.216	49.42	-15278	2536	-0.61381	0.49317	-0.62425
2.218	49.421	-15273	2536.4	-0.6142	0.49347	-0.62288
2.22	49.437	-15269	2536.8	-0.61459	0.49376	-0.62152
2.222	49.438	-15266	2537.2	-0.61498	0.49405	-0.62015
2.224	49.414	-15264	2537.6	-0.61537	0.49434	-0.61878
2.226	49.385	-15263	2538.1	-0.61527	0.49512	-0.61927
2.228	49.389	-15263	2538.5	-0.61517	0.49591	-0.61976
2.23	49.423	-15267	2539.1	-0.61508	0.49669	-0.62025
2.232	49.433	-15270	2539.6	-0.61498	0.49747	-0.62074
2.234	49.431	-15274	2540.2	-0.61488	0.49825	-0.62122
2.236	49.44	-15277	2540.7	-0.61595	0.49659	-0.622
2.238	49.446	-15276	2541.3	-0.61703	0.49493	-0.62279
2.24	49.446	-15275	2541.8	-0.6181	0.49327	-0.62357
2.242	49.427	-15274	2542.4	-0.61917	0.49161	-0.62435
2.244	49.418	-15274	2542.9	-0.62025	0.48995	-0.62513
2.246	49.409	-15273	2543.5	-0.61996	0.49093	-0.62562
2.248	49.407	-15271	2544.1	-0.61966	0.4919	-0.6261
2.25	49.426	-15275	2544.8	-0.61937	0.49288	-0.62659
2.252	49.442	-15278	2545.5	-0.61908	0.49386	-0.62708
2.254	49.439	-15274	2546.2	-0.61878	0.49483	-0.62757
2.256	49.438	-15270	2546.8	-0.61927	0.49415	-0.62776
2.258	49.424	-15270	2547.5	-0.61976	0.49347	-0.62796
2.26	49.442	-15271	2548.1	-0.62025	0.49278	-0.62815
2.262	49.45	-15269	2548.8	-0.62074	0.4921	-0.62835
2.264	49.465	-15267	2549.5	-0.62122	0.49142	-0.62854
2.266	49.478	-15265	2550.1	-0.62122	0.49122	-0.62815
2.268	49.458	-15263	2550.7	-0.62122	0.49103	-0.62776
2.27	49.445	-15264	2551.3	-0.62122	0.49083	-0.62737
2.272	49.414	-15266	2551.8	-0.62122	0.49064	-0.62698
2.274	49.4	-15264	2552.3	-0.62122	0.49044	-0.62659
2.276	49.419	-15262	2552.8	-0.62015	0.49064	-0.62601
2.278	49.419	-15262	2553.3	-0.61908	0.49083	-0.62542
2.28	49.413	-15262	2553.8	-0.618	0.49103	-0.62484
2.282	49.419	-15265	2554.2	-0.61693	0.49122	-0.62425
2.284	49.435	-15268	2554.6	-0.61586	0.49142	-0.62366
2.286	49.425	-15263	2554.9	-0.61595	0.49161	-0.62405
2.288	49.412	-15258	2555.2	-0.61605	0.49181	-0.62444
2.29	49.42	-15257	2555.5	-0.61615	0.492	-0.62484
2.292	49.421	-15256	2555.8	-0.61625	0.4922	-0.62523
2.294	49.413	-15253	2556.1	-0.61634	0.49239	-0.62562
2.296	49.416	-15250	2556.3	-0.61449	0.49171	-0.62435
2.298	49.427	-15253	2556.5	-0.61264	0.49103	-0.62308
2.3	49.426	-15256	2556.6	-0.61078	0.49034	-0.62181
2.302	49.437	-15254	2556.8	-0.60893	0.48966	-0.62054
2.304	49.44	-15253	2556.9	-0.60707	0.48898	-0.61927
2.306	49.418	-15250	2557.1	-0.60746	0.48829	-0.61937
2.308	49.408	-15246	2557.2	-0.60785	0.48761	-0.61947
2.31	49.424	-15247	2557.3	-0.60824	0.48693	-0.61956
2.312	49.438	-15248	2557.4	-0.60863	0.48624	-0.61966
2.314	49.441	-15247	2557.5	-0.60902	0.48556	-0.61976
2.316	49.453	-15246	2557.5	-0.60951	0.48673	-0.61947
2.318	49.466	-15240	2557.5	-0.61	0.4879	-0.61917
2.32	49.462	-15235	2557.5	-0.61049	0.48907	-0.61888
2.322	49.45	-15240	2557.4	-0.61098	0.49024	-0.61859
2.324	49.453	-15245	2557.3	-0.61146	0.49142	-0.6183
2.326	49.456	-15243	2557.2	-0.61146	0.49132	-0.61849
2.328	49.459	-15241	2557.1	-0.61146	0.49122	-0.61869
2.33	49.465	-15238	2557	-0.61146	0.49112	-0.61888
2.332	49.479	-15234	2556.8	-0.61146	0.49103	-0.61908
2.334	49.483	-15235	2556.7	-0.61146	0.49093	-0.61927
2.336	49.473	-15237	2556.5	-0.61078	0.49015	-0.61898
2.338	49.475	-15236	2556.3	-0.6101	0.48937	-0.61869
2.34	49.48	-15236	2556.1	-0.60941	0.48859	-0.61839
2.342	49.48	-15236	2555.9	-0.60873	0.4878	-0.6181
2.344	49.476	-15236	2555.7	-0.60805	0.48702	-0.61781
2.346	49.482	-15240	2555.4	-0.60834	0.4878	-0.61859
2.348	49.484	-15245	2555.2	-0.60863	0.48859	-0.61937
2.35	49.506	-15238	2554.9	-0.60893	0.48937	-0.62015
2.352	49.526	-15231	2554.5	-0.60922	0.49015	-0.62093
2.354	49.519	-15228	2554.2	-0.60951	0.49093	-0.62171
2.356	49.508	-15225	2553.8	-0.61029	0.49142	-0.62337
2.358	49.499	-15224	2553.5	-0.61107	0.4919	-0.62503
2.36	49.494	-15222	2553.2	-0.61185	0.49239	-0.62669
2.362	49.501	-15226	2552.9	-0.61264	0.49288	-0.62835
2.364	49.512	-15230	2552.6	-0.61342	0.49337	-0.63001
2.366	49.503	-15228	2552.3	-0.61332	0.49376	-0.6304
2.368	49.509	-15227	2552.1	-0.61322	0.49415	-0.63079
2.37	49.513	-15227	2551.8	-0.61312	0.49454	-0.63118
2.372	49.526	-15226	2551.5	-0.61303	0.49493	-0.63157
2.374	49.528	-15223	2551.2	-0.61293	0.49532	-0.63196
2.376	49.496	-15220	2550.8	-0.61293	0.49493	-0.63206
2.378	49.477	-15225	2550.5	-0.61293	0.49454	-0.63216
2.38	49.475	-15231	2550.1	-0.61293	0.49415	-0.63225
2.382	49.479	-15228	2549.7	-0.61293	0.49376	-0.63235
2.384	49.489	-15226	2549.4	-0.61293	0.49337	-0.63245
2.386	49.502	-15224	2548.9	-0.61293	0.49405	-0.63216
2.388	49.51	-15221	2548.4	-0.61293	0.49473	-0.63186
2.39	49.525	-15222	2548	-0.61293	0.49542	-0.63157
2.392	49.516	-15222	2547.6	-0.61293	0.4961	-0.63128
2.394	49.476	-15224	2547.2	-0.61293	0.49678	-0.63098
2.396	49.448	-15225	2546.8	-0.61342	0.49688	-0.6302
2.398	49.448	-15224	2546.4	-0.6139	0.49698	-0.62942
2.4	49.473	-15224	2546	-0.61439	0.49708	-0.62864
2.402	49.482	-15225	2545.6	-0.61488	0.49717	-0.62786
2.404	49.476	-15226	2545.2	-0.61537	0.49727	-0.62708
2.406	49.484	-15232	2544.7	-0.61537	0.49688	-0.62737
2.408	49.493	-15237	2544.3	-0.61537	0.49649	-0.62767
2.41	49.499	-15235	2543.9	-0.61537	0.4961	-0.62796
2.412	49.497	-15233	2543.6	-0.61537	0.49571	-0.62825
2.414	49.496	-15230	2543.2	-0.61537	0.49532	-0.62854
2.416	49.482	-15227	2542.9	-0.61547	0.49542	-0.62923
2.418	49.496	-15223	2542.6	-0.61556	0.49552	-0.62991
2.42	49.482	-15220	2542.3	-0.61566	0.49561	-0.63059
2.422	49.448	-15221	2542.1	-0.61576	0.49571	-0.63128
2.424	49.462	-15223	2541.8	-0.61586	0.49581	-0.63196
2.426	49.478	-15223	2541.6	-0.61732	0.49483	-0.63108
2.428	49.476	-15222	2541.3	-0.61878	0.49386	-0.6302
2.43	49.482	-15223	2541.1	-0.62025	0.49288	-0.62932
2.432	49.493	-15223	2540.9	-0.62171	0.4919	-0.62845
2.434	49.483	-15224	2540.6	-0.62318	0.49093	-0.62757
2.436	49.48	-15224	2540.4	-0.6222	0.49132	-0.62757
2.438	49.476	-15226	2540.1	-0.62122	0.49171	-0.62757
2.44	49.475	-15228	2539.9	-0.62025	0.4921	-0.62757
2.442	49.494	-15229	2539.6	-0.61927	0.49249	-0.62757
2.444	49.487	-15230	2539.3	-0.6183	0.49288	-0.62757
2.446	49.492	-15227	2539.1	-0.61703	0.49337	-0.62708
2.448	49.491	-15224	2538.9	-0.61576	0.49386	-0.62659
2.45	49.459	-15225	2538.7	-0.61449	0.49434	-0.6261
2.452	49.482	-15226	2538.6	-0.61322	0.49483	-0.62562
2.454	49.519	-15227	2538.4	-0.61195	0.49532	-0.62513
2.456	49.536	-15229	2538.4	-0.61264	0.49464	-0.62493
2.458	49.519	-15228	2538.3	-0.61332	0.49395	-0.62474
2.46	49.497	-15227	2538.2	-0.614	0.49327	-0.62454
2.462	49.489	-15227	2538.2	-0.61468	0.49259	-0.62435
2.464	49.45	-15227	2538.1	-0.61537	0.4919	-0.62415
2.466	49.412	-15228	2538	-0.61595	0.49229	-0.62454
2.468	49.404	-15228	2538	-0.61654	0.49268	-0.62493
2.47	49.424	-15227	2538	-0.61712	0.49308	-0.62532
2.472	49.442	-15225	2537.9	-0.61771	0.49347	-0.62571
2.474	49.435	-15229	2537.9	-0.6183	0.49386	-0.6261
2.476	49.43	-15233	2537.8	-0.61781	0.49308	-0.62552
2.478	49.443	-15231	2537.7	-0.61732	0.49229	-0.62493
2.48	49.454	-15229	2537.7	-0.61683	0.49151	-0.62435
2.482	49.438	-15232	2537.7	-0.61634	0.49073	-0.62376
2.484	49.409	-15236	2537.7	-0.61586	0.48995	-0.62318
2.486	49.394	-15238	2537.8	-0.61576	0.49122	-0.62503
2.488	49.375	-15239	2537.8	-0.61566	0.49249	-0.62688
2.49	49.367	-15237	2537.8	-0.61556	0.49376	-0.62874
2.492	49.372	-15234	2537.8	-0.61547	0.49503	-0.63059
2.494	49.381	-15233	2537.8	-0.61537	0.4963	-0.63245
2.496	49.391	-15231	2537.8	-0.61478	0.49532	-0.63186
2.498	49.406	-15232	2537.8	-0.6142	0.49434	-0.63128
2.5	49.424	-15232	2537.9	-0.61361	0.49337	-0.63069
2.502	49.419	-15236	2537.9	-0.61303	0.49239	-0.63011
2.504	49.418	-15240	2538	-0.61244	0.49142	-0.62952
2.506	49.437	-15240	2538	-0.61293	0.492	-0.63011
2.508	49.442	-15240	2538.1	-0.61342	0.49259	-0.63069
2.51	49.423	-15238	2538.2	-0.6139	0.49317	-0.63128
2.512	49.4	-15235	2538.2	-0.61439	0.49376	-0.63186
2.514	49.417	-15237	2538.3	-0.61488	0.49434	-0.63245
2.516	49.432	-15238	2538.4	-0.61595	0.49288	-0.63059
2.518	49.429	-15238	2538.4	-0.61703	0.49142	-0.62874
2.52	49.422	-15238	2538.4	-0.6181	0.48995	-0.62688
2.522	49.432	-15236	2538.4	-0.61917	0.48849	-0.62503
2.524	49.446	-15233	2538.4	-0.62025	0.48702	-0.62318
2.526	49.468	-15237	2538.4	-0.61898	0.48849	-0.62366
2.528	49.478	-15241	2538.4	-0.61771	0.48995	-0.62415
2.53	49.488	-15242	2538.4	-0.61644	0.49142	-0.62464
2.532	49.483	-15243	2538.4	-0.61517	0.49288	-0.62513
2.534	49.469	-15239	2538.3	-0.6139	0.49434	-0.62562
2.536	49.484	-15236	2538.3	-0.614	0.49337	-0.62503
2.538	49.512	-15232	2538.2	-0.6141	0.49239	-0.62444
2.54	49.531	-15229	2538.2	-0.6142	0.49142	-0.62386
2.542	49.511	-15229	2538.1	-0.61429	0.49044	-0.62327
2.544	49.512	-15230	2538.1	-0.61439	0.48946	-0.62269
2.546	49.54	-15232	2538	-0.61517	0.48995	-0.62327
2.548	49.529	-15233	2537.9	-0.61595	0.49044	-0.62386
2.55	49.514	-15233	2537.9	-0.61673	0.49093	-0.62444
2.552	49.515	-15233	2537.8	-0.61752	0.49142	-0.62503
2.554	49.509	-15233	2537.8	-0.6183	0.4919	-0.62562
2.556	49.504	-15234	2537.8	-0.61771	0.49161	-0.62669
2.558	49.512	-15233	2537.7	-0.61712	0.49132	-0.62776
2.56	49.522	-15233	2537.7	-0.61654	0.49103	-0.62884
2.562	49.525	-15238	2537.6	-0.61595	0.49073	-0.62991
2.564	49.521	-15242	2537.5	-0.61537	0.49044	-0.63098
2.566	49.515	-15244	2537.4	-0.61429	0.49005	-0.62932
2.568	49.522	-15246	2537.4	-0.61322	0.48966	-0.62767
2.57	49.54	-15247	2537.3	-0.61215	0.48927	-0.62601
2.572	49.541	-15247	2537.2	-0.61107	0.48888	-0.62435
2.574	49.536	-15243	2537.2	-0.61	0.48849	-0.62269
2.576	49.538	-15239	2537.1	-0.60922	0.48849	-0.62288
2.578	49.549	-15238	2537	-0.60844	0.48849	-0.62308
2.58	49.555	-15236	2536.9	-0.60766	0.48849	-0.62327
2.582	49.536	-15237	2536.9	-0.60688	0.48849	-0.62347
2.584	49.528	-15239	2536.8	-0.6061	0.48849	-0.62366
2.586	49.526	-15240	2536.7	-0.60649	0.48829	-0.62327
2.588	49.529	-15242	2536.6	-0.60688	0.4881	-0.62288
2.59	49.541	-15241	2536.6	-0.60727	0.4879	-0.62249
2.592	49.535	-15240	2536.5	-0.60766	0.48771	-0.6221
2.594	49.495	-15235	2536.5	-0.60805	0.48751	-0.62171
2.596	49.537	-15230	2536.3	-0.60824	0.4878	-0.6222
2.598	49.615	-15234	2536.2	-0.60844	0.4881	-0.62269
2.6	49.64	-15238	2536.1	-0.60863	0.48839	-0.62318
2.602	49.674	-15239	2536	-0.60883	0.48868	-0.62366
2.604	49.73	-15241	2535.9	-0.60902	0.48898	-0.62415
2.606	49.777	-15237	2535.8	-0.60961	0.48956	-0.62474
2.608	49.781	-15233	2535.7	-0.6102	0.49015	-0.62532
2.61	49.734	-15234	2535.6	-0.61078	0.49073	-0.62591
2.612	49.673	-15235	2535.6	-0.61137	0.49132	-0.62649
2.614	49.609	-15241	2535.5	-0.61195	0.4919	-0.62708
2.616	49.55	-15247	2535.5	-0.61303	0.49142	-0.6264
2.618	49.489	-15241	2535.5	-0.6141	0.49093	-0.62571
2.62	49.4	-15235	2535.5	-0.61517	0.49044	-0.62503
2.622	49.281	-15237	2535.5	-0.61625	0.48995	-0.62435
2.624	49.164	-15238	2535.4	-0.61732	0.48946	-0.62366
2.626	49.027	-15239	2535.4	-0.61742	0.48956	-0.62396
2.628	48.866	-15240	2535.4	-0.61752	0.48966	-0.62425
2.63	48.702	-15241	2535.4	-0.61761	0.48976	-0.62454
2.632	48.526	-15241	2535.3	-0.61771	0.48985	-0.62484
2.634	48.345	-15243	2535.3	-0.61781	0.48995	-0.62513
2.636	48.232	-15245	2535.3	-0.6181	0.49005	-0.62503
2.638	48.162	-15245	2535.3	-0.61839	0.49015	-0.62493
2.64	48.169	-15245	2535.2	-0.61869	0.49024	-0.62484
2.642	48.32	-15256	2535.2	-0.61898	0.49034	-0.62474
2.644	48.516	-15267	2535.2	-0.61927	0.49044	-0.62464
2.646	48.698	-15269	2535.2	-0.61898	0.49093	-0.62513
2.648	48.896	-15271	2535.1	-0.61869	0.49142	-0.62562
2.65	49.073	-15266	2535	-0.61839	0.4919	-0.6261
2.652	49.201	-15261	2534.9	-0.6181	0.49239	-0.62659
2.654	49.308	-15262	2534.8	-0.61781	0.49288	-0.62708
2.656	49.397	-15263	2534.7	-0.61712	0.49317	-0.62728
2.658	49.465	-15261	2534.6	-0.61644	0.49347	-0.62747
2.66	49.538	-15260	2534.5	-0.61576	0.49376	-0.62767
2.662	49.594	-15260	2534.4	-0.61508	0.49405	-0.62786
2.664	49.614	-15260	2534.3	-0.61439	0.49434	-0.62806
2.666	49.604	-15255	2534.2	-0.61488	0.49405	-0.62786
2.668	49.556	-15251	2534.2	-0.61537	0.49376	-0.62767
2.67	49.529	-15249	2534	-0.61586	0.49347	-0.62747
2.672	49.515	-15248	2533.9	-0.61634	0.49317	-0.62728
2.674	49.502	-15248	2533.7	-0.61683	0.49288	-0.62708
2.676	49.489	-15248	2533.6	-0.61664	0.49288	-0.62728
2.678	49.495	-15249	2533.5	-0.61644	0.49288	-0.62747
2.68	49.498	-15250	2533.4	-0.61625	0.49288	-0.62767
2.682	49.486	-15249	2533.3	-0.61605	0.49288	-0.62786
2.684	49.49	-15248	2533.1	-0.61586	0.49288	-0.62806
2.686	49.505	-15250	2532.9	-0.61478	0.49249	-0.62737
2.688	49.514	-15253	2532.8	-0.61371	0.4921	-0.62669
2.69	49.506	-15257	2532.6	-0.61264	0.49171	-0.62601
2.692	49.493	-15262	2532.4	-0.61156	0.49132	-0.62532
2.694	49.516	-15258	2532.3	-0.61049	0.49093	-0.62464
2.696	49.528	-15253	2532.1	-0.61166	0.49171	-0.62542
2.698	49.543	-15255	2532	-0.61283	0.49249	-0.6262
2.7	49.524	-15256	2531.8	-0.614	0.49327	-0.62698
2.702	49.51	-15257	2531.7	-0.61517	0.49405	-0.62776
2.704	49.523	-15258	2531.5	-0.61634	0.49483	-0.62854
2.706	49.526	-15258	2531.4	-0.61634	0.49366	-0.62786
2.708	49.51	-15258	2531.3	-0.61634	0.49249	-0.62718
2.71	49.492	-15264	2531.3	-0.61634	0.49132	-0.62649
2.712	49.496	-15270	2531.2	-0.61634	0.49015	-0.62581
2.714	49.501	-15261	2531.2	-0.61634	0.48898	-0.62513
2.716	49.505	-15252	2531	-0.61712	0.48985	-0.62649
2.718	49.5	-15251	2530.9	-0.61791	0.49073	-0.62786
2.72	49.495	-15249	2530.8	-0.61869	0.49161	-0.62923
2.722	49.505	-15251	2530.8	-0.61947	0.49249	-0.63059
2.724	49.51	-15254	2530.7	-0.62025	0.49337	-0.63196
2.726	49.504	-15257	2530.7	-0.61937	0.49366	-0.63167
2.728	49.498	-15260	2530.6	-0.61849	0.49395	-0.63137
2.73	49.499	-15259	2530.5	-0.61761	0.49425	-0.63108
2.732	49.493	-15259	2530.4	-0.61673	0.49454	-0.63079
2.734	49.488	-15258	2530.4	-0.61586	0.49483	-0.6305
2.736	49.493	-15258	2530.3	-0.6142	0.49434	-0.63137
2.738	49.491	-15263	2530.2	-0.61254	0.49386	-0.63225
2.74	49.488	-15269	2530.1	-0.61088	0.49337	-0.63313
2.742	49.492	-15272	2530.1	-0.60922	0.49288	-0.63401
2.744	49.483	-15275	2530	-0.60756	0.49239	-0.63489
2.746	49.472	-15271	2529.9	-0.60961	0.49181	-0.63381
2.748	49.468	-15267	2529.9	-0.61166	0.49122	-0.63274
2.75	49.475	-15261	2529.8	-0.61371	0.49064	-0.63167
2.752	49.487	-15255	2529.8	-0.61576	0.49005	-0.63059
2.754	49.495	-15256	2529.9	-0.61781	0.48946	-0.62952
2.756	49.486	-15258	2529.9	-0.61644	0.48878	-0.62786
2.758	49.471	-15264	2529.9	-0.61508	0.4881	-0.6262
2.76	49.471	-15271	2529.9	-0.61371	0.48741	-0.62454
2.762	49.464	-15269	2529.9	-0.61234	0.48673	-0.62288
2.764	49.446	-15268	2529.8	-0.61098	0.48605	-0.62122
2.766	49.44	-15265	2529.9	-0.61039	0.48683	-0.62142
2.768	49.447	-15262	2529.9	-0.6098	0.48761	-0.62161
2.77	49.462	-15261	2530	-0.60922	0.48839	-0.62181
2.772	49.461	-15260	2530	-0.60863	0.48917	-0.622
2.774	49.45	-15262	2530	-0.60805	0.48995	-0.6222
2.776	49.429	-15264	2530.1	-0.60883	0.49005	-0.6221
2.778	49.433	-15263	2530.1	-0.60961	0.49015	-0.622
2.78	49.44	-15262	2530.2	-0.61039	0.49024	-0.62191
2.782	49.429	-15264	2530.3	-0.61117	0.49034	-0.62181
2.784	49.425	-15265	2530.5	-0.61195	0.49044	-0.62171
2.786	49.435	-15267	2530.6	-0.61332	0.49024	-0.62249
2.788	49.426	-15269	2530.8	-0.61468	0.49005	-0.62327
2.79	49.419	-15265	2531	-0.61605	0.48985	-0.62405
2.792	49.438	-15261	2531.3	-0.61742	0.48966	-0.62484
2.794	49.445	-15258	2531.7	-0.61878	0.48946	-0.62562
2.796	49.429	-15254	2532.2	-0.61869	0.49034	-0.6264
2.798	49.421	-15252	2532.7	-0.61859	0.49122	-0.62718
2.8	49.423	-15249	2533.3	-0.61849	0.4921	-0.62796
2.802	49.423	-15256	2533.9	-0.61839	0.49298	-0.62874
2.804	49.431	-15262	2534.4	-0.6183	0.49386	-0.62952
2.806	49.437	-15264	2535.1	-0.61761	0.49317	-0.62854
2.808	49.414	-15266	2535.7	-0.61693	0.49249	-0.62757
2.81	49.397	-15265	2536.3	-0.61625	0.49181	-0.62659
2.812	49.406	-15263	2537	-0.61556	0.49112	-0.62562
2.814	49.432	-15265	2537.6	-0.61488	0.49044	-0.62464
2.816	49.44	-15268	2538.2	-0.61595	0.49034	-0.62493
2.818	49.412	-15261	2538.8	-0.61703	0.49024	-0.62523
2.82	49.401	-15255	2539.5	-0.6181	0.49015	-0.62552
2.822	49.421	-15258	2540.1	-0.61917	0.49005	-0.62581
2.824	49.429	-15261	2540.7	-0.62025	0.48995	-0.6261
2.826	49.426	-15261	2541.4	-0.61937	0.49073	-0.62659
2.828	49.431	-15260	2542	-0.61849	0.49151	-0.62708
2.83	49.441	-15263	2542.7	-0.61761	0.49229	-0.62757
2.832	49.45	-15266	2543.4	-0.61673	0.49308	-0.62806
2.834	49.448	-15261	2544.1	-0.61586	0.49386	-0.62854
2.836	49.445	-15256	2544.7	-0.61566	0.49386	-0.62903
2.838	49.432	-15254	2545.2	-0.61547	0.49386	-0.62952
2.84	49.434	-15251	2545.8	-0.61527	0.49386	-0.63001
2.842	49.456	-15255	2546.3	-0.61508	0.49386	-0.6305
2.844	49.46	-15258	2546.9	-0.61488	0.49386	-0.63098
2.846	49.466	-15259	2547.4	-0.6141	0.49386	-0.63167
2.848	49.466	-15259	2547.8	-0.61332	0.49386	-0.63235
2.85	49.44	-15260	2548.3	-0.61254	0.49386	-0.63303
2.852	49.438	-15260	2548.9	-0.61176	0.49386	-0.63372
2.854	49.45	-15255	2549.4	-0.61098	0.49386	-0.6344
2.856	49.435	-15250	2549.9	-0.61137	0.49395	-0.6344
2.858	49.418	-15251	2550.3	-0.61176	0.49405	-0.6344
2.86	49.409	-15253	2550.8	-0.61215	0.49415	-0.6344
2.862	49.41	-15255	2551.2	-0.61254	0.49425	-0.6344
2.864	49.404	-15257	2551.5	-0.61293	0.49434	-0.6344
2.866	49.396	-15252	2551.8	-0.61312	0.49415	-0.6343
2.868	49.403	-15246	2552.1	-0.61332	0.49395	-0.6342
2.87	49.428	-15247	2552.3	-0.61351	0.49376	-0.63411
2.872	49.441	-15248	2552.6	-0.61371	0.49356	-0.63401
2.874	49.437	-15245	2552.8	-0.6139	0.49337	-0.63391
2.876	49.431	-15242	2553.1	-0.61488	0.49249	-0.63264
2.878	49.422	-15239	2553.3	-0.61586	0.49161	-0.63137
2.88	49.427	-15236	2553.5	-0.61683	0.49073	-0.63011
2.882	49.432	-15237	2553.7	-0.61781	0.48985	-0.62884
2.884	49.425	-15238	2553.9	-0.61878	0.48898	-0.62757
2.886	49.418	-15240	2554	-0.61712	0.48898	-0.62698
2.888	49.434	-15242	2554.2	-0.61547	0.48898	-0.6264
2.89	49.451	-15242	2554.3	-0.61381	0.48898	-0.62581
2.892	49.454	-15241	2554.5	-0.61215	0.48898	-0.62523
2.894	49.455	-15242	2554.7	-0.61049	0.48898	-0.62464
2.896	49.457	-15242	2554.8	-0.61107	0.48888	-0.62386
2.898	49.452	-15241	2554.9	-0.61166	0.48878	-0.62308
2.9	49.449	-15239	2555	-0.61224	0.48868	-0.6223
2.902	49.447	-15237	2555.1	-0.61283	0.48859	-0.62152
2.904	49.451	-15236	2555.2	-0.61342	0.48849	-0.62074
2.906	49.459	-15235	2555.3	-0.61322	0.48741	-0.62171
2.908	49.463	-15234	2555.4	-0.61303	0.48634	-0.62269
2.91	49.473	-15226	2555.5	-0.61283	0.48527	-0.62366
2.912	49.484	-15218	2555.6	-0.61264	0.48419	-0.62464
2.914	49.486	-15231	2555.7	-0.61244	0.48312	-0.62562
2.916	49.492	-15244	2555.8	-0.61215	0.4838	-0.62425
2.918	49.495	-15238	2555.8	-0.61185	0.48449	-0.62288
2.92	49.493	-15232	2555.9	-0.61156	0.48517	-0.62152
2.922	49.505	-15230	2555.9	-0.61127	0.48585	-0.62015
2.924	49.519	-15229	2556	-0.61098	0.48654	-0.61878
2.926	49.496	-15227	2556	-0.61117	0.48732	-0.61956
2.928	49.469	-15225	2555.9	-0.61137	0.4881	-0.62035
2.93	49.478	-15224	2555.9	-0.61156	0.48888	-0.62113
2.932	49.485	-15222	2555.8	-0.61176	0.48966	-0.62191
2.934	49.506	-15224	2555.8	-0.61195	0.49044	-0.62269
2.936	49.505	-15226	2555.7	-0.61283	0.49034	-0.62318
2.938	49.508	-15223	2555.6	-0.61371	0.49024	-0.62366
2.94	49.526	-15220	2555.5	-0.61459	0.49015	-0.62415
2.942	49.526	-15222	2555.3	-0.61547	0.49005	-0.62464
2.944	49.52	-15224	2555.1	-0.61634	0.48995	-0.62513
2.946	49.5	-15223	2554.9	-0.61722	0.48976	-0.62581
2.948	49.501	-15222	2554.8	-0.6181	0.48956	-0.62649
2.95	49.502	-15218	2554.5	-0.61898	0.48937	-0.62718
2.952	49.527	-15214	2554.2	-0.61986	0.48917	-0.62786
2.954	49.533	-15215	2553.9	-0.62074	0.48898	-0.62854
2.956	49.544	-15215	2553.6	-0.62015	0.48917	-0.62845
2.958	49.55	-15218	2553.3	-0.61956	0.48937	-0.62835
2.96	49.523	-15221	2553	-0.61898	0.48956	-0.62825
2.962	49.52	-15222	2552.8	-0.61839	0.48976	-0.62815
2.964	49.52	-15223	2552.5	-0.61781	0.48995	-0.62806
2.966	49.526	-15223	2552.3	-0.61615	0.49044	-0.62893
2.968	49.518	-15222	2552.1	-0.61449	0.49093	-0.62981
2.97	49.483	-15223	2551.9	-0.61283	0.49142	-0.63069
2.972	49.467	-15223	2551.8	-0.61117	0.4919	-0.63157
2.974	49.478	-15222	2551.6	-0.60951	0.49239	-0.63245
2.976	49.48	-15221	2551.4	-0.60961	0.49288	-0.63216
2.978	49.488	-15220	2551.3	-0.60971	0.49337	-0.63186
2.98	49.511	-15219	2551.1	-0.6098	0.49386	-0.63157
2.982	49.5	-15219	2551	-0.6099	0.49434	-0.63128
2.984	49.478	-15220	2550.9	-0.61	0.49483	-0.63098
2.986	49.484	-15220	2550.9	-0.61039	0.49434	-0.63069
2.988	49.48	-15220	2550.8	-0.61078	0.49386	-0.6304
2.99	49.476	-15220	2550.8	-0.61117	0.49337	-0.63011
2.992	49.494	-15220	2550.8	-0.61156	0.49288	-0.62981
2.994	49.508	-15220	2550.7	-0.61195	0.49239	-0.62952
2.996	49.508	-15220	2550.8	-0.61303	0.49268	-0.62893
2.998	49.498	-15229	2550.8	-0.6141	0.49298	-0.62835
3	49.494	-15238	2550.8	-0.61517	0.49327	-0.62776
3.002	49.479	-15239	2550.8	-0.61625	0.49356	-0.62718
3.004	49.47	-15241	2550.8	-0.61732	0.49386	-0.62659
3.006	49.476	-15233	2550.8	-0.61693	0.49337	-0.62591
3.008	49.489	-15224	2550.8	-0.61654	0.49288	-0.62523
3.01	49.504	-15222	2550.8	-0.61615	0.49239	-0.62454
3.012	49.508	-15220	2550.8	-0.61576	0.4919	-0.62386
3.014	49.496	-15220	2550.8	-0.61537	0.49142	-0.62318
3.016	49.499	-15220	2550.7	-0.61556	0.492	-0.62347
3.018	49.505	-15223	2550.7	-0.61576	0.49259	-0.62376
3.02	49.507	-15225	2550.7	-0.61595	0.49317	-0.62405
3.022	49.499	-15222	2550.8	-0.61615	0.49376	-0.62435
3.024	49.48	-15220	2550.8	-0.61634	0.49434	-0.62464
3.026	49.492	-15220	2550.8	-0.61722	0.49366	-0.62513
3.028	49.505	-15221	2550.9	-0.6181	0.49298	-0.62562
3.03	49.501	-15231	2550.9	-0.61898	0.49229	-0.6261
3.032	49.492	-15241	2551	-0.61986	0.49161	-0.62659
3.034	49.494	-15239	2551.1	-0.62074	0.49093	-0.62708
3.036	49.436	-15236	2551.1	-0.62044	0.49064	-0.6264
3.038	49.442	-15230	2551.1	-0.62015	0.49034	-0.62571
3.04	49.481	-15225	2551.1	-0.61986	0.49005	-0.62503
3.042	49.458	-15229	2551.1	-0.61956	0.48976	-0.62435
3.044	49.449	-15232	2551.2	-0.61927	0.48946	-0.62366
3.046	49.463	-15229	2551.2	-0.61869	0.48976	-0.62279
3.048	49.457	-15226	2551.3	-0.6181	0.49005	-0.62191
3.05	49.466	-15222	2551.4	-0.61752	0.49034	-0.62103
3.052	49.488	-15217	2551.4	-0.61693	0.49064	-0.62015
3.054	49.491	-15225	2551.5	-0.61634	0.49093	-0.61927
3.056	49.492	-15234	2551.6	-0.61673	0.49151	-0.62103
3.058	49.473	-15234	2551.7	-0.61712	0.4921	-0.62279
3.06	49.445	-15235	2551.8	-0.61752	0.49268	-0.62454
3.062	49.426	-15234	2551.9	-0.61791	0.49327	-0.6263
3.064	49.405	-15233	2552	-0.6183	0.49386	-0.62806
3.066	49.393	-15231	2552.1	-0.6181	0.49337	-0.62747
3.068	49.392	-15229	2552.2	-0.61791	0.49288	-0.62688
3.07	49.398	-15229	2552.2	-0.61771	0.49239	-0.6263
3.072	49.411	-15228	2552.3	-0.61752	0.4919	-0.62571
3.074	49.426	-15229	2552.3	-0.61732	0.49142	-0.62513
3.076	49.44	-15231	2552.4	-0.61683	0.49073	-0.62493
3.078	49.437	-15236	2552.5	-0.61634	0.49005	-0.62474
3.08	49.417	-15241	2552.6	-0.61586	0.48937	-0.62454
3.082	49.421	-15244	2552.7	-0.61537	0.48868	-0.62435
3.084	49.444	-15247	2552.8	-0.61488	0.488	-0.62415
3.086	49.451	-15237	2553	-0.61332	0.4879	-0.62396
3.088	49.446	-15228	2553.1	-0.61176	0.4878	-0.62376
3.09	49.437	-15234	2553.2	-0.6102	0.48771	-0.62357
3.092	49.426	-15240	2553.4	-0.60863	0.48761	-0.62337
3.094	49.441	-15238	2553.5	-0.60707	0.48751	-0.62318
3.096	49.46	-15236	2553.6	-0.60932	0.4879	-0.62366
3.098	49.473	-15237	2553.7	-0.61156	0.48829	-0.62415
3.1	49.435	-15238	2553.8	-0.61381	0.48868	-0.62464
3.102	49.402	-15242	2553.9	-0.61605	0.48907	-0.62513
3.104	49.414	-15245	2554	-0.6183	0.48946	-0.62562
3.106	49.449	-15243	2554	-0.61752	0.48937	-0.62513
3.108	49.491	-15241	2554.1	-0.61673	0.48927	-0.62464
3.11	49.498	-15246	2554.2	-0.61595	0.48917	-0.62415
3.112	49.512	-15251	2554.2	-0.61517	0.48907	-0.62366
3.114	49.517	-15249	2554.3	-0.61439	0.48898	-0.62318
3.116	49.533	-15248	2554.4	-0.61615	0.48907	-0.62386
3.118	49.52	-15254	2554.5	-0.61791	0.48917	-0.62454
3.12	49.533	-15260	2554.6	-0.61966	0.48927	-0.62523
3.122	49.528	-15250	2554.7	-0.62142	0.48937	-0.62591
3.124	49.511	-15240	2554.8	-0.62318	0.48946	-0.62659
3.126	49.534	-15243	2554.9	-0.62044	0.48937	-0.62562
3.128	49.55	-15246	2555	-0.61771	0.48927	-0.62464
3.13	49.54	-15244	2555.1	-0.61498	0.48917	-0.62366
3.132	49.531	-15242	2555.2	-0.61224	0.48907	-0.62269
3.134	49.54	-15245	2555.2	-0.60951	0.48898	-0.62171
3.136	49.544	-15249	2555.3	-0.6101	0.49015	-0.62181
3.138	49.52	-15251	2555.3	-0.61068	0.49132	-0.62191
3.14	49.505	-15254	2555.3	-0.61127	0.49249	-0.622
3.142	49.52	-15249	2555.3	-0.61185	0.49366	-0.6221
3.144	49.553	-15244	2555.3	-0.61244	0.49483	-0.6222
3.146	49.558	-15245	2555.4	-0.61176	0.49347	-0.62191
3.148	49.544	-15247	2555.4	-0.61107	0.4921	-0.62161
3.15	49.539	-15247	2555.5	-0.61039	0.49073	-0.62132
3.152	49.539	-15247	2555.5	-0.60971	0.48937	-0.62103
3.154	49.544	-15245	2555.5	-0.60902	0.488	-0.62074
3.156	49.547	-15244	2555.5	-0.60912	0.48732	-0.62025
3.158	49.545	-15248	2555.5	-0.60922	0.48663	-0.61976
3.16	49.546	-15251	2555.5	-0.60932	0.48595	-0.61927
3.162	49.54	-15248	2555.5	-0.60941	0.48527	-0.61878
3.164	49.537	-15244	2555.5	-0.60951	0.48458	-0.6183
3.166	49.547	-15243	2555.5	-0.60922	0.48478	-0.61859
3.168	49.546	-15242	2555.5	-0.60893	0.48497	-0.61888
3.17	49.542	-15246	2555.5	-0.60863	0.48517	-0.61917
3.172	49.567	-15250	2555.5	-0.60834	0.48536	-0.61947
3.174	49.601	-15253	2555.6	-0.60805	0.48556	-0.61976
3.176	49.626	-15255	2555.6	-0.60824	0.48605	-0.61937
3.178	49.666	-15254	2555.6	-0.60844	0.48654	-0.61898
3.18	49.695	-15252	2555.5	-0.60863	0.48702	-0.61859
3.182	49.724	-15252	2555.5	-0.60883	0.48751	-0.6182
3.184	49.731	-15252	2555.5	-0.60902	0.488	-0.61781
3.186	49.756	-15251	2555.4	-0.60971	0.48849	-0.6183
3.188	49.754	-15251	2555.4	-0.61039	0.48898	-0.61878
3.19	49.722	-15245	2555.3	-0.61107	0.48946	-0.61927
3.192	49.681	-15239	2555.2	-0.61176	0.48995	-0.61976
3.194	49.616	-15244	2555.2	-0.61244	0.49044	-0.62025
3.196	49.497	-15249	2555.2	-0.61234	0.49142	-0.62191
3.198	49.389	-15254	2555.2	-0.61224	0.49239	-0.62357
3.2	49.29	-15259	2555.2	-0.61215	0.49337	-0.62523
3.202	49.173	-15255	2555.1	-0.61205	0.49434	-0.62688
3.204	49.035	-15250	2555.1	-0.61195	0.49532	-0.62854
3.206	48.84	-15248	2555.1	-0.61293	0.49415	-0.62698
3.208	48.697	-15245	2555.1	-0.6139	0.49298	-0.62542
3.21	48.55	-15251	2555	-0.61488	0.49181	-0.62386
3.212	48.398	-15258	2554.9	-0.61586	0.49064	-0.6223
3.214	48.267	-15256	2554.8	-0.61683	0.48946	-0.62074
3.216	48.219	-15254	2554.7	-0.61605	0.49015	-0.62093
3.218	48.254	-15257	2554.6	-0.61527	0.49083	-0.62113
3.22	48.373	-15261	2554.5	-0.61449	0.49151	-0.62132
3.222	48.561	-15259	2554.3	-0.61371	0.4922	-0.62152
3.224	48.765	-15256	2554.2	-0.61293	0.49288	-0.62171
3.226	48.943	-15258	2554.1	-0.61342	0.49327	-0.62279
3.228	49.115	-15260	2554	-0.6139	0.49366	-0.62386
3.23	49.26	-15262	2553.9	-0.61439	0.49405	-0.62493
3.232	49.363	-15265	2553.9	-0.61488	0.49444	-0.62601
3.234	49.409	-15256	2553.9	-0.61537	0.49483	-0.62708
3.236	49.446	-15247	2553.8	-0.61605	0.49444	-0.62688
3.238	49.522	-15254	2553.7	-0.61673	0.49405	-0.62669
3.24	49.588	-15261	2553.5	-0.61742	0.49366	-0.62649
3.242	49.616	-15260	2553.5	-0.6181	0.49327	-0.6263
3.244	49.618	-15259	2553.4	-0.61878	0.49288	-0.6261
3.246	49.597	-15256	2553.2	-0.61791	0.49317	-0.62562
3.248	49.57	-15253	2553	-0.61703	0.49347	-0.62513
3.25	49.551	-15258	2552.9	-0.61615	0.49376	-0.62464
3.252	49.534	-15264	2552.7	-0.61527	0.49405	-0.62415
3.254	49.513	-15259	2552.6	-0.61439	0.49434	-0.62366
3.256	49.506	-15255	2552.5	-0.61488	0.49366	-0.62337
3.258	49.51	-15258	2552.3	-0.61537	0.49298	-0.62308
3.26	49.512	-15261	2552.2	-0.61586	0.49229	-0.62279
3.262	49.521	-15260	2552	-0.61634	0.49161	-0.62249
3.264	49.52	-15259	2551.8	-0.61683	0.49093	-0.6222
3.266	49.529	-15259	2551.6	-0.61547	0.49064	-0.62161
3.268	49.53	-15259	2551.4	-0.6141	0.49034	-0.62103
3.27	49.519	-15260	2551.2	-0.61273	0.49005	-0.62044
3.272	49.498	-15261	2551	-0.61137	0.48976	-0.61986
3.274	49.535	-15267	2550.8	-0.61	0.48946	-0.61927
3.276	49.546	-15273	2550.6	-0.6101	0.48907	-0.61937
3.278	49.517	-15278	2550.5	-0.6102	0.48868	-0.61947
3.28	49.515	-15284	2550.4	-0.61029	0.48829	-0.61956
3.282	49.528	-15284	2550.3	-0.61039	0.4879	-0.61966
3.284	49.562	-15284	2550.2	-0.61049	0.48751	-0.61976
3.286	49.564	-15284	2550.1	-0.61068	0.48839	-0.62044
3.288	49.552	-15283	2550	-0.61088	0.48927	-0.62113
3.29	49.545	-15281	2550	-0.61107	0.49015	-0.62181
3.292	49.524	-15280	2550	-0.61127	0.49103	-0.62249
3.294	49.505	-15272	2550	-0.61146	0.4919	-0.62318
3.296	49.497	-15265	2549.9	-0.61293	0.492	-0.62357
3.298	49.496	-15269	2549.8	-0.61439	0.4921	-0.62396
3.3	49.514	-15273	2549.7	-0.61586	0.4922	-0.62435
3.302	49.524	-15273	2549.6	-0.61732	0.49229	-0.62474
3.304	49.523	-15272	2549.5	-0.61878	0.49239	-0.62513
3.306	49.52	-15272	2549.4	-0.61849	0.49171	-0.62454
3.308	49.505	-15273	2549.4	-0.6182	0.49103	-0.62396
3.31	49.498	-15272	2549.3	-0.61791	0.49034	-0.62337
3.312	49.504	-15271	2549.2	-0.61761	0.48966	-0.62279
3.314	49.52	-15276	2549.1	-0.61732	0.48898	-0.6222
3.316	49.521	-15281	2549	-0.61722	0.48966	-0.62269
3.318	49.515	-15282	2548.9	-0.61712	0.49034	-0.62318
3.32	49.515	-15284	2548.9	-0.61703	0.49103	-0.62366
3.322	49.506	-15280	2548.9	-0.61693	0.49171	-0.62415
3.324	49.479	-15276	2548.9	-0.61683	0.49239	-0.62464
3.326	49.468	-15273	2548.9	-0.61605	0.492	-0.62396
3.328	49.47	-15271	2549	-0.61527	0.49161	-0.62327
3.33	49.465	-15273	2549	-0.61449	0.49122	-0.62259
3.332	49.47	-15275	2549.1	-0.61371	0.49083	-0.62191
3.334	49.477	-15274	2549.2	-0.61293	0.49044	-0.62122
3.336	49.479	-15273	2549.2	-0.61361	0.49073	-0.62181
3.338	49.485	-15274	2549.3	-0.61429	0.49103	-0.6224
3.34	49.483	-15276	2549.4	-0.61498	0.49132	-0.62298
3.342	49.489	-15277	2549.4	-0.61566	0.49161	-0.62357
3.344	49.482	-15278	2549.5	-0.61634	0.4919	-0.62415
3.346	49.455	-15277	2549.6	-0.61537	0.49239	-0.62415
3.348	49.455	-15277	2549.6	-0.61439	0.49288	-0.62415
3.35	49.468	-15274	2549.7	-0.61342	0.49337	-0.62415
3.352	49.477	-15272	2549.7	-0.61244	0.49386	-0.62415
3.354	49.472	-15272	2549.7	-0.61146	0.49434	-0.62415
3.356	49.456	-15273	2549.8	-0.61117	0.49405	-0.62386
3.358	49.452	-15283	2549.9	-0.61088	0.49376	-0.62357
3.36	49.466	-15292	2550	-0.61059	0.49347	-0.62327
3.362	49.474	-15288	2550.1	-0.61029	0.49317	-0.62298
3.364	49.453	-15284	2550.1	-0.61	0.49288	-0.62269
3.366	49.418	-15283	2550.4	-0.6098	0.49239	-0.62161
3.368	49.424	-15282	2550.6	-0.60961	0.4919	-0.62054
3.37	49.441	-15287	2550.9	-0.60941	0.49142	-0.61947
3.372	49.41	-15292	2551.2	-0.60922	0.49093	-0.61839
3.374	49.419	-15290	2551.5	-0.60902	0.49044	-0.61732
3.376	49.433	-15289	2552	-0.60961	0.49034	-0.61761
3.378	49.423	-15287	2552.5	-0.6102	0.49024	-0.61791
3.38	49.429	-15286	2553	-0.61078	0.49015	-0.6182
3.382	49.429	-15289	2553.6	-0.61137	0.49005	-0.61849
3.384	49.404	-15291	2554.2	-0.61195	0.48995	-0.61878
3.386	49.415	-15286	2554.8	-0.61234	0.49073	-0.61966
3.388	49.457	-15280	2555.5	-0.61273	0.49151	-0.62054
3.39	49.458	-15278	2556.1	-0.61312	0.49229	-0.62142
3.392	49.423	-15275	2556.8	-0.61351	0.49308	-0.6223
3.394	49.422	-15278	2557.5	-0.6139	0.49386	-0.62318
3.396	49.436	-15280	2558.2	-0.61498	0.49356	-0.62288
3.398	49.448	-15282	2558.9	-0.61605	0.49327	-0.62259
3.4	49.45	-15284	2559.6	-0.61712	0.49298	-0.6223
3.402	49.452	-15288	2560.4	-0.6182	0.49268	-0.622
3.404	49.463	-15293	2561.1	-0.61927	0.49239	-0.62171
3.406	49.452	-15283	2561.9	-0.61996	0.4922	-0.62249
3.408	49.418	-15274	2562.6	-0.62064	0.492	-0.62327
3.41	49.413	-15279	2563.4	-0.62132	0.49181	-0.62405
3.412	49.441	-15284	2564.1	-0.622	0.49161	-0.62484
3.414	49.457	-15286	2564.9	-0.62269	0.49142	-0.62562
3.416	49.454	-15287	2565.6	-0.6222	0.49151	-0.62542
3.418	49.45	-15285	2566.4	-0.62171	0.49161	-0.62523
3.42	49.442	-15284	2567.1	-0.62122	0.49171	-0.62503
3.422	49.434	-15284	2567.7	-0.62074	0.49181	-0.62484
3.424	49.44	-15284	2568.3	-0.62025	0.4919	-0.62464
3.426	49.444	-15282	2568.9	-0.62083	0.49142	-0.62454
3.428	49.437	-15280	2569.5	-0.62142	0.49093	-0.62444
3.43	49.428	-15278	2570.1	-0.622	0.49044	-0.62435
3.432	49.43	-15276	2570.5	-0.62259	0.48995	-0.62425
3.434	49.444	-15275	2571	-0.62318	0.48946	-0.62415
3.436	49.447	-15274	2571.5	-0.6224	0.48976	-0.62415
3.438	49.429	-15275	2571.9	-0.62161	0.49005	-0.62415
3.44	49.423	-15276	2572.3	-0.62083	0.49034	-0.62415
3.442	49.422	-15275	2572.7	-0.62005	0.49064	-0.62415
3.444	49.401	-15273	2573.1	-0.61927	0.49093	-0.62415
3.446	49.39	-15270	2573.3	-0.61839	0.4922	-0.62415
3.448	49.395	-15268	2573.6	-0.61752	0.49347	-0.62415
3.45	49.4	-15272	2573.8	-0.61664	0.49473	-0.62415
3.452	49.412	-15276	2574	-0.61576	0.496	-0.62415
3.454	49.431	-15274	2574.1	-0.61488	0.49727	-0.62415
3.456	49.433	-15272	2574.3	-0.61556	0.49571	-0.62484
3.458	49.443	-15269	2574.4	-0.61625	0.49415	-0.62552
3.46	49.455	-15267	2574.5	-0.61693	0.49259	-0.6262
3.462	49.45	-15269	2574.7	-0.61761	0.49103	-0.62688
3.464	49.46	-15271	2574.9	-0.6183	0.48946	-0.62757
3.466	49.441	-15271	2575.1	-0.61742	0.49073	-0.62728
3.468	49.455	-15272	2575.2	-0.61654	0.492	-0.62698
3.47	49.476	-15271	2575.4	-0.61566	0.49327	-0.62669
3.472	49.467	-15271	2575.5	-0.61478	0.49454	-0.6264
3.474	49.454	-15270	2575.7	-0.6139	0.49581	-0.6261
3.476	49.46	-15268	2575.8	-0.61449	0.49454	-0.62493
3.478	49.469	-15267	2575.9	-0.61508	0.49327	-0.62376
3.48	49.47	-15265	2576	-0.61566	0.492	-0.62259
3.482	49.459	-15257	2576.1	-0.61625	0.49073	-0.62142
3.484	49.47	-15250	2576.2	-0.61683	0.48946	-0.62025
3.486	49.51	-15251	2576.3	-0.61576	0.49112	-0.62083
3.488	49.524	-15253	2576.3	-0.61468	0.49278	-0.62142
3.49	49.5	-15253	2576.4	-0.61361	0.49444	-0.622
3.492	49.48	-15253	2576.4	-0.61254	0.4961	-0.62259
3.494	49.488	-15252	2576.5	-0.61146	0.49776	-0.62318
3.496	49.508	-15251	2576.4	-0.61176	0.49766	-0.62279
3.498	49.513	-15249	2576.4	-0.61205	0.49756	-0.6224
3.5	49.501	-15247	2576.3	-0.61234	0.49747	-0.622
3.502	49.498	-15244	2576.2	-0.61264	0.49737	-0.62161
3.504	49.511	-15242	2576.2	-0.61293	0.49727	-0.62122
3.506	49.519	-15243	2576	-0.61332	0.49698	-0.6224
3.508	49.512	-15244	2575.9	-0.61371	0.49669	-0.62357
3.51	49.498	-15249	2575.7	-0.6141	0.49639	-0.62474
3.512	49.49	-15253	2575.4	-0.61449	0.4961	-0.62591
3.514	49.496	-15252	2575.2	-0.61488	0.49581	-0.62708
3.516	49.514	-15250	2575	-0.61449	0.4962	-0.62581
3.518	49.52	-15249	2574.8	-0.6141	0.49659	-0.62454
3.52	49.511	-15248	2574.5	-0.61371	0.49698	-0.62327
3.522	49.507	-15247	2574.3	-0.61332	0.49737	-0.622
3.524	49.525	-15247	2574	-0.61293	0.49776	-0.62074
3.526	49.517	-15245	2573.8	-0.61273	0.49669	-0.62181
3.528	49.497	-15242	2573.5	-0.61254	0.49561	-0.62288
3.53	49.52	-15242	2573.3	-0.61234	0.49454	-0.62396
3.532	49.535	-15242	2573	-0.61215	0.49347	-0.62503
3.534	49.557	-15243	2572.8	-0.61195	0.49239	-0.6261
3.536	49.528	-15244	2572.6	-0.61176	0.49317	-0.62532
3.538	49.513	-15245	2572.4	-0.61156	0.49395	-0.62454
3.54	49.508	-15245	2572.1	-0.61137	0.49473	-0.62376
3.542	49.478	-15246	2571.9	-0.61117	0.49552	-0.62298
3.544	49.464	-15248	2571.7	-0.61098	0.4963	-0.6222
3.546	49.473	-15247	2571.5	-0.61088	0.4961	-0.62269
3.548	49.503	-15247	2571.2	-0.61078	0.49591	-0.62318
3.55	49.505	-15250	2571	-0.61068	0.49571	-0.62366
3.552	49.5	-15254	2570.8	-0.61059	0.49552	-0.62415
3.554	49.505	-15250	2570.5	-0.61049	0.49532	-0.62464
3.556	49.488	-15246	2570.3	-0.61078	0.49581	-0.62444
3.558	49.482	-15245	2570	-0.61107	0.4963	-0.62425
3.56	49.482	-15245	2569.8	-0.61137	0.49678	-0.62405
3.562	49.483	-15248	2569.5	-0.61166	0.49727	-0.62386
3.564	49.514	-15252	2569.2	-0.61195	0.49776	-0.62366
3.566	49.522	-15250	2568.9	-0.61273	0.49737	-0.62396
3.568	49.498	-15249	2568.7	-0.61351	0.49698	-0.62425
3.57	49.482	-15247	2568.4	-0.61429	0.49659	-0.62454
3.572	49.503	-15246	2568.2	-0.61508	0.4962	-0.62484
3.574	49.519	-15248	2567.9	-0.61586	0.49581	-0.62513
3.576	49.499	-15251	2567.7	-0.61459	0.49571	-0.62454
3.578	49.491	-15250	2567.4	-0.61332	0.49561	-0.62396
3.58	49.509	-15248	2567.2	-0.61205	0.49552	-0.62337
3.582	49.52	-15246	2567.1	-0.61078	0.49542	-0.62279
3.584	49.516	-15243	2567	-0.60951	0.49532	-0.6222
3.586	49.492	-15241	2566.9	-0.60961	0.49503	-0.6221
3.588	49.464	-15239	2566.8	-0.60971	0.49473	-0.622
3.59	49.457	-15240	2566.8	-0.6098	0.49444	-0.62191
3.592	49.479	-15241	2566.8	-0.6099	0.49415	-0.62181
3.594	49.508	-15242	2566.9	-0.61	0.49386	-0.62171
3.596	49.499	-15243	2566.9	-0.61146	0.49376	-0.62161
3.598	49.476	-15246	2567	-0.61293	0.49366	-0.62152
3.6	49.475	-15248	2567	-0.61439	0.49356	-0.62142
3.602	49.484	-15250	2567.1	-0.61586	0.49347	-0.62132
3.604	49.483	-15252	2567.1	-0.61732	0.49337	-0.62122
3.606	49.486	-15248	2567.3	-0.61644	0.49454	-0.62103
3.608	49.493	-15244	2567.4	-0.61556	0.49571	-0.62083
3.61	49.506	-15246	2567.6	-0.61468	0.49688	-0.62064
3.612	49.497	-15248	2567.7	-0.61381	0.49805	-0.62044
3.614	49.491	-15247	2567.9	-0.61293	0.49922	-0.62025
3.616	49.514	-15246	2568.2	-0.61264	0.49854	-0.62074
3.618	49.526	-15252	2568.5	-0.61234	0.49786	-0.62122
3.62	49.503	-15259	2568.8	-0.61205	0.49717	-0.62171
3.622	49.471	-15258	2569.1	-0.61176	0.49649	-0.6222
3.624	49.452	-15257	2569.4	-0.61146	0.49581	-0.62269
3.626	49.468	-15252	2569.5	-0.6139	0.49542	-0.62279
3.628	49.461	-15248	2569.7	-0.61634	0.49503	-0.62288
3.63	49.452	-15251	2569.8	-0.61878	0.49464	-0.62298
3.632	49.458	-15255	2570	-0.62122	0.49425	-0.62308
3.634	49.44	-15259	2570.1	-0.62366	0.49386	-0.62318
3.636	49.436	-15262	2570.2	-0.62337	0.49268	-0.62318
3.638	49.422	-15262	2570.3	-0.62308	0.49151	-0.62318
3.64	49.403	-15261	2570.4	-0.62279	0.49034	-0.62318
3.642	49.386	-15262	2570.4	-0.62249	0.48917	-0.62318
3.644	49.39	-15263	2570.4	-0.6222	0.488	-0.62318
3.646	49.384	-15257	2570.5	-0.62152	0.48878	-0.62357
3.648	49.382	-15251	2570.6	-0.62083	0.48956	-0.62396
3.65	49.403	-15256	2570.7	-0.62015	0.49034	-0.62435
3.652	49.43	-15261	2570.8	-0.61947	0.49112	-0.62474
3.654	49.462	-15261	2570.9	-0.61878	0.4919	-0.62513
3.656	49.484	-15260	2571.1	-0.61732	0.492	-0.62484
3.658	49.451	-15259	2571.4	-0.61586	0.4921	-0.62454
3.66	49.433	-15257	2571.6	-0.61439	0.4922	-0.62425
3.662	49.439	-15257	2571.8	-0.61293	0.49229	-0.62396
3.664	49.455	-15258	2572	-0.61146	0.49239	-0.62366
3.666	49.464	-15256	2572.2	-0.61312	0.492	-0.62376
3.668	49.454	-15253	2572.4	-0.61478	0.49161	-0.62386
3.67	49.448	-15260	2572.6	-0.61644	0.49122	-0.62396
3.672	49.453	-15266	2572.7	-0.6181	0.49083	-0.62405
3.674	49.453	-15266	2572.9	-0.61976	0.49044	-0.62415
3.676	49.452	-15267	2573	-0.61917	0.49064	-0.62435
3.678	49.455	-15266	2573.1	-0.61859	0.49083	-0.62454
3.68	49.463	-15266	2573.1	-0.618	0.49103	-0.62474
3.682	49.483	-15262	2573.2	-0.61742	0.49122	-0.62493
3.684	49.517	-15258	2573.2	-0.61683	0.49142	-0.62513
3.686	49.538	-15262	2573.3	-0.61634	0.49161	-0.62444
3.688	49.522	-15265	2573.4	-0.61586	0.49181	-0.62376
3.69	49.501	-15261	2573.4	-0.61537	0.492	-0.62308
3.692	49.508	-15257	2573.5	-0.61488	0.4922	-0.6224
3.694	49.52	-15268	2573.6	-0.61439	0.49239	-0.62171
3.696	49.538	-15280	2573.7	-0.61429	0.49288	-0.62142
3.698	49.558	-15273	2573.8	-0.6142	0.49337	-0.62113
3.7	49.589	-15266	2573.9	-0.6141	0.49386	-0.62083
3.702	49.584	-15264	2574	-0.614	0.49434	-0.62054
3.704	49.552	-15262	2574	-0.6139	0.49483	-0.62025
3.706	49.543	-15261	2574.1	-0.61439	0.49395	-0.62044
3.708	49.527	-15260	2574.1	-0.61488	0.49308	-0.62064
3.71	49.502	-15269	2574.1	-0.61537	0.4922	-0.62083
3.712	49.518	-15277	2574.1	-0.61586	0.49132	-0.62103
3.714	49.533	-15272	2574.1	-0.61634	0.49044	-0.62122
3.716	49.532	-15266	2574.1	-0.61478	0.49044	-0.62074
3.718	49.547	-15266	2574.1	-0.61322	0.49044	-0.62025
3.72	49.56	-15267	2574.1	-0.61166	0.49044	-0.61976
3.722	49.556	-15267	2574.1	-0.6101	0.49044	-0.61927
3.724	49.542	-15266	2574.1	-0.60854	0.49044	-0.61878
3.726	49.535	-15263	2574	-0.6098	0.49083	-0.61878
3.728	49.54	-15259	2574	-0.61107	0.49122	-0.61878
3.73	49.554	-15262	2573.9	-0.61234	0.49161	-0.61878
3.732	49.571	-15265	2573.9	-0.61361	0.492	-0.61878
3.734	49.584	-15270	2573.9	-0.61488	0.49239	-0.61878
3.736	49.598	-15274	2573.9	-0.61527	0.49337	-0.62005
3.738	49.597	-15271	2573.8	-0.61566	0.49434	-0.62132
3.74	49.596	-15267	2573.8	-0.61605	0.49532	-0.62259
3.742	49.591	-15269	2573.8	-0.61644	0.4963	-0.62386
3.744	49.563	-15272	2573.9	-0.61683	0.49727	-0.62513
3.746	49.551	-15272	2573.9	-0.61742	0.49591	-0.62464
3.748	49.546	-15272	2574	-0.618	0.49454	-0.62415
3.75	49.554	-15275	2574.1	-0.61859	0.49317	-0.62366
3.752	49.584	-15279	2574.2	-0.61917	0.49181	-0.62318
3.754	49.628	-15276	2574.3	-0.61976	0.49044	-0.62269
3.756	49.68	-15273	2574.3	-0.6183	0.49122	-0.62288
3.758	49.714	-15270	2574.3	-0.61683	0.492	-0.62308
3.76	49.712	-15266	2574.4	-0.61537	0.49278	-0.62327
3.762	49.691	-15270	2574.4	-0.6139	0.49356	-0.62347
3.764	49.662	-15274	2574.4	-0.61244	0.49434	-0.62366
3.766	49.626	-15271	2574.3	-0.61195	0.49327	-0.62269
3.768	49.58	-15269	2574.3	-0.61146	0.4922	-0.62171
3.77	49.522	-15274	2574.3	-0.61098	0.49112	-0.62074
3.772	49.446	-15279	2574.4	-0.61049	0.49005	-0.61976
3.774	49.334	-15275	2574.4	-0.61	0.48898	-0.61878
3.776	49.219	-15272	2574.3	-0.61146	0.49015	-0.61976
3.778	49.099	-15276	2574.3	-0.61293	0.49132	-0.62074
3.78	48.945	-15280	2574.2	-0.61439	0.49249	-0.62171
3.782	48.801	-15278	2574.1	-0.61586	0.49366	-0.62269
3.784	48.658	-15276	2574	-0.61732	0.49483	-0.62366
3.786	48.501	-15275	2573.9	-0.61673	0.49444	-0.62376
3.788	48.354	-15275	2573.8	-0.61615	0.49405	-0.62386
3.79	48.259	-15270	2573.7	-0.61556	0.49366	-0.62396
3.792	48.244	-15265	2573.6	-0.61498	0.49327	-0.62405
3.794	48.354	-15271	2573.5	-0.61439	0.49288	-0.62415
3.796	48.532	-15278	2573.4	-0.614	0.49347	-0.62396
3.798	48.705	-15278	2573.4	-0.61361	0.49405	-0.62376
3.8	48.885	-15279	2573.3	-0.61322	0.49464	-0.62357
3.802	49.082	-15277	2573.1	-0.61283	0.49522	-0.62337
3.804	49.266	-15275	2573	-0.61244	0.49581	-0.62318
3.806	49.366	-15272	2573	-0.61351	0.49483	-0.62318
3.808	49.428	-15269	2572.9	-0.61459	0.49386	-0.62318
3.81	49.454	-15272	2572.8	-0.61566	0.49288	-0.62318
3.812	49.499	-15276	2572.8	-0.61673	0.4919	-0.62318
3.814	49.556	-15282	2572.7	-0.61781	0.49093	-0.62318
3.816	49.603	-15288	2572.6	-0.61752	0.4922	-0.62279
3.818	49.605	-15289	2572.5	-0.61722	0.49347	-0.6224
3.82	49.583	-15290	2572.4	-0.61693	0.49473	-0.622
3.822	49.572	-15288	2572.4	-0.61664	0.496	-0.62161
3.824	49.559	-15286	2572.4	-0.61634	0.49727	-0.62122
3.826	49.536	-15285	2572.3	-0.61586	0.49747	-0.62142
3.828	49.518	-15285	2572.2	-0.61537	0.49766	-0.62161
3.83	49.508	-15284	2572.2	-0.61488	0.49786	-0.62181
3.832	49.51	-15282	2572.1	-0.61439	0.49805	-0.622
3.834	49.517	-15284	2572.1	-0.6139	0.49825	-0.6222
3.836	49.519	-15285	2572.1	-0.6139	0.49786	-0.62269
3.838	49.531	-15284	2572.1	-0.6139	0.49747	-0.62318
3.84	49.541	-15283	2572.1	-0.6139	0.49708	-0.62366
3.842	49.541	-15286	2572.2	-0.6139	0.49669	-0.62415
3.844	49.551	-15288	2572.3	-0.6139	0.4963	-0.62464
3.846	49.56	-15287	2572.3	-0.61429	0.49581	-0.62425
3.848	49.563	-15286	2572.3	-0.61468	0.49532	-0.62386
3.85	49.557	-15286	2572.2	-0.61508	0.49483	-0.62347
3.852	49.541	-15287	2572.2	-0.61547	0.49434	-0.62308
3.854	49.537	-15290	2572.2	-0.61586	0.49386	-0.62269
3.856	49.529	-15294	2572.2	-0.61537	0.49464	-0.6224
3.858	49.522	-15289	2572.2	-0.61488	0.49542	-0.6221
3.86	49.531	-15283	2572.1	-0.61439	0.4962	-0.62181
3.862	49.542	-15285	2572.1	-0.6139	0.49698	-0.62152
3.864	49.54	-15286	2572	-0.61342	0.49776	-0.62122
3.866	49.512	-15289	2572	-0.61273	0.49649	-0.62132
3.868	49.504	-15293	2571.9	-0.61205	0.49522	-0.62142
3.87	49.521	-15290	2571.8	-0.61137	0.49395	-0.62152
3.872	49.524	-15287	2571.7	-0.61068	0.49268	-0.62161
3.874	49.532	-15285	2571.6	-0.61	0.49142	-0.62171
3.876	49.55	-15284	2571.5	-0.61049	0.49268	-0.62191
3.878	49.573	-15283	2571.4	-0.61098	0.49395	-0.6221
3.88	49.572	-15283	2571.3	-0.61146	0.49522	-0.6223
3.882	49.526	-15287	2571.2	-0.61195	0.49649	-0.62249
3.884	49.523	-15290	2571.1	-0.61244	0.49776	-0.62269
3.886	49.521	-15292	2571	-0.61224	0.49766	-0.62298
3.888	49.512	-15293	2571	-0.61205	0.49756	-0.62327
3.89	49.517	-15292	2570.9	-0.61185	0.49747	-0.62357
3.892	49.486	-15291	2570.8	-0.61166	0.49737	-0.62386
3.894	49.485	-15290	2570.8	-0.61146	0.49727	-0.62415
3.896	49.503	-15289	2570.7	-0.61185	0.49717	-0.62405
3.898	49.505	-15297	2570.7	-0.61224	0.49708	-0.62396
3.9	49.496	-15304	2570.7	-0.61264	0.49698	-0.62386
3.902	49.486	-15310	2570.6	-0.61303	0.49688	-0.62376
3.904	49.49	-15317	2570.6	-0.61342	0.49678	-0.62366
3.906	49.52	-15317	2570.5	-0.61322	0.49649	-0.62337
3.908	49.531	-15317	2570.5	-0.61303	0.4962	-0.62308
3.91	49.515	-15317	2570.4	-0.61283	0.49591	-0.62279
3.912	49.501	-15317	2570.4	-0.61264	0.49561	-0.62249
3.914	49.485	-15316	2570.4	-0.61244	0.49532	-0.6222
3.916	49.468	-15316	2570.4	-0.61254	0.49542	-0.6222
3.918	49.468	-15307	2570.3	-0.61264	0.49552	-0.6222
3.92	49.462	-15298	2570.2	-0.61273	0.49561	-0.6222
3.922	49.466	-15297	2570.1	-0.61283	0.49571	-0.6222
3.924	49.484	-15296	2570.1	-0.61293	0.49581	-0.6222
3.926	49.487	-15295	2570	-0.61264	0.496	-0.6223
3.928	49.478	-15295	2569.9	-0.61234	0.4962	-0.6224
3.93	49.472	-15292	2569.9	-0.61205	0.49639	-0.62249
3.932	49.471	-15290	2569.9	-0.61176	0.49659	-0.62259
3.934	49.463	-15293	2569.9	-0.61146	0.49678	-0.62269
3.936	49.452	-15297	2569.9	-0.61215	0.49688	-0.6224
3.938	49.464	-15303	2570	-0.61283	0.49698	-0.6221
3.94	49.476	-15309	2570.1	-0.61351	0.49708	-0.62181
3.942	49.472	-15309	2570.3	-0.6142	0.49717	-0.62152
3.944	49.441	-15310	2570.5	-0.61488	0.49727	-0.62122
3.946	49.426	-15310	2570.8	-0.61488	0.49747	-0.62132
3.948	49.454	-15309	2571.2	-0.61488	0.49766	-0.62142
3.95	49.475	-15308	2571.6	-0.61488	0.49786	-0.62152
3.952	49.455	-15308	2572.1	-0.61488	0.49805	-0.62161
3.954	49.449	-15304	2572.5	-0.61488	0.49825	-0.62171
3.956	49.456	-15299	2573.2	-0.61459	0.49747	-0.62181
3.958	49.472	-15298	2573.8	-0.61429	0.49669	-0.62191
3.96	49.488	-15297	2574.5	-0.614	0.49591	-0.622
3.962	49.462	-15297	2575.3	-0.61371	0.49512	-0.6221
3.964	49.442	-15297	2576	-0.61342	0.49434	-0.6222
3.966	49.423	-15299	2576.8	-0.61498	0.49386	-0.6223
3.968	49.413	-15301	2577.5	-0.61654	0.49337	-0.6224
3.97	49.432	-15300	2578.3	-0.6181	0.49288	-0.62249
3.972	49.443	-15300	2579	-0.61966	0.49239	-0.62259
3.974	49.443	-15301	2579.8	-0.62122	0.4919	-0.62269
3.976	49.446	-15303	2580.6	-0.62093	0.4919	-0.62308
3.978	49.451	-15306	2581.4	-0.62064	0.4919	-0.62347
3.98	49.43	-15309	2582.2	-0.62035	0.4919	-0.62386
3.982	49.439	-15307	2583	-0.62005	0.4919	-0.62425
3.984	49.461	-15305	2583.8	-0.61976	0.4919	-0.62464
3.986	49.484	-15304	2584.6	-0.62005	0.49259	-0.62454
3.988	49.482	-15303	2585.5	-0.62035	0.49327	-0.62444
3.99	49.461	-15304	2586.3	-0.62064	0.49395	-0.62435
3.992	49.465	-15305	2587	-0.62093	0.49464	-0.62425
3.994	49.465	-15310	2587.8	-0.62122	0.49532	-0.62415
3.996	49.448	-15314	2588.5	-0.62113	0.49415	-0.62366
3.998	49.438	-15309	2589.2	-0.62103	0.49298	-0.62318
4	49.433	-15305	2589.8	-0.62093	0.49181	-0.62269
4.002	49.438	-15300	2590.4	-0.62083	0.49064	-0.6222
4.004	49.434	-15296	2590.9	-0.62074	0.48946	-0.62171
4.006	49.442	-15292	2591.5	-0.61927	0.49044	-0.62191
4.008	49.451	-15288	2592.1	-0.61781	0.49142	-0.6221
4.01	49.443	-15292	2592.5	-0.61634	0.49239	-0.6223
4.012	49.44	-15296	2593	-0.61488	0.49337	-0.62249
4.014	49.447	-15294	2593.4	-0.61342	0.49434	-0.62269
4.016	49.45	-15292	2593.7	-0.614	0.49356	-0.62249
4.018	49.447	-15290	2594	-0.61459	0.49278	-0.6223
4.02	49.448	-15288	2594.4	-0.61517	0.492	-0.6221
4.022	49.464	-15295	2594.7	-0.61576	0.49122	-0.62191
4.024	49.482	-15302	2595	-0.61634	0.49044	-0.62171
4.026	49.469	-15297	2595.4	-0.61664	0.49093	-0.62191
4.028	49.438	-15291	2595.8	-0.61693	0.49142	-0.6221
4.03	49.444	-15290	2596.1	-0.61722	0.4919	-0.6223
4.032	49.446	-15289	2596.3	-0.61752	0.49239	-0.62249
4.034	49.424	-15287	2596.6	-0.61781	0.49288	-0.62269
4.036	49.439	-15284	2596.7	-0.61654	0.49395	-0.6223
4.038	49.458	-15287	2596.8	-0.61527	0.49503	-0.62191
4.04	49.449	-15290	2597	-0.614	0.4961	-0.62152
4.042	49.461	-15285	2597.1	-0.61273	0.49717	-0.62113
4.044	49.485	-15281	2597.3	-0.61146	0.49825	-0.62074
4.046	49.519	-15284	2597.4	-0.61127	0.49776	-0.62093
4.048	49.52	-15288	2597.4	-0.61107	0.49727	-0.62113
4.05	49.523	-15285	2597.5	-0.61088	0.49678	-0.62132
4.052	49.494	-15282	2597.6	-0.61068	0.4963	-0.62152
4.054	49.492	-15277	2597.6	-0.61049	0.49581	-0.62171
4.056	49.498	-15273	2597.6	-0.61068	0.49581	-0.62093
4.058	49.489	-15275	2597.6	-0.61088	0.49581	-0.62015
4.06	49.488	-15278	2597.6	-0.61107	0.49581	-0.61937
4.062	49.502	-15273	2597.5	-0.61127	0.49581	-0.61859
4.064	49.506	-15269	2597.5	-0.61146	0.49581	-0.61781
4.066	49.49	-15267	2597.4	-0.61127	0.49542	-0.61839
4.068	49.505	-15266	2597.3	-0.61107	0.49503	-0.61898
4.07	49.527	-15265	2597.2	-0.61088	0.49464	-0.61956
4.072	49.539	-15263	2597.1	-0.61068	0.49425	-0.62015
4.074	49.551	-15264	2597	-0.61049	0.49386	-0.62074
4.076	49.541	-15266	2596.7	-0.61117	0.49454	-0.62103
4.078	49.52	-15264	2596.5	-0.61185	0.49522	-0.62132
4.08	49.518	-15263	2596.3	-0.61254	0.49591	-0.62161
4.082	49.532	-15259	2596.1	-0.61322	0.49659	-0.62191
4.084	49.527	-15255	2595.9	-0.6139	0.49727	-0.6222
4.086	49.531	-15260	2595.7	-0.61254	0.49688	-0.6223
4.088	49.543	-15265	2595.5	-0.61117	0.49649	-0.6224
4.09	49.537	-15264	2595.3	-0.6098	0.4961	-0.62249
4.092	49.538	-15264	2595.1	-0.60844	0.49571	-0.62259
4.094	49.549	-15263	2594.8	-0.60707	0.49532	-0.62269
4.096	49.556	-15262	2594.6	-0.60776	0.4962	-0.6224
4.098	49.55	-15266	2594.4	-0.60844	0.49708	-0.6221
4.1	49.538	-15270	2594.2	-0.60912	0.49796	-0.62181
4.102	49.53	-15264	2594	-0.6098	0.49883	-0.62152
4.104	49.526	-15258	2593.9	-0.61049	0.49971	-0.62122
4.106	49.517	-15254	2593.6	-0.61098	0.49952	-0.62142
4.108	49.502	-15251	2593.4	-0.61146	0.49932	-0.62161
4.11	49.525	-15259	2593.1	-0.61195	0.49913	-0.62181
4.112	49.542	-15268	2592.8	-0.61244	0.49893	-0.622
4.114	49.533	-15266	2592.5	-0.61293	0.49874	-0.6222
4.116	49.509	-15264	2592.2	-0.61273	0.49815	-0.6222
4.118	49.494	-15265	2591.9	-0.61254	0.49756	-0.6222
4.12	49.513	-15266	2591.6	-0.61234	0.49698	-0.6222
4.122	49.533	-15266	2591.3	-0.61215	0.49639	-0.6222
4.124	49.552	-15266	2590.9	-0.61195	0.49581	-0.6222
4.126	49.531	-15263	2590.6	-0.61166	0.49591	-0.6222
4.128	49.53	-15259	2590.2	-0.61137	0.496	-0.6222
4.13	49.537	-15259	2589.9	-0.61107	0.4961	-0.6222
4.132	49.521	-15258	2589.5	-0.61078	0.4962	-0.6222
4.134	49.503	-15259	2589.1	-0.61049	0.4963	-0.6222
4.136	49.522	-15260	2588.8	-0.61088	0.49708	-0.6221
4.138	49.529	-15269	2588.5	-0.61127	0.49786	-0.622
4.14	49.513	-15278	2588.2	-0.61166	0.49864	-0.62191
4.142	49.513	-15271	2587.9	-0.61205	0.49942	-0.62181
4.144	49.494	-15263	2587.7	-0.61244	0.5002	-0.62171
4.146	49.509	-15263	2587.4	-0.61273	0.49971	-0.62103
4.148	49.508	-15262	2587.2	-0.61303	0.49922	-0.62035
4.15	49.5	-15261	2586.9	-0.61332	0.49874	-0.61966
4.152	49.499	-15259	2586.7	-0.61361	0.49825	-0.61898
4.154	49.527	-15262	2586.4	-0.6139	0.49776	-0.6183
4.156	49.55	-15266	2586.1	-0.61547	0.49698	-0.61781
4.158	49.524	-15265	2585.9	-0.61703	0.4962	-0.61732
4.16	49.503	-15264	2585.6	-0.61859	0.49542	-0.61683
4.162	49.496	-15255	2585.4	-0.62015	0.49464	-0.61634
4.164	49.495	-15247	2585.2	-0.62171	0.49386	-0.61586
4.166	49.498	-15251	2585	-0.62044	0.49425	-0.61722
4.168	49.507	-15256	2584.8	-0.61917	0.49464	-0.61859
4.17	49.526	-15257	2584.6	-0.61791	0.49503	-0.61996
4.172	49.536	-15258	2584.4	-0.61664	0.49542	-0.62132
4.174	49.518	-15258	2584.3	-0.61537	0.49581	-0.62269
4.176	49.496	-15259	2584.1	-0.61664	0.49591	-0.62161
4.178	49.494	-15263	2583.9	-0.61791	0.496	-0.62054
4.18	49.484	-15267	2583.7	-0.61917	0.4961	-0.61947
4.182	49.475	-15267	2583.5	-0.62044	0.4962	-0.61839
4.184	49.491	-15268	2583.3	-0.62171	0.4963	-0.61732
4.186	49.496	-15261	2583.1	-0.62035	0.49737	-0.61683
4.188	49.478	-15254	2582.9	-0.61898	0.49844	-0.61634
4.19	49.471	-15256	2582.6	-0.61761	0.49952	-0.61586
4.192	49.489	-15258	2582.4	-0.61625	0.50059	-0.61537
4.194	49.519	-15260	2582.1	-0.61488	0.50166	-0.61488
4.196	49.522	-15263	2581.8	-0.61488	0.50137	-0.61605
4.198	49.497	-15266	2581.6	-0.61488	0.50108	-0.61722
4.2	49.495	-15269	2581.3	-0.61488	0.50079	-0.61839
4.202	49.519	-15268	2581.1	-0.61488	0.50049	-0.61956
4.204	49.517	-15267	2580.9	-0.61488	0.5002	-0.62074
4.206	49.479	-15267	2580.8	-0.61429	0.49991	-0.62054
4.208	49.467	-15268	2580.6	-0.61371	0.49961	-0.62035
4.21	49.492	-15270	2580.4	-0.61312	0.49932	-0.62015
4.212	49.499	-15273	2580.2	-0.61254	0.49903	-0.61996
4.214	49.486	-15268	2580	-0.61195	0.49874	-0.61976
4.216	49.459	-15263	2579.9	-0.61264	0.49805	-0.62083
4.218	49.433	-15265	2579.8	-0.61332	0.49737	-0.62191
4.22	49.42	-15268	2579.7	-0.614	0.49669	-0.62298
4.222	49.383	-15267	2579.6	-0.61468	0.496	-0.62405
4.224	49.4	-15266	2579.5	-0.61537	0.49532	-0.62513
4.226	49.412	-15266	2579.4	-0.61605	0.49444	-0.62464
4.228	49.412	-15266	2579.4	-0.61673	0.49356	-0.62415
4.23	49.442	-15269	2579.3	-0.61742	0.49268	-0.62366
4.232	49.474	-15271	2579.3	-0.6181	0.49181	-0.62318
4.234	49.499	-15271	2579.2	-0.61878	0.49093	-0.62269
4.236	49.492	-15271	2579.1	-0.618	0.49161	-0.62279
4.238	49.499	-15271	2579	-0.61722	0.49229	-0.62288
4.24	49.492	-15271	2578.9	-0.61644	0.49298	-0.62298
4.242	49.487	-15269	2578.8	-0.61566	0.49366	-0.62308
4.244	49.481	-15267	2578.7	-0.61488	0.49434	-0.62318
4.246	49.459	-15268	2578.6	-0.61605	0.49395	-0.62337
4.248	49.438	-15269	2578.6	-0.61722	0.49356	-0.62357
4.25	49.44	-15266	2578.6	-0.61839	0.49317	-0.62376
4.252	49.436	-15263	2578.6	-0.61956	0.49278	-0.62396
4.254	49.451	-15268	2578.6	-0.62074	0.49239	-0.62415
4.256	49.458	-15272	2578.6	-0.62005	0.49239	-0.62318
4.258	49.461	-15274	2578.6	-0.61937	0.49239	-0.6222
4.26	49.484	-15276	2578.6	-0.61869	0.49239	-0.62122
4.262	49.512	-15267	2578.5	-0.618	0.49239	-0.62025
4.264	49.526	-15259	2578.4	-0.61732	0.49239	-0.61927
4.266	49.53	-15263	2578.4	-0.61625	0.49347	-0.61917
4.268	49.522	-15266	2578.3	-0.61517	0.49454	-0.61908
4.27	49.521	-15268	2578.2	-0.6141	0.49561	-0.61898
4.272	49.532	-15269	2578.1	-0.61303	0.49669	-0.61888
4.274	49.543	-15266	2578.1	-0.61195	0.49776	-0.61878
4.276	49.563	-15263	2577.9	-0.61254	0.49786	-0.61869
4.278	49.566	-15269	2577.8	-0.61312	0.49796	-0.61859
4.28	49.535	-15274	2577.7	-0.61371	0.49805	-0.61849
4.282	49.528	-15270	2577.7	-0.61429	0.49815	-0.61839
4.284	49.566	-15267	2577.6	-0.61488	0.49825	-0.6183
4.286	49.576	-15267	2577.5	-0.61498	0.49766	-0.6182
4.288	49.569	-15267	2577.4	-0.61508	0.49708	-0.6181
4.29	49.583	-15270	2577.3	-0.61517	0.49649	-0.618
4.292	49.581	-15274	2577.2	-0.61527	0.49591	-0.61791
4.294	49.573	-15272	2577.1	-0.61537	0.49532	-0.61781
4.296	49.578	-15270	2577	-0.61547	0.49561	-0.61898
4.298	49.587	-15270	2576.8	-0.61556	0.49591	-0.62015
4.3	49.594	-15271	2576.7	-0.61566	0.4962	-0.62132
4.302	49.572	-15276	2576.5	-0.61576	0.49649	-0.62249
4.304	49.541	-15282	2576.4	-0.61586	0.49678	-0.62366
4.306	49.528	-15279	2576.3	-0.61439	0.49649	-0.62327
4.308	49.538	-15277	2576.2	-0.61293	0.4962	-0.62288
4.31	49.568	-15281	2576.1	-0.61146	0.49591	-0.62249
4.312	49.56	-15286	2576	-0.61	0.49561	-0.6221
4.314	49.542	-15282	2575.8	-0.60854	0.49532	-0.62171
4.316	49.527	-15277	2575.7	-0.6098	0.49591	-0.62093
4.318	49.523	-15275	2575.5	-0.61107	0.49649	-0.62015
4.32	49.553	-15272	2575.3	-0.61234	0.49708	-0.61937
4.322	49.559	-15273	2575.1	-0.61361	0.49766	-0.61859
4.324	49.561	-15273	2575	-0.61488	0.49825	-0.61781
4.326	49.59	-15278	2574.8	-0.61488	0.49815	-0.6182
4.328	49.641	-15282	2574.6	-0.61488	0.49805	-0.61859
4.33	49.67	-15284	2574.4	-0.61488	0.49796	-0.61898
4.332	49.694	-15285	2574.2	-0.61488	0.49786	-0.61937
4.334	49.738	-15284	2574	-0.61488	0.49776	-0.61976
4.336	49.742	-15284	2573.9	-0.61537	0.49766	-0.61917
4.338	49.727	-15284	2573.7	-0.61586	0.49756	-0.61859
4.34	49.726	-15284	2573.6	-0.61634	0.49747	-0.618
4.342	49.686	-15284	2573.4	-0.61683	0.49737	-0.61742
4.344	49.605	-15284	2573.2	-0.61732	0.49727	-0.61683
4.346	49.524	-15284	2573	-0.61693	0.49678	-0.61761
4.348	49.452	-15284	2572.8	-0.61654	0.4963	-0.61839
4.35	49.365	-15285	2572.5	-0.61615	0.49581	-0.61917
4.352	49.274	-15285	2572.3	-0.61576	0.49532	-0.61996
4.354	49.161	-15284	2572.1	-0.61537	0.49483	-0.62074
4.356	48.999	-15282	2571.9	-0.61508	0.49571	-0.62035
4.358	48.827	-15283	2571.6	-0.61478	0.49659	-0.61996
4.36	48.666	-15283	2571.4	-0.61449	0.49747	-0.61956
4.362	48.508	-15283	2571.2	-0.6142	0.49835	-0.61917
4.364	48.368	-15282	2571	-0.6139	0.49922	-0.61878
4.366	48.281	-15284	2570.7	-0.614	0.49825	-0.61869
4.368	48.255	-15286	2570.5	-0.6141	0.49727	-0.61859
4.37	48.301	-15288	2570.3	-0.6142	0.4963	-0.61849
4.372	48.444	-15290	2570.1	-0.61429	0.49532	-0.61839
4.374	48.613	-15287	2569.9	-0.61439	0.49434	-0.6183
4.376	48.796	-15284	2569.7	-0.614	0.49483	-0.61869
4.378	48.992	-15284	2569.4	-0.61361	0.49532	-0.61908
4.38	49.15	-15283	2569.2	-0.61322	0.49581	-0.61947
4.382	49.295	-15281	2569	-0.61283	0.4963	-0.61986
4.384	49.389	-15278	2568.7	-0.61244	0.49678	-0.62025
4.386	49.448	-15281	2568.5	-0.61205	0.49649	-0.62093
4.388	49.483	-15285	2568.3	-0.61166	0.4962	-0.62161
4.39	49.537	-15286	2568	-0.61127	0.49591	-0.6223
4.392	49.588	-15288	2567.8	-0.61088	0.49561	-0.62298
4.394	49.602	-15288	2567.5	-0.61049	0.49532	-0.62366
4.396	49.59	-15288	2567.3	-0.61107	0.49591	-0.62337
4.398	49.573	-15290	2567	-0.61166	0.49649	-0.62308
4.4	49.541	-15291	2566.7	-0.61224	0.49708	-0.62279
4.402	49.536	-15289	2566.5	-0.61283	0.49766	-0.62249
4.404	49.52	-15286	2566.3	-0.61342	0.49825	-0.6222
4.406	49.504	-15285	2566.1	-0.61371	0.49815	-0.62279
4.408	49.531	-15285	2565.9	-0.614	0.49805	-0.62337
4.41	49.54	-15288	2565.6	-0.61429	0.49796	-0.62396
4.412	49.535	-15292	2565.4	-0.61459	0.49786	-0.62454
4.414	49.539	-15288	2565.1	-0.61488	0.49776	-0.62513
4.416	49.539	-15284	2564.9	-0.61517	0.49649	-0.62454
4.418	49.554	-15283	2564.6	-0.61547	0.49522	-0.62396
4.42	49.563	-15282	2564.4	-0.61576	0.49395	-0.62337
4.422	49.56	-15285	2564.1	-0.61605	0.49268	-0.62279
4.424	49.557	-15289	2563.9	-0.61634	0.49142	-0.6222
4.426	49.563	-15289	2563.6	-0.61683	0.49142	-0.62298
4.428	49.564	-15290	2563.3	-0.61732	0.49142	-0.62376
4.43	49.562	-15290	2563.1	-0.61781	0.49142	-0.62454
4.432	49.561	-15290	2562.9	-0.6183	0.49142	-0.62532
4.434	49.559	-15289	2562.7	-0.61878	0.49142	-0.6261
4.436	49.547	-15289	2562.6	-0.6182	0.4922	-0.62552
4.438	49.539	-15289	2562.5	-0.61761	0.49298	-0.62493
4.44	49.539	-15290	2562.4	-0.61703	0.49376	-0.62435
4.442	49.545	-15290	2562.3	-0.61644	0.49454	-0.62376
4.444	49.559	-15290	2562.2	-0.61586	0.49532	-0.62318
4.446	49.556	-15291	2562.1	-0.61673	0.49503	-0.62347
4.448	49.544	-15293	2561.9	-0.61761	0.49473	-0.62376
4.45	49.538	-15293	2561.8	-0.61849	0.49444	-0.62405
4.452	49.526	-15294	2561.7	-0.61937	0.49415	-0.62435
4.454	49.529	-15297	2561.6	-0.62025	0.49386	-0.62464
4.456	49.523	-15300	2561.5	-0.62025	0.49395	-0.62435
4.458	49.521	-15299	2561.4	-0.62025	0.49405	-0.62405
4.46	49.524	-15298	2561.3	-0.62025	0.49415	-0.62376
4.462	49.529	-15293	2561.2	-0.62025	0.49425	-0.62347
4.464	49.532	-15289	2561.1	-0.62025	0.49434	-0.62318
4.466	49.538	-15295	2561	-0.62035	0.49444	-0.62357
4.468	49.552	-15300	2561	-0.62044	0.49454	-0.62396
4.47	49.551	-15302	2560.9	-0.62054	0.49464	-0.62435
4.472	49.523	-15303	2560.8	-0.62064	0.49473	-0.62474
4.474	49.504	-15303	2560.8	-0.62074	0.49483	-0.62513
4.476	49.503	-15303	2560.7	-0.62005	0.49444	-0.62405
4.478	49.525	-15299	2560.6	-0.61937	0.49405	-0.62298
4.48	49.521	-15295	2560.4	-0.61869	0.49366	-0.62191
4.482	49.507	-15295	2560.3	-0.618	0.49327	-0.62083
4.484	49.515	-15295	2560.1	-0.61732	0.49288	-0.61976
4.486	49.522	-15292	2559.9	-0.61615	0.49366	-0.62025
4.488	49.534	-15289	2559.8	-0.61498	0.49444	-0.62074
4.49	49.547	-15294	2559.6	-0.61381	0.49522	-0.62122
4.492	49.54	-15300	2559.4	-0.61264	0.496	-0.62171
4.494	49.507	-15297	2559.3	-0.61146	0.49678	-0.6222
4.496	49.518	-15295	2559.1	-0.61166	0.4961	-0.62161
4.498	49.504	-15296	2559	-0.61185	0.49542	-0.62103
4.5	49.484	-15298	2558.9	-0.61205	0.49473	-0.62044
4.502	49.479	-15302	2558.8	-0.61224	0.49405	-0.61986
4.504	49.485	-15307	2558.7	-0.61244	0.49337	-0.61927
4.506	49.49	-15304	2558.6	-0.6141	0.49356	-0.61898
4.508	49.477	-15302	2558.5	-0.61576	0.49376	-0.61869
4.51	49.482	-15299	2558.5	-0.61742	0.49395	-0.61839
4.512	49.485	-15295	2558.4	-0.61908	0.49415	-0.6181
4.514	49.484	-15294	2558.3	-0.62074	0.49434	-0.61781
4.516	49.479	-15294	2558.3	-0.62093	0.49259	-0.61625
4.518	49.475	-15297	2558.4	-0.62113	0.49083	-0.61468
4.52	49.47	-15301	2558.4	-0.62132	0.48907	-0.61312
4.522	49.456	-15301	2558.5	-0.62152	0.48732	-0.61156
4.524	49.445	-15302	2558.6	-0.62171	0.48556	-0.61
4.526	49.445	-15315	2558.7	-0.62093	0.48527	-0.60951
4.528	49.451	-15328	2558.9	-0.62015	0.48497	-0.60902
4.53	49.458	-15324	2559	-0.61937	0.48468	-0.60854
4.532	49.458	-15320	2559.2	-0.61859	0.48439	-0.60805
4.534	49.454	-15322	2559.4	-0.61781	0.4841	-0.60756
4.536	49.456	-15324	2559.7	-0.61849	0.48439	-0.60756
4.538	49.459	-15322	2559.9	-0.61917	0.48468	-0.60756
4.54	49.452	-15320	2560.1	-0.61986	0.48497	-0.60756
4.542	49.457	-15321	2560.3	-0.62054	0.48527	-0.60756
4.544	49.454	-15323	2560.6	-0.62122	0.48556	-0.60756
4.546	49.495	-15317	2560.9	-0.62122	0.48673	-0.60893
4.548	49.517	-15312	2561.2	-0.62122	0.4879	-0.61029
4.55	49.497	-15309	2561.5	-0.62122	0.48907	-0.61166
4.552	49.49	-15307	2561.8	-0.62122	0.49024	-0.61303
4.554	49.46	-15305	2562.2	-0.62122	0.49142	-0.61439
4.556	49.465	-15303	2562.6	-0.62181	0.49083	-0.61439
4.558	49.495	-15308	2563	-0.6224	0.49024	-0.61439
4.56	49.501	-15312	2563.4	-0.62298	0.48966	-0.61439
4.562	49.522	-15310	2563.7	-0.62357	0.48907	-0.61439
4.564	49.519	-15307	2564.1	-0.62415	0.48849	-0.61439
4.566	49.502	-15310	2564.4	-0.62337	0.48829	-0.61527
4.568	49.465	-15313	2564.7	-0.62259	0.4881	-0.61615
4.57	49.421	-15310	2565	-0.62181	0.4879	-0.61703
4.572	49.435	-15307	2565.3	-0.62103	0.48771	-0.61791
4.574	49.454	-15309	2565.5	-0.62025	0.48751	-0.61878
4.576	49.448	-15311	2565.7	-0.61878	0.48888	-0.61986
4.578	49.464	-15305	2565.8	-0.61732	0.49024	-0.62093
4.58	49.485	-15299	2566	-0.61586	0.49161	-0.622
4.582	49.484	-15303	2566.1	-0.61439	0.49298	-0.62308
4.584	49.467	-15307	2566.2	-0.61293	0.49434	-0.62415
4.586	49.461	-15304	2566.1	-0.61342	0.49366	-0.62347
4.588	49.452	-15301	2566.1	-0.6139	0.49298	-0.62279
4.59	49.436	-15301	2566	-0.61439	0.49229	-0.6221
4.592	49.431	-15300	2565.9	-0.61488	0.49161	-0.62142
4.594	49.443	-15300	2565.9	-0.61537	0.49093	-0.62074
4.596	49.452	-15299	2565.7	-0.61537	0.49044	-0.62093
4.598	49.464	-15301	2565.6	-0.61537	0.48995	-0.62113
4.6	49.476	-15303	2565.5	-0.61537	0.48946	-0.62132
4.602	49.468	-15298	2565.3	-0.61537	0.48898	-0.62152
4.604	49.444	-15292	2565.2	-0.61537	0.48849	-0.62171
4.606	49.45	-15291	2565.1	-0.61517	0.48898	-0.622
