t	ekg	optical	pressure	accel_x	accel_y	accel_z
0	176.25	-20762	2909.5	-0.78958	0.40065	-0.48214
0.002	176.26	-20761	2909.6	-0.78851	0.40172	-0.48156
0.004	176.27	-20760	2909.7	-0.78744	0.4028	-0.48097
0.006	176.28	-20759	2909.8	-0.78636	0.40387	-0.48039
0.008	176.27	-20760	2909.8	-0.78529	0.40494	-0.4798
0.01	176.26	-20763	2909.9	-0.78422	0.40602	-0.47922
0.012	176.25	-20762	2910	-0.78597	0.40504	-0.47912
0.014	176.26	-20759	2910.1	-0.78773	0.40406	-0.47902
0.016	176.27	-20757	2910.1	-0.78949	0.40309	-0.47892
0.018	176.26	-20756	2910.2	-0.79124	0.40211	-0.47883
0.02	176.24	-20755	2910.2	-0.793	0.40114	-0.47873
0.022	176.23	-20756	2910.2	-0.79163	0.40231	-0.47912
0.024	176.24	-20755	2910.2	-0.79027	0.40348	-0.47951
0.026	176.25	-20752	2910.2	-0.7889	0.40465	-0.4799
0.028	176.25	-20750	2910.2	-0.78753	0.40582	-0.48029
0.03	176.25	-20748	2910.1	-0.78617	0.40699	-0.48068
0.032	176.25	-20746	2910.1	-0.78656	0.40641	-0.48058
0.034	176.25	-20743	2910.1	-0.78695	0.40582	-0.48048
0.036	176.24	-20742	2910.1	-0.78734	0.40524	-0.48039
0.038	176.24	-20741	2910	-0.78773	0.40465	-0.48029
0.04	176.24	-20740	2909.9	-0.78812	0.40406	-0.48019
0.042	176.24	-20739	2909.8	-0.78773	0.40553	-0.47951
0.044	176.24	-20742	2909.7	-0.78734	0.40699	-0.47883
0.046	176.24	-20751	2909.6	-0.78695	0.40846	-0.47814
0.048	176.23	-20750	2909.4	-0.78656	0.40992	-0.47746
0.05	176.25	-20740	2909.2	-0.78617	0.41138	-0.47678
0.052	176.25	-20737	2909	-0.78675	0.4108	-0.47678
0.054	176.25	-20740	2908.7	-0.78734	0.41021	-0.47678
0.056	176.25	-20739	2908.5	-0.78792	0.40963	-0.47678
0.058	176.24	-20736	2908.3	-0.78851	0.40904	-0.47678
0.06	176.23	-20734	2908.1	-0.7891	0.40846	-0.47678
0.062	176.23	-20735	2907.9	-0.78929	0.40865	-0.47668
0.064	176.21	-20736	2907.6	-0.78949	0.40885	-0.47658
0.066	176.21	-20740	2907.4	-0.78968	0.40904	-0.47648
0.068	176.22	-20740	2907.2	-0.78988	0.40924	-0.47639
0.07	176.22	-20737	2906.9	-0.79007	0.40943	-0.47629
0.072	176.21	-20736	2906.8	-0.79017	0.40894	-0.47648
0.074	176.21	-20737	2906.6	-0.79027	0.40846	-0.47668
0.076	176.21	-20735	2906.4	-0.79036	0.40797	-0.47687
0.078	176.18	-20732	2906.2	-0.79046	0.40748	-0.47707
0.08	176.18	-20730	2906	-0.79056	0.40699	-0.47726
0.082	176.19	-20731	2905.8	-0.78988	0.40728	-0.47697
0.084	176.2	-20732	2905.6	-0.78919	0.40758	-0.47668
0.086	176.2	-20733	2905.4	-0.78851	0.40787	-0.47639
0.088	176.19	-20735	2905.2	-0.78783	0.40816	-0.47609
0.09	176.18	-20739	2905.1	-0.78714	0.40846	-0.4758
0.092	176.19	-20741	2904.8	-0.78753	0.40777	-0.47639
0.094	176.19	-20741	2904.6	-0.78792	0.40709	-0.47697
0.096	176.19	-20737	2904.3	-0.78832	0.40641	-0.47756
0.098	176.18	-20728	2904.1	-0.78871	0.40572	-0.47814
0.1	176.19	-20727	2903.9	-0.7891	0.40504	-0.47873
0.102	176.19	-20734	2903.7	-0.78968	0.40465	-0.47863
0.104	176.19	-20735	2903.4	-0.79027	0.40426	-0.47853
0.106	176.19	-20730	2903.2	-0.79085	0.40387	-0.47844
0.108	176.19	-20727	2903	-0.79144	0.40348	-0.47834
0.11	176.18	-20725	2902.8	-0.79202	0.40309	-0.47824
0.112	176.17	-20726	2902.6	-0.79085	0.40377	-0.47824
0.114	176.17	-20732	2902.4	-0.78968	0.40445	-0.47824
0.116	176.18	-20734	2902.1	-0.78851	0.40514	-0.47824
0.118	176.19	-20734	2901.9	-0.78734	0.40582	-0.47824
0.12	176.19	-20732	2901.7	-0.78617	0.4065	-0.47824
0.122	176.18	-20729	2901.5	-0.78666	0.40602	-0.47883
0.124	176.18	-20727	2901.4	-0.78714	0.40553	-0.47941
0.126	176.18	-20727	2901.2	-0.78763	0.40504	-0.48
0.128	176.18	-20731	2901.1	-0.78812	0.40455	-0.48058
0.13	176.19	-20740	2901	-0.78861	0.40406	-0.48117
0.132	176.2	-20742	2900.9	-0.78861	0.40377	-0.48127
0.134	176.19	-20735	2900.9	-0.78861	0.40348	-0.48136
0.136	176.17	-20732	2900.8	-0.78861	0.40319	-0.48146
0.138	176.18	-20732	2900.8	-0.78861	0.40289	-0.48156
0.14	176.17	-20731	2900.7	-0.78861	0.4026	-0.48166
0.142	176.15	-20729	2900.7	-0.78871	0.40231	-0.48185
0.144	176.14	-20731	2900.6	-0.7888	0.40201	-0.48205
0.146	176.15	-20736	2900.6	-0.7889	0.40172	-0.48224
0.148	176.16	-20740	2900.6	-0.789	0.40143	-0.48244
0.15	176.16	-20741	2900.7	-0.7891	0.40114	-0.48263
0.152	176.16	-20742	2900.6	-0.7891	0.40075	-0.48214
0.154	176.17	-20742	2900.6	-0.7891	0.40036	-0.48166
0.156	176.16	-20742	2900.6	-0.7891	0.39996	-0.48117
0.158	176.16	-20743	2900.6	-0.7891	0.39957	-0.48068
0.16	176.14	-20743	2900.6	-0.7891	0.39918	-0.48019
0.162	176.13	-20740	2900.6	-0.78978	0.39879	-0.48029
0.164	176.14	-20738	2900.6	-0.79046	0.3984	-0.48039
0.166	176.13	-20736	2900.5	-0.79115	0.39801	-0.48048
0.168	176.11	-20736	2900.5	-0.79183	0.39762	-0.48058
0.17	176.11	-20738	2900.5	-0.79251	0.39723	-0.48068
0.172	176.11	-20739	2900.5	-0.7931	0.39723	-0.48
0.174	176.11	-20740	2900.4	-0.79368	0.39723	-0.47931
0.176	176.1	-20739	2900.4	-0.79427	0.39723	-0.47863
0.178	176.1	-20737	2900.4	-0.79485	0.39723	-0.47795
0.18	176.09	-20734	2900.4	-0.79544	0.39723	-0.47726
0.182	176.08	-20730	2900.4	-0.79524	0.39665	-0.47697
0.184	176.08	-20729	2900.4	-0.79505	0.39606	-0.47668
0.186	176.09	-20731	2900.4	-0.79485	0.39548	-0.47639
0.188	176.08	-20735	2900.3	-0.79466	0.39489	-0.47609
0.19	176.07	-20743	2900.3	-0.79446	0.3943	-0.4758
0.192	176.07	-20747	2900.2	-0.79398	0.39538	-0.47765
0.194	176.08	-20747	2900.2	-0.79349	0.39645	-0.47951
0.196	176.08	-20745	2900.1	-0.793	0.39752	-0.48136
0.198	176.08	-20739	2900	-0.79251	0.3986	-0.48322
0.2	176.07	-20737	2900	-0.79202	0.39967	-0.48507
0.202	176.07	-20737	2899.9	-0.79144	0.39889	-0.48419
0.204	176.08	-20737	2899.8	-0.79085	0.39811	-0.48332
0.206	176.08	-20737	2899.8	-0.79027	0.39733	-0.48244
0.208	176.07	-20736	2899.7	-0.78968	0.39655	-0.48156
0.21	176.07	-20734	2899.6	-0.7891	0.39577	-0.48068
0.212	176.06	-20735	2899.5	-0.78763	0.39743	-0.48078
0.214	176.06	-20740	2899.4	-0.78617	0.39909	-0.48088
0.216	176.08	-20741	2899.2	-0.7847	0.40075	-0.48097
0.218	176.08	-20740	2899.1	-0.78324	0.4024	-0.48107
0.22	176.05	-20740	2899	-0.78178	0.40406	-0.48117
0.222	176.04	-20739	2898.9	-0.78246	0.40406	-0.48136
0.224	176.05	-20736	2898.8	-0.78314	0.40406	-0.48156
0.226	176.06	-20729	2898.7	-0.78383	0.40406	-0.48175
0.228	176.04	-20727	2898.6	-0.78451	0.40406	-0.48195
0.23	176.06	-20730	2898.5	-0.78519	0.40406	-0.48214
0.232	176.08	-20733	2898.3	-0.78548	0.40514	-0.48127
0.234	176.06	-20737	2898.2	-0.78578	0.40621	-0.48039
0.236	176.05	-20736	2898.1	-0.78607	0.40728	-0.47951
0.238	176.06	-20732	2898	-0.78636	0.40836	-0.47863
0.24	176.06	-20732	2897.9	-0.78666	0.40943	-0.47775
0.242	176.07	-20735	2897.8	-0.78656	0.40885	-0.47804
0.244	176.07	-20739	2897.7	-0.78646	0.40826	-0.47834
0.246	176.06	-20745	2897.6	-0.78636	0.40768	-0.47863
0.248	176.08	-20748	2897.5	-0.78627	0.40709	-0.47892
0.25	176.1	-20747	2897.3	-0.78617	0.4065	-0.47922
0.252	176.11	-20746	2897.2	-0.78627	0.40582	-0.47951
0.254	176.12	-20743	2897.1	-0.78636	0.40514	-0.4798
0.256	176.11	-20742	2897	-0.78646	0.40445	-0.48009
0.258	176.09	-20744	2897	-0.78656	0.40377	-0.48039
0.26	176.09	-20746	2896.9	-0.78666	0.40309	-0.48068
0.262	176.09	-20749	2896.8	-0.78744	0.4027	-0.48175
0.264	176.09	-20750	2896.7	-0.78822	0.40231	-0.48283
0.266	176.1	-20749	2896.6	-0.789	0.40192	-0.4839
0.268	176.1	-20748	2896.6	-0.78978	0.40153	-0.48497
0.27	176.1	-20746	2896.5	-0.79056	0.40114	-0.48605
0.272	176.1	-20744	2896.4	-0.78968	0.40182	-0.48517
0.274	176.1	-20739	2896.3	-0.7888	0.4025	-0.48429
0.276	176.1	-20738	2896.2	-0.78792	0.40319	-0.48341
0.278	176.1	-20739	2896.1	-0.78705	0.40387	-0.48253
0.28	176.1	-20741	2896	-0.78617	0.40455	-0.48166
0.282	176.09	-20742	2896	-0.78617	0.40494	-0.48068
0.284	176.09	-20743	2895.9	-0.78617	0.40533	-0.4797
0.286	176.09	-20745	2895.8	-0.78617	0.40572	-0.47873
0.288	176.09	-20747	2895.8	-0.78617	0.40611	-0.47775
0.29	176.09	-20748	2895.7	-0.78617	0.4065	-0.47678
0.292	176.09	-20751	2895.6	-0.78646	0.4066	-0.47687
0.294	176.08	-20755	2895.5	-0.78675	0.4067	-0.47697
0.296	176.06	-20755	2895.5	-0.78705	0.4068	-0.47707
0.298	176.05	-20751	2895.4	-0.78734	0.40689	-0.47717
0.3	176.06	-20749	2895.3	-0.78763	0.40699	-0.47726
0.302	176.07	-20750	2895.3	-0.78841	0.40592	-0.47844
0.304	176.08	-20748	2895.3	-0.78919	0.40484	-0.47961
0.306	176.08	-20745	2895.2	-0.78997	0.40377	-0.48078
0.308	176.09	-20744	2895.2	-0.79076	0.4027	-0.48195
0.31	176.12	-20744	2895.2	-0.79154	0.40162	-0.48312
0.312	176.16	-20744	2895.1	-0.79076	0.4028	-0.48205
0.314	176.2	-20743	2895.1	-0.78997	0.40397	-0.48097
0.316	176.21	-20743	2895	-0.78919	0.40514	-0.4799
0.318	176.21	-20745	2894.9	-0.78841	0.40631	-0.47883
0.32	176.2	-20748	2894.8	-0.78763	0.40748	-0.47775
0.322	176.16	-20752	2894.7	-0.78841	0.40602	-0.47804
0.324	176.09	-20752	2894.6	-0.78919	0.40455	-0.47834
0.326	176.02	-20748	2894.5	-0.78997	0.40309	-0.47863
0.328	175.95	-20746	2894.5	-0.79076	0.40162	-0.47892
0.33	175.85	-20746	2894.4	-0.79154	0.40016	-0.47922
0.332	175.73	-20748	2894.3	-0.79046	0.40143	-0.47922
0.334	175.59	-20752	2894.1	-0.78939	0.4027	-0.47922
0.336	175.46	-20756	2894	-0.78832	0.40397	-0.47922
0.338	175.33	-20759	2893.9	-0.78724	0.40524	-0.47922
0.34	175.19	-20759	2893.8	-0.78617	0.4065	-0.47922
0.342	175.05	-20756	2893.7	-0.78636	0.40621	-0.47931
0.344	174.92	-20755	2893.5	-0.78656	0.40592	-0.47941
0.346	174.82	-20756	2893.4	-0.78675	0.40563	-0.47951
0.348	174.75	-20758	2893.3	-0.78695	0.40533	-0.47961
0.35	174.75	-20761	2893.2	-0.78714	0.40504	-0.4797
0.352	174.85	-20761	2893.1	-0.78734	0.40504	-0.47961
0.354	175	-20760	2893	-0.78753	0.40504	-0.47951
0.356	175.17	-20759	2892.9	-0.78773	0.40504	-0.47941
0.358	175.36	-20759	2892.7	-0.78792	0.40504	-0.47931
0.36	175.54	-20759	2892.6	-0.78812	0.40504	-0.47922
0.362	175.7	-20759	2892.5	-0.78851	0.40504	-0.47892
0.364	175.83	-20760	2892.4	-0.7889	0.40504	-0.47863
0.366	175.91	-20763	2892.3	-0.78929	0.40504	-0.47834
0.368	175.96	-20766	2892.2	-0.78968	0.40504	-0.47804
0.37	176.01	-20768	2892.1	-0.79007	0.40504	-0.47775
0.372	176.05	-20769	2892	-0.7891	0.40553	-0.47795
0.374	176.05	-20770	2891.8	-0.78812	0.40602	-0.47814
0.376	176.03	-20770	2891.7	-0.78714	0.4065	-0.47834
0.378	176	-20769	2891.6	-0.78617	0.40699	-0.47853
0.38	175.98	-20768	2891.4	-0.78519	0.40748	-0.47873
0.382	175.96	-20766	2891.3	-0.78578	0.40728	-0.47873
0.384	175.94	-20766	2891.2	-0.78636	0.40709	-0.47873
0.386	175.93	-20766	2891.1	-0.78695	0.40689	-0.47873
0.388	175.92	-20768	2891	-0.78753	0.4067	-0.47873
0.39	175.91	-20772	2890.9	-0.78812	0.4065	-0.47873
0.392	175.91	-20776	2890.7	-0.78753	0.4066	-0.47873
0.394	175.94	-20779	2890.6	-0.78695	0.4067	-0.47873
0.396	175.95	-20781	2890.5	-0.78636	0.4068	-0.47873
0.398	175.94	-20783	2890.4	-0.78578	0.40689	-0.47873
0.4	175.94	-20784	2890.2	-0.78519	0.40699	-0.47873
0.402	175.94	-20785	2890.1	-0.78529	0.40689	-0.47863
0.404	175.95	-20785	2890	-0.78539	0.4068	-0.47853
0.406	175.96	-20784	2889.9	-0.78548	0.4067	-0.47844
0.408	175.94	-20783	2889.8	-0.78558	0.4066	-0.47834
0.41	175.93	-20783	2889.7	-0.78568	0.4065	-0.47824
0.412	175.94	-20783	2889.6	-0.78519	0.40689	-0.47873
0.414	175.94	-20783	2889.4	-0.7847	0.40728	-0.47922
0.416	175.95	-20781	2889.3	-0.78422	0.40768	-0.4797
0.418	175.95	-20777	2889.1	-0.78373	0.40807	-0.48019
0.42	175.94	-20775	2889	-0.78324	0.40846	-0.48068
0.422	175.95	-20775	2888.8	-0.78441	0.40787	-0.48019
0.424	175.94	-20776	2888.7	-0.78558	0.40728	-0.4797
0.426	175.94	-20779	2888.5	-0.78675	0.4067	-0.47922
0.428	175.94	-20779	2888.4	-0.78792	0.40611	-0.47873
0.43	175.94	-20777	2888.3	-0.7891	0.40553	-0.47824
0.432	175.93	-20780	2888.2	-0.78861	0.40602	-0.47844
0.434	175.94	-20788	2888.1	-0.78812	0.4065	-0.47863
0.436	175.94	-20788	2888	-0.78763	0.40699	-0.47883
0.438	175.93	-20781	2887.9	-0.78714	0.40748	-0.47902
0.44	175.91	-20777	2887.8	-0.78666	0.40797	-0.47922
0.442	175.91	-20776	2887.8	-0.78685	0.40758	-0.47941
0.444	175.91	-20779	2887.7	-0.78705	0.40719	-0.47961
0.446	175.91	-20784	2887.6	-0.78724	0.4068	-0.4798
0.448	175.91	-20787	2887.6	-0.78744	0.40641	-0.48
0.45	175.9	-20788	2887.5	-0.78763	0.40602	-0.48019
0.452	175.88	-20787	2887.4	-0.78783	0.40524	-0.48068
0.454	175.87	-20784	2887.4	-0.78802	0.40445	-0.48117
0.456	175.88	-20789	2887.3	-0.78822	0.40367	-0.48166
0.458	175.88	-20803	2887.2	-0.78841	0.40289	-0.48214
0.46	175.87	-20808	2887.2	-0.78861	0.40211	-0.48263
0.462	175.88	-20803	2887.1	-0.7888	0.40123	-0.48244
0.464	175.88	-20802	2887	-0.789	0.40036	-0.48224
0.466	175.88	-20807	2886.9	-0.78919	0.39948	-0.48205
0.468	175.88	-20809	2886.8	-0.78939	0.3986	-0.48185
0.47	175.88	-20809	2886.7	-0.78958	0.39772	-0.48166
0.472	175.88	-20809	2886.5	-0.789	0.39879	-0.48205
0.474	175.88	-20808	2886.4	-0.78841	0.39987	-0.48244
0.476	175.86	-20806	2886.3	-0.78783	0.40094	-0.48283
0.478	175.86	-20802	2886.1	-0.78724	0.40201	-0.48322
0.48	175.85	-20799	2886	-0.78666	0.40309	-0.48361
0.482	175.84	-20797	2885.8	-0.78744	0.4026	-0.4838
0.484	175.84	-20797	2885.7	-0.78822	0.40211	-0.484
0.486	175.84	-20799	2885.5	-0.789	0.40162	-0.48419
0.488	175.83	-20800	2885.3	-0.78978	0.40114	-0.48439
0.49	175.85	-20800	2885.1	-0.79056	0.40065	-0.48458
0.492	175.86	-20802	2885	-0.79115	0.40016	-0.48449
0.494	175.85	-20807	2884.9	-0.79173	0.39967	-0.48439
0.496	175.83	-20808	2884.8	-0.79232	0.39918	-0.48429
0.498	175.83	-20806	2884.7	-0.7929	0.3987	-0.48419
0.5	175.83	-20804	2884.6	-0.79349	0.39821	-0.4841
0.502	175.8	-20803	2884.6	-0.79241	0.39918	-0.48361
0.504	175.77	-20805	2884.6	-0.79134	0.40016	-0.48312
0.506	175.78	-20810	2884.6	-0.79027	0.40114	-0.48263
0.508	175.78	-20814	2884.5	-0.78919	0.40211	-0.48214
0.51	175.77	-20815	2884.5	-0.78812	0.40309	-0.48166
0.512	175.77	-20815	2884.6	-0.7889	0.40309	-0.48224
0.514	175.77	-20811	2884.7	-0.78968	0.40309	-0.48283
0.516	175.76	-20810	2884.8	-0.79046	0.40309	-0.48341
0.518	175.77	-20811	2884.9	-0.79124	0.40309	-0.484
0.52	175.77	-20811	2885.1	-0.79202	0.40309	-0.48458
0.522	175.76	-20809	2885.3	-0.79163	0.4026	-0.48439
0.524	175.75	-20811	2885.6	-0.79124	0.40211	-0.48419
0.526	175.74	-20816	2885.8	-0.79085	0.40162	-0.484
0.528	175.74	-20817	2886	-0.79046	0.40114	-0.4838
0.53	175.74	-20812	2886.2	-0.79007	0.40065	-0.48361
0.532	175.74	-20812	2886.5	-0.78997	0.40036	-0.48302
0.534	175.74	-20816	2886.8	-0.78988	0.40006	-0.48244
0.536	175.74	-20816	2887.1	-0.78978	0.39977	-0.48185
0.538	175.75	-20814	2887.5	-0.78968	0.39948	-0.48127
0.54	175.75	-20813	2887.8	-0.78958	0.39918	-0.48068
0.542	175.74	-20813	2888.1	-0.79027	0.39899	-0.48117
0.544	175.74	-20814	2888.5	-0.79095	0.39879	-0.48166
0.546	175.74	-20816	2888.9	-0.79163	0.3986	-0.48214
0.548	175.74	-20819	2889.3	-0.79232	0.3984	-0.48263
0.55	175.72	-20822	2889.7	-0.793	0.39821	-0.48312
0.552	175.72	-20821	2890.1	-0.79349	0.3985	-0.48302
0.554	175.72	-20814	2890.5	-0.79398	0.39879	-0.48292
0.556	175.73	-20810	2890.9	-0.79446	0.39909	-0.48283
0.558	175.72	-20809	2891.4	-0.79495	0.39938	-0.48273
0.56	175.72	-20808	2891.8	-0.79544	0.39967	-0.48263
0.562	175.73	-20808	2892.2	-0.79544	0.40084	-0.48214
0.564	175.72	-20809	2892.6	-0.79544	0.40201	-0.48166
0.566	175.71	-20810	2893.1	-0.79544	0.40319	-0.48117
0.568	175.7	-20811	2893.5	-0.79544	0.40436	-0.48068
0.57	175.71	-20812	2893.9	-0.79544	0.40553	-0.48019
0.572	175.72	-20812	2894.3	-0.79407	0.40445	-0.48068
0.574	175.72	-20811	2894.7	-0.79271	0.40338	-0.48117
0.576	175.73	-20807	2895.1	-0.79134	0.40231	-0.48166
0.578	175.73	-20799	2895.5	-0.78997	0.40123	-0.48214
0.58	175.73	-20796	2895.9	-0.78861	0.40016	-0.48263
0.582	175.74	-20799	2896.2	-0.7891	0.39967	-0.48273
0.584	175.73	-20800	2896.5	-0.78958	0.39918	-0.48283
0.586	175.72	-20798	2896.9	-0.79007	0.3987	-0.48292
0.588	175.73	-20794	2897.2	-0.79056	0.39821	-0.48302
0.59	175.74	-20787	2897.5	-0.79105	0.39772	-0.48312
0.592	175.75	-20785	2897.8	-0.79124	0.39772	-0.48273
0.594	175.75	-20787	2898	-0.79144	0.39772	-0.48234
0.596	175.74	-20791	2898.3	-0.79163	0.39772	-0.48195
0.598	175.73	-20799	2898.5	-0.79183	0.39772	-0.48156
0.6	175.73	-20796	2898.8	-0.79202	0.39772	-0.48117
0.602	175.74	-20783	2899	-0.7929	0.39772	-0.48195
0.604	175.74	-20777	2899.3	-0.79378	0.39772	-0.48273
0.606	175.74	-20780	2899.5	-0.79466	0.39772	-0.48351
0.608	175.74	-20782	2899.8	-0.79554	0.39772	-0.48429
0.61	175.74	-20785	2900	-0.79642	0.39772	-0.48507
0.612	175.74	-20785	2900.2	-0.79534	0.3984	-0.48478
0.614	175.75	-20782	2900.4	-0.79427	0.39909	-0.48449
0.616	175.76	-20778	2900.6	-0.7932	0.39977	-0.48419
0.618	175.77	-20774	2900.7	-0.79212	0.40045	-0.4839
0.62	175.77	-20772	2900.9	-0.79105	0.40114	-0.48361
0.622	175.77	-20772	2901.1	-0.79036	0.40084	-0.48332
0.624	175.77	-20767	2901.3	-0.78968	0.40055	-0.48302
0.626	175.78	-20758	2901.4	-0.789	0.40026	-0.48273
0.628	175.79	-20753	2901.6	-0.78832	0.39996	-0.48244
0.63	175.79	-20754	2901.7	-0.78763	0.39967	-0.48214
0.632	175.78	-20754	2901.9	-0.78724	0.40084	-0.48205
0.634	175.79	-20755	2902	-0.78685	0.40201	-0.48195
0.636	175.79	-20759	2902.1	-0.78646	0.40319	-0.48185
0.638	175.8	-20764	2902.1	-0.78607	0.40436	-0.48175
0.64	175.8	-20768	2902.2	-0.78568	0.40553	-0.48166
0.642	175.8	-20769	2902.2	-0.78597	0.40553	-0.48117
0.644	175.78	-20763	2902.3	-0.78627	0.40553	-0.48068
0.646	175.78	-20750	2902.4	-0.78656	0.40553	-0.48019
0.648	175.78	-20746	2902.4	-0.78685	0.40553	-0.4797
0.65	175.78	-20750	2902.5	-0.78714	0.40553	-0.47922
0.652	175.79	-20755	2902.6	-0.78636	0.40543	-0.47902
0.654	175.79	-20760	2902.6	-0.78558	0.40533	-0.47883
0.656	175.78	-20760	2902.7	-0.7848	0.40524	-0.47863
0.658	175.78	-20755	2902.7	-0.78402	0.40514	-0.47844
0.66	175.79	-20751	2902.7	-0.78324	0.40504	-0.47824
0.662	175.8	-20750	2902.8	-0.78402	0.40553	-0.47795
0.664	175.79	-20748	2902.9	-0.7848	0.40602	-0.47765
0.666	175.78	-20745	2902.9	-0.78558	0.4065	-0.47736
0.668	175.79	-20745	2902.9	-0.78636	0.40699	-0.47707
0.67	175.79	-20748	2903	-0.78714	0.40748	-0.47678
0.672	175.79	-20749	2903	-0.78714	0.40699	-0.47697
0.674	175.78	-20748	2903	-0.78714	0.4065	-0.47717
0.676	175.78	-20745	2903	-0.78714	0.40602	-0.47736
0.678	175.78	-20742	2902.9	-0.78714	0.40553	-0.47756
0.68	175.77	-20737	2902.9	-0.78714	0.40504	-0.47775
0.682	175.76	-20730	2902.8	-0.78675	0.40572	-0.47746
0.684	175.77	-20728	2902.7	-0.78636	0.40641	-0.47717
0.686	175.79	-20730	2902.6	-0.78597	0.40709	-0.47687
0.688	175.8	-20728	2902.6	-0.78558	0.40777	-0.47658
0.69	175.8	-20724	2902.5	-0.78519	0.40846	-0.47629
0.692	175.81	-20722	2902.4	-0.7849	0.40797	-0.47668
0.694	175.81	-20724	2902.3	-0.78461	0.40748	-0.47707
0.696	175.81	-20725	2902.2	-0.78431	0.40699	-0.47746
0.698	175.8	-20724	2902.1	-0.78402	0.4065	-0.47785
0.7	175.77	-20727	2901.9	-0.78373	0.40602	-0.47824
0.702	175.75	-20732	2901.8	-0.78461	0.4066	-0.47775
0.704	175.75	-20731	2901.6	-0.78548	0.40719	-0.47726
0.706	175.75	-20724	2901.5	-0.78636	0.40777	-0.47678
0.708	175.74	-20721	2901.3	-0.78724	0.40836	-0.47629
0.71	175.74	-20721	2901.2	-0.78812	0.40894	-0.4758
0.712	175.75	-20722	2901	-0.78763	0.40865	-0.47609
0.714	175.75	-20723	2900.9	-0.78714	0.40836	-0.47639
0.716	175.75	-20719	2900.7	-0.78666	0.40807	-0.47668
0.718	175.75	-20711	2900.6	-0.78617	0.40777	-0.47697
0.72	175.75	-20708	2900.5	-0.78568	0.40748	-0.47726
0.722	175.75	-20710	2900.3	-0.78695	0.40689	-0.47697
0.724	175.75	-20711	2900.1	-0.78822	0.40631	-0.47668
0.726	175.75	-20709	2900	-0.78949	0.40572	-0.47639
0.728	175.75	-20712	2899.8	-0.79076	0.40514	-0.47609
0.73	175.75	-20718	2899.7	-0.79202	0.40455	-0.4758
0.732	175.76	-20721	2899.5	-0.79115	0.40475	-0.47678
0.734	175.76	-20721	2899.4	-0.79027	0.40494	-0.47775
0.736	175.74	-20721	2899.3	-0.78939	0.40514	-0.47873
0.738	175.73	-20721	2899.1	-0.78851	0.40533	-0.4797
0.74	175.73	-20719	2899	-0.78763	0.40553	-0.48068
0.742	175.72	-20715	2898.9	-0.78792	0.40514	-0.48048
0.744	175.71	-20713	2898.8	-0.78822	0.40475	-0.48029
0.746	175.72	-20712	2898.7	-0.78851	0.40436	-0.48009
0.748	175.73	-20712	2898.6	-0.7888	0.40397	-0.4799
0.75	175.74	-20712	2898.5	-0.7891	0.40358	-0.4797
0.752	175.73	-20714	2898.4	-0.7891	0.40338	-0.47941
0.754	175.71	-20716	2898.3	-0.7891	0.40319	-0.47912
0.756	175.71	-20716	2898.2	-0.7891	0.40299	-0.47883
0.758	175.71	-20715	2898.1	-0.7891	0.4028	-0.47853
0.76	175.7	-20715	2898	-0.7891	0.4026	-0.47824
0.762	175.69	-20716	2897.8	-0.78997	0.4025	-0.47785
0.764	175.71	-20716	2897.7	-0.79085	0.4024	-0.47746
0.766	175.72	-20717	2897.5	-0.79173	0.40231	-0.47707
0.768	175.72	-20718	2897.4	-0.79261	0.40221	-0.47668
0.77	175.72	-20718	2897.2	-0.79349	0.40211	-0.47629
0.772	175.72	-20716	2897.1	-0.7929	0.40192	-0.47658
0.774	175.71	-20712	2897	-0.79232	0.40172	-0.47687
0.776	175.69	-20709	2896.9	-0.79173	0.40153	-0.47717
0.778	175.67	-20709	2896.7	-0.79115	0.40133	-0.47746
0.78	175.67	-20709	2896.6	-0.79056	0.40114	-0.47775
0.782	175.68	-20712	2896.5	-0.79056	0.40104	-0.47795
0.784	175.69	-20713	2896.4	-0.79056	0.40094	-0.47814
0.786	175.69	-20711	2896.2	-0.79056	0.40084	-0.47834
0.788	175.68	-20710	2896.1	-0.79056	0.40075	-0.47853
0.79	175.68	-20708	2896	-0.79056	0.40065	-0.47873
0.792	175.69	-20707	2895.9	-0.79115	0.40045	-0.4798
0.794	175.7	-20708	2895.8	-0.79173	0.40026	-0.48088
0.796	175.69	-20710	2895.7	-0.79232	0.40006	-0.48195
0.798	175.69	-20713	2895.6	-0.7929	0.39987	-0.48302
0.8	175.69	-20717	2895.6	-0.79349	0.39967	-0.4841
0.802	175.69	-20720	2895.5	-0.79339	0.39938	-0.48253
0.804	175.69	-20722	2895.5	-0.79329	0.39909	-0.48097
0.806	175.68	-20723	2895.5	-0.7932	0.39879	-0.47941
0.808	175.67	-20721	2895.4	-0.7931	0.3985	-0.47785
0.81	175.67	-20717	2895.4	-0.793	0.39821	-0.47629
0.812	175.66	-20715	2895.4	-0.79232	0.39879	-0.47785
0.814	175.65	-20716	2895.3	-0.79163	0.39938	-0.47941
0.816	175.65	-20718	2895.3	-0.79095	0.39996	-0.48097
0.818	175.66	-20719	2895.3	-0.79027	0.40055	-0.48253
0.82	175.68	-20720	2895.3	-0.78958	0.40114	-0.4841
0.822	175.69	-20721	2895.3	-0.79007	0.40045	-0.48351
0.824	175.67	-20722	2895.3	-0.79056	0.39977	-0.48292
0.826	175.66	-20722	2895.3	-0.79105	0.39909	-0.48234
0.828	175.65	-20721	2895.3	-0.79154	0.3984	-0.48175
0.83	175.66	-20720	2895.3	-0.79202	0.39772	-0.48117
0.832	175.65	-20718	2895.3	-0.7928	0.39831	-0.48195
0.834	175.62	-20716	2895.3	-0.79359	0.39889	-0.48273
0.836	175.61	-20714	2895.3	-0.79437	0.39948	-0.48351
0.838	175.62	-20713	2895.3	-0.79515	0.40006	-0.48429
0.84	175.62	-20712	2895.4	-0.79593	0.40065	-0.48507
0.842	175.62	-20711	2895.4	-0.79534	0.40016	-0.48478
0.844	175.63	-20713	2895.4	-0.79476	0.39967	-0.48449
0.846	175.61	-20718	2895.4	-0.79417	0.39918	-0.48419
0.848	175.57	-20721	2895.4	-0.79359	0.3987	-0.4839
0.85	175.57	-20721	2895.4	-0.793	0.39821	-0.48361
0.852	175.58	-20721	2895.3	-0.79241	0.39831	-0.48302
0.854	175.6	-20720	2895.2	-0.79183	0.3984	-0.48244
0.856	175.6	-20720	2895.2	-0.79124	0.3985	-0.48185
0.858	175.6	-20721	2895.1	-0.79066	0.3986	-0.48127
0.86	175.61	-20720	2895.1	-0.79007	0.3987	-0.48068
0.862	175.61	-20717	2895	-0.78968	0.39899	-0.48068
0.864	175.61	-20714	2894.9	-0.78929	0.39928	-0.48068
0.866	175.6	-20712	2894.8	-0.7889	0.39957	-0.48068
0.868	175.59	-20711	2894.6	-0.78851	0.39987	-0.48068
0.87	175.59	-20711	2894.5	-0.78812	0.40016	-0.48068
0.872	175.59	-20714	2894.4	-0.78812	0.40036	-0.48097
0.874	175.59	-20719	2894.3	-0.78812	0.40055	-0.48127
0.876	175.59	-20722	2894.2	-0.78812	0.40075	-0.48156
0.878	175.59	-20723	2894.1	-0.78812	0.40094	-0.48185
0.88	175.59	-20721	2893.9	-0.78812	0.40114	-0.48214
0.882	175.59	-20717	2893.8	-0.78851	0.40026	-0.48234
0.884	175.58	-20711	2893.7	-0.7889	0.39938	-0.48253
0.886	175.57	-20704	2893.5	-0.78929	0.3985	-0.48273
0.888	175.57	-20707	2893.4	-0.78968	0.39762	-0.48292
0.89	175.57	-20718	2893.3	-0.79007	0.39674	-0.48312
0.892	175.58	-20723	2893.2	-0.79056	0.39743	-0.48341
0.894	175.58	-20721	2893.1	-0.79105	0.39811	-0.48371
0.896	175.58	-20719	2893	-0.79154	0.39879	-0.484
0.898	175.58	-20718	2892.9	-0.79202	0.39948	-0.48429
0.9	175.58	-20717	2892.8	-0.79251	0.40016	-0.48458
0.902	175.59	-20718	2892.7	-0.79183	0.39987	-0.4838
0.904	175.59	-20721	2892.6	-0.79115	0.39957	-0.48302
0.906	175.62	-20724	2892.4	-0.79046	0.39928	-0.48224
0.908	175.63	-20724	2892.3	-0.78978	0.39899	-0.48146
0.91	175.64	-20720	2892.2	-0.7891	0.3987	-0.48068
0.912	175.65	-20718	2892.1	-0.78919	0.39948	-0.48127
0.914	175.65	-20718	2892	-0.78929	0.40026	-0.48185
0.916	175.65	-20718	2891.9	-0.78939	0.40104	-0.48244
0.918	175.65	-20717	2891.8	-0.78949	0.40182	-0.48302
0.92	175.66	-20718	2891.7	-0.78958	0.4026	-0.48361
0.922	175.66	-20719	2891.6	-0.7891	0.4024	-0.48332
0.924	175.66	-20720	2891.6	-0.78861	0.40221	-0.48302
0.926	175.66	-20722	2891.5	-0.78812	0.40201	-0.48273
0.928	175.65	-20725	2891.4	-0.78763	0.40182	-0.48244
0.93	175.62	-20727	2891.4	-0.78714	0.40162	-0.48214
0.932	175.6	-20728	2891.3	-0.78812	0.40075	-0.48185
0.934	175.62	-20727	2891.2	-0.7891	0.39987	-0.48156
0.936	175.63	-20725	2891.2	-0.79007	0.39899	-0.48127
0.938	175.63	-20724	2891.1	-0.79105	0.39811	-0.48097
0.94	175.63	-20724	2891	-0.79202	0.39723	-0.48068
0.942	175.62	-20724	2891	-0.79115	0.39889	-0.48048
0.944	175.61	-20723	2890.9	-0.79027	0.40055	-0.48029
0.946	175.6	-20721	2890.8	-0.78939	0.40221	-0.48009
0.948	175.61	-20721	2890.7	-0.78851	0.40387	-0.4799
0.95	175.61	-20722	2890.7	-0.78763	0.40553	-0.4797
0.952	175.61	-20721	2890.6	-0.78783	0.40475	-0.48
0.954	175.61	-20720	2890.5	-0.78802	0.40397	-0.48029
0.956	175.62	-20719	2890.4	-0.78822	0.40319	-0.48058
0.958	175.62	-20721	2890.3	-0.78841	0.4024	-0.48088
0.96	175.62	-20724	2890.3	-0.78861	0.40162	-0.48117
0.962	175.62	-20728	2890.1	-0.7888	0.40192	-0.48097
0.964	175.62	-20730	2890	-0.789	0.40221	-0.48078
0.966	175.64	-20729	2889.9	-0.78919	0.4025	-0.48058
0.968	175.66	-20731	2889.9	-0.78939	0.4028	-0.48039
0.97	175.68	-20734	2889.8	-0.78958	0.40309	-0.48019
0.972	175.71	-20736	2889.7	-0.78939	0.40367	-0.4799
0.974	175.75	-20737	2889.6	-0.78919	0.40426	-0.47961
0.976	175.77	-20735	2889.5	-0.789	0.40484	-0.47931
0.978	175.76	-20728	2889.4	-0.7888	0.40543	-0.47902
0.98	175.72	-20726	2889.3	-0.78861	0.40602	-0.47873
0.982	175.66	-20729	2889.2	-0.7889	0.40524	-0.47892
0.984	175.58	-20731	2889.1	-0.78919	0.40445	-0.47912
0.986	175.48	-20732	2889.1	-0.78949	0.40367	-0.47931
0.988	175.38	-20732	2889	-0.78978	0.40289	-0.47951
0.99	175.28	-20732	2888.9	-0.79007	0.40211	-0.4797
0.992	175.16	-20733	2888.9	-0.79007	0.40192	-0.48009
0.994	175.04	-20737	2888.9	-0.79007	0.40172	-0.48048
0.996	174.9	-20737	2888.8	-0.79007	0.40153	-0.48088
0.998	174.75	-20734	2888.8	-0.79007	0.40133	-0.48127
1	174.59	-20734	2888.7	-0.79007	0.40114	-0.48166
1.002	174.46	-20736	2888.7	-0.78968	0.40143	-0.48195
1.004	174.33	-20736	2888.7	-0.78929	0.40172	-0.48224
1.006	174.23	-20734	2888.6	-0.7889	0.40201	-0.48253
1.008	174.19	-20734	2888.5	-0.78851	0.40231	-0.48283
1.01	174.25	-20735	2888.5	-0.78812	0.4026	-0.48312
1.012	174.41	-20735	2888.4	-0.78783	0.40289	-0.48253
1.014	174.61	-20735	2888.3	-0.78753	0.40319	-0.48195
1.016	174.82	-20740	2888.2	-0.78724	0.40348	-0.48136
1.018	175	-20752	2888.1	-0.78695	0.40377	-0.48078
1.02	175.15	-20758	2888	-0.78666	0.40406	-0.48019
1.022	175.27	-20759	2887.9	-0.78734	0.40406	-0.48058
1.024	175.37	-20758	2887.7	-0.78802	0.40406	-0.48097
1.026	175.44	-20756	2887.6	-0.78871	0.40406	-0.48136
1.028	175.52	-20756	2887.5	-0.78939	0.40406	-0.48175
1.03	175.58	-20759	2887.4	-0.79007	0.40406	-0.48214
1.032	175.6	-20755	2887.3	-0.78978	0.40328	-0.48234
1.034	175.59	-20746	2887.2	-0.78949	0.4025	-0.48253
1.036	175.56	-20742	2887.1	-0.78919	0.40172	-0.48273
1.038	175.51	-20743	2887	-0.7889	0.40094	-0.48292
1.04	175.47	-20744	2886.9	-0.78861	0.40016	-0.48312
1.042	175.45	-20746	2886.9	-0.78861	0.40026	-0.48283
1.044	175.44	-20748	2886.8	-0.78861	0.40036	-0.48253
1.046	175.44	-20749	2886.7	-0.78861	0.40045	-0.48224
1.048	175.45	-20750	2886.6	-0.78861	0.40055	-0.48195
1.05	175.46	-20751	2886.5	-0.78861	0.40065	-0.48166
1.052	175.47	-20748	2886.4	-0.789	0.40055	-0.48175
1.054	175.48	-20741	2886.3	-0.78939	0.40045	-0.48185
1.056	175.48	-20742	2886.2	-0.78978	0.40036	-0.48195
1.058	175.48	-20750	2886.1	-0.79017	0.40026	-0.48205
1.06	175.48	-20754	2886	-0.79056	0.40016	-0.48214
1.062	175.48	-20755	2885.9	-0.79007	0.40055	-0.48214
1.064	175.47	-20759	2885.8	-0.78958	0.40094	-0.48214
1.066	175.47	-20766	2885.7	-0.7891	0.40133	-0.48214
1.068	175.48	-20767	2885.6	-0.78861	0.40172	-0.48214
1.07	175.48	-20762	2885.6	-0.78812	0.40211	-0.48214
1.072	175.48	-20760	2885.5	-0.78783	0.4025	-0.48175
1.074	175.47	-20761	2885.3	-0.78753	0.40289	-0.48136
1.076	175.47	-20762	2885.2	-0.78724	0.40328	-0.48097
1.078	175.49	-20763	2885.2	-0.78695	0.40367	-0.48058
1.08	175.5	-20764	2885.1	-0.78666	0.40406	-0.48019
1.082	175.51	-20764	2885	-0.78646	0.40504	-0.47922
1.084	175.49	-20765	2885	-0.78627	0.40602	-0.47824
1.086	175.5	-20766	2885	-0.78607	0.40699	-0.47726
1.088	175.5	-20764	2885	-0.78588	0.40797	-0.47629
1.09	175.47	-20759	2884.9	-0.78568	0.40894	-0.47531
1.092	175.45	-20758	2885	-0.78656	0.40787	-0.47678
1.094	175.45	-20761	2885	-0.78744	0.4068	-0.47824
1.096	175.44	-20762	2885	-0.78832	0.40572	-0.4797
1.098	175.45	-20763	2885.1	-0.78919	0.40465	-0.48117
1.1	175.45	-20763	2885.1	-0.79007	0.40358	-0.48263
1.102	175.46	-20763	2885.2	-0.79105	0.40328	-0.48322
1.104	175.45	-20764	2885.3	-0.79202	0.40299	-0.4838
1.106	175.43	-20765	2885.3	-0.793	0.4027	-0.48439
1.108	175.42	-20769	2885.3	-0.79398	0.4024	-0.48497
1.11	175.41	-20774	2885.4	-0.79495	0.40211	-0.48556
1.112	175.42	-20776	2885.4	-0.79427	0.40133	-0.48488
1.114	175.42	-20775	2885.5	-0.79359	0.40055	-0.48419
1.116	175.42	-20774	2885.6	-0.7929	0.39977	-0.48351
1.118	175.42	-20773	2885.6	-0.79222	0.39899	-0.48283
1.12	175.42	-20774	2885.6	-0.79154	0.39821	-0.48214
1.122	175.42	-20777	2885.6	-0.79076	0.39899	-0.48156
1.124	175.41	-20778	2885.6	-0.78997	0.39977	-0.48097
1.126	175.4	-20777	2885.6	-0.78919	0.40055	-0.48039
1.128	175.39	-20777	2885.6	-0.78841	0.40133	-0.4798
1.13	175.4	-20776	2885.6	-0.78763	0.40211	-0.47922
1.132	175.4	-20776	2885.6	-0.78763	0.4025	-0.47922
1.134	175.38	-20776	2885.5	-0.78763	0.40289	-0.47922
1.136	175.38	-20777	2885.5	-0.78763	0.40328	-0.47922
1.138	175.39	-20780	2885.4	-0.78763	0.40367	-0.47922
1.14	175.4	-20783	2885.3	-0.78763	0.40406	-0.47922
1.142	175.39	-20784	2885.3	-0.78724	0.40465	-0.47922
1.144	175.38	-20783	2885.2	-0.78685	0.40524	-0.47922
1.146	175.38	-20781	2885.1	-0.78646	0.40582	-0.47922
1.148	175.39	-20785	2885	-0.78607	0.40641	-0.47922
1.15	175.37	-20795	2884.9	-0.78568	0.40699	-0.47922
1.152	175.35	-20800	2884.8	-0.78558	0.4066	-0.47961
1.154	175.34	-20799	2884.7	-0.78548	0.40621	-0.48
1.156	175.34	-20797	2884.6	-0.78539	0.40582	-0.48039
1.158	175.35	-20794	2884.6	-0.78529	0.40543	-0.48078
1.16	175.35	-20792	2884.5	-0.78519	0.40504	-0.48117
1.162	175.34	-20793	2884.5	-0.78597	0.40504	-0.48019
1.164	175.34	-20794	2884.5	-0.78675	0.40504	-0.47922
1.166	175.35	-20795	2884.5	-0.78753	0.40504	-0.47824
1.168	175.36	-20795	2884.6	-0.78832	0.40504	-0.47726
1.17	175.33	-20795	2884.7	-0.7891	0.40504	-0.47629
1.172	175.31	-20794	2884.8	-0.78988	0.40358	-0.47765
1.174	175.32	-20794	2884.9	-0.79066	0.40211	-0.47902
1.176	175.32	-20794	2885.1	-0.79144	0.40065	-0.48039
1.178	175.29	-20795	2885.3	-0.79222	0.39918	-0.48175
1.18	175.29	-20797	2885.5	-0.793	0.39772	-0.48312
1.182	175.29	-20802	2885.8	-0.7929	0.39752	-0.48244
1.184	175.29	-20802	2886.1	-0.7928	0.39733	-0.48175
1.186	175.29	-20795	2886.5	-0.79271	0.39713	-0.48107
1.188	175.29	-20791	2886.9	-0.79261	0.39694	-0.48039
1.19	175.29	-20789	2887.3	-0.79251	0.39674	-0.4797
1.192	175.28	-20792	2887.7	-0.79232	0.39713	-0.4799
1.194	175.28	-20798	2888.1	-0.79212	0.39752	-0.48009
1.196	175.28	-20801	2888.5	-0.79193	0.39792	-0.48029
1.198	175.27	-20801	2888.9	-0.79173	0.39831	-0.48048
1.2	175.26	-20800	2889.3	-0.79154	0.3987	-0.48068
1.202	175.26	-20798	2889.8	-0.79173	0.3986	-0.48078
1.204	175.26	-20796	2890.3	-0.79193	0.3985	-0.48088
1.206	175.27	-20795	2890.7	-0.79212	0.3984	-0.48097
1.208	175.27	-20794	2891.2	-0.79232	0.39831	-0.48107
1.21	175.27	-20793	2891.6	-0.79251	0.39821	-0.48117
1.212	175.26	-20794	2892	-0.7929	0.39782	-0.48068
1.214	175.23	-20797	2892.5	-0.79329	0.39743	-0.48019
1.216	175.22	-20798	2892.9	-0.79368	0.39704	-0.4797
1.218	175.24	-20798	2893.3	-0.79407	0.39665	-0.47922
1.22	175.25	-20796	2893.7	-0.79446	0.39626	-0.47873
1.222	175.25	-20793	2894.1	-0.79388	0.39606	-0.47873
1.224	175.25	-20791	2894.5	-0.79329	0.39587	-0.47873
1.226	175.24	-20790	2894.9	-0.79271	0.39567	-0.47873
1.228	175.25	-20789	2895.3	-0.79212	0.39548	-0.47873
1.23	175.24	-20786	2895.6	-0.79154	0.39528	-0.47873
1.232	175.24	-20783	2896	-0.79124	0.39567	-0.47912
1.234	175.24	-20780	2896.3	-0.79095	0.39606	-0.47951
1.236	175.23	-20778	2896.6	-0.79066	0.39645	-0.4799
1.238	175.23	-20778	2896.9	-0.79036	0.39684	-0.48029
1.24	175.23	-20778	2897.2	-0.79007	0.39723	-0.48068
1.242	175.23	-20778	2897.5	-0.79036	0.39752	-0.48048
1.244	175.22	-20779	2897.8	-0.79066	0.39782	-0.48029
1.246	175.21	-20779	2898.1	-0.79095	0.39811	-0.48009
1.248	175.23	-20779	2898.3	-0.79124	0.3984	-0.4799
1.25	175.24	-20780	2898.6	-0.79154	0.3987	-0.4797
1.252	175.24	-20778	2898.8	-0.79046	0.39957	-0.48009
1.254	175.24	-20773	2899	-0.78939	0.40045	-0.48048
1.256	175.23	-20771	2899.2	-0.78832	0.40133	-0.48088
1.258	175.24	-20771	2899.4	-0.78724	0.40221	-0.48127
1.26	175.26	-20771	2899.7	-0.78617	0.40309	-0.48166
1.262	175.26	-20770	2899.9	-0.78636	0.4026	-0.48185
1.264	175.25	-20770	2900.1	-0.78656	0.40211	-0.48205
1.266	175.27	-20768	2900.3	-0.78675	0.40162	-0.48224
1.268	175.3	-20768	2900.5	-0.78695	0.40114	-0.48244
1.27	175.3	-20769	2900.8	-0.78714	0.40065	-0.48263
1.272	175.27	-20768	2901	-0.78812	0.39987	-0.48253
1.274	175.26	-20765	2901.2	-0.7891	0.39909	-0.48244
1.276	175.25	-20762	2901.4	-0.79007	0.39831	-0.48234
1.278	175.26	-20758	2901.6	-0.79105	0.39752	-0.48224
1.28	175.27	-20756	2901.9	-0.79202	0.39674	-0.48214
1.282	175.28	-20756	2902.1	-0.79349	0.39665	-0.48019
1.284	175.28	-20756	2902.4	-0.79495	0.39655	-0.47824
1.286	175.28	-20756	2902.6	-0.79642	0.39645	-0.47629
1.288	175.29	-20754	2902.8	-0.79788	0.39635	-0.47434
1.29	175.29	-20751	2903	-0.79934	0.39626	-0.47238
1.292	175.29	-20749	2903.2	-0.79837	0.39538	-0.47297
1.294	175.3	-20748	2903.4	-0.79739	0.3945	-0.47356
1.296	175.29	-20748	2903.6	-0.79642	0.39362	-0.47414
1.298	175.28	-20747	2903.8	-0.79544	0.39274	-0.47473
1.3	175.29	-20744	2903.9	-0.79446	0.39186	-0.47531
1.302	175.3	-20740	2904.1	-0.79524	0.39274	-0.47492
1.304	175.31	-20736	2904.2	-0.79603	0.39362	-0.47453
1.306	175.31	-20734	2904.4	-0.79681	0.3945	-0.47414
1.308	175.31	-20736	2904.4	-0.79759	0.39538	-0.47375
1.31	175.29	-20741	2904.5	-0.79837	0.39626	-0.47336
1.312	175.29	-20740	2904.7	-0.79768	0.39606	-0.47385
1.314	175.28	-20732	2904.8	-0.797	0.39587	-0.47434
1.316	175.29	-20726	2904.9	-0.79632	0.39567	-0.47482
1.318	175.3	-20723	2905	-0.79564	0.39548	-0.47531
1.32	175.3	-20724	2905.1	-0.79495	0.39528	-0.4758
1.322	175.31	-20729	2905.1	-0.79427	0.39538	-0.47629
1.324	175.32	-20732	2905.2	-0.79359	0.39548	-0.47678
1.326	175.32	-20732	2905.2	-0.7929	0.39557	-0.47726
1.328	175.3	-20732	2905.3	-0.79222	0.39567	-0.47775
1.33	175.28	-20730	2905.4	-0.79154	0.39577	-0.47824
1.332	175.29	-20727	2905.4	-0.79154	0.39616	-0.47814
1.334	175.3	-20724	2905.5	-0.79154	0.39655	-0.47804
1.336	175.28	-20722	2905.5	-0.79154	0.39694	-0.47795
1.338	175.27	-20722	2905.5	-0.79154	0.39733	-0.47785
1.34	175.27	-20721	2905.6	-0.79154	0.39772	-0.47775
1.342	175.28	-20720	2905.5	-0.79076	0.3986	-0.47814
1.344	175.28	-20719	2905.5	-0.78997	0.39948	-0.47853
1.346	175.28	-20716	2905.5	-0.78919	0.40036	-0.47892
1.348	175.29	-20713	2905.5	-0.78841	0.40123	-0.47931
1.35	175.29	-20709	2905.5	-0.78763	0.40211	-0.4797
1.352	175.3	-20709	2905.4	-0.78734	0.4026	-0.48009
1.354	175.3	-20712	2905.4	-0.78705	0.40309	-0.48048
1.356	175.32	-20713	2905.3	-0.78675	0.40358	-0.48088
1.358	175.32	-20712	2905.2	-0.78646	0.40406	-0.48127
1.36	175.31	-20709	2905.2	-0.78617	0.40455	-0.48166
1.362	175.33	-20704	2905.1	-0.78588	0.40484	-0.48078
1.364	175.32	-20702	2905	-0.78558	0.40514	-0.4799
1.366	175.29	-20702	2904.9	-0.78529	0.40543	-0.47902
1.368	175.27	-20704	2904.9	-0.785	0.40572	-0.47814
1.37	175.26	-20707	2904.8	-0.7847	0.40602	-0.47726
1.372	175.26	-20709	2904.7	-0.78685	0.40514	-0.47765
1.374	175.27	-20709	2904.6	-0.789	0.40426	-0.47804
1.376	175.28	-20707	2904.5	-0.79115	0.40338	-0.47844
1.378	175.28	-20703	2904.4	-0.79329	0.4025	-0.47883
1.38	175.28	-20701	2904.3	-0.79544	0.40162	-0.47922
1.382	175.28	-20701	2904.2	-0.79398	0.4025	-0.47892
1.384	175.27	-20703	2904.1	-0.79251	0.40338	-0.47863
1.386	175.26	-20706	2904	-0.79105	0.40426	-0.47834
1.388	175.26	-20707	2903.9	-0.78958	0.40514	-0.47804
1.39	175.26	-20707	2903.8	-0.78812	0.40602	-0.47775
1.392	175.26	-20706	2903.7	-0.7889	0.40504	-0.47824
1.394	175.24	-20704	2903.6	-0.78968	0.40406	-0.47873
1.396	175.24	-20705	2903.5	-0.79046	0.40309	-0.47922
1.398	175.24	-20709	2903.4	-0.79124	0.40211	-0.4797
1.4	175.24	-20708	2903.4	-0.79202	0.40114	-0.48019
1.402	175.24	-20702	2903.3	-0.79183	0.40133	-0.4799
1.404	175.24	-20699	2903.1	-0.79163	0.40153	-0.47961
1.406	175.24	-20699	2903	-0.79144	0.40172	-0.47931
1.408	175.24	-20697	2902.9	-0.79124	0.40192	-0.47902
1.41	175.24	-20696	2902.8	-0.79105	0.40211	-0.47873
1.412	175.24	-20697	2902.7	-0.79115	0.40231	-0.47804
1.414	175.23	-20702	2902.6	-0.79124	0.4025	-0.47736
1.416	175.25	-20704	2902.4	-0.79134	0.4027	-0.47668
1.418	175.25	-20701	2902.3	-0.79144	0.40289	-0.476
1.42	175.25	-20698	2902.1	-0.79154	0.40309	-0.47531
1.422	175.23	-20694	2902	-0.79124	0.4026	-0.4759
1.424	175.22	-20693	2901.9	-0.79095	0.40211	-0.47648
1.426	175.22	-20695	2901.7	-0.79066	0.40162	-0.47707
1.428	175.22	-20697	2901.6	-0.79036	0.40114	-0.47765
1.43	175.22	-20699	2901.4	-0.79007	0.40065	-0.47824
1.432	175.22	-20701	2901.2	-0.79173	0.40094	-0.47765
1.434	175.22	-20702	2901	-0.79339	0.40123	-0.47707
1.436	175.22	-20701	2900.9	-0.79505	0.40153	-0.47648
1.438	175.23	-20698	2900.8	-0.79671	0.40182	-0.4759
1.44	175.23	-20697	2900.6	-0.79837	0.40211	-0.47531
1.442	175.24	-20697	2900.5	-0.79866	0.40338	-0.47492
1.444	175.23	-20700	2900.4	-0.79895	0.40465	-0.47453
1.446	175.23	-20703	2900.3	-0.79925	0.40592	-0.47414
1.448	175.22	-20703	2900.2	-0.79954	0.40719	-0.47375
1.45	175.22	-20699	2900.1	-0.79983	0.40846	-0.47336
1.452	175.23	-20699	2900.1	-0.80061	0.40758	-0.47336
1.454	175.22	-20704	2900	-0.80139	0.4067	-0.47336
1.456	175.21	-20703	2900	-0.80217	0.40582	-0.47336
1.458	175.21	-20696	2899.9	-0.80296	0.40494	-0.47336
1.46	175.22	-20693	2899.9	-0.80374	0.40406	-0.47336
1.462	175.23	-20696	2899.9	-0.80315	0.40426	-0.47356
1.464	175.21	-20697	2899.9	-0.80256	0.40445	-0.47375
1.466	175.19	-20697	2899.9	-0.80198	0.40465	-0.47395
1.468	175.19	-20700	2899.9	-0.80139	0.40484	-0.47414
1.47	175.2	-20703	2899.9	-0.80081	0.40504	-0.47434
1.472	175.2	-20704	2899.9	-0.80022	0.40387	-0.47492
1.474	175.19	-20702	2900	-0.79964	0.4027	-0.47551
1.476	175.19	-20701	2900	-0.79905	0.40153	-0.47609
1.478	175.2	-20702	2900	-0.79847	0.40036	-0.47668
1.48	175.2	-20699	2900	-0.79788	0.39918	-0.47726
1.482	175.21	-20691	2900	-0.79759	0.3985	-0.47678
1.484	175.2	-20693	2900	-0.79729	0.39782	-0.47629
1.486	175.18	-20704	2900	-0.797	0.39713	-0.4758
1.488	175.17	-20708	2900	-0.79671	0.39645	-0.47531
1.49	175.17	-20706	2900	-0.79642	0.39577	-0.47482
1.492	175.18	-20706	2900	-0.79651	0.39684	-0.47531
1.494	175.19	-20707	2900	-0.79661	0.39792	-0.4758
1.496	175.19	-20705	2899.9	-0.79671	0.39899	-0.47629
1.498	175.19	-20699	2899.9	-0.79681	0.40006	-0.47678
1.5	175.18	-20696	2899.9	-0.7969	0.40114	-0.47726
1.502	175.17	-20697	2899.9	-0.79671	0.40026	-0.47658
1.504	175.14	-20698	2900	-0.79651	0.39938	-0.4759
1.506	175.12	-20700	2900	-0.79632	0.3985	-0.47521
1.508	175.11	-20699	2900	-0.79612	0.39762	-0.47453
1.51	175.13	-20694	2900	-0.79593	0.39674	-0.47385
1.512	175.15	-20692	2900	-0.79573	0.39733	-0.47502
1.514	175.15	-20693	2900	-0.79554	0.39792	-0.47619
1.516	175.16	-20695	2900	-0.79534	0.3985	-0.47736
1.518	175.14	-20699	2899.9	-0.79515	0.39909	-0.47853
1.52	175.14	-20702	2899.9	-0.79495	0.39967	-0.4797
1.522	175.14	-20706	2899.8	-0.79476	0.39899	-0.47902
1.524	175.13	-20708	2899.8	-0.79456	0.39831	-0.47834
1.526	175.13	-20707	2899.7	-0.79437	0.39762	-0.47765
1.528	175.14	-20709	2899.6	-0.79417	0.39694	-0.47697
1.53	175.14	-20712	2899.5	-0.79398	0.39626	-0.47629
1.532	175.13	-20709	2899.4	-0.79437	0.39616	-0.4758
1.534	175.11	-20700	2899.3	-0.79476	0.39606	-0.47531
1.536	175.12	-20696	2899.2	-0.79515	0.39596	-0.47482
1.538	175.12	-20698	2899.1	-0.79554	0.39587	-0.47434
1.54	175.12	-20701	2899	-0.79593	0.39577	-0.47385
1.542	175.13	-20703	2898.8	-0.79544	0.39508	-0.47414
1.544	175.13	-20704	2898.7	-0.79495	0.3944	-0.47443
1.546	175.13	-20703	2898.6	-0.79446	0.39372	-0.47473
1.548	175.13	-20703	2898.5	-0.79398	0.39304	-0.47502
1.55	175.15	-20702	2898.4	-0.79349	0.39235	-0.47531
1.552	175.15	-20703	2898.3	-0.79446	0.39304	-0.47541
1.554	175.16	-20705	2898.3	-0.79544	0.39372	-0.47551
1.556	175.15	-20707	2898.2	-0.79642	0.3944	-0.4756
1.558	175.13	-20709	2898.1	-0.79739	0.39508	-0.4757
1.56	175.12	-20709	2898	-0.79837	0.39577	-0.4758
1.562	175.12	-20708	2898	-0.79808	0.39587	-0.476
1.564	175.14	-20705	2897.9	-0.79778	0.39596	-0.47619
1.566	175.15	-20702	2897.8	-0.79749	0.39606	-0.47639
1.568	175.17	-20701	2897.8	-0.7972	0.39616	-0.47658
1.57	175.18	-20703	2897.7	-0.7969	0.39626	-0.47678
1.572	175.19	-20708	2897.6	-0.79749	0.39665	-0.47629
1.574	175.2	-20716	2897.6	-0.79808	0.39704	-0.4758
1.576	175.19	-20722	2897.5	-0.79866	0.39743	-0.47531
1.578	175.17	-20724	2897.4	-0.79925	0.39782	-0.47482
1.58	175.17	-20723	2897.3	-0.79983	0.39821	-0.47434
1.582	175.18	-20720	2897.3	-0.79934	0.39713	-0.47404
1.584	175.19	-20719	2897.3	-0.79886	0.39606	-0.47375
1.586	175.19	-20720	2897.2	-0.79837	0.39499	-0.47346
1.588	175.19	-20718	2897.2	-0.79788	0.39391	-0.47316
1.59	175.18	-20713	2897.2	-0.79739	0.39284	-0.47287
1.592	175.17	-20712	2897.1	-0.797	0.39391	-0.47365
1.594	175.17	-20714	2897	-0.79661	0.39499	-0.47443
1.596	175.16	-20713	2896.9	-0.79622	0.39606	-0.47521
1.598	175.16	-20709	2896.9	-0.79583	0.39713	-0.476
1.6	175.18	-20708	2896.8	-0.79544	0.39821	-0.47678
1.602	175.19	-20710	2896.8	-0.79622	0.39831	-0.47639
1.604	175.18	-20710	2896.8	-0.797	0.3984	-0.476
1.606	175.15	-20707	2896.7	-0.79778	0.3985	-0.4756
1.608	175.13	-20707	2896.7	-0.79856	0.3986	-0.47521
1.61	175.14	-20708	2896.7	-0.79934	0.3987	-0.47482
1.612	175.16	-20712	2896.6	-0.79798	0.39889	-0.47512
1.614	175.16	-20717	2896.6	-0.79661	0.39909	-0.47541
1.616	175.16	-20720	2896.5	-0.79524	0.39928	-0.4757
1.618	175.17	-20720	2896.5	-0.79388	0.39948	-0.476
1.62	175.18	-20720	2896.5	-0.79251	0.39967	-0.47629
1.622	175.17	-20718	2896.5	-0.79232	0.39957	-0.47687
1.624	175.18	-20715	2896.4	-0.79212	0.39948	-0.47746
1.626	175.21	-20710	2896.4	-0.79193	0.39938	-0.47804
1.628	175.24	-20709	2896.4	-0.79173	0.39928	-0.47863
1.63	175.28	-20712	2896.4	-0.79154	0.39918	-0.47922
1.632	175.32	-20716	2896.4	-0.79241	0.39928	-0.47883
1.634	175.34	-20722	2896.4	-0.79329	0.39938	-0.47844
1.636	175.34	-20723	2896.4	-0.79417	0.39948	-0.47804
1.638	175.29	-20720	2896.3	-0.79505	0.39957	-0.47765
1.64	175.22	-20716	2896.3	-0.79593	0.39967	-0.47726
1.642	175.15	-20714	2896.2	-0.79681	0.39957	-0.47707
1.644	175.07	-20714	2896.2	-0.79768	0.39948	-0.47687
1.646	174.96	-20715	2896.2	-0.79856	0.39938	-0.47668
1.648	174.86	-20719	2896.2	-0.79944	0.39928	-0.47648
1.65	174.75	-20727	2896.2	-0.80032	0.39918	-0.47629
1.652	174.63	-20730	2896.2	-0.79964	0.39889	-0.47609
1.654	174.48	-20730	2896.2	-0.79895	0.3986	-0.4759
1.656	174.32	-20730	2896.1	-0.79827	0.39831	-0.4757
1.658	174.17	-20730	2896	-0.79759	0.39801	-0.47551
1.66	174.03	-20731	2896	-0.7969	0.39772	-0.47531
1.662	173.9	-20732	2895.9	-0.79651	0.39762	-0.4756
1.664	173.8	-20729	2895.7	-0.79612	0.39752	-0.4759
1.666	173.73	-20723	2895.7	-0.79573	0.39743	-0.47619
1.668	173.75	-20720	2895.6	-0.79534	0.39733	-0.47648
1.67	173.89	-20720	2895.5	-0.79495	0.39723	-0.47678
1.672	174.08	-20722	2895.4	-0.79456	0.39723	-0.47668
1.674	174.29	-20728	2895.2	-0.79417	0.39723	-0.47658
1.676	174.5	-20733	2895	-0.79378	0.39723	-0.47648
1.678	174.67	-20737	2894.9	-0.79339	0.39723	-0.47639
1.68	174.81	-20741	2894.7	-0.793	0.39723	-0.47629
1.682	174.93	-20743	2894.6	-0.79437	0.39801	-0.47619
1.684	175	-20741	2894.5	-0.79573	0.39879	-0.47609
1.686	175.05	-20735	2894.3	-0.7971	0.39957	-0.476
1.688	175.12	-20734	2894.2	-0.79847	0.40036	-0.4759
1.69	175.16	-20738	2894	-0.79983	0.40114	-0.4758
1.692	175.15	-20740	2893.9	-0.79915	0.40075	-0.4757
1.694	175.11	-20742	2893.7	-0.79847	0.40036	-0.4756
1.696	175.07	-20742	2893.6	-0.79778	0.39996	-0.47551
1.698	175.04	-20741	2893.5	-0.7971	0.39957	-0.47541
1.7	175.01	-20741	2893.4	-0.79642	0.39918	-0.47531
1.702	175	-20742	2893.3	-0.79593	0.3985	-0.4758
1.704	175	-20743	2893.2	-0.79544	0.39782	-0.47629
1.706	175	-20743	2893	-0.79495	0.39713	-0.47678
1.708	175	-20745	2892.9	-0.79446	0.39645	-0.47726
1.71	175.01	-20748	2892.8	-0.79398	0.39577	-0.47775
1.712	175.02	-20749	2892.6	-0.79505	0.39635	-0.47668
1.714	175.03	-20748	2892.5	-0.79612	0.39694	-0.4756
1.716	175.03	-20746	2892.4	-0.7972	0.39752	-0.47453
1.718	175.03	-20744	2892.3	-0.79827	0.39811	-0.47346
1.72	175.04	-20742	2892.1	-0.79934	0.3987	-0.47238
1.722	175.05	-20742	2892	-0.79866	0.39811	-0.47316
1.724	175.06	-20743	2891.9	-0.79798	0.39752	-0.47395
1.726	175.06	-20744	2891.7	-0.79729	0.39694	-0.47473
1.728	175.07	-20746	2891.6	-0.79661	0.39635	-0.47551
1.73	175.07	-20749	2891.4	-0.79593	0.39577	-0.47629
1.732	175.05	-20751	2891.3	-0.79573	0.39567	-0.4759
1.734	175.05	-20751	2891.1	-0.79554	0.39557	-0.47551
1.736	175.06	-20751	2891	-0.79534	0.39548	-0.47512
1.738	175.06	-20750	2891	-0.79515	0.39538	-0.47473
1.74	175.05	-20751	2890.9	-0.79495	0.39528	-0.47434
1.742	175.05	-20752	2890.9	-0.79515	0.39548	-0.47414
1.744	175.05	-20752	2890.8	-0.79534	0.39567	-0.47395
1.746	175.03	-20751	2890.8	-0.79554	0.39587	-0.47375
1.748	175.01	-20752	2890.8	-0.79573	0.39606	-0.47356
1.75	175.01	-20755	2890.8	-0.79593	0.39626	-0.47336
1.752	175.03	-20755	2890.8	-0.79544	0.39655	-0.47434
1.754	175.03	-20750	2890.7	-0.79495	0.39684	-0.47531
1.756	175.02	-20752	2890.8	-0.79446	0.39713	-0.47629
1.758	175.01	-20761	2890.8	-0.79398	0.39743	-0.47726
1.76	175.01	-20767	2890.8	-0.79349	0.39772	-0.47824
1.762	175.02	-20770	2890.9	-0.79417	0.3985	-0.47853
1.764	175.01	-20769	2890.9	-0.79485	0.39928	-0.47883
1.766	175	-20762	2891	-0.79554	0.40006	-0.47912
1.768	174.98	-20759	2891	-0.79622	0.40084	-0.47941
1.77	174.99	-20762	2891	-0.7969	0.40162	-0.4797
1.772	175	-20762	2891	-0.7972	0.40075	-0.47873
1.774	175	-20760	2891	-0.79749	0.39987	-0.47775
1.776	175	-20763	2891.1	-0.79778	0.39899	-0.47678
1.778	174.97	-20770	2891.1	-0.79808	0.39811	-0.4758
1.78	174.96	-20772	2891.1	-0.79837	0.39723	-0.47482
1.782	174.97	-20770	2891	-0.79837	0.3984	-0.47473
1.784	174.96	-20769	2891	-0.79837	0.39957	-0.47463
1.786	174.95	-20768	2891	-0.79837	0.40075	-0.47453
1.788	174.95	-20771	2890.9	-0.79837	0.40192	-0.47443
1.79	174.95	-20776	2890.9	-0.79837	0.40309	-0.47434
1.792	174.95	-20779	2890.8	-0.79866	0.40309	-0.47424
1.794	174.95	-20780	2890.8	-0.79895	0.40309	-0.47414
1.796	174.95	-20778	2890.7	-0.79925	0.40309	-0.47404
1.798	174.93	-20775	2890.5	-0.79954	0.40309	-0.47395
1.8	174.93	-20776	2890.4	-0.79983	0.40309	-0.47385
1.802	174.94	-20780	2890.3	-0.79954	0.40201	-0.47356
1.804	174.94	-20780	2890.2	-0.79925	0.40094	-0.47326
1.806	174.94	-20777	2890	-0.79895	0.39987	-0.47297
1.808	174.93	-20777	2889.9	-0.79866	0.39879	-0.47268
1.81	174.92	-20780	2889.7	-0.79837	0.39772	-0.47238
1.812	174.91	-20780	2889.6	-0.79876	0.39957	-0.4719
1.814	174.91	-20779	2889.5	-0.79915	0.40143	-0.47141
1.816	174.92	-20781	2889.4	-0.79954	0.40328	-0.47092
1.818	174.92	-20785	2889.4	-0.79993	0.40514	-0.47043
1.82	174.9	-20784	2889.3	-0.80032	0.40699	-0.46994
1.822	174.89	-20779	2889.2	-0.79993	0.4066	-0.47092
1.824	174.88	-20779	2889.2	-0.79954	0.40621	-0.4719
1.826	174.89	-20784	2889.1	-0.79915	0.40582	-0.47287
1.828	174.89	-20787	2889.2	-0.79876	0.40543	-0.47385
1.83	174.89	-20787	2889.2	-0.79837	0.40504	-0.47482
1.832	174.89	-20785	2889.3	-0.79788	0.40475	-0.47502
1.834	174.89	-20781	2889.3	-0.79739	0.40445	-0.47521
1.836	174.88	-20780	2889.4	-0.7969	0.40416	-0.47541
1.838	174.86	-20782	2889.6	-0.79642	0.40387	-0.4756
1.84	174.85	-20785	2889.8	-0.79593	0.40358	-0.4758
1.842	174.86	-20789	2890.1	-0.79554	0.40319	-0.47609
1.844	174.85	-20791	2890.4	-0.79515	0.4028	-0.47639
1.846	174.83	-20791	2890.7	-0.79476	0.4024	-0.47668
1.848	174.82	-20789	2891	-0.79437	0.40201	-0.47697
1.85	174.82	-20786	2891.3	-0.79398	0.40162	-0.47726
1.852	174.82	-20785	2891.6	-0.79515	0.40201	-0.47707
1.854	174.83	-20787	2892	-0.79632	0.4024	-0.47687
1.856	174.83	-20789	2892.4	-0.79749	0.4028	-0.47668
1.858	174.83	-20790	2892.8	-0.79866	0.40319	-0.47648
1.86	174.82	-20790	2893.2	-0.79983	0.40358	-0.47629
1.862	174.82	-20791	2893.6	-0.79983	0.40416	-0.47512
1.864	174.82	-20790	2894	-0.79983	0.40475	-0.47395
1.866	174.82	-20786	2894.4	-0.79983	0.40533	-0.47277
1.868	174.82	-20787	2894.8	-0.79983	0.40592	-0.4716
1.87	174.82	-20792	2895.1	-0.79983	0.4065	-0.47043
1.872	174.84	-20795	2895.5	-0.8012	0.40533	-0.47141
1.874	174.83	-20795	2895.9	-0.80256	0.40416	-0.47238
1.876	174.81	-20796	2896.3	-0.80393	0.40299	-0.47336
1.878	174.8	-20799	2896.7	-0.8053	0.40182	-0.47434
1.88	174.79	-20797	2897.1	-0.80666	0.40065	-0.47531
1.882	174.78	-20791	2897.5	-0.80452	0.40094	-0.4758
1.884	174.77	-20788	2897.9	-0.80237	0.40123	-0.47629
1.886	174.78	-20788	2898.3	-0.80022	0.40153	-0.47678
1.888	174.79	-20789	2898.6	-0.79808	0.40182	-0.47726
1.89	174.8	-20792	2898.9	-0.79593	0.40211	-0.47775
1.892	174.8	-20790	2899.2	-0.7969	0.40182	-0.47736
1.894	174.8	-20783	2899.5	-0.79788	0.40153	-0.47697
1.896	174.8	-20780	2899.7	-0.79886	0.40123	-0.47658
1.898	174.81	-20782	2899.9	-0.79983	0.40094	-0.47619
1.9	174.81	-20781	2900.2	-0.80081	0.40065	-0.4758
1.902	174.81	-20777	2900.4	-0.79983	0.40065	-0.47609
1.904	174.81	-20777	2900.6	-0.79886	0.40065	-0.47639
1.906	174.81	-20779	2900.8	-0.79788	0.40065	-0.47668
1.908	174.81	-20778	2901	-0.7969	0.40065	-0.47697
1.91	174.81	-20774	2901.1	-0.79593	0.40065	-0.47726
1.912	174.81	-20771	2901.2	-0.79485	0.40006	-0.47726
1.914	174.82	-20770	2901.3	-0.79378	0.39948	-0.47726
1.916	174.83	-20770	2901.4	-0.79271	0.39889	-0.47726
1.918	174.84	-20773	2901.6	-0.79163	0.39831	-0.47726
1.92	174.84	-20771	2901.7	-0.79056	0.39772	-0.47726
1.922	174.83	-20766	2901.8	-0.79066	0.39811	-0.47736
1.924	174.85	-20762	2901.9	-0.79076	0.3985	-0.47746
1.926	174.85	-20758	2902	-0.79085	0.39889	-0.47756
1.928	174.86	-20757	2902.1	-0.79095	0.39928	-0.47765
1.93	174.87	-20759	2902.2	-0.79105	0.39967	-0.47775
1.932	174.88	-20760	2902.3	-0.79085	0.40026	-0.47785
1.934	174.87	-20761	2902.4	-0.79066	0.40084	-0.47795
1.936	174.88	-20763	2902.5	-0.79046	0.40143	-0.47804
1.938	174.88	-20768	2902.7	-0.79027	0.40201	-0.47814
1.94	174.88	-20767	2902.8	-0.79007	0.4026	-0.47824
1.942	174.88	-20760	2902.9	-0.7889	0.4024	-0.47873
1.944	174.88	-20753	2903	-0.78773	0.40221	-0.47922
1.946	174.9	-20746	2903.1	-0.78656	0.40201	-0.4797
1.948	174.91	-20744	2903.3	-0.78539	0.40182	-0.48019
1.95	174.92	-20746	2903.5	-0.78422	0.40162	-0.48068
1.952	174.92	-20748	2903.6	-0.78519	0.40133	-0.48058
1.954	174.9	-20749	2903.8	-0.78617	0.40104	-0.48048
1.956	174.88	-20747	2903.9	-0.78714	0.40075	-0.48039
1.958	174.89	-20742	2904.1	-0.78812	0.40045	-0.48029
1.96	174.88	-20739	2904.2	-0.7891	0.40016	-0.48019
1.962	174.88	-20740	2904.4	-0.78958	0.40016	-0.48029
1.964	174.88	-20740	2904.6	-0.79007	0.40016	-0.48039
1.966	174.88	-20739	2904.8	-0.79056	0.40016	-0.48048
1.968	174.89	-20738	2904.9	-0.79105	0.40016	-0.48058
1.97	174.89	-20736	2905.1	-0.79154	0.40016	-0.48068
1.972	174.89	-20737	2905.2	-0.79046	0.40065	-0.48078
1.974	174.89	-20741	2905.4	-0.78939	0.40114	-0.48088
1.976	174.91	-20742	2905.6	-0.78832	0.40162	-0.48097
1.978	174.91	-20738	2905.7	-0.78724	0.40211	-0.48107
1.98	174.9	-20735	2905.9	-0.78617	0.4026	-0.48117
1.982	174.88	-20733	2906	-0.78714	0.40319	-0.48019
1.984	174.88	-20731	2906.2	-0.78812	0.40377	-0.47922
1.986	174.88	-20729	2906.3	-0.7891	0.40436	-0.47824
1.988	174.87	-20727	2906.3	-0.79007	0.40494	-0.47726
1.99	174.87	-20722	2906.4	-0.79105	0.40553	-0.47629
1.992	174.87	-20720	2906.5	-0.79017	0.40543	-0.47726
1.994	174.87	-20721	2906.5	-0.78929	0.40533	-0.47824
1.996	174.88	-20720	2906.5	-0.78841	0.40524	-0.47922
1.998	174.87	-20717	2906.5	-0.78753	0.40514	-0.48019
2	174.87	-20718	2906.5	-0.78666	0.40504	-0.48117
2.002	174.88	-20725	2906.4	-0.78714	0.40426	-0.48097
2.004	174.89	-20726	2906.3	-0.78763	0.40348	-0.48078
2.006	174.89	-20721	2906.2	-0.78812	0.4027	-0.48058
2.008	174.88	-20717	2906.1	-0.78861	0.40192	-0.48039
2.01	174.86	-20713	2906	-0.7891	0.40114	-0.48019
2.012	174.87	-20711	2905.7	-0.78958	0.40221	-0.47892
2.014	174.88	-20712	2905.5	-0.79007	0.40328	-0.47765
2.016	174.87	-20712	2905.3	-0.79056	0.40436	-0.47639
2.018	174.87	-20710	2905.1	-0.79105	0.40543	-0.47512
2.02	174.88	-20709	2904.8	-0.79154	0.4065	-0.47385
2.022	174.88	-20708	2904.6	-0.79115	0.40699	-0.47375
2.024	174.89	-20708	2904.3	-0.79076	0.40748	-0.47365
2.026	174.9	-20709	2904	-0.79036	0.40797	-0.47356
2.028	174.89	-20707	2903.7	-0.78997	0.40846	-0.47346
2.03	174.89	-20704	2903.4	-0.78958	0.40894	-0.47336
2.032	174.88	-20704	2903.1	-0.78939	0.40777	-0.47395
2.034	174.86	-20708	2902.9	-0.78919	0.4066	-0.47453
2.036	174.86	-20707	2902.6	-0.789	0.40543	-0.47512
2.038	174.86	-20702	2902.4	-0.7888	0.40426	-0.4757
2.04	174.85	-20700	2902.1	-0.78861	0.40309	-0.47629
2.042	174.83	-20703	2901.9	-0.78988	0.40348	-0.47609
2.044	174.84	-20704	2901.7	-0.79115	0.40387	-0.4759
2.046	174.84	-20701	2901.5	-0.79241	0.40426	-0.4757
2.048	174.84	-20702	2901.3	-0.79368	0.40465	-0.47551
2.05	174.84	-20706	2901	-0.79495	0.40504	-0.47531
2.052	174.83	-20709	2900.9	-0.79446	0.40445	-0.4759
2.054	174.82	-20712	2900.7	-0.79398	0.40387	-0.47648
2.056	174.82	-20710	2900.5	-0.79349	0.40328	-0.47707
2.058	174.82	-20704	2900.4	-0.793	0.4027	-0.47765
2.06	174.82	-20701	2900.3	-0.79251	0.40211	-0.47824
2.062	174.82	-20702	2900.1	-0.79232	0.40201	-0.47814
2.064	174.81	-20703	2900	-0.79212	0.40192	-0.47804
2.066	174.8	-20705	2899.9	-0.79193	0.40182	-0.47795
2.068	174.8	-20705	2899.8	-0.79173	0.40172	-0.47785
2.07	174.8	-20702	2899.7	-0.79154	0.40162	-0.47775
2.072	174.79	-20700	2899.6	-0.79212	0.40123	-0.47775
2.074	174.79	-20698	2899.5	-0.79271	0.40084	-0.47775
2.076	174.8	-20696	2899.4	-0.79329	0.40045	-0.47775
2.078	174.8	-20696	2899.4	-0.79388	0.40006	-0.47775
2.08	174.81	-20700	2899.4	-0.79446	0.39967	-0.47775
2.082	174.81	-20706	2899.2	-0.7931	0.40036	-0.47824
2.084	174.8	-20708	2899.1	-0.79173	0.40104	-0.47873
2.086	174.81	-20706	2899	-0.79036	0.40172	-0.47922
2.088	174.82	-20705	2899	-0.789	0.4024	-0.4797
2.09	174.81	-20704	2898.9	-0.78763	0.40309	-0.48019
2.092	174.8	-20705	2898.9	-0.78978	0.40309	-0.4797
2.094	174.8	-20706	2898.9	-0.79193	0.40309	-0.47922
2.096	174.79	-20707	2898.8	-0.79407	0.40309	-0.47873
2.098	174.79	-20707	2898.8	-0.79622	0.40309	-0.47824
2.1	174.79	-20707	2898.7	-0.79837	0.40309	-0.47775
2.102	174.79	-20708	2898.7	-0.79905	0.40338	-0.47717
2.104	174.79	-20704	2898.6	-0.79973	0.40367	-0.47658
2.106	174.78	-20696	2898.6	-0.80042	0.40397	-0.476
2.108	174.78	-20691	2898.5	-0.8011	0.40426	-0.47541
2.11	174.79	-20691	2898.5	-0.80178	0.40455	-0.47482
2.112	174.8	-20693	2898.5	-0.80188	0.40465	-0.47492
2.114	174.79	-20698	2898.5	-0.80198	0.40475	-0.47502
2.116	174.8	-20699	2898.5	-0.80208	0.40484	-0.47512
2.118	174.81	-20697	2898.5	-0.80217	0.40494	-0.47521
2.12	174.82	-20694	2898.5	-0.80227	0.40504	-0.47531
2.122	174.82	-20691	2898.5	-0.80052	0.40426	-0.47619
2.124	174.81	-20690	2898.5	-0.79876	0.40348	-0.47707
2.126	174.78	-20691	2898.5	-0.797	0.4027	-0.47795
2.128	174.76	-20695	2898.6	-0.79524	0.40192	-0.47883
2.13	174.75	-20704	2898.6	-0.79349	0.40114	-0.4797
2.132	174.74	-20708	2898.6	-0.79349	0.40104	-0.48019
2.134	174.73	-20705	2898.6	-0.79349	0.40094	-0.48068
2.136	174.73	-20704	2898.7	-0.79349	0.40084	-0.48117
2.138	174.73	-20703	2898.7	-0.79349	0.40075	-0.48166
2.14	174.72	-20710	2898.8	-0.79349	0.40065	-0.48214
2.142	174.71	-20725	2898.8	-0.7932	0.40055	-0.48195
2.144	174.72	-20730	2898.8	-0.7929	0.40045	-0.48175
2.146	174.72	-20726	2898.8	-0.79261	0.40036	-0.48156
2.148	174.72	-20722	2898.8	-0.79232	0.40026	-0.48136
2.15	174.71	-20718	2898.8	-0.79202	0.40016	-0.48117
2.152	174.7	-20718	2898.9	-0.79232	0.39977	-0.48136
2.154	174.69	-20721	2898.9	-0.79261	0.39938	-0.48156
2.156	174.69	-20719	2899	-0.7929	0.39899	-0.48175
2.158	174.69	-20712	2899	-0.7932	0.3986	-0.48195
2.16	174.69	-20707	2899	-0.79349	0.39821	-0.48214
2.162	174.7	-20704	2898.9	-0.7931	0.39831	-0.48136
2.164	174.71	-20702	2898.9	-0.79271	0.3984	-0.48058
2.166	174.7	-20699	2898.9	-0.79232	0.3985	-0.4798
2.168	174.69	-20698	2898.9	-0.79193	0.3986	-0.47902
2.17	174.68	-20699	2898.9	-0.79154	0.3987	-0.47824
2.172	174.68	-20702	2898.8	-0.79105	0.39928	-0.47892
2.174	174.69	-20708	2898.8	-0.79056	0.39987	-0.47961
2.176	174.69	-20709	2898.7	-0.79007	0.40045	-0.48029
2.178	174.69	-20705	2898.6	-0.78958	0.40104	-0.48097
2.18	174.68	-20705	2898.5	-0.7891	0.40162	-0.48166
2.182	174.68	-20710	2898.5	-0.789	0.40182	-0.48205
2.184	174.67	-20711	2898.4	-0.7889	0.40201	-0.48244
2.186	174.68	-20709	2898.4	-0.7888	0.40221	-0.48283
2.188	174.68	-20707	2898.3	-0.78871	0.4024	-0.48322
2.19	174.68	-20706	2898.2	-0.78861	0.4026	-0.48361
2.192	174.69	-20705	2898.1	-0.78841	0.4028	-0.48283
2.194	174.69	-20705	2898	-0.78822	0.40299	-0.48205
2.196	174.7	-20709	2897.9	-0.78802	0.40319	-0.48127
2.198	174.71	-20716	2897.8	-0.78783	0.40338	-0.48048
2.2	174.73	-20715	2897.7	-0.78763	0.40358	-0.4797
2.202	174.71	-20705	2897.7	-0.78792	0.40358	-0.4799
2.204	174.68	-20700	2897.6	-0.78822	0.40358	-0.48009
2.206	174.65	-20701	2897.5	-0.78851	0.40358	-0.48029
2.208	174.66	-20703	2897.5	-0.7888	0.40358	-0.48048
2.21	174.67	-20704	2897.4	-0.7891	0.40358	-0.48068
2.212	174.67	-20706	2897.4	-0.78841	0.40416	-0.48039
2.214	174.67	-20708	2897.3	-0.78773	0.40475	-0.48009
2.216	174.69	-20714	2897.3	-0.78705	0.40533	-0.4798
2.218	174.72	-20722	2897.2	-0.78636	0.40592	-0.47951
2.22	174.73	-20721	2897.1	-0.78568	0.4065	-0.47922
2.222	174.74	-20712	2897	-0.78666	0.40524	-0.47951
2.224	174.75	-20709	2897	-0.78763	0.40397	-0.4798
2.226	174.76	-20711	2896.9	-0.78861	0.4027	-0.48009
2.228	174.76	-20712	2896.8	-0.78958	0.40143	-0.48039
2.23	174.74	-20711	2896.8	-0.79056	0.40016	-0.48068
2.232	174.74	-20711	2896.7	-0.79007	0.40084	-0.48029
2.234	174.74	-20711	2896.6	-0.78958	0.40153	-0.4799
2.236	174.74	-20712	2896.5	-0.7891	0.40221	-0.47951
2.238	174.74	-20713	2896.4	-0.78861	0.40289	-0.47912
2.24	174.72	-20713	2896.4	-0.78812	0.40358	-0.47873
2.242	174.71	-20712	2896.3	-0.78783	0.40406	-0.47912
2.244	174.7	-20714	2896.3	-0.78753	0.40455	-0.47951
2.246	174.71	-20717	2896.2	-0.78724	0.40504	-0.4799
2.248	174.72	-20719	2896.1	-0.78695	0.40553	-0.48029
2.25	174.72	-20719	2896.1	-0.78666	0.40602	-0.48068
2.252	174.72	-20717	2896	-0.78753	0.40475	-0.48029
2.254	174.72	-20713	2896	-0.78841	0.40348	-0.4799
2.256	174.72	-20710	2895.9	-0.78929	0.40221	-0.47951
2.258	174.72	-20709	2895.8	-0.79017	0.40094	-0.47912
2.26	174.72	-20709	2895.7	-0.79105	0.39967	-0.47873
2.262	174.72	-20710	2895.7	-0.79095	0.40123	-0.47785
2.264	174.71	-20713	2895.6	-0.79085	0.4028	-0.47697
2.266	174.7	-20718	2895.5	-0.79076	0.40436	-0.47609
2.268	174.71	-20720	2895.4	-0.79066	0.40592	-0.47521
2.27	174.72	-20720	2895.4	-0.79056	0.40748	-0.47434
2.272	174.72	-20721	2895.3	-0.78997	0.40689	-0.47502
2.274	174.71	-20723	2895.2	-0.78939	0.40631	-0.4757
2.276	174.72	-20723	2895.2	-0.7888	0.40572	-0.47639
2.278	174.75	-20720	2895.2	-0.78822	0.40514	-0.47707
2.28	174.77	-20719	2895.1	-0.78763	0.40455	-0.47775
2.282	174.8	-20719	2895.1	-0.78753	0.40484	-0.47756
2.284	174.84	-20720	2895	-0.78744	0.40514	-0.47736
2.286	174.85	-20723	2894.9	-0.78734	0.40543	-0.47717
2.288	174.85	-20722	2894.9	-0.78724	0.40572	-0.47697
2.29	174.82	-20718	2894.8	-0.78714	0.40602	-0.47678
2.292	174.76	-20718	2894.8	-0.78763	0.40504	-0.47775
2.294	174.68	-20723	2894.8	-0.78812	0.40406	-0.47873
2.296	174.59	-20725	2894.7	-0.78861	0.40309	-0.4797
2.298	174.51	-20724	2894.7	-0.7891	0.40211	-0.48068
2.3	174.43	-20722	2894.7	-0.78958	0.40114	-0.48166
2.302	174.33	-20718	2894.7	-0.78949	0.40201	-0.48048
2.304	174.21	-20719	2894.6	-0.78939	0.40289	-0.47931
2.306	174.07	-20725	2894.6	-0.78929	0.40377	-0.47814
2.308	173.92	-20728	2894.6	-0.78919	0.40465	-0.47697
2.31	173.79	-20728	2894.6	-0.7891	0.40553	-0.4758
2.312	173.65	-20729	2894.5	-0.78929	0.40484	-0.47707
2.314	173.5	-20730	2894.5	-0.78949	0.40416	-0.47834
2.316	173.4	-20730	2894.5	-0.78968	0.40348	-0.47961
2.318	173.38	-20729	2894.5	-0.78988	0.4028	-0.48088
2.32	173.43	-20731	2894.5	-0.79007	0.40211	-0.48214
2.322	173.55	-20735	2894.4	-0.78968	0.40211	-0.48195
2.324	173.73	-20735	2894.4	-0.78929	0.40211	-0.48175
2.326	173.92	-20730	2894.4	-0.7889	0.40211	-0.48156
2.328	174.09	-20729	2894.4	-0.78851	0.40211	-0.48136
2.33	174.26	-20732	2894.3	-0.78812	0.40211	-0.48117
2.332	174.43	-20734	2894.3	-0.78851	0.4025	-0.48107
2.334	174.54	-20735	2894.3	-0.7889	0.40289	-0.48097
2.336	174.59	-20733	2894.2	-0.78929	0.40328	-0.48088
2.338	174.61	-20729	2894.2	-0.78968	0.40367	-0.48078
2.34	174.63	-20729	2894.2	-0.79007	0.40406	-0.48068
2.342	174.66	-20734	2894.2	-0.78997	0.40348	-0.48009
2.344	174.68	-20738	2894.2	-0.78988	0.40289	-0.47951
2.346	174.69	-20740	2894.2	-0.78978	0.40231	-0.47892
2.348	174.68	-20739	2894.2	-0.78968	0.40172	-0.47834
2.35	174.65	-20734	2894.2	-0.78958	0.40114	-0.47775
2.352	174.62	-20733	2894.2	-0.79017	0.40094	-0.47834
2.354	174.59	-20736	2894.1	-0.79076	0.40075	-0.47892
2.356	174.58	-20738	2894.1	-0.79134	0.40055	-0.47951
2.358	174.57	-20738	2894.1	-0.79193	0.40036	-0.48009
2.36	174.56	-20741	2894.1	-0.79251	0.40016	-0.48068
2.362	174.55	-20746	2894	-0.79183	0.40143	-0.47951
2.364	174.56	-20746	2893.9	-0.79115	0.4027	-0.47834
2.366	174.57	-20741	2893.8	-0.79046	0.40397	-0.47717
2.368	174.58	-20739	2893.7	-0.78978	0.40524	-0.476
2.37	174.58	-20741	2893.7	-0.7891	0.4065	-0.47482
2.372	174.59	-20743	2893.5	-0.7889	0.40641	-0.47512
2.374	174.6	-20746	2893.4	-0.78871	0.40631	-0.47541
2.376	174.6	-20746	2893.2	-0.78851	0.40621	-0.4757
2.378	174.6	-20744	2893.1	-0.78832	0.40611	-0.476
2.38	174.6	-20742	2893	-0.78812	0.40602	-0.47629
2.382	174.61	-20740	2892.8	-0.78929	0.40455	-0.47648
2.384	174.6	-20740	2892.7	-0.79046	0.40309	-0.47668
2.386	174.58	-20741	2892.6	-0.79163	0.40162	-0.47687
2.388	174.59	-20744	2892.5	-0.7928	0.40016	-0.47707
2.39	174.6	-20749	2892.3	-0.79398	0.3987	-0.47726
2.392	174.59	-20751	2892.3	-0.79398	0.39909	-0.47785
2.394	174.59	-20751	2892.2	-0.79398	0.39948	-0.47844
2.396	174.6	-20753	2892.1	-0.79398	0.39987	-0.47902
2.398	174.58	-20758	2892.1	-0.79398	0.40026	-0.47961
2.4	174.57	-20759	2892	-0.79398	0.40065	-0.48019
2.402	174.57	-20757	2892	-0.79378	0.40026	-0.48009
2.404	174.56	-20754	2892	-0.79359	0.39987	-0.48
2.406	174.56	-20752	2892	-0.79339	0.39948	-0.4799
2.408	174.56	-20753	2892	-0.7932	0.39909	-0.4798
2.41	174.54	-20756	2892.1	-0.793	0.3987	-0.4797
2.412	174.53	-20757	2892.1	-0.79251	0.39977	-0.47961
2.414	174.55	-20755	2892.2	-0.79202	0.40084	-0.47951
2.416	174.55	-20758	2892.2	-0.79154	0.40192	-0.47941
2.418	174.55	-20764	2892.2	-0.79105	0.40299	-0.47931
2.42	174.54	-20767	2892.3	-0.79056	0.40406	-0.47922
2.422	174.54	-20764	2892.3	-0.79085	0.40319	-0.47912
2.424	174.55	-20762	2892.4	-0.79115	0.40231	-0.47902
2.426	174.55	-20759	2892.4	-0.79144	0.40143	-0.47892
2.428	174.55	-20759	2892.5	-0.79173	0.40055	-0.47883
2.43	174.56	-20761	2892.6	-0.79202	0.39967	-0.47873
2.432	174.56	-20765	2892.6	-0.79271	0.40006	-0.47824
2.434	174.55	-20770	2892.6	-0.79339	0.40045	-0.47775
2.436	174.52	-20772	2892.6	-0.79407	0.40084	-0.47726
2.438	174.5	-20769	2892.6	-0.79476	0.40123	-0.47678
2.44	174.49	-20769	2892.6	-0.79544	0.40162	-0.47629
2.442	174.5	-20770	2892.6	-0.79446	0.40192	-0.47707
2.444	174.51	-20771	2892.6	-0.79349	0.40221	-0.47785
2.446	174.52	-20771	2892.6	-0.79251	0.4025	-0.47863
2.448	174.52	-20770	2892.6	-0.79154	0.4028	-0.47941
2.45	174.5	-20769	2892.6	-0.79056	0.40309	-0.48019
2.452	174.49	-20770	2892.5	-0.79017	0.40299	-0.48019
2.454	174.49	-20772	2892.5	-0.78978	0.40289	-0.48019
2.456	174.49	-20776	2892.4	-0.78939	0.4028	-0.48019
2.458	174.47	-20782	2892.4	-0.789	0.4027	-0.48019
2.46	174.45	-20782	2892.4	-0.78861	0.4026	-0.48019
2.462	174.46	-20775	2892.4	-0.7891	0.40358	-0.47883
2.464	174.46	-20769	2892.3	-0.78958	0.40455	-0.47746
2.466	174.46	-20765	2892.3	-0.79007	0.40553	-0.47609
2.468	174.46	-20764	2892.3	-0.79056	0.4065	-0.47473
2.47	174.46	-20768	2892.3	-0.79105	0.40748	-0.47336
2.472	174.45	-20772	2892.3	-0.79183	0.40641	-0.47404
2.474	174.45	-20777	2892.4	-0.79261	0.40533	-0.47473
2.476	174.45	-20779	2892.5	-0.79339	0.40426	-0.47541
2.478	174.44	-20779	2892.5	-0.79417	0.40319	-0.47609
2.48	174.44	-20781	2892.6	-0.79495	0.40211	-0.47678
2.482	174.46	-20785	2892.6	-0.79398	0.4026	-0.47668
2.484	174.45	-20785	2892.7	-0.793	0.40309	-0.47658
2.486	174.42	-20781	2892.8	-0.79202	0.40358	-0.47648
2.488	174.39	-20778	2892.9	-0.79105	0.40406	-0.47639
2.49	174.37	-20777	2893.1	-0.79007	0.40455	-0.47629
2.492	174.37	-20779	2893.3	-0.79232	0.40641	-0.4756
2.494	174.37	-20783	2893.5	-0.79456	0.40826	-0.47492
2.496	174.37	-20785	2893.7	-0.79681	0.41012	-0.47424
2.498	174.37	-20786	2893.9	-0.79905	0.41197	-0.47356
2.5	174.38	-20786	2894.2	-0.8013	0.41382	-0.47287
2.502	174.37	-20785	2894.4	-0.80178	0.41256	-0.47229
2.504	174.37	-20784	2894.7	-0.80227	0.41129	-0.4717
2.506	174.35	-20783	2895	-0.80276	0.41002	-0.47112
2.508	174.35	-20784	2895.3	-0.80325	0.40875	-0.47053
2.51	174.35	-20786	2895.6	-0.80374	0.40748	-0.46994
2.512	174.35	-20788	2895.9	-0.80276	0.40787	-0.46965
2.514	174.35	-20791	2896.2	-0.80178	0.40826	-0.46936
2.516	174.35	-20792	2896.5	-0.80081	0.40865	-0.46907
2.518	174.35	-20792	2896.9	-0.79983	0.40904	-0.46877
2.52	174.37	-20791	2897.2	-0.79886	0.40943	-0.46848
2.522	174.38	-20790	2897.6	-0.79944	0.40933	-0.46868
2.524	174.38	-20789	2897.9	-0.80003	0.40924	-0.46887
2.526	174.37	-20787	2898.3	-0.80061	0.40914	-0.46907
2.528	174.36	-20785	2898.7	-0.8012	0.40904	-0.46926
2.53	174.36	-20782	2899.1	-0.80178	0.40894	-0.46946
2.532	174.37	-20780	2899.5	-0.8013	0.40904	-0.46887
2.534	174.38	-20778	2899.9	-0.80081	0.40914	-0.46828
2.536	174.37	-20778	2900.4	-0.80032	0.40924	-0.4677
2.538	174.35	-20781	2900.8	-0.79983	0.40933	-0.46711
2.54	174.34	-20782	2901.3	-0.79934	0.40943	-0.46653
2.542	174.34	-20781	2901.7	-0.79915	0.40943	-0.46672
2.544	174.33	-20781	2902.1	-0.79895	0.40943	-0.46692
2.546	174.32	-20782	2902.5	-0.79876	0.40943	-0.46711
2.548	174.33	-20781	2903	-0.79856	0.40943	-0.46731
2.55	174.34	-20778	2903.5	-0.79837	0.40943	-0.4675
2.552	174.35	-20774	2903.9	-0.79954	0.40865	-0.46838
2.554	174.36	-20770	2904.3	-0.80071	0.40787	-0.46926
2.556	174.36	-20768	2904.6	-0.80188	0.40709	-0.47014
2.558	174.37	-20769	2905	-0.80305	0.40631	-0.47102
2.56	174.37	-20770	2905.4	-0.80422	0.40553	-0.4719
2.562	174.38	-20772	2905.7	-0.80374	0.40592	-0.47102
2.564	174.38	-20773	2906	-0.80325	0.40631	-0.47014
2.566	174.39	-20772	2906.4	-0.80276	0.4067	-0.46926
2.568	174.39	-20772	2906.7	-0.80227	0.40709	-0.46838
2.57	174.39	-20773	2907	-0.80178	0.40748	-0.4675
2.572	174.39	-20773	2907.3	-0.80149	0.40709	-0.46838
2.574	174.39	-20772	2907.6	-0.8012	0.4067	-0.46926
2.576	174.39	-20768	2907.9	-0.80091	0.40631	-0.47014
2.578	174.39	-20763	2908.2	-0.80061	0.40592	-0.47102
2.58	174.39	-20759	2908.4	-0.80032	0.40553	-0.4719
2.582	174.39	-20757	2908.7	-0.80081	0.40602	-0.47199
2.584	174.4	-20757	2908.9	-0.8013	0.4065	-0.47209
2.586	174.41	-20759	2909.1	-0.80178	0.40699	-0.47219
2.588	174.42	-20756	2909.4	-0.80227	0.40748	-0.47229
2.59	174.41	-20751	2909.6	-0.80276	0.40797	-0.47238
2.592	174.4	-20747	2909.8	-0.80247	0.40826	-0.47199
2.594	174.4	-20746	2910.1	-0.80217	0.40855	-0.4716
2.596	174.4	-20747	2910.3	-0.80188	0.40885	-0.47121
2.598	174.41	-20750	2910.4	-0.80159	0.40914	-0.47082
2.6	174.42	-20753	2910.6	-0.8013	0.40943	-0.47043
2.602	174.42	-20757	2910.8	-0.80081	0.40807	-0.47072
2.604	174.42	-20761	2911	-0.80032	0.4067	-0.47102
2.606	174.42	-20765	2911.1	-0.79983	0.40533	-0.47131
2.608	174.43	-20764	2911.2	-0.79934	0.40397	-0.4716
2.61	174.43	-20758	2911.4	-0.79886	0.4026	-0.4719
2.612	174.43	-20751	2911.5	-0.79856	0.4025	-0.4719
2.614	174.44	-20741	2911.6	-0.79827	0.4024	-0.4719
2.616	174.45	-20736	2911.6	-0.79798	0.40231	-0.4719
2.618	174.45	-20736	2911.7	-0.79768	0.40221	-0.4719
2.62	174.43	-20735	2911.7	-0.79739	0.40211	-0.4719
2.622	174.42	-20733	2911.8	-0.79817	0.40299	-0.47199
2.624	174.41	-20733	2911.8	-0.79895	0.40387	-0.47209
2.626	174.41	-20734	2911.8	-0.79973	0.40475	-0.47219
2.628	174.42	-20736	2911.8	-0.80052	0.40563	-0.47229
2.63	174.43	-20737	2911.8	-0.8013	0.4065	-0.47238
2.632	174.44	-20736	2911.9	-0.80061	0.40699	-0.4716
2.634	174.43	-20731	2911.9	-0.79993	0.40748	-0.47082
2.636	174.41	-20727	2912	-0.79925	0.40797	-0.47004
2.638	174.42	-20723	2912	-0.79856	0.40846	-0.46926
2.64	174.44	-20721	2912.1	-0.79788	0.40894	-0.46848
2.642	174.43	-20721	2912.1	-0.79866	0.40875	-0.46926
2.644	174.42	-20723	2912.2	-0.79944	0.40855	-0.47004
2.646	174.43	-20725	2912.2	-0.80022	0.40836	-0.47082
2.648	174.43	-20725	2912.3	-0.801	0.40816	-0.4716
2.65	174.43	-20724	2912.3	-0.80178	0.40797	-0.47238
2.652	174.42	-20723	2912.3	-0.80139	0.40758	-0.47219
2.654	174.41	-20720	2912.3	-0.801	0.40719	-0.47199
2.656	174.4	-20721	2912.3	-0.80061	0.4068	-0.4718
2.658	174.4	-20725	2912.3	-0.80022	0.40641	-0.4716
2.66	174.41	-20722	2912.3	-0.79983	0.40602	-0.47141
2.662	174.42	-20711	2912.3	-0.80012	0.40572	-0.47219
2.664	174.42	-20709	2912.2	-0.80042	0.40543	-0.47297
2.666	174.41	-20714	2912.2	-0.80071	0.40514	-0.47375
2.668	174.4	-20714	2912.1	-0.801	0.40484	-0.47453
2.67	174.41	-20709	2912	-0.8013	0.40455	-0.47531
2.672	174.42	-20706	2911.9	-0.80081	0.40465	-0.47512
2.674	174.41	-20705	2911.8	-0.80032	0.40475	-0.47492
2.676	174.39	-20705	2911.6	-0.79983	0.40484	-0.47473
2.678	174.39	-20704	2911.4	-0.79934	0.40494	-0.47453
2.68	174.4	-20704	2911.3	-0.79886	0.40504	-0.47434
2.682	174.39	-20707	2911.1	-0.79856	0.40494	-0.47443
2.684	174.39	-20704	2911	-0.79827	0.40484	-0.47453
2.686	174.39	-20697	2910.9	-0.79798	0.40475	-0.47463
2.688	174.39	-20696	2910.8	-0.79768	0.40465	-0.47473
2.69	174.39	-20703	2910.6	-0.79739	0.40455	-0.47482
2.692	174.38	-20707	2910.4	-0.79759	0.40582	-0.47375
2.694	174.39	-20709	2910.3	-0.79778	0.40709	-0.47268
2.696	174.38	-20711	2910.1	-0.79798	0.40836	-0.4716
2.698	174.37	-20712	2910	-0.79817	0.40963	-0.47053
2.7	174.37	-20710	2909.9	-0.79837	0.4109	-0.46946
2.702	174.38	-20705	2909.8	-0.79895	0.41021	-0.46946
2.704	174.37	-20701	2909.7	-0.79954	0.40953	-0.46946
2.706	174.36	-20697	2909.6	-0.80012	0.40885	-0.46946
2.708	174.37	-20703	2909.4	-0.80071	0.40816	-0.46946
2.71	174.37	-20720	2909.3	-0.8013	0.40748	-0.46946
2.712	174.36	-20725	2909.2	-0.80071	0.40748	-0.46916
2.714	174.35	-20718	2909	-0.80012	0.40748	-0.46887
2.716	174.35	-20717	2908.9	-0.79954	0.40748	-0.46858
2.718	174.35	-20723	2908.7	-0.79895	0.40748	-0.46828
2.72	174.35	-20726	2908.6	-0.79837	0.40748	-0.46799
2.722	174.36	-20726	2908.4	-0.79847	0.40709	-0.46838
2.724	174.36	-20726	2908.3	-0.79856	0.4067	-0.46877
2.726	174.36	-20726	2908.2	-0.79866	0.40631	-0.46916
2.728	174.37	-20724	2908.1	-0.79876	0.40592	-0.46955
2.73	174.38	-20721	2907.9	-0.79886	0.40553	-0.46994
2.732	174.38	-20718	2907.8	-0.79847	0.40572	-0.46887
2.734	174.36	-20714	2907.8	-0.79808	0.40592	-0.4678
2.736	174.36	-20711	2907.7	-0.79768	0.40611	-0.46672
2.738	174.35	-20710	2907.6	-0.79729	0.40631	-0.46565
2.74	174.34	-20706	2907.5	-0.7969	0.4065	-0.46458
2.742	174.33	-20700	2907.5	-0.79768	0.40699	-0.46555
2.744	174.33	-20698	2907.5	-0.79847	0.40748	-0.46653
2.746	174.33	-20701	2907.4	-0.79925	0.40797	-0.4675
2.748	174.33	-20707	2907.4	-0.80003	0.40846	-0.46848
2.75	174.34	-20717	2907.4	-0.80081	0.40894	-0.46946
2.752	174.35	-20720	2907.4	-0.80012	0.40777	-0.46926
2.754	174.36	-20717	2907.4	-0.79944	0.4066	-0.46907
2.756	174.36	-20717	2907.4	-0.79876	0.40543	-0.46887
2.758	174.35	-20721	2907.4	-0.79808	0.40426	-0.46868
2.76	174.33	-20720	2907.5	-0.79739	0.40309	-0.46848
2.762	174.32	-20714	2907.5	-0.79671	0.40367	-0.4677
2.764	174.32	-20712	2907.5	-0.79603	0.40426	-0.46692
2.766	174.34	-20716	2907.5	-0.79534	0.40484	-0.46614
2.768	174.34	-20716	2907.6	-0.79466	0.40543	-0.46536
2.77	174.34	-20713	2907.6	-0.79398	0.40602	-0.46458
2.772	174.32	-20712	2907.7	-0.79534	0.40602	-0.46477
2.774	174.32	-20712	2907.7	-0.79671	0.40602	-0.46497
2.776	174.32	-20712	2907.7	-0.79808	0.40602	-0.46516
2.778	174.32	-20713	2907.7	-0.79944	0.40602	-0.46536
2.78	174.32	-20715	2907.7	-0.80081	0.40602	-0.46555
2.782	174.32	-20718	2907.7	-0.79964	0.40572	-0.46536
2.784	174.32	-20718	2907.7	-0.79847	0.40543	-0.46516
2.786	174.32	-20713	2907.7	-0.79729	0.40514	-0.46497
2.788	174.31	-20714	2907.7	-0.79612	0.40484	-0.46477
2.79	174.3	-20721	2907.8	-0.79495	0.40455	-0.46458
2.792	174.29	-20724	2907.7	-0.79583	0.40533	-0.46506
2.794	174.29	-20721	2907.7	-0.79671	0.40611	-0.46555
2.796	174.29	-20722	2907.7	-0.79759	0.40689	-0.46604
2.798	174.28	-20725	2907.7	-0.79847	0.40768	-0.46653
2.8	174.26	-20726	2907.7	-0.79934	0.40846	-0.46702
2.802	174.27	-20727	2907.7	-0.79886	0.40748	-0.46789
2.804	174.27	-20725	2907.7	-0.79837	0.4065	-0.46877
2.806	174.25	-20720	2907.7	-0.79788	0.40553	-0.46965
2.808	174.25	-20718	2907.7	-0.79739	0.40455	-0.47053
2.81	174.27	-20717	2907.7	-0.7969	0.40358	-0.47141
2.812	174.27	-20717	2907.7	-0.79759	0.40436	-0.47043
2.814	174.26	-20716	2907.7	-0.79827	0.40514	-0.46946
2.816	174.26	-20716	2907.7	-0.79895	0.40592	-0.46848
2.818	174.27	-20717	2907.7	-0.79964	0.4067	-0.4675
2.82	174.27	-20715	2907.7	-0.80032	0.40748	-0.46653
2.822	174.26	-20712	2907.6	-0.80003	0.4066	-0.46799
2.824	174.26	-20710	2907.6	-0.79973	0.40572	-0.46946
2.826	174.26	-20710	2907.5	-0.79944	0.40484	-0.47092
2.828	174.26	-20713	2907.4	-0.79915	0.40397	-0.47238
2.83	174.27	-20718	2907.4	-0.79886	0.40309	-0.47385
2.832	174.26	-20721	2907.3	-0.79837	0.40299	-0.47258
2.834	174.25	-20722	2907.2	-0.79788	0.40289	-0.47131
2.836	174.24	-20722	2907.1	-0.79739	0.4028	-0.47004
2.838	174.25	-20721	2907.1	-0.7969	0.4027	-0.46877
2.84	174.25	-20719	2907	-0.79642	0.4026	-0.4675
2.842	174.25	-20716	2906.9	-0.79642	0.40328	-0.46731
2.844	174.25	-20717	2906.8	-0.79642	0.40397	-0.46711
2.846	174.25	-20722	2906.7	-0.79642	0.40465	-0.46692
2.848	174.26	-20724	2906.6	-0.79642	0.40533	-0.46672
2.85	174.26	-20723	2906.6	-0.79642	0.40602	-0.46653
2.852	174.25	-20722	2906.5	-0.79729	0.40602	-0.46692
2.854	174.25	-20720	2906.4	-0.79817	0.40602	-0.46731
2.856	174.27	-20721	2906.3	-0.79905	0.40602	-0.4677
2.858	174.28	-20726	2906.3	-0.79993	0.40602	-0.46809
2.86	174.28	-20727	2906.2	-0.80081	0.40602	-0.46848
2.862	174.27	-20725	2906.2	-0.79973	0.40553	-0.46828
2.864	174.26	-20721	2906.1	-0.79866	0.40504	-0.46809
2.866	174.29	-20716	2906.1	-0.79759	0.40455	-0.46789
2.868	174.31	-20714	2906	-0.79651	0.40406	-0.4677
2.87	174.31	-20715	2905.9	-0.79544	0.40358	-0.4675
2.872	174.31	-20718	2905.9	-0.79476	0.40358	-0.46731
2.874	174.31	-20722	2905.9	-0.79407	0.40358	-0.46711
2.876	174.32	-20725	2905.9	-0.79339	0.40358	-0.46692
2.878	174.32	-20728	2905.9	-0.79271	0.40358	-0.46672
2.88	174.31	-20731	2905.9	-0.79202	0.40358	-0.46653
2.882	174.29	-20732	2905.9	-0.7929	0.40377	-0.46663
2.884	174.29	-20732	2905.8	-0.79378	0.40397	-0.46672
2.886	174.29	-20731	2905.8	-0.79466	0.40416	-0.46682
2.888	174.3	-20728	2905.8	-0.79554	0.40436	-0.46692
2.89	174.31	-20725	2905.8	-0.79642	0.40455	-0.46702
2.892	174.32	-20723	2905.8	-0.79554	0.40475	-0.46692
2.894	174.32	-20723	2905.8	-0.79466	0.40494	-0.46682
2.896	174.32	-20724	2905.8	-0.79378	0.40514	-0.46672
2.898	174.32	-20726	2905.7	-0.7929	0.40533	-0.46663
2.9	174.29	-20724	2905.7	-0.79202	0.40553	-0.46653
2.902	174.27	-20719	2905.7	-0.79339	0.40592	-0.46604
2.904	174.27	-20718	2905.7	-0.79476	0.40631	-0.46555
2.906	174.28	-20721	2905.7	-0.79612	0.4067	-0.46506
2.908	174.29	-20726	2905.7	-0.79749	0.40709	-0.46458
2.91	174.29	-20731	2905.6	-0.79886	0.40748	-0.46409
2.912	174.3	-20732	2905.6	-0.79671	0.40787	-0.46399
2.914	174.3	-20727	2905.6	-0.79456	0.40826	-0.46389
2.916	174.29	-20726	2905.6	-0.79241	0.40865	-0.4638
2.918	174.29	-20729	2905.6	-0.79027	0.40904	-0.4637
2.92	174.28	-20729	2905.5	-0.78812	0.40943	-0.4636
2.922	174.27	-20728	2905.5	-0.78851	0.40924	-0.4634
2.924	174.28	-20729	2905.4	-0.7889	0.40904	-0.46321
2.926	174.31	-20733	2905.4	-0.78929	0.40885	-0.46301
2.928	174.34	-20735	2905.4	-0.78968	0.40865	-0.46282
2.93	174.38	-20735	2905.3	-0.79007	0.40846	-0.46262
2.932	174.41	-20734	2905.3	-0.79115	0.40768	-0.46399
2.934	174.42	-20732	2905.2	-0.79222	0.40689	-0.46536
2.936	174.41	-20730	2905.2	-0.79329	0.40611	-0.46672
2.938	174.37	-20728	2905.1	-0.79437	0.40533	-0.46809
2.94	174.31	-20728	2905	-0.79544	0.40455	-0.46946
2.942	174.26	-20729	2905	-0.79544	0.40475	-0.46877
2.944	174.18	-20733	2904.9	-0.79544	0.40494	-0.46809
2.946	174.07	-20740	2904.9	-0.79544	0.40514	-0.46741
2.948	173.95	-20743	2904.9	-0.79544	0.40533	-0.46672
2.95	173.83	-20743	2904.9	-0.79544	0.40553	-0.46604
2.952	173.73	-20743	2904.8	-0.79466	0.40543	-0.46624
2.954	173.6	-20742	2904.7	-0.79388	0.40533	-0.46643
2.956	173.46	-20741	2904.6	-0.7931	0.40524	-0.46663
2.958	173.32	-20740	2904.5	-0.79232	0.40514	-0.46682
2.96	173.19	-20740	2904.5	-0.79154	0.40504	-0.46702
2.962	173.07	-20742	2904.4	-0.79202	0.40514	-0.46702
2.964	173	-20743	2904.3	-0.79251	0.40524	-0.46702
2.966	173	-20743	2904.2	-0.793	0.40533	-0.46702
2.968	173.09	-20745	2904.1	-0.79349	0.40543	-0.46702
2.97	173.24	-20746	2904	-0.79398	0.40553	-0.46702
2.972	173.42	-20748	2903.9	-0.79339	0.40533	-0.46692
2.974	173.6	-20751	2903.8	-0.7928	0.40514	-0.46682
2.976	173.76	-20752	2903.7	-0.79222	0.40494	-0.46672
2.978	173.93	-20751	2903.6	-0.79163	0.40475	-0.46663
2.98	174.07	-20749	2903.4	-0.79105	0.40455	-0.46653
2.982	174.14	-20744	2903.3	-0.79144	0.40465	-0.46663
2.984	174.16	-20742	2903.3	-0.79183	0.40475	-0.46672
2.986	174.19	-20742	2903.2	-0.79222	0.40484	-0.46682
2.988	174.22	-20743	2903.1	-0.79261	0.40494	-0.46692
2.99	174.23	-20744	2903	-0.793	0.40504	-0.46702
2.992	174.25	-20746	2902.9	-0.79368	0.40592	-0.46692
2.994	174.25	-20747	2902.7	-0.79437	0.4068	-0.46682
2.996	174.23	-20747	2902.6	-0.79505	0.40768	-0.46672
2.998	174.19	-20746	2902.5	-0.79573	0.40855	-0.46663
3	174.17	-20746	2902.3	-0.79642	0.40943	-0.46653
3.002	174.16	-20746	2902.2	-0.79593	0.40836	-0.46702
3.004	174.15	-20750	2902.1	-0.79544	0.40728	-0.4675
3.006	174.14	-20758	2902	-0.79495	0.40621	-0.46799
3.008	174.13	-20762	2901.8	-0.79446	0.40514	-0.46848
3.01	174.13	-20762	2901.7	-0.79398	0.40406	-0.46897
3.012	174.13	-20761	2901.5	-0.79456	0.40426	-0.46887
3.014	174.15	-20759	2901.4	-0.79515	0.40445	-0.46877
3.016	174.17	-20757	2901.2	-0.79573	0.40465	-0.46868
3.018	174.17	-20755	2901.1	-0.79632	0.40484	-0.46858
3.02	174.16	-20755	2900.9	-0.7969	0.40504	-0.46848
3.022	174.16	-20758	2900.8	-0.7972	0.40563	-0.46868
3.024	174.17	-20760	2900.7	-0.79749	0.40621	-0.46887
3.026	174.17	-20763	2900.6	-0.79778	0.4068	-0.46907
3.028	174.18	-20760	2900.4	-0.79808	0.40738	-0.46926
3.03	174.18	-20753	2900.3	-0.79837	0.40797	-0.46946
3.032	174.17	-20750	2900.2	-0.79856	0.40826	-0.46858
3.034	174.17	-20752	2900	-0.79876	0.40855	-0.4677
3.036	174.15	-20756	2899.9	-0.79895	0.40885	-0.46682
3.038	174.15	-20762	2899.8	-0.79915	0.40914	-0.46594
3.04	174.15	-20767	2899.7	-0.79934	0.40943	-0.46506
3.042	174.14	-20769	2899.5	-0.79954	0.40865	-0.46624
3.044	174.14	-20769	2899.4	-0.79973	0.40787	-0.46741
3.046	174.14	-20767	2899.3	-0.79993	0.40709	-0.46858
3.048	174.15	-20764	2899.2	-0.80012	0.40631	-0.46975
3.05	174.16	-20760	2899.1	-0.80032	0.40553	-0.47092
3.052	174.17	-20757	2899	-0.79808	0.40572	-0.46994
3.054	174.16	-20757	2898.9	-0.79583	0.40592	-0.46897
3.056	174.15	-20762	2898.7	-0.79359	0.40611	-0.46799
3.058	174.14	-20771	2898.6	-0.79134	0.40631	-0.46702
3.06	174.12	-20774	2898.5	-0.7891	0.4065	-0.46604
3.062	174.13	-20772	2898.5	-0.78851	0.40719	-0.46584
3.064	174.13	-20772	2898.4	-0.78792	0.40787	-0.46565
3.066	174.11	-20775	2898.3	-0.78734	0.40855	-0.46545
3.068	174.11	-20774	2898.2	-0.78675	0.40924	-0.46526
3.07	174.11	-20771	2898.1	-0.78617	0.40992	-0.46506
3.072	174.11	-20774	2898	-0.78714	0.40914	-0.46565
3.074	174.12	-20783	2897.9	-0.78812	0.40836	-0.46624
3.076	174.12	-20786	2897.8	-0.7891	0.40758	-0.46682
3.078	174.1	-20784	2897.8	-0.79007	0.4068	-0.46741
3.08	174.11	-20782	2897.7	-0.79105	0.40602	-0.46799
3.082	174.13	-20780	2897.6	-0.7931	0.40641	-0.46848
3.084	174.13	-20780	2897.5	-0.79515	0.4068	-0.46897
3.086	174.12	-20782	2897.4	-0.7972	0.40719	-0.46946
3.088	174.1	-20782	2897.3	-0.79925	0.40758	-0.46994
3.09	174.09	-20782	2897.3	-0.8013	0.40797	-0.47043
3.092	174.07	-20781	2897.1	-0.801	0.40748	-0.47024
3.094	174.05	-20780	2897	-0.80071	0.40699	-0.47004
3.096	174.05	-20781	2896.9	-0.80042	0.4065	-0.46985
3.098	174.05	-20784	2896.8	-0.80012	0.40602	-0.46965
3.1	174.05	-20785	2896.7	-0.79983	0.40553	-0.46946
3.102	174.05	-20784	2896.6	-0.79954	0.40543	-0.46994
3.104	174.04	-20783	2896.5	-0.79925	0.40533	-0.47043
3.106	174.03	-20784	2896.4	-0.79895	0.40524	-0.47092
3.108	174.03	-20784	2896.3	-0.79866	0.40514	-0.47141
3.11	174.03	-20784	2896.2	-0.79837	0.40504	-0.4719
3.112	174.03	-20784	2896	-0.79749	0.40494	-0.47131
3.114	174.03	-20782	2895.9	-0.79661	0.40484	-0.47072
3.116	174.04	-20785	2895.8	-0.79573	0.40475	-0.47014
3.118	174.04	-20792	2895.8	-0.79485	0.40465	-0.46955
3.12	174.03	-20796	2895.7	-0.79398	0.40455	-0.46897
3.122	174.01	-20799	2895.7	-0.79417	0.40436	-0.46926
3.124	174.01	-20798	2895.6	-0.79437	0.40416	-0.46955
3.126	174.01	-20794	2895.6	-0.79456	0.40397	-0.46985
3.128	174	-20791	2895.5	-0.79476	0.40377	-0.47014
3.13	173.99	-20791	2895.5	-0.79495	0.40358	-0.47043
3.132	173.99	-20791	2895.6	-0.79505	0.40406	-0.46975
3.134	173.99	-20791	2895.6	-0.79515	0.40455	-0.46907
3.136	174	-20790	2895.7	-0.79524	0.40504	-0.46838
3.138	173.99	-20788	2895.8	-0.79534	0.40553	-0.4677
3.14	173.98	-20789	2895.9	-0.79544	0.40602	-0.46702
3.142	173.98	-20792	2896	-0.79681	0.40611	-0.46789
3.144	173.98	-20796	2896.1	-0.79817	0.40621	-0.46877
3.146	173.97	-20801	2896.3	-0.79954	0.40631	-0.46965
3.148	173.97	-20801	2896.5	-0.80091	0.40641	-0.47053
3.15	173.97	-20798	2896.7	-0.80227	0.4065	-0.47141
3.152	173.98	-20794	2897	-0.8013	0.40719	-0.47024
3.154	173.97	-20788	2897.3	-0.80032	0.40787	-0.46907
3.156	173.94	-20789	2897.6	-0.79934	0.40855	-0.46789
3.158	173.93	-20796	2897.9	-0.79837	0.40924	-0.46672
3.16	173.93	-20797	2898.3	-0.79739	0.40992	-0.46555
3.162	173.94	-20793	2898.6	-0.79798	0.41031	-0.46536
3.164	173.95	-20789	2898.9	-0.79856	0.4107	-0.46516
3.166	173.96	-20784	2899.2	-0.79915	0.41109	-0.46497
3.168	173.96	-20785	2899.7	-0.79973	0.41148	-0.46477
3.17	173.95	-20792	2900.1	-0.80032	0.41187	-0.46458
3.172	173.94	-20796	2900.4	-0.79915	0.4106	-0.46497
3.174	173.93	-20795	2900.8	-0.79798	0.40933	-0.46536
3.176	173.93	-20793	2901.2	-0.79681	0.40807	-0.46575
3.178	173.93	-20790	2901.6	-0.79564	0.4068	-0.46614
3.18	173.93	-20787	2902	-0.79446	0.40553	-0.46653
3.182	173.93	-20783	2902.3	-0.79524	0.40611	-0.46653
3.184	173.95	-20781	2902.7	-0.79603	0.4067	-0.46653
3.186	173.95	-20780	2903	-0.79681	0.40728	-0.46653
3.188	173.95	-20783	2903.4	-0.79759	0.40787	-0.46653
3.19	173.95	-20790	2903.8	-0.79837	0.40846	-0.46653
3.192	173.94	-20791	2904.1	-0.79847	0.40846	-0.46702
3.194	173.92	-20787	2904.5	-0.79856	0.40846	-0.4675
3.196	173.91	-20786	2904.8	-0.79866	0.40846	-0.46799
3.198	173.92	-20789	2905.2	-0.79876	0.40846	-0.46848
3.2	173.92	-20791	2905.5	-0.79886	0.40846	-0.46897
3.202	173.92	-20792	2905.8	-0.79798	0.40777	-0.46897
3.204	173.93	-20789	2906.1	-0.7971	0.40709	-0.46897
3.206	173.94	-20782	2906.3	-0.79622	0.40641	-0.46897
3.208	173.94	-20776	2906.6	-0.79534	0.40572	-0.46897
3.21	173.94	-20771	2906.9	-0.79446	0.40504	-0.46897
3.212	173.95	-20775	2907.1	-0.79622	0.40572	-0.46877
3.214	173.98	-20788	2907.4	-0.79798	0.40641	-0.46858
3.216	173.98	-20792	2907.6	-0.79973	0.40709	-0.46838
3.218	173.96	-20789	2907.8	-0.80149	0.40777	-0.46819
3.22	173.94	-20787	2908	-0.80325	0.40846	-0.46799
3.222	173.95	-20786	2908.2	-0.80139	0.40748	-0.46809
3.224	173.97	-20780	2908.4	-0.79954	0.4065	-0.46819
3.226	173.97	-20769	2908.5	-0.79768	0.40553	-0.46828
3.228	173.97	-20767	2908.7	-0.79583	0.40455	-0.46838
3.23	173.97	-20776	2908.9	-0.79398	0.40358	-0.46848
3.232	173.98	-20777	2909	-0.79359	0.40377	-0.46809
3.234	173.99	-20770	2909.2	-0.7932	0.40397	-0.4677
3.236	174	-20765	2909.3	-0.7928	0.40416	-0.46731
3.238	174.01	-20761	2909.4	-0.79241	0.40436	-0.46692
3.24	174.01	-20757	2909.5	-0.79202	0.40455	-0.46653
3.242	174.02	-20752	2909.6	-0.79251	0.40387	-0.46838
3.244	174.03	-20749	2909.7	-0.793	0.40319	-0.47024
3.246	174.02	-20748	2909.9	-0.79349	0.4025	-0.47209
3.248	173.99	-20747	2910	-0.79398	0.40182	-0.47395
3.25	173.98	-20746	2910.1	-0.79446	0.40114	-0.4758
3.252	173.99	-20745	2910.2	-0.79524	0.4024	-0.47492
3.254	174	-20745	2910.3	-0.79603	0.40367	-0.47404
3.256	174	-20745	2910.4	-0.79681	0.40494	-0.47316
3.258	174	-20746	2910.5	-0.79759	0.40621	-0.47229
3.26	174	-20742	2910.7	-0.79837	0.40748	-0.47141
3.262	174.01	-20735	2910.7	-0.79778	0.40709	-0.47072
3.264	174.01	-20733	2910.8	-0.7972	0.4067	-0.47004
3.266	174.01	-20735	2910.9	-0.79661	0.40631	-0.46936
3.268	174.02	-20733	2910.9	-0.79603	0.40592	-0.46868
3.27	174.02	-20729	2911	-0.79544	0.40553	-0.46799
3.272	174.02	-20736	2911.1	-0.79651	0.40524	-0.46877
3.274	174.02	-20755	2911.2	-0.79759	0.40494	-0.46955
3.276	174.02	-20761	2911.2	-0.79866	0.40465	-0.47033
3.278	174	-20752	2911.3	-0.79973	0.40436	-0.47112
3.28	174.01	-20746	2911.4	-0.80081	0.40406	-0.4719
3.282	174.02	-20743	2911.5	-0.79954	0.40475	-0.47092
3.284	174.01	-20741	2911.6	-0.79827	0.40543	-0.46994
3.286	174.01	-20738	2911.6	-0.797	0.40611	-0.46897
3.288	174	-20736	2911.7	-0.79573	0.4068	-0.46799
3.29	174	-20735	2911.7	-0.79446	0.40748	-0.46702
3.292	174.01	-20734	2911.7	-0.79505	0.40768	-0.4677
3.294	174.01	-20732	2911.8	-0.79564	0.40787	-0.46838
3.296	173.99	-20725	2911.8	-0.79622	0.40807	-0.46907
3.298	173.99	-20712	2911.7	-0.79681	0.40826	-0.46975
3.3	174	-20707	2911.7	-0.79739	0.40846	-0.47043
3.302	174	-20708	2911.7	-0.79661	0.40758	-0.47053
3.304	174.01	-20711	2911.7	-0.79583	0.4067	-0.47063
3.306	174	-20716	2911.7	-0.79505	0.40582	-0.47072
3.308	173.97	-20715	2911.6	-0.79427	0.40494	-0.47082
3.31	173.98	-20709	2911.5	-0.79349	0.40406	-0.47092
3.312	173.99	-20706	2911.4	-0.79398	0.40465	-0.47053
3.314	173.98	-20707	2911.3	-0.79446	0.40524	-0.47014
3.316	173.98	-20709	2911.2	-0.79495	0.40582	-0.46975
3.318	173.98	-20711	2911	-0.79544	0.40641	-0.46936
3.32	173.98	-20712	2910.9	-0.79593	0.40699	-0.46897
3.322	173.98	-20713	2910.7	-0.79534	0.40699	-0.46887
3.324	173.97	-20714	2910.6	-0.79476	0.40699	-0.46877
3.326	173.97	-20715	2910.4	-0.79417	0.40699	-0.46868
3.328	173.98	-20713	2910.1	-0.79359	0.40699	-0.46858
3.33	173.98	-20707	2909.9	-0.793	0.40699	-0.46848
3.332	173.99	-20706	2909.7	-0.79388	0.4068	-0.46916
3.334	173.99	-20709	2909.4	-0.79476	0.4066	-0.46985
3.336	173.97	-20710	2909.2	-0.79564	0.40641	-0.47053
3.338	173.97	-20709	2909	-0.79651	0.40621	-0.47121
3.34	173.98	-20710	2908.8	-0.79739	0.40602	-0.4719
3.342	173.98	-20711	2908.5	-0.79749	0.4068	-0.47082
3.344	173.98	-20712	2908.3	-0.79759	0.40758	-0.46975
3.346	173.98	-20711	2908.1	-0.79768	0.40836	-0.46868
3.348	173.96	-20712	2907.9	-0.79778	0.40914	-0.4676
3.35	173.94	-20715	2907.8	-0.79788	0.40992	-0.46653
3.352	173.93	-20716	2907.6	-0.79681	0.40943	-0.46682
3.354	173.92	-20715	2907.4	-0.79573	0.40894	-0.46711
3.356	173.93	-20709	2907.3	-0.79466	0.40846	-0.46741
3.358	173.94	-20700	2907.1	-0.79359	0.40797	-0.4677
3.36	173.94	-20696	2907	-0.79251	0.40748	-0.46799
3.362	173.95	-20699	2906.8	-0.79329	0.40797	-0.46789
3.364	173.95	-20701	2906.6	-0.79407	0.40846	-0.4678
3.366	173.94	-20701	2906.4	-0.79485	0.40894	-0.4677
3.368	173.94	-20701	2906.2	-0.79564	0.40943	-0.4676
3.37	173.94	-20701	2906	-0.79642	0.40992	-0.4675
3.372	173.93	-20701	2905.8	-0.79593	0.40972	-0.46711
3.374	173.93	-20702	2905.6	-0.79544	0.40953	-0.46672
3.376	173.94	-20702	2905.5	-0.79495	0.40933	-0.46633
3.378	173.94	-20700	2905.3	-0.79446	0.40914	-0.46594
3.38	173.93	-20701	2905.1	-0.79398	0.40894	-0.46555
3.382	173.94	-20705	2904.9	-0.79456	0.40904	-0.46575
3.384	173.94	-20709	2904.7	-0.79515	0.40914	-0.46594
3.386	173.93	-20713	2904.5	-0.79573	0.40924	-0.46614
3.388	173.93	-20711	2904.3	-0.79632	0.40933	-0.46633
3.39	173.9	-20705	2904.1	-0.7969	0.40943	-0.46653
3.392	173.9	-20702	2904	-0.79593	0.40865	-0.46575
3.394	173.91	-20702	2903.8	-0.79495	0.40787	-0.46497
3.396	173.92	-20702	2903.7	-0.79398	0.40709	-0.46419
3.398	173.91	-20701	2903.5	-0.793	0.40631	-0.4634
3.4	173.91	-20701	2903.3	-0.79202	0.40553	-0.46262
3.402	173.91	-20702	2903.2	-0.79378	0.40572	-0.46428
3.404	173.91	-20702	2903.1	-0.79554	0.40592	-0.46594
3.406	173.91	-20701	2903.1	-0.79729	0.40611	-0.4676
3.408	173.91	-20698	2903	-0.79905	0.40631	-0.46926
3.41	173.91	-20694	2902.9	-0.80081	0.4065	-0.47092
3.412	173.92	-20694	2902.9	-0.79934	0.40602	-0.47033
3.414	173.93	-20697	2902.9	-0.79788	0.40553	-0.46975
3.416	173.93	-20699	2902.9	-0.79642	0.40504	-0.46916
3.418	173.92	-20700	2902.9	-0.79495	0.40455	-0.46858
3.42	173.9	-20701	2902.9	-0.79349	0.40406	-0.46799
3.422	173.89	-20702	2902.9	-0.79378	0.40484	-0.4676
3.424	173.89	-20701	2902.9	-0.79407	0.40563	-0.46721
3.426	173.88	-20698	2903	-0.79437	0.40641	-0.46682
3.428	173.87	-20697	2903	-0.79466	0.40719	-0.46643
3.43	173.86	-20696	2903.1	-0.79495	0.40797	-0.46604
3.432	173.85	-20696	2903.1	-0.79554	0.40777	-0.46643
3.434	173.84	-20696	2903.1	-0.79612	0.40758	-0.46682
3.436	173.85	-20696	2903.1	-0.79671	0.40738	-0.46721
3.438	173.86	-20696	2903.1	-0.79729	0.40719	-0.4676
3.44	173.86	-20696	2903.1	-0.79788	0.40699	-0.46799
3.442	173.86	-20698	2903.1	-0.79866	0.40709	-0.46819
3.444	173.85	-20699	2903.1	-0.79944	0.40719	-0.46838
3.446	173.85	-20701	2903	-0.80022	0.40728	-0.46858
3.448	173.84	-20703	2902.9	-0.801	0.40738	-0.46877
3.45	173.84	-20705	2902.9	-0.80178	0.40748	-0.46897
3.452	173.84	-20707	2902.7	-0.80149	0.40709	-0.46926
3.454	173.83	-20706	2902.6	-0.8012	0.4067	-0.46955
3.456	173.82	-20705	2902.5	-0.80091	0.40631	-0.46985
3.458	173.81	-20704	2902.3	-0.80061	0.40592	-0.47014
3.46	173.82	-20704	2902.2	-0.80032	0.40553	-0.47043
3.462	173.84	-20705	2902.1	-0.8012	0.40533	-0.47043
3.464	173.85	-20705	2902	-0.80208	0.40514	-0.47043
3.466	173.86	-20704	2901.9	-0.80296	0.40494	-0.47043
3.468	173.85	-20703	2901.7	-0.80383	0.40475	-0.47043
3.47	173.84	-20700	2901.6	-0.80471	0.40455	-0.47043
3.472	173.82	-20698	2901.5	-0.80335	0.40406	-0.47229
3.474	173.8	-20696	2901.4	-0.80198	0.40358	-0.47414
3.476	173.81	-20698	2901.3	-0.80061	0.40309	-0.476
3.478	173.82	-20703	2901.2	-0.79925	0.4026	-0.47785
3.48	173.82	-20704	2901.1	-0.79788	0.40211	-0.4797
3.482	173.8	-20699	2901	-0.79749	0.40201	-0.47931
3.484	173.78	-20697	2900.9	-0.7971	0.40192	-0.47892
3.486	173.78	-20697	2900.8	-0.79671	0.40182	-0.47853
3.488	173.79	-20697	2900.7	-0.79632	0.40172	-0.47814
3.49	173.79	-20696	2900.5	-0.79593	0.40162	-0.47775
3.492	173.79	-20700	2900.5	-0.79661	0.40211	-0.47707
3.494	173.8	-20709	2900.4	-0.79729	0.4026	-0.47639
3.496	173.8	-20711	2900.3	-0.79798	0.40309	-0.4757
3.498	173.81	-20707	2900.1	-0.79866	0.40358	-0.47502
3.5	173.81	-20707	2900	-0.79934	0.40406	-0.47434
3.502	173.81	-20710	2899.8	-0.79934	0.40358	-0.47443
3.504	173.82	-20708	2899.7	-0.79934	0.40309	-0.47453
3.506	173.83	-20701	2899.5	-0.79934	0.4026	-0.47463
3.508	173.85	-20700	2899.4	-0.79934	0.40211	-0.47473
3.51	173.85	-20705	2899.3	-0.79934	0.40162	-0.47482
3.512	173.85	-20706	2899.2	-0.79993	0.40309	-0.47385
3.514	173.85	-20704	2899.1	-0.80052	0.40455	-0.47287
3.516	173.87	-20703	2899	-0.8011	0.40602	-0.4719
3.518	173.89	-20703	2898.9	-0.80169	0.40748	-0.47092
3.52	173.88	-20704	2898.8	-0.80227	0.40894	-0.46994
3.522	173.87	-20704	2898.7	-0.80188	0.40846	-0.47043
3.524	173.87	-20704	2898.6	-0.80149	0.40797	-0.47092
3.526	173.87	-20703	2898.6	-0.8011	0.40748	-0.47141
3.528	173.87	-20704	2898.6	-0.80071	0.40699	-0.4719
3.53	173.86	-20706	2898.6	-0.80032	0.4065	-0.47238
3.532	173.86	-20706	2898.5	-0.80012	0.40621	-0.47199
3.534	173.86	-20703	2898.5	-0.79993	0.40592	-0.4716
3.536	173.86	-20702	2898.5	-0.79973	0.40563	-0.47121
3.538	173.86	-20703	2898.4	-0.79954	0.40533	-0.47082
3.54	173.86	-20706	2898.4	-0.79934	0.40504	-0.47043
3.542	173.85	-20712	2898.4	-0.79788	0.40563	-0.46946
3.544	173.85	-20714	2898.3	-0.79642	0.40621	-0.46848
3.546	173.86	-20710	2898.3	-0.79495	0.4068	-0.4675
3.548	173.86	-20708	2898.2	-0.79349	0.40738	-0.46653
3.55	173.87	-20709	2898.2	-0.79202	0.40797	-0.46555
3.552	173.87	-20709	2898.1	-0.79398	0.40748	-0.46672
3.554	173.85	-20709	2898.1	-0.79593	0.40699	-0.46789
3.556	173.82	-20708	2898	-0.79788	0.4065	-0.46907
3.558	173.83	-20708	2897.9	-0.79983	0.40602	-0.47024
3.56	173.84	-20704	2897.9	-0.80178	0.40553	-0.47141
3.562	173.84	-20699	2897.8	-0.79964	0.40572	-0.47004
3.564	173.84	-20700	2897.7	-0.79749	0.40592	-0.46868
3.566	173.84	-20709	2897.6	-0.79534	0.40611	-0.46731
3.568	173.83	-20714	2897.5	-0.7932	0.40631	-0.46594
3.57	173.83	-20715	2897.4	-0.79105	0.4065	-0.46458
3.572	173.85	-20714	2897.3	-0.79232	0.40758	-0.46516
3.574	173.87	-20713	2897.1	-0.79359	0.40865	-0.46575
3.576	173.9	-20712	2897	-0.79485	0.40972	-0.46633
3.578	173.93	-20711	2896.9	-0.79612	0.4108	-0.46692
3.58	173.96	-20709	2896.7	-0.79739	0.41187	-0.4675
3.582	173.98	-20706	2896.6	-0.797	0.4107	-0.46799
3.584	173.97	-20708	2896.5	-0.79661	0.40953	-0.46848
3.586	173.95	-20715	2896.3	-0.79622	0.40836	-0.46897
3.588	173.89	-20719	2896.3	-0.79583	0.40719	-0.46946
3.59	173.82	-20722	2896.2	-0.79544	0.40602	-0.46994
3.592	173.75	-20723	2896	-0.79573	0.40602	-0.46926
3.594	173.67	-20723	2895.8	-0.79603	0.40602	-0.46858
3.596	173.58	-20722	2895.7	-0.79632	0.40602	-0.46789
3.598	173.48	-20723	2895.6	-0.79661	0.40602	-0.46721
3.6	173.36	-20722	2895.5	-0.7969	0.40602	-0.46653
3.602	173.23	-20719	2895.3	-0.79739	0.40572	-0.46741
3.604	173.09	-20719	2895.2	-0.79788	0.40543	-0.46828
3.606	172.95	-20723	2895.1	-0.79837	0.40514	-0.46916
3.608	172.81	-20723	2895	-0.79886	0.40484	-0.47004
3.61	172.68	-20720	2894.8	-0.79934	0.40455	-0.47092
3.612	172.57	-20720	2894.8	-0.79915	0.40553	-0.47043
3.614	172.52	-20723	2894.7	-0.79895	0.4065	-0.46994
3.616	172.53	-20724	2894.6	-0.79876	0.40748	-0.46946
3.618	172.63	-20724	2894.5	-0.79856	0.40846	-0.46897
3.62	172.79	-20726	2894.4	-0.79837	0.40943	-0.46848
3.622	172.98	-20733	2894.3	-0.79768	0.40875	-0.46858
3.624	173.18	-20734	2894.2	-0.797	0.40807	-0.46868
3.626	173.36	-20730	2894.2	-0.79632	0.40738	-0.46877
3.628	173.5	-20726	2894.1	-0.79564	0.4067	-0.46887
3.63	173.6	-20723	2894	-0.79495	0.40602	-0.46897
3.632	173.67	-20724	2894	-0.79564	0.40728	-0.46789
3.634	173.72	-20728	2893.9	-0.79632	0.40855	-0.46682
3.636	173.76	-20730	2893.8	-0.797	0.40982	-0.46575
3.638	173.78	-20731	2893.7	-0.79768	0.41109	-0.46467
3.64	173.79	-20732	2893.7	-0.79837	0.41236	-0.4636
3.642	173.79	-20733	2893.6	-0.7969	0.4109	-0.46409
3.644	173.76	-20733	2893.5	-0.79544	0.40943	-0.46458
3.646	173.72	-20730	2893.4	-0.79398	0.40797	-0.46506
3.648	173.7	-20731	2893.3	-0.79251	0.4065	-0.46555
3.65	173.7	-20734	2893.2	-0.79105	0.40504	-0.46604
3.652	173.7	-20739	2893.1	-0.79222	0.40543	-0.46604
3.654	173.69	-20744	2892.9	-0.79339	0.40582	-0.46604
3.656	173.69	-20742	2892.8	-0.79456	0.40621	-0.46604
3.658	173.7	-20733	2892.6	-0.79573	0.4066	-0.46604
3.66	173.7	-20731	2892.5	-0.7969	0.40699	-0.46604
3.662	173.72	-20737	2892.3	-0.79739	0.4068	-0.46672
3.664	173.71	-20740	2892.1	-0.79788	0.4066	-0.46741
3.666	173.72	-20741	2892	-0.79837	0.40641	-0.46809
3.668	173.73	-20740	2891.8	-0.79886	0.40621	-0.46877
3.67	173.72	-20739	2891.6	-0.79934	0.40602	-0.46946
3.672	173.72	-20740	2891.5	-0.79847	0.40504	-0.47004
3.674	173.71	-20742	2891.4	-0.79759	0.40406	-0.47063
3.676	173.69	-20742	2891.3	-0.79671	0.40309	-0.47121
3.678	173.69	-20739	2891.1	-0.79583	0.40211	-0.4718
3.68	173.7	-20739	2891	-0.79495	0.40114	-0.47238
3.682	173.71	-20741	2890.8	-0.79485	0.40201	-0.47131
3.684	173.71	-20743	2890.6	-0.79476	0.40289	-0.47024
3.686	173.7	-20746	2890.5	-0.79466	0.40377	-0.46916
3.688	173.71	-20746	2890.4	-0.79456	0.40465	-0.46809
3.69	173.72	-20745	2890.3	-0.79446	0.40553	-0.46702
3.692	173.72	-20747	2890.1	-0.79612	0.40572	-0.46789
3.694	173.71	-20752	2890	-0.79778	0.40592	-0.46877
3.696	173.7	-20756	2889.9	-0.79944	0.40611	-0.46965
3.698	173.69	-20761	2889.8	-0.8011	0.40631	-0.47053
3.7	173.69	-20763	2889.8	-0.80276	0.4065	-0.47141
3.702	173.68	-20763	2889.6	-0.80169	0.40611	-0.47151
3.704	173.69	-20756	2889.5	-0.80061	0.40572	-0.4716
3.706	173.69	-20743	2889.4	-0.79954	0.40533	-0.4717
3.708	173.7	-20742	2889.3	-0.79847	0.40494	-0.4718
3.71	173.69	-20754	2889.2	-0.79739	0.40455	-0.4719
3.712	173.68	-20757	2889.2	-0.79817	0.40553	-0.47141
3.714	173.68	-20751	2889.2	-0.79895	0.4065	-0.47092
3.716	173.68	-20749	2889.2	-0.79973	0.40748	-0.47043
3.718	173.68	-20752	2889.1	-0.80052	0.40846	-0.46994
3.72	173.68	-20756	2889.1	-0.8013	0.40943	-0.46946
3.722	173.68	-20759	2889	-0.8011	0.40972	-0.46955
3.724	173.67	-20761	2889	-0.80091	0.41002	-0.46965
3.726	173.62	-20762	2889	-0.80071	0.41031	-0.46975
3.728	173.61	-20761	2888.9	-0.80052	0.4106	-0.46985
3.73	173.62	-20758	2888.9	-0.80032	0.4109	-0.46994
3.732	173.63	-20759	2888.8	-0.79944	0.41012	-0.46936
3.734	173.63	-20764	2888.7	-0.79856	0.40933	-0.46877
3.736	173.63	-20766	2888.7	-0.79768	0.40855	-0.46819
3.738	173.62	-20765	2888.6	-0.79681	0.40777	-0.4676
3.74	173.63	-20765	2888.5	-0.79593	0.40699	-0.46702
3.742	173.64	-20766	2888.3	-0.79651	0.4068	-0.46819
3.744	173.63	-20767	2888.2	-0.7971	0.4066	-0.46936
3.746	173.62	-20767	2888	-0.79768	0.40641	-0.47053
3.748	173.61	-20769	2887.8	-0.79827	0.40621	-0.4717
3.75	173.61	-20771	2887.7	-0.79886	0.40602	-0.47287
3.752	173.62	-20773	2887.5	-0.79798	0.40553	-0.47287
3.754	173.62	-20774	2887.3	-0.7971	0.40504	-0.47287
3.756	173.61	-20776	2887.1	-0.79622	0.40455	-0.47287
3.758	173.61	-20777	2886.9	-0.79534	0.40406	-0.47287
3.76	173.61	-20777	2886.7	-0.79446	0.40358	-0.47287
3.762	173.6	-20774	2886.6	-0.79515	0.40397	-0.47219
3.764	173.6	-20774	2886.4	-0.79583	0.40436	-0.47151
3.766	173.61	-20775	2886.2	-0.79651	0.40475	-0.47082
3.768	173.59	-20775	2886.1	-0.7972	0.40514	-0.47014
3.77	173.55	-20772	2886	-0.79788	0.40553	-0.46946
3.772	173.54	-20772	2885.9	-0.79847	0.40592	-0.46926
3.774	173.54	-20773	2885.8	-0.79905	0.40631	-0.46907
3.776	173.55	-20777	2885.8	-0.79964	0.4067	-0.46887
3.778	173.55	-20784	2885.8	-0.80022	0.40709	-0.46868
3.78	173.55	-20787	2885.8	-0.80081	0.40748	-0.46848
3.782	173.55	-20788	2885.9	-0.80052	0.40758	-0.46887
3.784	173.55	-20787	2886	-0.80022	0.40768	-0.46926
3.786	173.54	-20786	2886.1	-0.79993	0.40777	-0.46965
3.788	173.54	-20784	2886.3	-0.79964	0.40787	-0.47004
3.79	173.54	-20780	2886.4	-0.79934	0.40797	-0.47043
3.792	173.53	-20778	2886.7	-0.79944	0.40758	-0.47092
3.794	173.53	-20776	2886.9	-0.79954	0.40719	-0.47141
3.796	173.53	-20779	2887.1	-0.79964	0.4068	-0.4719
3.798	173.54	-20785	2887.4	-0.79973	0.40641	-0.47238
3.8	173.54	-20786	2887.7	-0.79983	0.40602	-0.47287
3.802	173.54	-20782	2888.1	-0.79895	0.40631	-0.47141
3.804	173.52	-20779	2888.4	-0.79808	0.4066	-0.46994
3.806	173.51	-20776	2888.7	-0.7972	0.40689	-0.46848
3.808	173.49	-20777	2889.1	-0.79632	0.40719	-0.46702
3.81	173.5	-20781	2889.5	-0.79544	0.40748	-0.46555
3.812	173.51	-20781	2889.9	-0.79778	0.40641	-0.46731
3.814	173.49	-20776	2890.3	-0.80012	0.40533	-0.46907
3.816	173.47	-20774	2890.7	-0.80247	0.40426	-0.47082
3.818	173.47	-20773	2891.1	-0.80481	0.40319	-0.47258
3.82	173.47	-20775	2891.6	-0.80715	0.40211	-0.47434
3.822	173.48	-20778	2892	-0.80657	0.4028	-0.47385
3.824	173.49	-20779	2892.4	-0.80598	0.40348	-0.47336
3.826	173.49	-20778	2892.9	-0.8054	0.40416	-0.47287
3.828	173.49	-20778	2893.3	-0.80481	0.40484	-0.47238
3.83	173.49	-20779	2893.7	-0.80422	0.40553	-0.4719
3.832	173.49	-20782	2894.1	-0.80442	0.40514	-0.47268
3.834	173.5	-20787	2894.5	-0.80461	0.40475	-0.47346
3.836	173.51	-20790	2894.8	-0.80481	0.40436	-0.47424
3.838	173.49	-20790	2895.2	-0.805	0.40397	-0.47502
3.84	173.48	-20788	2895.6	-0.8052	0.40358	-0.4758
3.842	173.49	-20786	2896	-0.80461	0.40445	-0.47463
3.844	173.49	-20783	2896.3	-0.80403	0.40533	-0.47346
3.846	173.49	-20779	2896.7	-0.80344	0.40621	-0.47229
3.848	173.48	-20775	2897	-0.80286	0.40709	-0.47112
3.85	173.49	-20772	2897.3	-0.80227	0.40797	-0.46994
3.852	173.51	-20769	2897.6	-0.80178	0.40758	-0.47053
3.854	173.51	-20766	2897.9	-0.8013	0.40719	-0.47112
3.856	173.51	-20765	2898.1	-0.80081	0.4068	-0.4717
3.858	173.52	-20768	2898.4	-0.80032	0.40641	-0.47229
3.86	173.53	-20769	2898.7	-0.79983	0.40602	-0.47287
3.862	173.53	-20769	2898.9	-0.79915	0.40611	-0.4719
3.864	173.53	-20767	2899.1	-0.79847	0.40621	-0.47092
3.866	173.53	-20762	2899.3	-0.79778	0.40631	-0.46994
3.868	173.53	-20758	2899.6	-0.7971	0.40641	-0.46897
3.87	173.53	-20757	2899.8	-0.79642	0.4065	-0.46799
3.872	173.52	-20757	2900	-0.7972	0.40641	-0.46828
3.874	173.51	-20758	2900.2	-0.79798	0.40631	-0.46858
3.876	173.51	-20758	2900.4	-0.79876	0.40621	-0.46887
3.878	173.52	-20758	2900.6	-0.79954	0.40611	-0.46916
3.88	173.52	-20756	2900.7	-0.80032	0.40602	-0.46946
3.882	173.53	-20753	2900.9	-0.79993	0.4065	-0.46877
3.884	173.54	-20750	2901.1	-0.79954	0.40699	-0.46809
3.886	173.56	-20748	2901.2	-0.79915	0.40748	-0.46741
3.888	173.58	-20747	2901.4	-0.79876	0.40797	-0.46672
3.89	173.59	-20746	2901.5	-0.79837	0.40846	-0.46604
3.892	173.59	-20744	2901.6	-0.79808	0.40758	-0.4677
3.894	173.58	-20742	2901.6	-0.79778	0.4067	-0.46936
3.896	173.57	-20740	2901.7	-0.79749	0.40582	-0.47102
3.898	173.58	-20739	2901.8	-0.7972	0.40494	-0.47268
3.9	173.57	-20737	2901.9	-0.7969	0.40406	-0.47434
3.902	173.57	-20735	2901.9	-0.79768	0.40436	-0.47375
3.904	173.56	-20734	2901.9	-0.79847	0.40465	-0.47316
3.906	173.54	-20734	2902	-0.79925	0.40494	-0.47258
3.908	173.55	-20734	2902	-0.80003	0.40524	-0.47199
3.91	173.55	-20733	2902	-0.80081	0.40553	-0.47141
3.912	173.56	-20730	2902.1	-0.80091	0.40524	-0.47199
3.914	173.57	-20726	2902.1	-0.801	0.40494	-0.47258
3.916	173.57	-20724	2902.1	-0.8011	0.40465	-0.47316
3.918	173.58	-20723	2902.2	-0.8012	0.40436	-0.47375
3.92	173.57	-20726	2902.3	-0.8013	0.40406	-0.47434
3.922	173.58	-20731	2902.3	-0.8013	0.40484	-0.47375
3.924	173.58	-20729	2902.4	-0.8013	0.40563	-0.47316
3.926	173.58	-20722	2902.4	-0.8013	0.40641	-0.47258
3.928	173.56	-20717	2902.5	-0.8013	0.40719	-0.47199
3.93	173.55	-20715	2902.5	-0.8013	0.40797	-0.47141
3.932	173.57	-20715	2902.6	-0.80091	0.40836	-0.47092
3.934	173.57	-20718	2902.6	-0.80052	0.40875	-0.47043
3.936	173.56	-20717	2902.6	-0.80012	0.40914	-0.46994
3.938	173.54	-20713	2902.7	-0.79973	0.40953	-0.46946
3.94	173.54	-20710	2902.8	-0.79934	0.40992	-0.46897
3.942	173.54	-20706	2902.7	-0.79934	0.40904	-0.46975
3.944	173.54	-20701	2902.7	-0.79934	0.40816	-0.47053
3.946	173.54	-20696	2902.7	-0.79934	0.40728	-0.47131
3.948	173.54	-20696	2902.6	-0.79934	0.40641	-0.47209
3.95	173.55	-20700	2902.6	-0.79934	0.40553	-0.47287
3.952	173.55	-20702	2902.5	-0.79876	0.4068	-0.4717
3.954	173.55	-20702	2902.4	-0.79817	0.40807	-0.47053
3.956	173.55	-20701	2902.4	-0.79759	0.40933	-0.46936
3.958	173.56	-20699	2902.3	-0.797	0.4106	-0.46819
3.96	173.55	-20697	2902.2	-0.79642	0.41187	-0.46702
3.962	173.55	-20696	2902	-0.79681	0.41138	-0.4678
3.964	173.58	-20694	2901.9	-0.7972	0.4109	-0.46858
3.966	173.59	-20689	2901.8	-0.79759	0.41041	-0.46936
3.968	173.58	-20686	2901.6	-0.79798	0.40992	-0.47014
3.97	173.53	-20686	2901.5	-0.79837	0.40943	-0.47092
3.972	173.51	-20688	2901.3	-0.79798	0.40914	-0.47053
3.974	173.52	-20693	2901.1	-0.79759	0.40885	-0.47014
3.976	173.52	-20693	2901	-0.7972	0.40855	-0.46975
3.978	173.53	-20691	2900.8	-0.79681	0.40826	-0.46936
3.98	173.54	-20688	2900.7	-0.79642	0.40797	-0.46897
3.982	173.54	-20685	2900.5	-0.7972	0.40846	-0.46907
3.984	173.54	-20686	2900.3	-0.79798	0.40894	-0.46916
3.986	173.53	-20690	2900.2	-0.79876	0.40943	-0.46926
3.988	173.53	-20689	2900	-0.79954	0.40992	-0.46936
3.99	173.52	-20686	2899.8	-0.80032	0.41041	-0.46946
3.992	173.52	-20683	2899.7	-0.79954	0.40914	-0.46985
3.994	173.52	-20683	2899.5	-0.79876	0.40787	-0.47024
3.996	173.52	-20683	2899.4	-0.79798	0.4066	-0.47063
3.998	173.5	-20683	2899.2	-0.7972	0.40533	-0.47102
4	173.5	-20684	2899	-0.79642	0.40406	-0.47141
4.002	173.5	-20686	2898.9	-0.797	0.40494	-0.47063
4.004	173.5	-20686	2898.7	-0.79759	0.40582	-0.46985
4.006	173.5	-20684	2898.6	-0.79817	0.4067	-0.46907
4.008	173.5	-20683	2898.5	-0.79876	0.40758	-0.46828
4.01	173.49	-20683	2898.3	-0.79934	0.40846	-0.4675
4.012	173.5	-20686	2898.2	-0.79895	0.40816	-0.46819
4.014	173.51	-20692	2898	-0.79856	0.40787	-0.46887
4.016	173.51	-20692	2897.9	-0.79817	0.40758	-0.46955
4.018	173.51	-20687	2897.7	-0.79778	0.40728	-0.47024
4.02	173.52	-20685	2897.6	-0.79739	0.40699	-0.47092
4.022	173.53	-20686	2897.5	-0.7972	0.40689	-0.46975
4.024	173.52	-20684	2897.4	-0.797	0.4068	-0.46858
4.026	173.49	-20678	2897.3	-0.79681	0.4067	-0.46741
4.028	173.49	-20679	2897.2	-0.79661	0.4066	-0.46624
4.03	173.49	-20686	2897	-0.79642	0.4065	-0.46506
4.032	173.48	-20688	2897	-0.797	0.40611	-0.46643
4.034	173.48	-20686	2896.9	-0.79759	0.40572	-0.4678
4.036	173.48	-20685	2896.8	-0.79817	0.40533	-0.46916
4.038	173.49	-20684	2896.7	-0.79876	0.40494	-0.47053
4.04	173.5	-20686	2896.6	-0.79934	0.40455	-0.4719
4.042	173.48	-20690	2896.6	-0.79895	0.40543	-0.47082
4.044	173.47	-20689	2896.5	-0.79856	0.40631	-0.46975
4.046	173.47	-20684	2896.5	-0.79817	0.40719	-0.46868
4.048	173.47	-20681	2896.4	-0.79778	0.40807	-0.4676
4.05	173.47	-20680	2896.4	-0.79739	0.40894	-0.46653
4.052	173.47	-20681	2896.4	-0.79651	0.40816	-0.46653
4.054	173.47	-20682	2896.4	-0.79564	0.40738	-0.46653
4.056	173.48	-20685	2896.3	-0.79476	0.4066	-0.46653
4.058	173.47	-20689	2896.3	-0.79388	0.40582	-0.46653
4.06	173.45	-20689	2896.2	-0.793	0.40504	-0.46653
4.062	173.45	-20687	2896.2	-0.79359	0.40572	-0.46682
4.064	173.46	-20684	2896.1	-0.79417	0.40641	-0.46711
4.066	173.46	-20681	2896.1	-0.79476	0.40709	-0.46741
4.068	173.47	-20680	2896.1	-0.79534	0.40777	-0.4677
4.07	173.48	-20680	2896.1	-0.79593	0.40846	-0.46799
4.072	173.48	-20683	2896	-0.79593	0.40768	-0.46799
4.074	173.47	-20686	2896	-0.79593	0.40689	-0.46799
4.076	173.47	-20686	2895.9	-0.79593	0.40611	-0.46799
4.078	173.48	-20681	2895.9	-0.79593	0.40533	-0.46799
4.08	173.47	-20678	2895.8	-0.79593	0.40455	-0.46799
4.082	173.46	-20679	2895.8	-0.79749	0.40494	-0.46897
4.084	173.44	-20681	2895.9	-0.79905	0.40533	-0.46994
4.086	173.42	-20684	2895.8	-0.80061	0.40572	-0.47092
4.088	173.42	-20685	2895.8	-0.80217	0.40611	-0.4719
4.09	173.44	-20684	2895.8	-0.80374	0.4065	-0.47287
4.092	173.44	-20683	2895.8	-0.80305	0.40641	-0.47316
4.094	173.44	-20684	2895.8	-0.80237	0.40631	-0.47346
4.096	173.43	-20683	2895.8	-0.80169	0.40621	-0.47375
4.098	173.41	-20681	2895.7	-0.801	0.40611	-0.47404
4.1	173.4	-20681	2895.7	-0.80032	0.40602	-0.47434
4.102	173.39	-20684	2895.7	-0.80081	0.40621	-0.47365
4.104	173.38	-20686	2895.7	-0.8013	0.40641	-0.47297
4.106	173.39	-20689	2895.7	-0.80178	0.4066	-0.47229
4.108	173.39	-20688	2895.7	-0.80227	0.4068	-0.4716
4.11	173.4	-20685	2895.7	-0.80276	0.40699	-0.47092
4.112	173.39	-20683	2895.7	-0.80188	0.4066	-0.47199
4.114	173.39	-20684	2895.7	-0.801	0.40621	-0.47307
4.116	173.4	-20687	2895.6	-0.80012	0.40582	-0.47414
4.118	173.4	-20690	2895.5	-0.79925	0.40543	-0.47521
4.12	173.4	-20689	2895.4	-0.79837	0.40504	-0.47629
4.122	173.4	-20685	2895.4	-0.79768	0.40406	-0.47717
4.124	173.41	-20687	2895.3	-0.797	0.40309	-0.47804
4.126	173.41	-20694	2895.3	-0.79632	0.40211	-0.47892
4.128	173.4	-20693	2895.2	-0.79564	0.40114	-0.4798
4.13	173.39	-20685	2895.2	-0.79495	0.40016	-0.48068
4.132	173.38	-20680	2895.1	-0.79603	0.39996	-0.47961
4.134	173.38	-20677	2895.1	-0.7971	0.39977	-0.47853
4.136	173.38	-20677	2895	-0.79817	0.39957	-0.47746
4.138	173.37	-20679	2894.9	-0.79925	0.39938	-0.47639
4.14	173.36	-20682	2894.8	-0.80032	0.39918	-0.47531
4.142	173.37	-20686	2894.8	-0.79876	0.3987	-0.4757
4.144	173.37	-20688	2894.7	-0.7972	0.39821	-0.47609
4.146	173.36	-20689	2894.7	-0.79564	0.39772	-0.47648
4.148	173.36	-20688	2894.6	-0.79407	0.39723	-0.47687
4.15	173.36	-20686	2894.5	-0.79251	0.39674	-0.47726
4.152	173.36	-20684	2894.4	-0.79349	0.39713	-0.47717
4.154	173.38	-20682	2894.3	-0.79446	0.39752	-0.47707
4.156	173.38	-20682	2894.2	-0.79544	0.39792	-0.47697
4.158	173.38	-20685	2894.1	-0.79642	0.39831	-0.47687
4.16	173.39	-20683	2893.9	-0.79739	0.3987	-0.47678
4.162	173.38	-20676	2893.8	-0.797	0.3986	-0.47658
4.164	173.38	-20674	2893.7	-0.79661	0.3985	-0.47639
4.166	173.38	-20676	2893.6	-0.79622	0.3984	-0.47619
4.168	173.39	-20680	2893.5	-0.79583	0.39831	-0.476
4.17	173.41	-20684	2893.4	-0.79544	0.39821	-0.4758
4.172	173.43	-20691	2893.3	-0.79544	0.39821	-0.4758
4.174	173.44	-20700	2893.2	-0.79544	0.39821	-0.4758
4.176	173.45	-20702	2893.1	-0.79544	0.39821	-0.4758
4.178	173.44	-20697	2893	-0.79544	0.39821	-0.4758
4.18	173.45	-20694	2892.9	-0.79544	0.39821	-0.4758
4.182	173.46	-20694	2892.9	-0.79485	0.3985	-0.47648
4.184	173.46	-20693	2892.8	-0.79427	0.39879	-0.47717
4.186	173.45	-20692	2892.8	-0.79368	0.39909	-0.47785
4.188	173.44	-20690	2892.7	-0.7931	0.39938	-0.47853
4.19	173.41	-20685	2892.7	-0.79251	0.39967	-0.47922
4.192	173.4	-20683	2892.7	-0.7928	0.40016	-0.47853
4.194	173.39	-20683	2892.7	-0.7931	0.40065	-0.47785
4.196	173.38	-20683	2892.7	-0.79339	0.40114	-0.47717
4.198	173.38	-20684	2892.7	-0.79368	0.40162	-0.47648
4.2	173.39	-20684	2892.7	-0.79398	0.40211	-0.4758
4.202	173.4	-20685	2892.7	-0.79349	0.40201	-0.47629
4.204	173.4	-20686	2892.6	-0.793	0.40192	-0.47678
4.206	173.4	-20686	2892.6	-0.79251	0.40182	-0.47726
4.208	173.4	-20689	2892.6	-0.79202	0.40172	-0.47775
4.21	173.4	-20693	2892.6	-0.79154	0.40162	-0.47824
4.212	173.4	-20694	2892.6	-0.7932	0.40211	-0.47775
4.214	173.41	-20693	2892.6	-0.79485	0.4026	-0.47726
4.216	173.41	-20693	2892.6	-0.79651	0.40309	-0.47678
4.218	173.4	-20696	2892.6	-0.79817	0.40358	-0.47629
4.22	173.39	-20698	2892.5	-0.79983	0.40406	-0.4758
4.222	173.4	-20697	2892.5	-0.80061	0.40445	-0.47492
4.224	173.41	-20696	2892.5	-0.80139	0.40484	-0.47404
4.226	173.42	-20695	2892.4	-0.80217	0.40524	-0.47316
4.228	173.44	-20695	2892.3	-0.80296	0.40563	-0.47229
4.23	173.45	-20695	2892.2	-0.80374	0.40602	-0.47141
4.232	173.48	-20694	2892.2	-0.80374	0.40621	-0.47199
4.234	173.51	-20693	2892.1	-0.80374	0.40641	-0.47258
4.236	173.55	-20694	2892.1	-0.80374	0.4066	-0.47316
4.238	173.57	-20695	2892.1	-0.80374	0.4068	-0.47375
4.24	173.53	-20696	2892	-0.80374	0.40699	-0.47434
4.242	173.48	-20698	2892	-0.80413	0.40631	-0.47434
4.244	173.45	-20699	2892	-0.80452	0.40563	-0.47434
4.246	173.38	-20699	2891.9	-0.80491	0.40494	-0.47434
4.248	173.28	-20701	2891.9	-0.8053	0.40426	-0.47434
4.25	173.18	-20705	2891.8	-0.80569	0.40358	-0.47434
4.252	173.08	-20706	2891.8	-0.8052	0.40406	-0.47395
4.254	172.97	-20704	2891.7	-0.80471	0.40455	-0.47356
4.256	172.83	-20704	2891.7	-0.80422	0.40504	-0.47316
4.258	172.67	-20705	2891.7	-0.80374	0.40553	-0.47277
4.26	172.52	-20706	2891.7	-0.80325	0.40602	-0.47238
4.262	172.37	-20707	2891.6	-0.80305	0.40572	-0.4719
4.264	172.23	-20707	2891.6	-0.80286	0.40543	-0.47141
4.266	172.1	-20705	2891.6	-0.80266	0.40514	-0.47092
4.268	172.02	-20705	2891.5	-0.80247	0.40484	-0.47043
4.27	171.97	-20706	2891.5	-0.80227	0.40455	-0.46994
4.272	172.02	-20706	2891.4	-0.80159	0.40524	-0.46936
4.274	172.18	-20707	2891.3	-0.80091	0.40592	-0.46877
4.276	172.38	-20711	2891.2	-0.80022	0.4066	-0.46819
4.278	172.59	-20716	2891.2	-0.79954	0.40728	-0.4676
4.28	172.77	-20719	2891.1	-0.79886	0.40797	-0.46702
4.282	172.92	-20718	2891	-0.79944	0.40777	-0.4678
4.284	173.05	-20717	2890.8	-0.80003	0.40758	-0.46858
4.286	173.16	-20715	2890.7	-0.80061	0.40738	-0.46936
4.288	173.23	-20714	2890.7	-0.8012	0.40719	-0.47014
4.29	173.3	-20714	2890.6	-0.80178	0.40699	-0.47092
4.292	173.37	-20714	2890.5	-0.80169	0.40728	-0.47033
4.294	173.4	-20715	2890.4	-0.80159	0.40758	-0.46975
4.296	173.39	-20717	2890.3	-0.80149	0.40787	-0.46916
4.298	173.33	-20719	2890.3	-0.80139	0.40816	-0.46858
4.3	173.28	-20721	2890.2	-0.8013	0.40846	-0.46799
4.302	173.25	-20724	2890.1	-0.80227	0.40709	-0.46907
4.304	173.24	-20725	2890.1	-0.80325	0.40572	-0.47014
4.306	173.23	-20726	2890.1	-0.80422	0.40436	-0.47121
4.308	173.21	-20726	2890	-0.8052	0.40299	-0.47229
4.31	173.2	-20727	2890	-0.80618	0.40162	-0.47336
4.312	173.22	-20726	2889.9	-0.8052	0.4027	-0.47307
4.314	173.23	-20723	2889.8	-0.80422	0.40377	-0.47277
4.316	173.24	-20721	2889.7	-0.80325	0.40484	-0.47248
4.318	173.26	-20722	2889.6	-0.80227	0.40592	-0.47219
4.32	173.27	-20725	2889.5	-0.8013	0.40699	-0.4719
4.322	173.27	-20728	2889.4	-0.80091	0.40699	-0.47141
4.324	173.27	-20730	2889.3	-0.80052	0.40699	-0.47092
4.326	173.28	-20731	2889.2	-0.80012	0.40699	-0.47043
4.328	173.27	-20728	2889.1	-0.79973	0.40699	-0.46994
4.33	173.26	-20723	2889	-0.79934	0.40699	-0.46946
4.332	173.27	-20722	2888.9	-0.79895	0.40621	-0.47092
4.334	173.27	-20724	2888.7	-0.79856	0.40543	-0.47238
4.336	173.27	-20726	2888.6	-0.79817	0.40465	-0.47385
4.338	173.26	-20728	2888.5	-0.79778	0.40387	-0.47531
4.34	173.24	-20729	2888.5	-0.79739	0.40309	-0.47678
4.342	173.24	-20729	2888.4	-0.79632	0.4024	-0.47726
4.344	173.24	-20732	2888.3	-0.79524	0.40172	-0.47775
4.346	173.24	-20737	2888.3	-0.79417	0.40104	-0.47824
4.348	173.24	-20739	2888.2	-0.7931	0.40036	-0.47873
4.35	173.25	-20739	2888.1	-0.79202	0.39967	-0.47922
4.352	173.26	-20740	2888.1	-0.79378	0.40055	-0.47883
4.354	173.26	-20741	2888.1	-0.79554	0.40143	-0.47844
4.356	173.26	-20740	2888.1	-0.79729	0.40231	-0.47804
4.358	173.24	-20735	2888	-0.79905	0.40319	-0.47765
4.36	173.24	-20733	2888	-0.80081	0.40406	-0.47726
4.362	173.23	-20735	2887.9	-0.79934	0.40289	-0.47726
4.364	173.22	-20735	2887.9	-0.79788	0.40172	-0.47726
4.366	173.22	-20734	2887.9	-0.79642	0.40055	-0.47726
4.368	173.23	-20736	2887.9	-0.79495	0.39938	-0.47726
4.37	173.23	-20743	2887.9	-0.79349	0.39821	-0.47726
4.372	173.22	-20746	2888	-0.79417	0.39928	-0.47726
4.374	173.2	-20745	2888.1	-0.79485	0.40036	-0.47726
4.376	173.2	-20744	2888.1	-0.79554	0.40143	-0.47726
4.378	173.21	-20744	2888.2	-0.79622	0.4025	-0.47726
4.38	173.2	-20744	2888.2	-0.7969	0.40358	-0.47726
4.382	173.19	-20744	2888.2	-0.79671	0.40309	-0.47765
4.384	173.2	-20751	2888.3	-0.79651	0.4026	-0.47804
4.386	173.2	-20764	2888.3	-0.79632	0.40211	-0.47844
4.388	173.19	-20772	2888.3	-0.79612	0.40162	-0.47883
4.39	173.18	-20773	2888.4	-0.79593	0.40114	-0.47922
4.392	173.17	-20770	2888.3	-0.79632	0.40123	-0.47844
4.394	173.16	-20761	2888.3	-0.79671	0.40133	-0.47765
4.396	173.16	-20760	2888.3	-0.7971	0.40143	-0.47687
4.398	173.15	-20766	2888.2	-0.79749	0.40153	-0.47609
4.4	173.15	-20769	2888.2	-0.79788	0.40162	-0.47531
4.402	173.16	-20768	2888.1	-0.79866	0.4024	-0.47463
4.404	173.15	-20767	2887.9	-0.79944	0.40319	-0.47395
4.406	173.15	-20764	2887.8	-0.80022	0.40397	-0.47326
4.408	173.16	-20761	2887.6	-0.801	0.40475	-0.47258
4.41	173.16	-20760	2887.5	-0.80178	0.40553	-0.4719
4.412	173.16	-20759	2887.4	-0.80178	0.40514	-0.4719
4.414	173.15	-20758	2887.2	-0.80178	0.40475	-0.4719
4.416	173.15	-20758	2887.1	-0.80178	0.40436	-0.4719
4.418	173.15	-20760	2887	-0.80178	0.40397	-0.4719
4.42	173.13	-20761	2886.9	-0.80178	0.40358	-0.4719
4.422	173.12	-20760	2886.8	-0.80091	0.40397	-0.47121
4.424	173.12	-20761	2886.8	-0.80003	0.40436	-0.47053
4.426	173.13	-20762	2886.7	-0.79915	0.40475	-0.46985
4.428	173.14	-20765	2886.7	-0.79827	0.40514	-0.46916
4.43	173.14	-20771	2886.7	-0.79739	0.40553	-0.46848
4.432	173.12	-20773	2886.8	-0.79808	0.40592	-0.46887
4.434	173.08	-20770	2886.9	-0.79876	0.40631	-0.46926
4.436	173.08	-20772	2887.1	-0.79944	0.4067	-0.46965
4.438	173.09	-20778	2887.3	-0.80012	0.40709	-0.47004
4.44	173.1	-20779	2887.5	-0.80081	0.40748	-0.47043
4.442	173.1	-20776	2887.7	-0.80208	0.40689	-0.47072
4.444	173.09	-20774	2888	-0.80335	0.40631	-0.47102
4.446	173.08	-20772	2888.4	-0.80461	0.40572	-0.47131
4.448	173.07	-20772	2888.7	-0.80588	0.40514	-0.4716
4.45	173.07	-20773	2889.1	-0.80715	0.40455	-0.4719
4.452	173.07	-20772	2889.4	-0.80686	0.40426	-0.4719
4.454	173.07	-20770	2889.8	-0.80657	0.40397	-0.4719
4.456	173.05	-20770	2890.2	-0.80627	0.40367	-0.4719
4.458	173.04	-20772	2890.6	-0.80598	0.40338	-0.4719
4.46	173.04	-20774	2891	-0.80569	0.40309	-0.4719
4.462	173.04	-20775	2891.5	-0.80549	0.4028	-0.47229
4.464	173.05	-20774	2891.9	-0.8053	0.4025	-0.47268
4.466	173.06	-20771	2892.3	-0.8051	0.40221	-0.47307
4.468	173.07	-20768	2892.7	-0.80491	0.40192	-0.47346
4.47	173.06	-20767	2893.2	-0.80471	0.40162	-0.47385
4.472	173.05	-20770	2893.6	-0.80461	0.40162	-0.47434
4.474	173.05	-20778	2894.1	-0.80452	0.40162	-0.47482
4.476	173.06	-20776	2894.6	-0.80442	0.40162	-0.47531
4.478	173.05	-20765	2895	-0.80432	0.40162	-0.4758
4.48	173.04	-20762	2895.5	-0.80422	0.40162	-0.47629
4.482	173.05	-20767	2895.9	-0.80471	0.40201	-0.4758
4.484	173.05	-20768	2896.3	-0.8052	0.4024	-0.47531
4.486	173.05	-20763	2896.8	-0.80569	0.4028	-0.47482
4.488	173.04	-20764	2897.2	-0.80618	0.40319	-0.47434
4.49	173.02	-20770	2897.6	-0.80666	0.40358	-0.47385
4.492	173.01	-20769	2898	-0.80549	0.40367	-0.47404
4.494	173.02	-20762	2898.5	-0.80432	0.40377	-0.47424
4.496	173.03	-20758	2898.9	-0.80315	0.40387	-0.47443
4.498	173.03	-20758	2899.2	-0.80198	0.40397	-0.47463
4.5	173.02	-20755	2899.6	-0.80081	0.40406	-0.47482
4.502	173.01	-20750	2899.9	-0.80071	0.40406	-0.47492
4.504	173.01	-20749	2900.3	-0.80061	0.40406	-0.47502
4.506	173.02	-20753	2900.6	-0.80052	0.40406	-0.47512
4.508	173.02	-20752	2900.9	-0.80042	0.40406	-0.47521
4.51	173.03	-20747	2901.2	-0.80032	0.40406	-0.47531
4.512	173.04	-20744	2901.5	-0.80042	0.40426	-0.47502
4.514	173.04	-20745	2901.8	-0.80052	0.40445	-0.47473
4.516	173.04	-20745	2902.1	-0.80061	0.40465	-0.47443
4.518	173.03	-20746	2902.2	-0.80071	0.40484	-0.47414
4.52	173.04	-20747	2902.4	-0.80081	0.40504	-0.47385
4.522	173.05	-20749	2902.6	-0.80061	0.40465	-0.47434
4.524	173.06	-20748	2902.8	-0.80042	0.40426	-0.47482
4.526	173.06	-20744	2902.9	-0.80022	0.40387	-0.47531
4.528	173.05	-20740	2903.1	-0.80003	0.40348	-0.4758
4.53	173.06	-20735	2903.2	-0.79983	0.40309	-0.47629
4.532	173.08	-20730	2903.3	-0.79827	0.40211	-0.47619
4.534	173.09	-20723	2903.4	-0.79671	0.40114	-0.47609
4.536	173.08	-20723	2903.5	-0.79515	0.40016	-0.476
4.538	173.07	-20729	2903.7	-0.79359	0.39918	-0.4759
4.54	173.07	-20731	2903.8	-0.79202	0.39821	-0.4758
4.542	173.09	-20730	2903.9	-0.7932	0.39899	-0.4758
4.544	173.1	-20729	2904	-0.79437	0.39977	-0.4758
4.546	173.1	-20730	2904.2	-0.79554	0.40055	-0.4758
4.548	173.1	-20730	2904.3	-0.79671	0.40133	-0.4758
4.55	173.1	-20730	2904.4	-0.79788	0.40211	-0.4758
4.552	173.1	-20724	2904.5	-0.79798	0.40221	-0.476
4.554	173.1	-20712	2904.7	-0.79808	0.40231	-0.47619
4.556	173.11	-20707	2904.8	-0.79817	0.4024	-0.47639
4.558	173.12	-20706	2904.9	-0.79827	0.4025	-0.47658
4.56	173.13	-20707	2905	-0.79837	0.4026	-0.47678
4.562	173.14	-20709	2905.2	-0.79895	0.4028	-0.476
4.564	173.13	-20709	2905.3	-0.79954	0.40299	-0.47521
4.566	173.11	-20708	2905.4	-0.80012	0.40319	-0.47443
4.568	173.1	-20707	2905.5	-0.80071	0.40338	-0.47365
4.57	173.08	-20705	2905.6	-0.8013	0.40358	-0.47287
4.572	173.09	-20704	2905.6	-0.80071	0.40319	-0.47336
4.574	173.11	-20705	2905.7	-0.80012	0.4028	-0.47385
4.576	173.1	-20704	2905.7	-0.79954	0.4024	-0.47434
4.578	173.1	-20700	2905.8	-0.79895	0.40201	-0.47482
4.58	173.1	-20699	2905.8	-0.79837	0.40162	-0.47531
4.582	173.11	-20700	2905.9	-0.79827	0.40201	-0.47502
4.584	173.12	-20700	2905.9	-0.79817	0.4024	-0.47473
4.586	173.12	-20701	2905.9	-0.79808	0.4028	-0.47443
4.588	173.12	-20699	2905.9	-0.79798	0.40319	-0.47414
4.59	173.12	-20693	2905.9	-0.79788	0.40358	-0.47385
4.592	173.12	-20689	2905.9	-0.79827	0.40348	-0.47463
4.594	173.12	-20686	2906	-0.79866	0.40338	-0.47541
4.596	173.13	-20682	2906	-0.79905	0.40328	-0.47619
4.598	173.13	-20678	2906	-0.79944	0.40319	-0.47697
4.6	173.12	-20679	2905.9	-0.79983	0.40309	-0.47775
4.602	173.12	-20683	2905.9	-0.79798	0.4027	-0.47785
