t	ekg	optical	pressure	accel_x	accel_y	accel_z
0	128.57	-22347	2633.2	0.2357	-0.060512	0.99357
0.002	128.6	-22347	2633.2	0.23736	-0.059243	0.9921
0.004	128.67	-22348	2633.1	0.23902	-0.057974	0.99064
0.006	128.65	-22352	2633.1	0.24068	-0.056706	0.98918
0.008	128.59	-22357	2633	0.24234	-0.055437	0.98771
0.01	128.61	-22359	2632.9	0.244	-0.054168	0.98625
0.012	128.67	-22357	2632.9	0.244	-0.053778	0.98635
0.014	128.64	-22355	2632.9	0.244	-0.053387	0.98644
0.016	128.61	-22354	2632.8	0.244	-0.052997	0.98654
0.018	128.61	-22353	2632.8	0.244	-0.052606	0.98664
0.02	128.59	-22352	2632.7	0.244	-0.052216	0.98674
0.022	128.59	-22355	2632.7	0.24322	-0.053485	0.98781
0.024	128.6	-22363	2632.7	0.24244	-0.054754	0.98888
0.026	128.63	-22363	2632.7	0.24166	-0.056022	0.98996
0.028	128.63	-22354	2632.6	0.24088	-0.057291	0.99103
0.03	128.64	-22351	2632.6	0.2401	-0.05856	0.9921
0.032	128.64	-22354	2632.5	0.23971	-0.05895	0.99288
0.034	128.64	-22358	2632.4	0.23932	-0.059341	0.99367
0.036	128.64	-22361	2632.4	0.23892	-0.059731	0.99445
0.038	128.63	-22361	2632.3	0.23853	-0.060122	0.99523
0.04	128.62	-22356	2632.3	0.23814	-0.060512	0.99601
0.042	128.6	-22355	2632.2	0.23707	-0.059731	0.9962
0.044	128.57	-22359	2632.1	0.236	-0.05895	0.9964
0.046	128.57	-22363	2632	0.23492	-0.05817	0.99659
0.048	128.57	-22368	2631.9	0.23385	-0.057389	0.99679
0.05	128.58	-22369	2631.8	0.23278	-0.056608	0.99698
0.052	128.62	-22367	2631.7	0.23336	-0.057584	0.99669
0.054	128.63	-22364	2631.7	0.23395	-0.05856	0.9964
0.056	128.6	-22360	2631.6	0.23453	-0.059536	0.99611
0.058	128.58	-22358	2631.5	0.23512	-0.060512	0.99581
0.06	128.57	-22359	2631.3	0.2357	-0.061488	0.99552
0.062	128.57	-22359	2631.2	0.23629	-0.061878	0.9962
0.064	128.56	-22358	2631.1	0.23688	-0.062269	0.99689
0.066	128.56	-22358	2631	0.23746	-0.062659	0.99757
0.068	128.58	-22360	2630.9	0.23805	-0.06305	0.99825
0.07	128.59	-22363	2630.8	0.23863	-0.06344	0.99894
0.072	128.58	-22367	2630.8	0.23863	-0.062659	0.99903
0.074	128.56	-22366	2630.7	0.23863	-0.061878	0.99913
0.076	128.56	-22361	2630.6	0.23863	-0.061098	0.99923
0.078	128.56	-22358	2630.5	0.23863	-0.060317	0.99933
0.08	128.55	-22356	2630.4	0.23863	-0.059536	0.99942
0.082	128.56	-22358	2630.3	0.23863	-0.059926	0.99923
0.084	128.57	-22365	2630.2	0.23863	-0.060317	0.99903
0.086	128.59	-22370	2630.1	0.23863	-0.060707	0.99884
0.088	128.55	-22374	2629.9	0.23863	-0.061098	0.99864
0.09	128.53	-22374	2629.7	0.23863	-0.061488	0.99845
0.092	128.54	-22371	2629.6	0.23824	-0.061683	0.99816
0.094	128.58	-22369	2629.5	0.23785	-0.061878	0.99786
0.096	128.6	-22369	2629.4	0.23746	-0.062074	0.99757
0.098	128.6	-22369	2629.3	0.23707	-0.062269	0.99728
0.1	128.58	-22369	2629.2	0.23668	-0.062464	0.99698
0.102	128.54	-22370	2629.1	0.23736	-0.062854	0.99562
0.104	128.52	-22371	2628.9	0.23805	-0.063245	0.99425
0.106	128.54	-22373	2628.8	0.23873	-0.063635	0.99288
0.108	128.55	-22376	2628.6	0.23941	-0.064026	0.99152
0.11	128.54	-22377	2628.5	0.2401	-0.064416	0.99015
0.112	128.55	-22376	2628.3	0.23941	-0.064123	0.99181
0.114	128.6	-22376	2628.2	0.23873	-0.06383	0.99347
0.116	128.62	-22377	2628.1	0.23805	-0.063538	0.99513
0.118	128.6	-22378	2627.9	0.23736	-0.063245	0.99679
0.12	128.55	-22380	2627.7	0.23668	-0.062952	0.99845
0.122	128.55	-22380	2627.6	0.23619	-0.062562	0.99884
0.124	128.58	-22378	2627.5	0.2357	-0.062171	0.99923
0.126	128.58	-22377	2627.4	0.23522	-0.061781	0.99962
0.128	128.59	-22377	2627.3	0.23473	-0.06139	1
0.13	128.61	-22378	2627.2	0.23424	-0.061	1.0004
0.132	128.63	-22379	2627.1	0.23395	-0.06139	0.99962
0.134	128.65	-22380	2626.9	0.23365	-0.061781	0.99884
0.136	128.64	-22381	2626.8	0.23336	-0.062171	0.99806
0.138	128.63	-22383	2626.6	0.23307	-0.062562	0.99728
0.14	128.66	-22386	2626.5	0.23278	-0.062952	0.9965
0.142	128.67	-22387	2626.4	0.23297	-0.062659	0.99689
0.144	128.65	-22387	2626.3	0.23317	-0.062366	0.99728
0.146	128.66	-22386	2626.2	0.23336	-0.062074	0.99767
0.148	128.66	-22384	2626	0.23356	-0.061781	0.99806
0.15	128.65	-22383	2625.8	0.23375	-0.061488	0.99845
0.152	128.67	-22383	2625.7	0.23512	-0.06139	0.99864
0.154	128.67	-22383	2625.5	0.23648	-0.061293	0.99884
0.156	128.65	-22385	2625.4	0.23785	-0.061195	0.99903
0.158	128.65	-22386	2625.3	0.23922	-0.061098	0.99923
0.16	128.67	-22385	2625.2	0.24058	-0.061	0.99942
0.162	128.67	-22386	2625	0.23922	-0.061293	0.99894
0.164	128.66	-22387	2624.8	0.23785	-0.061586	0.99845
0.166	128.65	-22389	2624.7	0.23648	-0.061878	0.99796
0.168	128.66	-22391	2624.5	0.23512	-0.062171	0.99747
0.17	128.65	-22391	2624.4	0.23375	-0.062464	0.99698
0.172	128.64	-22391	2624.2	0.23444	-0.062854	0.99669
0.174	128.62	-22391	2624.1	0.23512	-0.063245	0.9964
0.176	128.61	-22391	2624	0.2358	-0.063635	0.99611
0.178	128.62	-22391	2623.8	0.23648	-0.064026	0.99581
0.18	128.62	-22391	2623.6	0.23717	-0.064416	0.99552
0.182	128.65	-22392	2623.6	0.23697	-0.064318	0.99611
0.184	128.64	-22393	2623.6	0.23678	-0.064221	0.99669
0.186	128.63	-22392	2623.5	0.23658	-0.064123	0.99728
0.188	128.64	-22388	2623.3	0.23639	-0.064026	0.99786
0.19	128.64	-22387	2623.2	0.23619	-0.063928	0.99845
0.192	128.64	-22388	2623.1	0.23522	-0.06305	0.99845
0.194	128.64	-22390	2623	0.23424	-0.062171	0.99845
0.196	128.67	-22393	2622.9	0.23326	-0.061293	0.99845
0.198	128.79	-22393	2622.8	0.23229	-0.060414	0.99845
0.2	128.84	-22391	2622.7	0.23131	-0.059536	0.99845
0.202	128.79	-22391	2622.6	0.23258	-0.059731	0.99845
0.204	128.73	-22394	2622.5	0.23385	-0.059926	0.99845
0.206	128.68	-22396	2622.3	0.23512	-0.060122	0.99845
0.208	128.65	-22397	2622.2	0.23639	-0.060317	0.99845
0.21	128.58	-22399	2622.1	0.23766	-0.060512	0.99845
0.212	128.51	-22400	2622	0.23805	-0.060805	0.99874
0.214	128.41	-22402	2621.9	0.23844	-0.061098	0.99903
0.216	128.28	-22405	2621.8	0.23883	-0.06139	0.99933
0.218	128.21	-22406	2621.7	0.23922	-0.061683	0.99962
0.22	128.1	-22404	2621.5	0.23961	-0.061976	0.99991
0.222	127.93	-22403	2621.4	0.2398	-0.061878	1
0.224	127.78	-22403	2621.3	0.24	-0.061781	1.0001
0.226	127.68	-22404	2621.2	0.24019	-0.061683	1.0002
0.228	127.62	-22407	2621	0.24039	-0.061586	1.0003
0.23	127.55	-22408	2620.8	0.24058	-0.061488	1.0004
0.232	127.5	-22408	2620.6	0.23922	-0.061	1.0009
0.234	127.51	-22408	2620.5	0.23785	-0.060512	1.0014
0.236	127.6	-22409	2620.3	0.23648	-0.060024	1.0019
0.238	127.77	-22409	2620.1	0.23512	-0.059536	1.0024
0.24	127.96	-22409	2619.8	0.23375	-0.059048	1.0028
0.242	128.14	-22409	2619.6	0.23512	-0.059048	1.0024
0.244	128.28	-22410	2619.4	0.23648	-0.059048	1.0021
0.246	128.38	-22411	2619.2	0.23785	-0.059048	1.0017
0.248	128.47	-22412	2619	0.23922	-0.059048	1.0013
0.25	128.55	-22416	2618.8	0.24058	-0.059048	1.0009
0.252	128.59	-22422	2618.6	0.23932	-0.059731	1.0001
0.254	128.63	-22423	2618.4	0.23805	-0.060414	0.99933
0.256	128.68	-22420	2618.2	0.23678	-0.061098	0.99855
0.258	128.7	-22417	2618.1	0.23551	-0.061781	0.99776
0.26	128.66	-22415	2618	0.23424	-0.062464	0.99698
0.262	128.57	-22413	2617.8	0.23375	-0.061098	0.99689
0.264	128.5	-22410	2617.6	0.23326	-0.059731	0.99679
0.266	128.53	-22412	2617.5	0.23278	-0.058365	0.99669
0.268	128.6	-22417	2617.4	0.23229	-0.056998	0.99659
0.27	128.61	-22419	2617.3	0.2318	-0.055632	0.9965
0.272	128.55	-22418	2617.2	0.2319	-0.056218	0.99718
0.274	128.53	-22415	2617.1	0.232	-0.056803	0.99786
0.276	128.56	-22410	2617	0.23209	-0.057389	0.99855
0.278	128.59	-22412	2616.9	0.23219	-0.057974	0.99923
0.28	128.58	-22421	2616.8	0.23229	-0.05856	0.99991
0.282	128.55	-22425	2616.7	0.23248	-0.059341	0.99942
0.284	128.6	-22422	2616.7	0.23268	-0.060122	0.99894
0.286	128.61	-22423	2616.6	0.23287	-0.060902	0.99845
0.288	128.61	-22428	2616.4	0.23307	-0.061683	0.99796
0.29	128.62	-22428	2616.3	0.23326	-0.062464	0.99747
0.292	128.6	-22424	2616.1	0.23375	-0.061878	0.99767
0.294	128.59	-22422	2616	0.23424	-0.061293	0.99786
0.296	128.59	-22422	2615.9	0.23473	-0.060707	0.99806
0.298	128.57	-22429	2615.7	0.23522	-0.060122	0.99825
0.3	128.6	-22442	2615.5	0.2357	-0.059536	0.99845
0.302	128.62	-22447	2615.3	0.23531	-0.059243	0.99816
0.304	128.58	-22446	2615.2	0.23492	-0.05895	0.99786
0.306	128.57	-22445	2615	0.23453	-0.058658	0.99757
0.308	128.57	-22446	2614.8	0.23414	-0.058365	0.99728
0.31	128.59	-22448	2614.6	0.23375	-0.058072	0.99698
0.312	128.6	-22451	2614.4	0.23336	-0.057877	0.99679
0.314	128.6	-22452	2614.3	0.23297	-0.057682	0.99659
0.316	128.59	-22451	2614.1	0.23258	-0.057486	0.9964
0.318	128.57	-22449	2613.9	0.23219	-0.057291	0.9962
0.32	128.56	-22445	2613.7	0.2318	-0.057096	0.99601
0.322	128.56	-22445	2613.6	0.23385	-0.058365	0.99493
0.324	128.58	-22448	2613.5	0.2359	-0.059634	0.99386
0.326	128.61	-22449	2613.4	0.23795	-0.060902	0.99279
0.328	128.6	-22450	2613.2	0.24	-0.062171	0.99171
0.33	128.55	-22448	2613.1	0.24205	-0.06344	0.99064
0.332	128.53	-22443	2613	0.24195	-0.062074	0.99123
0.334	128.55	-22443	2612.9	0.24185	-0.060707	0.99181
0.336	128.56	-22447	2612.8	0.24176	-0.059341	0.9924
0.338	128.57	-22451	2612.8	0.24166	-0.057974	0.99298
0.34	128.57	-22455	2612.7	0.24156	-0.056608	0.99357
0.342	128.56	-22457	2612.6	0.24058	-0.057389	0.99415
0.344	128.53	-22457	2612.6	0.23961	-0.05817	0.99474
0.346	128.53	-22461	2612.6	0.23863	-0.05895	0.99532
0.348	128.55	-22468	2612.5	0.23766	-0.059731	0.99591
0.35	128.54	-22468	2612.4	0.23668	-0.060512	0.9965
0.352	128.53	-22461	2612.4	0.23629	-0.060317	0.9964
0.354	128.52	-22457	2612.4	0.2359	-0.060122	0.9963
0.356	128.51	-22456	2612.4	0.23551	-0.059926	0.9962
0.358	128.49	-22458	2612.3	0.23512	-0.059731	0.99611
0.36	128.54	-22464	2612.2	0.23473	-0.059536	0.99601
0.362	128.61	-22467	2612.2	0.23658	-0.059341	0.99493
0.364	128.6	-22468	2612.1	0.23844	-0.059146	0.99386
0.366	128.55	-22466	2612	0.24029	-0.05895	0.99279
0.368	128.51	-22462	2612	0.24215	-0.058755	0.99171
0.37	128.52	-22461	2611.9	0.244	-0.05856	0.99064
0.372	128.52	-22463	2611.8	0.24468	-0.057291	0.98947
0.374	128.55	-22463	2611.7	0.24537	-0.056022	0.9883
0.376	128.54	-22462	2611.7	0.24605	-0.054754	0.98713
0.378	128.53	-22461	2611.7	0.24673	-0.053485	0.98596
0.38	128.55	-22462	2611.6	0.24742	-0.052216	0.98478
0.382	128.54	-22466	2611.6	0.24693	-0.052021	0.98449
0.384	128.51	-22474	2611.6	0.24644	-0.051826	0.9842
0.386	128.48	-22478	2611.6	0.24595	-0.05163	0.98391
0.388	128.47	-22479	2611.7	0.24546	-0.051435	0.98361
0.39	128.46	-22478	2611.7	0.24498	-0.05124	0.98332
0.392	128.45	-22476	2611.9	0.24546	-0.051533	0.9843
0.394	128.48	-22475	2612.2	0.24595	-0.051826	0.98527
0.396	128.5	-22476	2612.4	0.24644	-0.052118	0.98625
0.398	128.47	-22477	2612.7	0.24693	-0.052411	0.98722
0.4	128.46	-22478	2613.1	0.24742	-0.052704	0.9882
0.402	128.46	-22478	2613.5	0.24761	-0.052314	0.98849
0.404	128.45	-22478	2614	0.24781	-0.051923	0.98879
0.406	128.46	-22480	2614.5	0.248	-0.051533	0.98908
0.408	128.45	-22485	2615.1	0.2482	-0.051142	0.98937
0.41	128.46	-22484	2615.7	0.24839	-0.050752	0.98966
0.412	128.47	-22477	2616.4	0.24751	-0.05124	0.98957
0.414	128.46	-22475	2617.1	0.24664	-0.051728	0.98947
0.416	128.46	-22478	2617.8	0.24576	-0.052216	0.98937
0.418	128.45	-22478	2618.5	0.24488	-0.052704	0.98927
0.42	128.43	-22476	2619.2	0.244	-0.053192	0.98918
0.422	128.43	-22476	2620.1	0.24361	-0.052216	0.98966
0.424	128.42	-22477	2620.9	0.24322	-0.05124	0.99015
0.426	128.42	-22481	2621.7	0.24283	-0.050264	0.99064
0.428	128.41	-22488	2622.5	0.24244	-0.049288	0.99113
0.43	128.4	-22489	2623.3	0.24205	-0.048312	0.99162
0.432	128.39	-22484	2624.1	0.24215	-0.049483	0.99171
0.434	128.45	-22482	2624.9	0.24224	-0.050654	0.99181
0.436	128.47	-22481	2625.7	0.24234	-0.051826	0.99191
0.438	128.45	-22482	2626.4	0.24244	-0.052997	0.99201
0.44	128.45	-22485	2627.2	0.24254	-0.054168	0.9921
0.442	128.5	-22485	2628	0.24127	-0.055242	0.99376
0.444	128.49	-22483	2628.7	0.24	-0.056315	0.99542
0.446	128.43	-22480	2629.5	0.23873	-0.057389	0.99708
0.448	128.42	-22476	2630.2	0.23746	-0.058462	0.99874
0.45	128.41	-22477	2630.8	0.23619	-0.059536	1.0004
0.452	128.42	-22482	2631.6	0.2357	-0.059438	1.0003
0.454	128.43	-22482	2632.3	0.23522	-0.059341	1.0002
0.456	128.44	-22477	2633	0.23473	-0.059243	1.0001
0.458	128.46	-22476	2633.7	0.23424	-0.059146	1
0.46	128.45	-22480	2634.4	0.23375	-0.059048	0.99991
0.462	128.44	-22482	2635	0.23444	-0.059926	0.99942
0.464	128.46	-22483	2635.6	0.23512	-0.060805	0.99894
0.466	128.48	-22481	2636.2	0.2358	-0.061683	0.99845
0.468	128.5	-22476	2636.8	0.23648	-0.062562	0.99796
0.47	128.46	-22473	2637.4	0.23717	-0.06344	0.99747
0.472	128.39	-22474	2637.9	0.23707	-0.063245	0.99737
0.474	128.43	-22474	2638.4	0.23697	-0.06305	0.99728
0.476	128.48	-22473	2639	0.23688	-0.062854	0.99718
0.478	128.47	-22474	2639.5	0.23678	-0.062659	0.99708
0.48	128.47	-22475	2640	0.23668	-0.062464	0.99698
0.482	128.49	-22475	2640.4	0.23658	-0.062562	0.9965
0.484	128.5	-22473	2640.8	0.23648	-0.062659	0.99601
0.486	128.48	-22470	2641.2	0.23639	-0.062757	0.99552
0.488	128.45	-22467	2641.7	0.23629	-0.062854	0.99503
0.49	128.47	-22465	2642.1	0.23619	-0.062952	0.99454
0.492	128.51	-22463	2642.4	0.236	-0.062952	0.99542
0.494	128.54	-22462	2642.7	0.2358	-0.062952	0.9963
0.496	128.54	-22462	2643.1	0.23561	-0.062952	0.99718
0.498	128.54	-22460	2643.3	0.23541	-0.062952	0.99806
0.5	128.55	-22456	2643.6	0.23522	-0.062952	0.99894
0.502	128.56	-22452	2643.8	0.23561	-0.063538	0.99845
0.504	128.57	-22450	2644	0.236	-0.064123	0.99796
0.506	128.56	-22451	2644.2	0.23639	-0.064709	0.99747
0.508	128.54	-22454	2644.4	0.23678	-0.065294	0.99698
0.51	128.53	-22454	2644.6	0.23717	-0.06588	0.9965
0.512	128.53	-22450	2644.7	0.23814	-0.064709	0.99737
0.514	128.53	-22448	2644.8	0.23912	-0.063538	0.99825
0.516	128.56	-22447	2644.9	0.2401	-0.062366	0.99913
0.518	128.58	-22445	2645	0.24107	-0.061195	1
0.52	128.56	-22441	2645.1	0.24205	-0.060024	1.0009
0.522	128.56	-22441	2645.3	0.24156	-0.060219	1.0009
0.524	128.59	-22445	2645.4	0.24107	-0.060414	1.0009
0.526	128.6	-22446	2645.5	0.24058	-0.06061	1.0009
0.528	128.59	-22445	2645.5	0.2401	-0.060805	1.0009
0.53	128.59	-22440	2645.6	0.23961	-0.061	1.0009
0.532	128.57	-22433	2645.7	0.23844	-0.061878	1.0002
0.534	128.56	-22425	2645.8	0.23727	-0.062757	0.99952
0.536	128.59	-22418	2645.9	0.23609	-0.063635	0.99884
0.538	128.59	-22415	2645.9	0.23492	-0.064514	0.99816
0.54	128.57	-22417	2646	0.23375	-0.065392	0.99747
0.542	128.58	-22419	2646	0.23385	-0.065099	0.99767
0.544	128.61	-22420	2646.1	0.23395	-0.064806	0.99786
0.546	128.64	-22420	2646.1	0.23404	-0.064514	0.99806
0.548	128.61	-22417	2646.1	0.23414	-0.064221	0.99825
0.55	128.6	-22416	2646.2	0.23424	-0.063928	0.99845
0.552	128.58	-22416	2646.2	0.23404	-0.06344	0.99942
0.554	128.6	-22415	2646.2	0.23385	-0.062952	1.0004
0.556	128.56	-22412	2646.2	0.23365	-0.062464	1.0014
0.558	128.53	-22410	2646.2	0.23346	-0.061976	1.0024
0.56	128.58	-22410	2646.2	0.23326	-0.061488	1.0033
0.562	128.59	-22409	2646.2	0.23365	-0.062074	1.0024
0.564	128.61	-22408	2646.2	0.23404	-0.062659	1.0016
0.566	128.62	-22408	2646.1	0.23444	-0.063245	1.0007
0.568	128.59	-22408	2646.1	0.23483	-0.06383	0.99981
0.57	128.57	-22407	2646	0.23522	-0.064416	0.99894
0.572	128.57	-22406	2645.9	0.23473	-0.06383	0.99845
0.574	128.59	-22404	2645.7	0.23424	-0.063245	0.99796
0.576	128.62	-22402	2645.6	0.23375	-0.062659	0.99747
0.578	128.64	-22400	2645.4	0.23326	-0.062074	0.99698
0.58	128.61	-22399	2645.2	0.23278	-0.061488	0.9965
0.582	128.58	-22397	2644.9	0.23268	-0.061293	0.99659
0.584	128.58	-22395	2644.7	0.23258	-0.061098	0.99669
0.586	128.58	-22393	2644.5	0.23248	-0.060902	0.99679
0.588	128.58	-22390	2644.2	0.23239	-0.060707	0.99689
0.59	128.58	-22389	2644	0.23229	-0.060512	0.99698
0.592	128.57	-22389	2643.7	0.2316	-0.060512	0.99698
0.594	128.57	-22389	2643.4	0.23092	-0.060512	0.99698
0.596	128.56	-22388	2643.1	0.23024	-0.060512	0.99698
0.598	128.55	-22387	2642.7	0.22956	-0.060512	0.99698
0.6	128.57	-22384	2642.4	0.22887	-0.060512	0.99698
0.602	128.6	-22383	2642.1	0.23043	-0.06061	0.99757
0.604	128.61	-22383	2641.8	0.232	-0.060707	0.99816
0.606	128.62	-22381	2641.5	0.23356	-0.060805	0.99874
0.608	128.6	-22379	2641.2	0.23512	-0.060902	0.99933
0.61	128.59	-22379	2640.9	0.23668	-0.061	0.99991
0.612	128.62	-22381	2640.6	0.23551	-0.060317	0.99952
0.614	128.61	-22383	2640.2	0.23434	-0.059634	0.99913
0.616	128.6	-22384	2639.9	0.23317	-0.05895	0.99874
0.618	128.61	-22383	2639.7	0.232	-0.058267	0.99835
0.62	128.59	-22380	2639.4	0.23082	-0.057584	0.99796
0.622	128.58	-22381	2639.1	0.2317	-0.058365	0.99816
0.624	128.57	-22385	2638.8	0.23258	-0.059146	0.99835
0.626	128.59	-22386	2638.5	0.23346	-0.059926	0.99855
0.628	128.6	-22385	2638.2	0.23434	-0.060707	0.99874
0.63	128.56	-22381	2638	0.23522	-0.061488	0.99894
0.632	128.56	-22376	2637.7	0.23395	-0.060512	0.99864
0.634	128.54	-22375	2637.4	0.23268	-0.059536	0.99835
0.636	128.51	-22377	2637.2	0.23141	-0.05856	0.99806
0.638	128.53	-22378	2636.9	0.23014	-0.057584	0.99776
0.64	128.59	-22377	2636.7	0.22887	-0.056608	0.99747
0.642	128.61	-22376	2636.5	0.22907	-0.056608	0.99689
0.644	128.62	-22377	2636.3	0.22926	-0.056608	0.9963
0.646	128.6	-22378	2636.1	0.22946	-0.056608	0.99572
0.648	128.57	-22381	2635.9	0.22965	-0.056608	0.99513
0.65	128.56	-22381	2635.8	0.22985	-0.056608	0.99454
0.652	128.56	-22379	2635.6	0.23053	-0.057194	0.99493
0.654	128.57	-22379	2635.4	0.23121	-0.057779	0.99532
0.656	128.58	-22381	2635.3	0.2319	-0.058365	0.99572
0.658	128.6	-22380	2635.2	0.23258	-0.05895	0.99611
0.66	128.61	-22377	2635.1	0.23326	-0.059536	0.9965
0.662	128.61	-22376	2634.9	0.23278	-0.059341	0.9964
0.664	128.59	-22377	2634.8	0.23229	-0.059146	0.9963
0.666	128.57	-22379	2634.7	0.2318	-0.05895	0.9962
0.668	128.54	-22383	2634.5	0.23131	-0.058755	0.99611
0.67	128.55	-22386	2634.4	0.23082	-0.05856	0.99601
0.672	128.55	-22388	2634.3	0.23258	-0.059146	0.99503
0.674	128.55	-22388	2634.1	0.23434	-0.059731	0.99406
0.676	128.57	-22385	2634	0.23609	-0.060317	0.99308
0.678	128.59	-22383	2633.9	0.23785	-0.060902	0.9921
0.68	128.6	-22382	2633.8	0.23961	-0.061488	0.99113
0.682	128.58	-22380	2633.6	0.23902	-0.060902	0.99171
0.684	128.57	-22378	2633.5	0.23844	-0.060317	0.9923
0.686	128.56	-22378	2633.5	0.23785	-0.059731	0.99288
0.688	128.59	-22379	2633.4	0.23727	-0.059146	0.99347
0.69	128.59	-22380	2633.4	0.23668	-0.05856	0.99406
0.692	128.59	-22378	2633.4	0.2358	-0.058462	0.99474
0.694	128.59	-22380	2633.3	0.23492	-0.058365	0.99542
0.696	128.61	-22384	2633.3	0.23404	-0.058267	0.99611
0.698	128.59	-22384	2633.2	0.23317	-0.05817	0.99679
0.7	128.58	-22381	2633.2	0.23229	-0.058072	0.99747
0.702	128.57	-22380	2633.1	0.23278	-0.05856	0.99689
0.704	128.55	-22380	2633.1	0.23326	-0.059048	0.9963
0.706	128.54	-22381	2633	0.23375	-0.059536	0.99572
0.708	128.52	-22383	2632.9	0.23424	-0.060024	0.99513
0.71	128.54	-22384	2632.8	0.23473	-0.060512	0.99454
0.712	128.54	-22383	2632.8	0.23492	-0.061	0.99484
0.714	128.56	-22382	2632.7	0.23512	-0.061488	0.99513
0.716	128.58	-22379	2632.6	0.23531	-0.061976	0.99542
0.718	128.61	-22379	2632.5	0.23551	-0.062464	0.99572
0.72	128.62	-22382	2632.4	0.2357	-0.062952	0.99601
0.722	128.59	-22386	2632.4	0.2357	-0.062562	0.99611
0.724	128.6	-22392	2632.3	0.2357	-0.062171	0.9962
0.726	128.61	-22393	2632.2	0.2357	-0.061781	0.9963
0.728	128.62	-22388	2632	0.2357	-0.06139	0.9964
0.73	128.59	-22385	2631.9	0.2357	-0.061	0.9965
0.732	128.55	-22384	2631.8	0.23668	-0.06061	0.99718
0.734	128.54	-22384	2631.7	0.23766	-0.060219	0.99786
0.736	128.57	-22386	2631.6	0.23863	-0.059829	0.99855
0.738	128.57	-22388	2631.6	0.23961	-0.059438	0.99923
0.74	128.55	-22390	2631.5	0.24058	-0.059048	0.99991
0.742	128.52	-22394	2631.5	0.23961	-0.05895	0.99942
0.744	128.51	-22400	2631.4	0.23863	-0.058853	0.99894
0.746	128.54	-22400	2631.3	0.23766	-0.058755	0.99845
0.748	128.57	-22394	2631.2	0.23668	-0.058658	0.99796
0.75	128.59	-22394	2631.1	0.2357	-0.05856	0.99747
0.752	128.59	-22397	2631	0.2357	-0.059146	0.99747
0.754	128.58	-22396	2630.9	0.2357	-0.059731	0.99747
0.756	128.55	-22389	2630.8	0.2357	-0.060317	0.99747
0.758	128.51	-22387	2630.7	0.2357	-0.060902	0.99747
0.76	128.5	-22389	2630.6	0.2357	-0.061488	0.99747
0.762	128.5	-22388	2630.5	0.236	-0.061	0.99776
0.764	128.48	-22386	2630.4	0.23629	-0.060512	0.99806
0.766	128.48	-22387	2630.2	0.23658	-0.060024	0.99835
0.768	128.49	-22392	2630.1	0.23688	-0.059536	0.99864
0.77	128.5	-22395	2629.9	0.23717	-0.059048	0.99894
0.772	128.53	-22396	2629.8	0.23805	-0.059438	1
0.774	128.56	-22393	2629.7	0.23892	-0.059829	1.0011
0.776	128.55	-22388	2629.5	0.2398	-0.060219	1.0022
0.778	128.54	-22386	2629.4	0.24068	-0.06061	1.0032
0.78	128.53	-22388	2629.2	0.24156	-0.061	1.0043
0.782	128.52	-22391	2629.1	0.24127	-0.059634	1.0028
0.784	128.5	-22395	2629	0.24097	-0.058267	1.0014
0.786	128.48	-22399	2628.9	0.24068	-0.056901	0.99991
0.788	128.52	-22403	2628.8	0.24039	-0.055534	0.99845
0.79	128.56	-22402	2628.7	0.2401	-0.054168	0.99698
0.792	128.53	-22397	2628.6	0.2399	-0.055925	0.99737
0.794	128.52	-22395	2628.4	0.23971	-0.057682	0.99776
0.796	128.53	-22396	2628.3	0.23951	-0.059438	0.99816
0.798	128.54	-22398	2628.1	0.23932	-0.061195	0.99855
0.8	128.52	-22400	2628	0.23912	-0.062952	0.99894
0.802	128.47	-22398	2627.8	0.24	-0.062366	0.99933
0.804	128.48	-22390	2627.6	0.24088	-0.061781	0.99972
0.806	128.56	-22390	2627.5	0.24176	-0.061195	1.0001
0.808	128.55	-22399	2627.4	0.24263	-0.06061	1.0005
0.81	128.53	-22403	2627.2	0.24351	-0.060024	1.0009
0.812	128.51	-22404	2627.1	0.24361	-0.059146	1.001
0.814	128.5	-22404	2627	0.24371	-0.058267	1.0011
0.816	128.52	-22405	2626.8	0.2438	-0.057389	1.0012
0.818	128.51	-22404	2626.7	0.2439	-0.05651	1.0013
0.82	128.53	-22399	2626.6	0.244	-0.055632	1.0014
0.822	128.54	-22400	2626.4	0.24332	-0.056608	1.0013
0.824	128.52	-22405	2626.2	0.24263	-0.057584	1.0012
0.826	128.56	-22404	2626	0.24195	-0.05856	1.0011
0.828	128.61	-22395	2625.9	0.24127	-0.059536	1.001
0.83	128.61	-22393	2625.8	0.24058	-0.060512	1.0009
0.832	128.59	-22398	2625.6	0.24068	-0.059926	1.0009
0.834	128.59	-22399	2625.5	0.24078	-0.059341	1.0009
0.836	128.61	-22398	2625.3	0.24088	-0.058755	1.0009
0.838	128.61	-22396	2625.2	0.24097	-0.05817	1.0009
0.84	128.59	-22393	2625.1	0.24107	-0.057584	1.0009
0.842	128.59	-22394	2625	0.24	-0.058462	1.0007
0.844	128.62	-22400	2624.9	0.23892	-0.059341	1.0005
0.846	128.64	-22405	2624.8	0.23785	-0.060219	1.0003
0.848	128.63	-22409	2624.7	0.23678	-0.061098	1.0001
0.85	128.62	-22408	2624.6	0.2357	-0.061976	0.99991
0.852	128.59	-22402	2624.5	0.23629	-0.062269	1.0004
0.854	128.52	-22403	2624.3	0.23688	-0.062562	1.0009
0.856	128.55	-22410	2624.2	0.23746	-0.062854	1.0014
0.858	128.65	-22418	2624.1	0.23805	-0.063147	1.0019
0.86	128.64	-22426	2623.9	0.23863	-0.06344	1.0024
0.862	128.59	-22428	2623.8	0.23756	-0.062659	1.0023
0.864	128.58	-22426	2623.7	0.23648	-0.061878	1.0022
0.866	128.6	-22426	2623.6	0.23541	-0.061098	1.0021
0.868	128.61	-22428	2623.5	0.23434	-0.060317	1.002
0.87	128.62	-22429	2623.4	0.23326	-0.059536	1.0019
0.872	128.6	-22429	2623.3	0.23297	-0.058853	1.0014
0.874	128.56	-22426	2623.1	0.23268	-0.05817	1.0009
0.876	128.57	-22418	2623	0.23239	-0.057486	1.0004
0.878	128.59	-22413	2622.9	0.23209	-0.056803	0.99991
0.88	128.59	-22412	2622.8	0.2318	-0.05612	0.99942
0.882	128.6	-22414	2622.6	0.23278	-0.057291	0.99972
0.884	128.57	-22419	2622.4	0.23375	-0.058462	1
0.886	128.57	-22421	2622.3	0.23473	-0.059634	1.0003
0.888	128.66	-22421	2622.1	0.2357	-0.060805	1.0006
0.89	128.68	-22422	2622	0.23668	-0.061976	1.0009
0.892	128.69	-22423	2621.8	0.23541	-0.06139	1.0005
0.894	128.71	-22423	2621.7	0.23414	-0.060805	1.0001
0.896	128.71	-22422	2621.5	0.23287	-0.060219	0.99972
0.898	128.68	-22421	2621.4	0.2316	-0.059634	0.99933
0.9	128.66	-22419	2621.2	0.23034	-0.059048	0.99894
0.902	128.66	-22416	2621	0.23063	-0.058853	0.99845
0.904	128.6	-22413	2620.8	0.23092	-0.058658	0.99796
0.906	128.52	-22412	2620.6	0.23121	-0.058462	0.99747
0.908	128.44	-22414	2620.4	0.23151	-0.058267	0.99698
0.91	128.36	-22419	2620.2	0.2318	-0.058072	0.9965
0.912	128.25	-22428	2619.9	0.2316	-0.057682	0.99669
0.914	128.14	-22432	2619.7	0.23141	-0.057291	0.99689
0.916	128.03	-22433	2619.5	0.23121	-0.056901	0.99708
0.918	127.88	-22430	2619.3	0.23102	-0.05651	0.99728
0.92	127.75	-22425	2619.1	0.23082	-0.05612	0.99747
0.922	127.66	-22427	2618.9	0.23121	-0.056413	0.99757
0.924	127.57	-22437	2618.7	0.2316	-0.056706	0.99767
0.926	127.47	-22440	2618.4	0.232	-0.056998	0.99776
0.928	127.4	-22435	2618.2	0.23239	-0.057291	0.99786
0.93	127.42	-22432	2618	0.23278	-0.057584	0.99796
0.932	127.54	-22431	2617.8	0.23248	-0.056706	0.99659
0.934	127.68	-22431	2617.6	0.23219	-0.055827	0.99523
0.936	127.83	-22433	2617.4	0.2319	-0.054949	0.99386
0.938	128.02	-22437	2617.3	0.2316	-0.05407	0.99249
0.94	128.24	-22443	2617.1	0.23131	-0.053192	0.99113
0.942	128.44	-22444	2617	0.23141	-0.053875	0.9923
0.944	128.54	-22439	2616.8	0.23151	-0.054558	0.99347
0.946	128.52	-22440	2616.6	0.2316	-0.055242	0.99464
0.948	128.54	-22447	2616.5	0.2317	-0.055925	0.99581
0.95	128.59	-22450	2616.4	0.2318	-0.056608	0.99698
0.952	128.63	-22447	2616.3	0.23112	-0.056608	0.99659
0.954	128.64	-22443	2616.2	0.23043	-0.056608	0.9962
0.956	128.62	-22437	2616.1	0.22975	-0.056608	0.99581
0.958	128.59	-22434	2616	0.22907	-0.056608	0.99542
0.96	128.5	-22435	2615.9	0.22838	-0.056608	0.99503
0.962	128.48	-22437	2615.7	0.22926	-0.056315	0.99464
0.964	128.53	-22441	2615.6	0.23014	-0.056022	0.99425
0.966	128.5	-22444	2615.5	0.23102	-0.05573	0.99386
0.968	128.47	-22448	2615.3	0.2319	-0.055437	0.99347
0.97	128.48	-22449	2615.2	0.23278	-0.055144	0.99308
0.972	128.55	-22448	2615	0.23258	-0.056022	0.99415
0.974	128.56	-22448	2614.8	0.23239	-0.056901	0.99523
0.976	128.53	-22447	2614.7	0.23219	-0.057779	0.9963
0.978	128.51	-22447	2614.5	0.232	-0.058658	0.99737
0.98	128.51	-22450	2614.4	0.2318	-0.059536	0.99845
0.982	128.52	-22451	2614.3	0.23219	-0.059829	0.99786
0.984	128.5	-22451	2614.2	0.23258	-0.060122	0.99728
0.986	128.5	-22451	2614.1	0.23297	-0.060414	0.99669
0.988	128.53	-22451	2614	0.23336	-0.060707	0.99611
0.99	128.57	-22454	2613.8	0.23375	-0.061	0.99552
0.992	128.57	-22460	2613.7	0.23336	-0.060317	0.99562
0.994	128.54	-22463	2613.6	0.23297	-0.059634	0.99572
0.996	128.55	-22464	2613.5	0.23258	-0.05895	0.99581
0.998	128.55	-22462	2613.4	0.23219	-0.058267	0.99591
1	128.53	-22458	2613.3	0.2318	-0.057584	0.99601
1.002	128.54	-22456	2613.2	0.23248	-0.058462	0.99562
1.004	128.53	-22454	2613.1	0.23317	-0.059341	0.99523
1.006	128.5	-22454	2613	0.23385	-0.060219	0.99484
1.008	128.5	-22456	2612.9	0.23453	-0.061098	0.99445
1.01	128.51	-22457	2612.8	0.23522	-0.061976	0.99406
1.012	128.53	-22458	2612.8	0.23492	-0.061488	0.99435
1.014	128.56	-22459	2612.7	0.23463	-0.061	0.99464
1.016	128.55	-22462	2612.6	0.23434	-0.060512	0.99493
1.018	128.51	-22463	2612.5	0.23404	-0.060024	0.99523
1.02	128.49	-22462	2612.4	0.23375	-0.059536	0.99552
1.022	128.49	-22461	2612.3	0.23395	-0.060024	0.99572
1.024	128.51	-22459	2612.2	0.23414	-0.060512	0.99591
1.026	128.52	-22462	2612.1	0.23434	-0.061	0.99611
1.028	128.53	-22470	2612	0.23453	-0.061488	0.9963
1.03	128.53	-22475	2611.9	0.23473	-0.061976	0.9965
1.032	128.53	-22477	2611.7	0.23492	-0.061	0.99698
1.034	128.54	-22477	2611.6	0.23512	-0.060024	0.99747
1.036	128.51	-22476	2611.5	0.23531	-0.059048	0.99796
1.038	128.49	-22476	2611.5	0.23551	-0.058072	0.99845
1.04	128.48	-22478	2611.5	0.2357	-0.057096	0.99894
1.042	128.5	-22478	2611.4	0.23531	-0.057779	0.99835
1.044	128.49	-22475	2611.3	0.23492	-0.058462	0.99776
1.046	128.49	-22472	2611.3	0.23453	-0.059146	0.99718
1.048	128.5	-22470	2611.3	0.23414	-0.059829	0.99659
1.05	128.47	-22470	2611.2	0.23375	-0.060512	0.99601
1.052	128.49	-22474	2611.2	0.23395	-0.060219	0.9964
1.054	128.5	-22476	2611.1	0.23414	-0.059926	0.99679
1.056	128.47	-22476	2611	0.23434	-0.059634	0.99718
1.058	128.47	-22477	2611	0.23453	-0.059341	0.99757
1.06	128.49	-22480	2610.9	0.23473	-0.059048	0.99796
1.062	128.48	-22483	2610.9	0.23395	-0.058267	0.99776
1.064	128.46	-22487	2610.8	0.23317	-0.057486	0.99757
1.066	128.46	-22489	2610.8	0.23239	-0.056706	0.99737
1.068	128.44	-22490	2610.7	0.2316	-0.055925	0.99718
1.07	128.45	-22490	2610.6	0.23082	-0.055144	0.99698
1.072	128.46	-22489	2610.5	0.2319	-0.05612	0.9963
1.074	128.43	-22490	2610.4	0.23297	-0.057096	0.99562
1.076	128.43	-22492	2610.3	0.23404	-0.058072	0.99493
1.078	128.45	-22492	2610.3	0.23512	-0.059048	0.99425
1.08	128.45	-22488	2610.2	0.23619	-0.060024	0.99357
1.082	128.47	-22488	2610.2	0.23619	-0.060024	0.99493
1.084	128.48	-22493	2610.2	0.23619	-0.060024	0.9963
1.086	128.49	-22495	2610.3	0.23619	-0.060024	0.99767
1.088	128.47	-22494	2610.3	0.23619	-0.060024	0.99903
1.09	128.46	-22494	2610.4	0.23619	-0.060024	1.0004
1.092	128.49	-22496	2610.6	0.2359	-0.060512	0.99972
1.094	128.49	-22498	2610.8	0.23561	-0.061	0.99903
1.096	128.45	-22499	2611.1	0.23531	-0.061488	0.99835
1.098	128.42	-22500	2611.5	0.23502	-0.061976	0.99767
1.1	128.39	-22501	2611.9	0.23473	-0.062464	0.99698
1.102	128.36	-22500	2612.4	0.23444	-0.061976	0.9965
1.104	128.35	-22499	2612.9	0.23414	-0.061488	0.99601
1.106	128.36	-22500	2613.5	0.23385	-0.061	0.99552
1.108	128.4	-22505	2614.2	0.23356	-0.060512	0.99503
1.11	128.43	-22508	2614.9	0.23326	-0.060024	0.99454
1.112	128.41	-22509	2615.6	0.23297	-0.059438	0.99493
1.114	128.4	-22513	2616.4	0.23268	-0.058853	0.99532
1.116	128.38	-22520	2617.1	0.23239	-0.058267	0.99572
1.118	128.38	-22520	2618	0.23209	-0.057682	0.99611
1.12	128.38	-22511	2618.8	0.2318	-0.057096	0.9965
1.122	128.38	-22506	2619.6	0.23151	-0.056706	0.99679
1.124	128.37	-22504	2620.4	0.23121	-0.056315	0.99708
1.126	128.37	-22505	2621.2	0.23092	-0.055925	0.99737
1.128	128.4	-22510	2621.9	0.23063	-0.055534	0.99767
1.13	128.38	-22514	2622.7	0.23034	-0.055144	0.99796
1.132	128.34	-22519	2623.5	0.2319	-0.056315	0.99845
1.134	128.36	-22519	2624.3	0.23346	-0.057486	0.99894
1.136	128.38	-22514	2625	0.23502	-0.058658	0.99942
1.138	128.4	-22511	2625.8	0.23658	-0.059829	0.99991
1.14	128.42	-22508	2626.6	0.23814	-0.061	1.0004
1.142	128.4	-22506	2627.4	0.23941	-0.060219	1.0013
1.144	128.41	-22505	2628.1	0.24068	-0.059438	1.0022
1.146	128.39	-22505	2628.8	0.24195	-0.058658	1.003
1.148	128.4	-22506	2629.5	0.24322	-0.057877	1.0039
1.15	128.38	-22504	2630.3	0.24449	-0.057096	1.0048
1.152	128.39	-22501	2631	0.244	-0.057682	1.0043
1.154	128.38	-22500	2631.6	0.24351	-0.058267	1.0038
1.156	128.36	-22503	2632.3	0.24302	-0.058853	1.0033
1.158	128.38	-22505	2632.9	0.24254	-0.059438	1.0028
1.16	128.38	-22504	2633.6	0.24205	-0.060024	1.0024
1.162	128.38	-22502	2634.2	0.24039	-0.060902	1.0012
1.164	128.41	-22499	2634.8	0.23873	-0.061781	1
1.166	128.46	-22498	2635.4	0.23707	-0.062659	0.99884
1.168	128.47	-22499	2636	0.23541	-0.063538	0.99767
1.17	128.43	-22499	2636.6	0.23375	-0.064416	0.9965
1.172	128.41	-22496	2637.2	0.23414	-0.064904	0.9962
1.174	128.44	-22496	2637.8	0.23453	-0.065392	0.99591
1.176	128.44	-22497	2638.3	0.23492	-0.06588	0.99562
1.178	128.4	-22497	2638.8	0.23531	-0.066368	0.99532
1.18	128.39	-22495	2639.3	0.2357	-0.066856	0.99503
1.182	128.41	-22494	2639.8	0.23551	-0.06588	0.99601
1.184	128.44	-22493	2640.3	0.23531	-0.064904	0.99698
1.186	128.44	-22490	2640.7	0.23512	-0.063928	0.99796
1.188	128.46	-22485	2641.2	0.23492	-0.062952	0.99894
1.19	128.5	-22480	2641.6	0.23473	-0.061976	0.99991
1.192	128.5	-22476	2642	0.23356	-0.062659	0.99884
1.194	128.47	-22475	2642.3	0.23239	-0.063342	0.99776
1.196	128.46	-22477	2642.6	0.23121	-0.064026	0.99669
1.198	128.49	-22477	2642.9	0.23004	-0.064709	0.99562
1.2	128.52	-22474	2643.2	0.22887	-0.065392	0.99454
1.202	128.52	-22471	2643.4	0.22985	-0.065294	0.99503
1.204	128.48	-22467	2643.6	0.23082	-0.065197	0.99552
1.206	128.47	-22465	2643.8	0.2318	-0.065099	0.99601
1.208	128.5	-22466	2643.9	0.23278	-0.065002	0.9965
1.21	128.51	-22467	2644	0.23375	-0.064904	0.99698
1.212	128.5	-22468	2644.1	0.23356	-0.064611	0.99718
1.214	128.51	-22469	2644.2	0.23336	-0.064318	0.99737
1.216	128.53	-22470	2644.2	0.23317	-0.064026	0.99757
1.218	128.52	-22470	2644.3	0.23297	-0.063733	0.99776
1.22	128.5	-22468	2644.4	0.23278	-0.06344	0.99796
1.222	128.51	-22469	2644.4	0.23229	-0.063342	0.99718
1.224	128.55	-22472	2644.4	0.2318	-0.063245	0.9964
1.226	128.59	-22471	2644.5	0.23131	-0.063147	0.99562
1.228	128.56	-22467	2644.5	0.23082	-0.06305	0.99484
1.23	128.52	-22464	2644.5	0.23034	-0.062952	0.99406
1.232	128.53	-22461	2644.6	0.23141	-0.062854	0.99523
1.234	128.5	-22458	2644.7	0.23248	-0.062757	0.9964
1.236	128.49	-22454	2644.7	0.23356	-0.062659	0.99757
1.238	128.55	-22450	2644.8	0.23463	-0.062562	0.99874
1.24	128.57	-22445	2644.8	0.2357	-0.062464	0.99991
1.242	128.59	-22442	2644.8	0.23522	-0.062659	0.99991
1.244	128.57	-22443	2644.8	0.23473	-0.062854	0.99991
1.246	128.55	-22441	2644.8	0.23424	-0.06305	0.99991
1.248	128.54	-22438	2644.8	0.23375	-0.063245	0.99991
1.25	128.52	-22440	2644.8	0.23326	-0.06344	0.99991
1.252	128.5	-22447	2644.8	0.23287	-0.06305	0.99991
1.254	128.52	-22447	2644.8	0.23248	-0.062659	0.99991
1.256	128.55	-22440	2644.8	0.23209	-0.062269	0.99991
1.258	128.55	-22437	2644.7	0.2317	-0.061878	0.99991
1.26	128.55	-22438	2644.7	0.23131	-0.061488	0.99991
1.262	128.52	-22438	2644.5	0.23151	-0.061293	0.99962
1.264	128.51	-22437	2644.4	0.2317	-0.061098	0.99933
1.266	128.53	-22436	2644.3	0.2319	-0.060902	0.99903
1.268	128.55	-22435	2644.2	0.23209	-0.060707	0.99874
1.27	128.55	-22432	2644	0.23229	-0.060512	0.99845
1.272	128.56	-22427	2643.8	0.23297	-0.061195	0.99786
1.274	128.55	-22424	2643.7	0.23365	-0.061878	0.99728
1.276	128.56	-22424	2643.5	0.23434	-0.062562	0.99669
1.278	128.56	-22424	2643.2	0.23502	-0.063245	0.99611
1.28	128.56	-22421	2643	0.2357	-0.063928	0.99552
1.282	128.55	-22421	2642.7	0.23473	-0.063147	0.9964
1.284	128.53	-22422	2642.5	0.23375	-0.062366	0.99728
1.286	128.51	-22421	2642.2	0.23278	-0.061586	0.99816
1.288	128.52	-22416	2641.9	0.2318	-0.060805	0.99903
1.29	128.53	-22414	2641.6	0.23082	-0.060024	0.99991
1.292	128.56	-22413	2641.2	0.23004	-0.059438	0.99923
1.294	128.57	-22415	2640.8	0.22926	-0.058853	0.99855
1.296	128.59	-22419	2640.5	0.22848	-0.058267	0.99786
1.298	128.58	-22421	2640.1	0.2277	-0.057682	0.99718
1.3	128.52	-22421	2639.7	0.22692	-0.057096	0.9965
1.302	128.49	-22420	2639.3	0.22731	-0.057584	0.99669
1.304	128.53	-22419	2639	0.2277	-0.058072	0.99689
1.306	128.55	-22418	2638.6	0.22809	-0.05856	0.99708
1.308	128.53	-22417	2638.2	0.22848	-0.059048	0.99728
1.31	128.53	-22416	2637.9	0.22887	-0.059536	0.99747
1.312	128.52	-22417	2637.5	0.22965	-0.059634	0.99776
1.314	128.53	-22416	2637.2	0.23043	-0.059731	0.99806
1.316	128.51	-22413	2636.8	0.23121	-0.059829	0.99835
1.318	128.52	-22412	2636.5	0.232	-0.059926	0.99864
1.32	128.59	-22412	2636.2	0.23278	-0.060024	0.99894
1.322	128.57	-22413	2635.9	0.23317	-0.060317	0.99864
1.324	128.51	-22414	2635.6	0.23356	-0.06061	0.99835
1.326	128.49	-22411	2635.3	0.23395	-0.060902	0.99806
1.328	128.5	-22403	2635	0.23434	-0.061195	0.99776
1.33	128.52	-22401	2634.8	0.23473	-0.061488	0.99747
1.332	128.53	-22404	2634.5	0.23434	-0.061	0.99767
1.334	128.52	-22409	2634.2	0.23395	-0.060512	0.99786
1.336	128.5	-22414	2634	0.23356	-0.060024	0.99806
1.338	128.54	-22416	2633.8	0.23317	-0.059536	0.99825
1.34	128.57	-22414	2633.7	0.23278	-0.059048	0.99845
1.342	128.56	-22409	2633.4	0.23395	-0.059243	0.99864
1.344	128.55	-22402	2633.1	0.23512	-0.059438	0.99884
1.346	128.54	-22402	2632.9	0.23629	-0.059634	0.99903
1.348	128.53	-22410	2632.7	0.23746	-0.059829	0.99923
1.35	128.52	-22414	2632.5	0.23863	-0.060024	0.99942
1.352	128.49	-22415	2632.4	0.23785	-0.060219	0.99923
1.354	128.47	-22414	2632.2	0.23707	-0.060414	0.99903
1.356	128.5	-22412	2632	0.23629	-0.06061	0.99884
1.358	128.53	-22411	2631.8	0.23551	-0.060805	0.99864
1.36	128.52	-22412	2631.6	0.23473	-0.061	0.99845
1.362	128.51	-22415	2631.5	0.23375	-0.059634	0.99767
1.364	128.5	-22419	2631.3	0.23278	-0.058267	0.99689
1.366	128.5	-22420	2631.2	0.2318	-0.056901	0.99611
1.368	128.54	-22417	2631.1	0.23082	-0.055534	0.99532
1.37	128.58	-22414	2631	0.22985	-0.054168	0.99454
1.372	128.57	-22409	2630.9	0.23053	-0.055046	0.99493
1.374	128.53	-22407	2630.8	0.23121	-0.055925	0.99532
1.376	128.54	-22408	2630.7	0.2319	-0.056803	0.99572
1.378	128.54	-22411	2630.6	0.23258	-0.057682	0.99611
1.38	128.52	-22416	2630.5	0.23326	-0.05856	0.9965
1.382	128.5	-22420	2630.5	0.23326	-0.05856	0.9964
1.384	128.49	-22422	2630.4	0.23326	-0.05856	0.9963
1.386	128.53	-22421	2630.4	0.23326	-0.05856	0.9962
1.388	128.55	-22417	2630.4	0.23326	-0.05856	0.99611
1.39	128.56	-22414	2630.5	0.23326	-0.05856	0.99601
1.392	128.55	-22414	2630.4	0.2357	-0.058267	0.99659
1.394	128.55	-22414	2630.4	0.23814	-0.057974	0.99718
1.396	128.53	-22414	2630.4	0.24058	-0.057682	0.99776
1.398	128.54	-22412	2630.4	0.24302	-0.057389	0.99835
1.4	128.5	-22409	2630.5	0.24546	-0.057096	0.99894
1.402	128.47	-22408	2630.5	0.24527	-0.056218	0.99845
1.404	128.5	-22409	2630.5	0.24507	-0.055339	0.99796
1.406	128.58	-22409	2630.5	0.24488	-0.054461	0.99747
1.408	128.58	-22409	2630.4	0.24468	-0.053582	0.99698
1.41	128.54	-22408	2630.3	0.24449	-0.052704	0.9965
1.412	128.54	-22407	2630.3	0.24439	-0.053387	0.99776
1.414	128.57	-22409	2630.3	0.24429	-0.05407	0.99903
1.416	128.56	-22414	2630.2	0.2442	-0.054754	1.0003
1.418	128.53	-22417	2630.1	0.2441	-0.055437	1.0016
1.42	128.5	-22418	2630	0.244	-0.05612	1.0028
1.422	128.51	-22419	2629.9	0.24439	-0.056413	1.0032
1.424	128.53	-22419	2629.8	0.24478	-0.056706	1.0036
1.426	128.55	-22421	2629.6	0.24517	-0.056998	1.004
1.428	128.54	-22424	2629.5	0.24556	-0.057291	1.0044
1.43	128.51	-22428	2629.3	0.24595	-0.057584	1.0048
1.432	128.48	-22431	2629.2	0.24488	-0.058267	1.004
1.434	128.46	-22434	2629.1	0.2438	-0.05895	1.0032
1.436	128.48	-22435	2628.9	0.24273	-0.059634	1.0024
1.438	128.52	-22437	2628.8	0.24166	-0.060317	1.0017
1.44	128.52	-22440	2628.7	0.24058	-0.061	1.0009
1.442	128.5	-22441	2628.5	0.23922	-0.061683	0.99962
1.444	128.48	-22440	2628.4	0.23785	-0.062366	0.99835
1.446	128.47	-22437	2628.3	0.23648	-0.06305	0.99708
1.448	128.48	-22432	2628.3	0.23512	-0.063733	0.99581
1.45	128.49	-22429	2628.2	0.23375	-0.064416	0.99454
1.452	128.51	-22429	2628.1	0.23395	-0.063147	0.99513
1.454	128.51	-22428	2628	0.23414	-0.061878	0.99572
1.456	128.46	-22426	2628	0.23434	-0.06061	0.9963
1.458	128.43	-22423	2627.9	0.23453	-0.059341	0.99689
1.46	128.45	-22420	2627.8	0.23473	-0.058072	0.99747
1.462	128.47	-22419	2627.7	0.23668	-0.058365	0.99864
1.464	128.47	-22421	2627.7	0.23863	-0.058658	0.99981
1.466	128.48	-22422	2627.6	0.24058	-0.05895	1.001
1.468	128.48	-22424	2627.5	0.24254	-0.059243	1.0022
1.47	128.47	-22428	2627.4	0.24449	-0.059536	1.0033
1.472	128.49	-22432	2627.4	0.24439	-0.059536	1.0029
1.474	128.49	-22433	2627.3	0.24429	-0.059536	1.0025
1.476	128.47	-22430	2627.3	0.2442	-0.059536	1.0022
1.478	128.46	-22428	2627.2	0.2441	-0.059536	1.0018
1.48	128.48	-22426	2627.1	0.244	-0.059536	1.0014
1.482	128.47	-22427	2627.1	0.2438	-0.058853	1.0011
1.484	128.47	-22431	2627	0.24361	-0.05817	1.0008
1.486	128.47	-22433	2626.9	0.24341	-0.057486	1.0005
1.488	128.47	-22432	2626.8	0.24322	-0.056803	1.0002
1.49	128.5	-22432	2626.7	0.24302	-0.05612	0.99991
1.492	128.51	-22432	2626.5	0.24078	-0.05651	0.99942
1.494	128.47	-22432	2626.4	0.23853	-0.056901	0.99894
1.496	128.47	-22433	2626.3	0.23629	-0.057291	0.99845
1.498	128.48	-22434	2626.1	0.23404	-0.057682	0.99796
1.5	128.49	-22436	2626	0.2318	-0.058072	0.99747
1.502	128.49	-22436	2625.9	0.23131	-0.057682	0.99669
1.504	128.46	-22434	2625.7	0.23082	-0.057291	0.99591
1.506	128.45	-22433	2625.5	0.23034	-0.056901	0.99513
1.508	128.45	-22433	2625.3	0.22985	-0.05651	0.99435
1.51	128.45	-22433	2625.1	0.22936	-0.05612	0.99357
1.512	128.51	-22434	2624.9	0.23043	-0.056998	0.99454
1.514	128.54	-22433	2624.7	0.23151	-0.057877	0.99552
1.516	128.53	-22432	2624.6	0.23258	-0.058755	0.9965
1.518	128.53	-22434	2624.5	0.23365	-0.059634	0.99747
1.52	128.54	-22439	2624.4	0.23473	-0.060512	0.99845
1.522	128.57	-22443	2624.2	0.23434	-0.060414	0.99806
1.524	128.57	-22448	2624	0.23395	-0.060317	0.99767
1.526	128.59	-22447	2623.9	0.23356	-0.060219	0.99728
1.528	128.61	-22441	2623.7	0.23317	-0.060122	0.99689
1.53	128.58	-22438	2623.6	0.23278	-0.060024	0.9965
1.532	128.54	-22439	2623.5	0.2317	-0.059926	0.9965
1.534	128.52	-22440	2623.4	0.23063	-0.059829	0.9965
1.536	128.52	-22440	2623.3	0.22956	-0.059731	0.9965
1.538	128.52	-22440	2623.1	0.22848	-0.059634	0.9965
1.54	128.54	-22440	2623	0.22741	-0.059536	0.9965
1.542	128.57	-22440	2622.9	0.2279	-0.059536	0.99572
1.544	128.56	-22440	2622.8	0.22838	-0.059536	0.99493
1.546	128.53	-22440	2622.7	0.22887	-0.059536	0.99415
1.548	128.53	-22441	2622.5	0.22936	-0.059536	0.99337
1.55	128.54	-22443	2622.4	0.22985	-0.059536	0.99259
1.552	128.55	-22446	2622.3	0.23034	-0.059634	0.99376
1.554	128.55	-22447	2622.2	0.23082	-0.059731	0.99493
1.556	128.56	-22446	2622.1	0.23131	-0.059829	0.99611
1.558	128.65	-22446	2622	0.2318	-0.059926	0.99728
1.56	128.59	-22447	2621.9	0.23229	-0.060024	0.99845
1.562	128.56	-22445	2621.8	0.23297	-0.061195	0.99679
1.564	128.58	-22441	2621.7	0.23365	-0.062366	0.99513
1.566	128.56	-22441	2621.6	0.23434	-0.063538	0.99347
1.568	128.53	-22445	2621.4	0.23502	-0.064709	0.99181
1.57	128.55	-22448	2621.3	0.2357	-0.06588	0.99015
1.572	128.54	-22450	2621.2	0.23678	-0.06549	0.99025
1.574	128.53	-22450	2621	0.23785	-0.065099	0.99035
1.576	128.58	-22449	2620.8	0.23892	-0.064709	0.99044
1.578	128.64	-22447	2620.6	0.24	-0.064318	0.99054
1.58	128.66	-22444	2620.5	0.24107	-0.063928	0.99064
1.582	128.65	-22445	2620.3	0.24029	-0.064806	0.99005
1.584	128.66	-22450	2620.1	0.23951	-0.065685	0.98947
1.586	128.67	-22454	2619.9	0.23873	-0.066563	0.98888
1.588	128.67	-22455	2619.7	0.23795	-0.067442	0.9883
1.59	128.64	-22458	2619.5	0.23717	-0.06832	0.98771
1.592	128.58	-22462	2619.3	0.23785	-0.067344	0.9882
1.594	128.5	-22464	2619.1	0.23853	-0.066368	0.98869
1.596	128.42	-22465	2618.9	0.23922	-0.065392	0.98918
1.598	128.35	-22464	2618.6	0.2399	-0.064416	0.98966
1.6	128.26	-22461	2618.4	0.24058	-0.06344	0.99015
1.602	128.18	-22461	2618.2	0.24039	-0.063733	0.98957
1.604	128.11	-22464	2618.1	0.24019	-0.064026	0.98898
1.606	127.96	-22465	2617.9	0.24	-0.064318	0.9884
1.608	127.79	-22464	2617.7	0.2398	-0.064611	0.98781
1.61	127.64	-22462	2617.5	0.23961	-0.064904	0.98722
1.612	127.53	-22459	2617.3	0.23863	-0.064123	0.98849
1.614	127.45	-22457	2617.2	0.23766	-0.063342	0.98976
1.616	127.4	-22458	2617	0.23668	-0.062562	0.99103
1.618	127.39	-22463	2616.9	0.2357	-0.061781	0.9923
1.62	127.44	-22471	2616.7	0.23473	-0.061	0.99357
1.622	127.58	-22474	2616.6	0.23375	-0.060707	0.99435
1.624	127.76	-22473	2616.5	0.23278	-0.060414	0.99513
1.626	127.91	-22473	2616.3	0.2318	-0.060122	0.99591
1.628	128.08	-22472	2616.2	0.23082	-0.059829	0.99669
1.63	128.25	-22473	2616	0.22985	-0.059536	0.99747
1.632	128.39	-22474	2615.8	0.23102	-0.059829	0.99796
1.634	128.49	-22473	2615.7	0.23219	-0.060122	0.99845
1.636	128.52	-22469	2615.5	0.23336	-0.060414	0.99894
1.638	128.5	-22467	2615.3	0.23453	-0.060707	0.99942
1.64	128.53	-22468	2615.1	0.2357	-0.061	0.99991
1.642	128.61	-22467	2614.9	0.2357	-0.061586	0.99972
1.644	128.63	-22466	2614.7	0.2357	-0.062171	0.99952
1.646	128.6	-22467	2614.5	0.2357	-0.062757	0.99933
1.648	128.59	-22471	2614.3	0.2357	-0.063342	0.99913
1.65	128.5	-22474	2614.1	0.2357	-0.063928	0.99894
1.652	128.4	-22476	2613.9	0.23434	-0.063538	0.99864
1.654	128.45	-22478	2613.7	0.23297	-0.063147	0.99835
1.656	128.5	-22479	2613.5	0.2316	-0.062757	0.99806
1.658	128.5	-22480	2613.3	0.23024	-0.062366	0.99776
1.66	128.48	-22482	2613.1	0.22887	-0.061976	0.99747
1.662	128.46	-22482	2612.9	0.22936	-0.06139	0.99747
1.664	128.5	-22479	2612.6	0.22985	-0.060805	0.99747
1.666	128.54	-22476	2612.4	0.23034	-0.060219	0.99747
1.668	128.53	-22475	2612.2	0.23082	-0.059634	0.99747
1.67	128.49	-22478	2612	0.23131	-0.059048	0.99747
1.672	128.48	-22485	2611.8	0.23121	-0.058365	0.99689
1.674	128.5	-22490	2611.6	0.23112	-0.057682	0.9963
1.676	128.49	-22494	2611.4	0.23102	-0.056998	0.99572
1.678	128.47	-22494	2611.3	0.23092	-0.056315	0.99513
1.68	128.47	-22491	2611.1	0.23082	-0.055632	0.99454
1.682	128.52	-22489	2610.9	0.23102	-0.056315	0.99493
1.684	128.54	-22486	2610.8	0.23121	-0.056998	0.99532
1.686	128.53	-22485	2610.6	0.23141	-0.057682	0.99572
1.688	128.51	-22484	2610.5	0.2316	-0.058365	0.99611
1.69	128.49	-22489	2610.3	0.2318	-0.059048	0.9965
1.692	128.45	-22500	2610.2	0.23229	-0.059634	0.9962
1.694	128.43	-22504	2610.1	0.23278	-0.060219	0.99591
1.696	128.45	-22499	2610	0.23326	-0.060805	0.99562
1.698	128.47	-22497	2609.9	0.23375	-0.06139	0.99532
1.7	128.47	-22498	2609.8	0.23424	-0.061976	0.99503
1.702	128.47	-22497	2609.6	0.23414	-0.062366	0.99542
1.704	128.48	-22495	2609.5	0.23404	-0.062757	0.99581
1.706	128.49	-22495	2609.4	0.23395	-0.063147	0.9962
1.708	128.47	-22497	2609.3	0.23385	-0.063538	0.99659
1.71	128.45	-22498	2609.1	0.23375	-0.063928	0.99698
1.712	128.46	-22499	2609	0.23453	-0.064221	0.99611
1.714	128.51	-22502	2608.8	0.23531	-0.064514	0.99523
1.716	128.55	-22507	2608.7	0.23609	-0.064806	0.99435
1.718	128.53	-22510	2608.6	0.23688	-0.065099	0.99347
1.72	128.5	-22511	2608.4	0.23766	-0.065392	0.99259
1.722	128.46	-22509	2608.3	0.23824	-0.065392	0.99191
1.724	128.44	-22505	2608.1	0.23883	-0.065392	0.99123
1.726	128.42	-22505	2608	0.23941	-0.065392	0.99054
1.728	128.43	-22509	2607.9	0.24	-0.065392	0.98986
1.73	128.48	-22510	2607.7	0.24058	-0.065392	0.98918
1.732	128.52	-22507	2607.7	0.23961	-0.064904	0.99005
1.734	128.46	-22505	2607.6	0.23863	-0.064416	0.99093
1.736	128.43	-22504	2607.5	0.23766	-0.063928	0.99181
1.738	128.44	-22508	2607.4	0.23668	-0.06344	0.99269
1.74	128.41	-22516	2607.3	0.2357	-0.062952	0.99357
1.742	128.41	-22518	2607.2	0.23463	-0.06139	0.99367
1.744	128.45	-22514	2607.1	0.23356	-0.059829	0.99376
1.746	128.46	-22514	2607	0.23248	-0.058267	0.99386
1.748	128.46	-22516	2606.9	0.23141	-0.056706	0.99396
1.75	128.46	-22519	2606.8	0.23034	-0.055144	0.99406
1.752	128.47	-22522	2606.7	0.23043	-0.05573	0.99445
1.754	128.45	-22523	2606.6	0.23053	-0.056315	0.99484
1.756	128.41	-22523	2606.5	0.23063	-0.056901	0.99523
1.758	128.39	-22524	2606.5	0.23073	-0.057486	0.99562
1.76	128.39	-22526	2606.5	0.23082	-0.058072	0.99601
1.762	128.4	-22526	2606.4	0.23141	-0.057779	0.99591
1.764	128.4	-22526	2606.4	0.232	-0.057486	0.99581
1.766	128.41	-22526	2606.3	0.23258	-0.057194	0.99572
1.768	128.4	-22525	2606.3	0.23317	-0.056901	0.99562
1.77	128.38	-22525	2606.3	0.23375	-0.056608	0.99552
1.772	128.41	-22525	2606.3	0.23346	-0.056803	0.99572
1.774	128.44	-22526	2606.3	0.23317	-0.056998	0.99591
1.776	128.43	-22528	2606.4	0.23287	-0.057194	0.99611
1.778	128.39	-22530	2606.5	0.23258	-0.057389	0.9963
1.78	128.37	-22531	2606.6	0.23229	-0.057584	0.9965
1.782	128.37	-22533	2606.9	0.23307	-0.05817	0.99767
1.784	128.37	-22537	2607.1	0.23385	-0.058755	0.99884
1.786	128.37	-22539	2607.4	0.23463	-0.059341	1
1.788	128.38	-22538	2607.6	0.23541	-0.059926	1.0012
1.79	128.38	-22538	2607.9	0.23619	-0.060512	1.0024
1.792	128.36	-22539	2608.3	0.23658	-0.060707	1.0015
1.794	128.35	-22539	2608.7	0.23697	-0.060902	1.0006
1.796	128.35	-22539	2609.2	0.23736	-0.061098	0.99972
1.798	128.39	-22539	2609.8	0.23775	-0.061293	0.99884
1.8	128.39	-22539	2610.3	0.23814	-0.061488	0.99796
1.802	128.37	-22539	2611.1	0.23697	-0.061488	0.99786
1.804	128.33	-22539	2611.8	0.2358	-0.061488	0.99776
1.806	128.31	-22541	2612.6	0.23463	-0.061488	0.99767
1.808	128.33	-22543	2613.3	0.23346	-0.061488	0.99757
1.81	128.32	-22545	2614.1	0.23229	-0.061488	0.99747
1.812	128.34	-22545	2614.8	0.2317	-0.060317	0.99689
1.814	128.37	-22546	2615.6	0.23112	-0.059146	0.9963
1.816	128.36	-22547	2616.4	0.23053	-0.057974	0.99572
1.818	128.34	-22546	2617.2	0.22995	-0.056803	0.99513
1.82	128.36	-22544	2618	0.22936	-0.055632	0.99454
1.822	128.34	-22542	2618.8	0.23053	-0.055534	0.99435
1.824	128.34	-22540	2619.6	0.2317	-0.055437	0.99415
1.826	128.32	-22540	2620.3	0.23287	-0.055339	0.99396
1.828	128.35	-22540	2621.1	0.23404	-0.055242	0.99376
1.83	128.37	-22540	2621.9	0.23522	-0.055144	0.99357
1.832	128.33	-22539	2622.6	0.23463	-0.054656	0.99367
1.834	128.3	-22538	2623.4	0.23404	-0.054168	0.99376
1.836	128.35	-22536	2624.1	0.23346	-0.05368	0.99386
1.838	128.35	-22536	2624.9	0.23287	-0.053192	0.99396
1.84	128.34	-22536	2625.6	0.23229	-0.052704	0.99406
1.842	128.35	-22538	2626.3	0.232	-0.053387	0.99493
1.844	128.32	-22542	2627	0.2317	-0.05407	0.99581
1.846	128.29	-22543	2627.7	0.23141	-0.054754	0.99669
1.848	128.32	-22543	2628.4	0.23112	-0.055437	0.99757
1.85	128.35	-22542	2629.1	0.23082	-0.05612	0.99845
1.852	128.37	-22541	2629.7	0.23346	-0.056413	0.99923
1.854	128.39	-22539	2630.3	0.23609	-0.056706	1
1.856	128.4	-22538	2630.9	0.23873	-0.056998	1.0008
1.858	128.41	-22534	2631.5	0.24136	-0.057291	1.0016
1.86	128.38	-22529	2632.1	0.244	-0.057584	1.0024
1.862	128.37	-22525	2632.5	0.24459	-0.057974	1.0026
1.864	128.39	-22524	2633	0.24517	-0.058365	1.0029
1.866	128.37	-22526	2633.4	0.24576	-0.058755	1.0032
1.868	128.34	-22530	2633.9	0.24634	-0.059146	1.0035
1.87	128.34	-22533	2634.3	0.24693	-0.059536	1.0038
1.872	128.36	-22534	2634.6	0.24673	-0.058853	1.0035
1.874	128.38	-22534	2635	0.24654	-0.05817	1.0032
1.876	128.41	-22533	2635.3	0.24634	-0.057486	1.0029
1.878	128.47	-22531	2635.6	0.24615	-0.056803	1.0026
1.88	128.47	-22528	2635.9	0.24595	-0.05612	1.0024
1.882	128.44	-22524	2636.2	0.24556	-0.056706	1.0024
1.884	128.44	-22520	2636.5	0.24517	-0.057291	1.0024
1.886	128.45	-22516	2636.7	0.24478	-0.057877	1.0024
1.888	128.46	-22512	2637	0.24439	-0.058462	1.0024
1.89	128.44	-22512	2637.2	0.244	-0.059048	1.0024
1.892	128.44	-22519	2637.4	0.24361	-0.058755	1.0018
1.894	128.47	-22520	2637.6	0.24322	-0.058462	1.0012
1.896	128.46	-22518	2637.8	0.24283	-0.05817	1.0006
1.898	128.49	-22513	2638	0.24244	-0.057877	1
1.9	128.52	-22506	2638.1	0.24205	-0.057584	0.99942
1.902	128.51	-22502	2638.2	0.24244	-0.057779	1
1.904	128.48	-22502	2638.3	0.24283	-0.057974	1.0006
1.906	128.46	-22504	2638.4	0.24322	-0.05817	1.0012
1.908	128.43	-22509	2638.6	0.24361	-0.058365	1.0018
1.91	128.41	-22512	2638.7	0.244	-0.05856	1.0024
1.912	128.48	-22514	2638.8	0.2441	-0.05856	1.0025
1.914	128.54	-22512	2638.9	0.2442	-0.05856	1.0027
1.916	128.51	-22508	2639	0.24429	-0.05856	1.0029
1.918	128.49	-22505	2639.1	0.24439	-0.05856	1.0031
1.92	128.51	-22506	2639.2	0.24449	-0.05856	1.0033
1.922	128.52	-22504	2639.2	0.244	-0.05895	1.0039
1.924	128.5	-22500	2639.2	0.24351	-0.059341	1.0045
1.926	128.48	-22497	2639.1	0.24302	-0.059731	1.0051
1.928	128.49	-22495	2639.2	0.24254	-0.060122	1.0057
1.93	128.51	-22494	2639.2	0.24205	-0.060512	1.0063
1.932	128.5	-22494	2639.2	0.24224	-0.060414	1.0063
1.934	128.46	-22493	2639.2	0.24244	-0.060317	1.0063
1.936	128.43	-22491	2639.2	0.24263	-0.060219	1.0063
1.938	128.45	-22490	2639.3	0.24283	-0.060122	1.0063
1.94	128.53	-22489	2639.3	0.24302	-0.060024	1.0063
1.942	128.55	-22489	2639.3	0.24283	-0.060414	1.0053
1.944	128.53	-22489	2639.2	0.24263	-0.060805	1.0043
1.946	128.53	-22491	2639.2	0.24244	-0.061195	1.0033
1.948	128.55	-22495	2639.1	0.24224	-0.061586	1.0024
1.95	128.54	-22493	2639.1	0.24205	-0.061976	1.0014
1.952	128.52	-22483	2639	0.24215	-0.061195	1.0017
1.954	128.48	-22478	2639	0.24224	-0.060414	1.002
1.956	128.45	-22477	2638.8	0.24234	-0.059634	1.0023
1.958	128.47	-22477	2638.7	0.24244	-0.058853	1.0025
1.96	128.52	-22479	2638.5	0.24254	-0.058072	1.0028
1.962	128.52	-22479	2638.3	0.24205	-0.058462	1.0023
1.964	128.5	-22476	2638.2	0.24156	-0.058853	1.0017
1.966	128.5	-22474	2638	0.24107	-0.059243	1.0011
1.968	128.51	-22471	2637.7	0.24058	-0.059634	1.0005
1.97	128.52	-22470	2637.5	0.2401	-0.060024	0.99991
1.972	128.49	-22470	2637.2	0.23785	-0.060317	0.99981
1.974	128.48	-22469	2637	0.23561	-0.06061	0.99972
1.976	128.51	-22466	2636.7	0.23336	-0.060902	0.99962
1.978	128.53	-22465	2636.3	0.23112	-0.061195	0.99952
1.98	128.54	-22465	2636	0.22887	-0.061488	0.99942
1.982	128.53	-22467	2635.7	0.22985	-0.061293	0.99942
1.984	128.5	-22472	2635.4	0.23082	-0.061098	0.99942
1.986	128.5	-22472	2635	0.2318	-0.060902	0.99942
1.988	128.47	-22469	2634.7	0.23278	-0.060707	0.99942
1.99	128.46	-22471	2634.4	0.23375	-0.060512	0.99942
1.992	128.43	-22478	2634.1	0.23336	-0.059731	0.99952
1.994	128.44	-22481	2633.8	0.23297	-0.05895	0.99962
1.996	128.47	-22481	2633.5	0.23258	-0.05817	0.99972
1.998	128.49	-22480	2633.2	0.23219	-0.057389	0.99981
2	128.47	-22477	2632.9	0.2318	-0.056608	0.99991
2.002	128.46	-22477	2632.7	0.23131	-0.056413	0.99942
2.004	128.47	-22479	2632.4	0.23082	-0.056218	0.99894
2.006	128.45	-22477	2632.2	0.23034	-0.056022	0.99845
2.008	128.5	-22470	2631.9	0.22985	-0.055827	0.99796
2.01	128.56	-22466	2631.6	0.22936	-0.055632	0.99747
2.012	128.54	-22465	2631.3	0.22965	-0.05573	0.99708
2.014	128.5	-22464	2631	0.22995	-0.055827	0.99669
2.016	128.47	-22464	2630.7	0.23024	-0.055925	0.9963
2.018	128.46	-22464	2630.4	0.23053	-0.056022	0.99591
2.02	128.47	-22463	2630.2	0.23082	-0.05612	0.99552
2.022	128.49	-22464	2629.9	0.23102	-0.055632	0.99484
2.024	128.49	-22466	2629.6	0.23121	-0.055144	0.99415
2.026	128.46	-22468	2629.3	0.23141	-0.054656	0.99347
2.028	128.44	-22468	2629	0.2316	-0.054168	0.99279
2.03	128.48	-22469	2628.8	0.2318	-0.05368	0.9921
2.032	128.51	-22471	2628.6	0.23307	-0.055339	0.99162
2.034	128.5	-22471	2628.4	0.23434	-0.056998	0.99113
2.036	128.52	-22468	2628.2	0.23561	-0.058658	0.99064
2.038	128.5	-22468	2628	0.23688	-0.060317	0.99015
2.04	128.48	-22468	2627.8	0.23814	-0.061976	0.98966
2.042	128.48	-22470	2627.7	0.23785	-0.06139	0.98976
2.044	128.48	-22474	2627.5	0.23756	-0.060805	0.98986
2.046	128.47	-22474	2627.4	0.23727	-0.060219	0.98996
2.048	128.48	-22468	2627.3	0.23697	-0.059634	0.99005
2.05	128.49	-22466	2627.1	0.23668	-0.059048	0.99015
2.052	128.49	-22467	2627	0.23609	-0.05895	0.99035
2.054	128.48	-22466	2626.9	0.23551	-0.058853	0.99054
2.056	128.48	-22461	2626.8	0.23492	-0.058755	0.99074
2.058	128.45	-22462	2626.7	0.23434	-0.058658	0.99093
2.06	128.44	-22467	2626.6	0.23375	-0.05856	0.99113
2.062	128.49	-22469	2626.5	0.23287	-0.058658	0.99152
2.064	128.5	-22466	2626.5	0.232	-0.058755	0.99191
2.066	128.51	-22466	2626.4	0.23112	-0.058853	0.9923
2.068	128.47	-22469	2626.4	0.23024	-0.05895	0.99269
2.07	128.44	-22471	2626.3	0.22936	-0.059048	0.99308
2.072	128.46	-22473	2626.3	0.23043	-0.059438	0.99386
2.074	128.5	-22474	2626.3	0.23151	-0.059829	0.99464
2.076	128.5	-22475	2626.2	0.23258	-0.060219	0.99542
2.078	128.51	-22475	2626.2	0.23365	-0.06061	0.9962
2.08	128.53	-22476	2626.1	0.23473	-0.061	0.99698
2.082	128.5	-22477	2626.1	0.23424	-0.060219	0.9964
2.084	128.49	-22478	2626.1	0.23375	-0.059438	0.99581
2.086	128.46	-22477	2626	0.23326	-0.058658	0.99523
2.088	128.46	-22473	2625.9	0.23278	-0.057877	0.99464
2.09	128.46	-22469	2625.9	0.23229	-0.057096	0.99406
2.092	128.46	-22466	2625.8	0.23434	-0.057877	0.99337
2.094	128.5	-22466	2625.7	0.23639	-0.058658	0.99269
2.096	128.5	-22469	2625.7	0.23844	-0.059438	0.99201
2.098	128.48	-22469	2625.6	0.24049	-0.060219	0.99132
2.1	128.48	-22465	2625.5	0.24254	-0.061	0.99064
2.102	128.5	-22466	2625.4	0.24058	-0.060902	0.99171
2.104	128.48	-22471	2625.4	0.23863	-0.060805	0.99279
2.106	128.47	-22474	2625.3	0.23668	-0.060707	0.99386
2.108	128.48	-22475	2625.2	0.23473	-0.06061	0.99493
2.11	128.46	-22475	2625.1	0.23278	-0.060512	0.99601
2.112	128.46	-22473	2625	0.23336	-0.060707	0.99552
2.114	128.48	-22473	2624.9	0.23395	-0.060902	0.99503
2.116	128.45	-22475	2624.8	0.23453	-0.061098	0.99454
2.118	128.43	-22475	2624.7	0.23512	-0.061293	0.99406
2.12	128.45	-22473	2624.6	0.2357	-0.061488	0.99357
2.122	128.46	-22473	2624.5	0.2358	-0.061878	0.99406
2.124	128.44	-22475	2624.4	0.2359	-0.062269	0.99454
2.126	128.43	-22477	2624.3	0.236	-0.062659	0.99503
2.128	128.44	-22480	2624.2	0.23609	-0.06305	0.99552
2.13	128.43	-22481	2624.1	0.23619	-0.06344	0.99601
2.132	128.41	-22480	2624	0.23668	-0.062659	0.9965
2.134	128.41	-22479	2623.9	0.23717	-0.061878	0.99698
2.136	128.4	-22478	2623.8	0.23766	-0.061098	0.99747
2.138	128.38	-22479	2623.7	0.23814	-0.060317	0.99796
2.14	128.39	-22482	2623.6	0.23863	-0.059536	0.99845
2.142	128.42	-22484	2623.5	0.23834	-0.059926	0.99806
2.144	128.45	-22484	2623.4	0.23805	-0.060317	0.99767
2.146	128.43	-22482	2623.3	0.23775	-0.060707	0.99728
2.148	128.42	-22478	2623.1	0.23746	-0.061098	0.99689
2.15	128.43	-22477	2623	0.23717	-0.061488	0.9965
2.152	128.45	-22478	2622.9	0.23756	-0.061488	0.99698
2.154	128.47	-22480	2622.8	0.23795	-0.061488	0.99747
2.156	128.4	-22481	2622.6	0.23834	-0.061488	0.99796
2.158	128.37	-22481	2622.5	0.23873	-0.061488	0.99845
2.16	128.42	-22479	2622.4	0.23912	-0.061488	0.99894
2.162	128.49	-22477	2622.2	0.23805	-0.061586	0.99874
2.164	128.42	-22476	2622	0.23697	-0.061683	0.99855
2.166	128.42	-22476	2621.9	0.2359	-0.061781	0.99835
2.168	128.45	-22476	2621.8	0.23483	-0.061878	0.99816
2.17	128.43	-22480	2621.6	0.23375	-0.061976	0.99796
2.172	128.44	-22488	2621.5	0.23444	-0.061976	0.99776
2.174	128.43	-22492	2621.4	0.23512	-0.061976	0.99757
2.176	128.41	-22493	2621.3	0.2358	-0.061976	0.99737
2.178	128.4	-22494	2621.1	0.23648	-0.061976	0.99718
2.18	128.43	-22494	2621	0.23717	-0.061976	0.99698
2.182	128.42	-22493	2620.9	0.23785	-0.062269	0.99757
2.184	128.43	-22492	2620.7	0.23853	-0.062562	0.99816
2.186	128.46	-22491	2620.6	0.23922	-0.062854	0.99874
2.188	128.47	-22490	2620.5	0.2399	-0.063147	0.99933
2.19	128.45	-22488	2620.3	0.24058	-0.06344	0.99991
2.192	128.39	-22487	2620.2	0.24029	-0.063342	1
2.194	128.41	-22488	2620.1	0.24	-0.063245	1.0001
2.196	128.46	-22490	2619.9	0.23971	-0.063147	1.0002
2.198	128.5	-22492	2619.8	0.23941	-0.06305	1.0003
2.2	128.5	-22494	2619.7	0.23912	-0.062952	1.0004
2.202	128.5	-22492	2619.7	0.23766	-0.062854	0.99952
2.204	128.51	-22486	2619.6	0.23619	-0.062757	0.99864
2.206	128.52	-22481	2619.5	0.23473	-0.062659	0.99776
2.208	128.54	-22478	2619.4	0.23326	-0.062562	0.99689
2.21	128.54	-22481	2619.3	0.2318	-0.062464	0.99601
2.212	128.53	-22489	2619.3	0.23414	-0.061683	0.99728
2.214	128.52	-22492	2619.2	0.23648	-0.060902	0.99855
2.216	128.5	-22488	2619.2	0.23883	-0.060122	0.99981
2.218	128.48	-22487	2619.1	0.24117	-0.059341	1.0011
2.22	128.49	-22488	2619	0.24351	-0.05856	1.0024
2.222	128.49	-22489	2618.9	0.24312	-0.058658	1.0024
2.224	128.49	-22492	2618.8	0.24273	-0.058755	1.0025
2.226	128.51	-22493	2618.7	0.24234	-0.058853	1.0026
2.228	128.53	-22491	2618.7	0.24195	-0.05895	1.0027
2.23	128.5	-22491	2618.6	0.24156	-0.059048	1.0028
2.232	128.48	-22494	2618.5	0.2398	-0.059634	1.0024
2.234	128.5	-22492	2618.5	0.23805	-0.060219	1.0021
2.236	128.53	-22485	2618.4	0.23629	-0.060805	1.0017
2.238	128.49	-22483	2618.3	0.23453	-0.06139	1.0013
2.24	128.46	-22487	2618.2	0.23278	-0.061976	1.0009
2.242	128.5	-22494	2618.1	0.23258	-0.061976	1.0004
2.244	128.52	-22503	2618.1	0.23239	-0.061976	0.99991
2.246	128.49	-22506	2618	0.23219	-0.061976	0.99942
2.248	128.47	-22503	2617.8	0.232	-0.061976	0.99894
2.25	128.49	-22503	2617.7	0.2318	-0.061976	0.99845
2.252	128.52	-22506	2617.6	0.23219	-0.062562	0.99786
2.254	128.52	-22505	2617.4	0.23258	-0.063147	0.99728
2.256	128.55	-22500	2617.3	0.23297	-0.063733	0.99669
2.258	128.55	-22497	2617.2	0.23336	-0.064318	0.99611
2.26	128.58	-22498	2617.1	0.23375	-0.064904	0.99552
2.262	128.6	-22500	2617	0.23365	-0.064514	0.99611
2.264	128.6	-22504	2616.8	0.23356	-0.064123	0.99669
2.266	128.6	-22508	2616.7	0.23346	-0.063733	0.99728
2.268	128.59	-22512	2616.7	0.23336	-0.063342	0.99786
2.27	128.59	-22514	2616.6	0.23326	-0.062952	0.99845
2.272	128.58	-22514	2616.4	0.23278	-0.061683	0.99776
2.274	128.5	-22514	2616.3	0.23229	-0.060414	0.99708
2.276	128.41	-22514	2616.2	0.2318	-0.059146	0.9964
2.278	128.31	-22514	2616	0.23131	-0.057877	0.99572
2.28	128.24	-22513	2615.9	0.23082	-0.056608	0.99503
2.282	128.14	-22513	2615.8	0.2319	-0.056998	0.9962
2.284	128.02	-22513	2615.6	0.23297	-0.057389	0.99737
2.286	127.89	-22514	2615.4	0.23404	-0.057779	0.99855
2.288	127.79	-22516	2615.2	0.23512	-0.05817	0.99972
2.29	127.69	-22517	2615	0.23619	-0.05856	1.0009
2.292	127.55	-22518	2614.8	0.23522	-0.05856	1.001
2.294	127.42	-22518	2614.7	0.23424	-0.05856	1.0011
2.296	127.37	-22518	2614.4	0.23326	-0.05856	1.0012
2.298	127.37	-22519	2614.2	0.23229	-0.05856	1.0013
2.3	127.43	-22521	2614	0.23131	-0.05856	1.0014
2.302	127.56	-22522	2613.8	0.23151	-0.05895	1.0005
2.304	127.73	-22522	2613.6	0.2317	-0.059341	0.99962
2.306	127.86	-22521	2613.4	0.2319	-0.059731	0.99874
2.308	128.02	-22519	2613.2	0.23209	-0.060122	0.99786
2.31	128.16	-22518	2613	0.23229	-0.060512	0.99698
2.312	128.3	-22518	2612.8	0.23209	-0.059731	0.99728
2.314	128.42	-22519	2612.6	0.2319	-0.05895	0.99757
2.316	128.48	-22519	2612.5	0.2317	-0.05817	0.99786
2.318	128.54	-22521	2612.3	0.23151	-0.057389	0.99816
2.32	128.58	-22525	2612.2	0.23131	-0.056608	0.99845
2.322	128.56	-22529	2612	0.2318	-0.057096	0.99767
2.324	128.52	-22533	2611.8	0.23229	-0.057584	0.99689
2.326	128.49	-22533	2611.6	0.23278	-0.058072	0.99611
2.328	128.46	-22529	2611.4	0.23326	-0.05856	0.99532
2.33	128.45	-22525	2611.3	0.23375	-0.059048	0.99454
2.332	128.46	-22523	2611.1	0.23336	-0.059731	0.99445
2.334	128.44	-22524	2611	0.23297	-0.060414	0.99435
2.336	128.43	-22529	2610.9	0.23258	-0.061098	0.99425
2.338	128.42	-22532	2610.8	0.23219	-0.061781	0.99415
2.34	128.42	-22533	2610.7	0.2318	-0.062464	0.99406
2.342	128.42	-22533	2610.5	0.232	-0.061683	0.99513
2.344	128.43	-22531	2610.4	0.23219	-0.060902	0.9962
2.346	128.46	-22532	2610.2	0.23239	-0.060122	0.99728
2.348	128.48	-22535	2610.1	0.23258	-0.059341	0.99835
2.35	128.46	-22537	2609.9	0.23278	-0.05856	0.99942
2.352	128.45	-22536	2609.8	0.23473	-0.059048	1.0001
2.354	128.45	-22535	2609.6	0.23668	-0.059536	1.0008
2.356	128.44	-22534	2609.5	0.23863	-0.060024	1.0015
2.358	128.47	-22533	2609.3	0.24058	-0.060512	1.0022
2.36	128.52	-22532	2609.1	0.24254	-0.061	1.0028
2.362	128.5	-22533	2608.9	0.24068	-0.060902	1.0016
2.364	128.44	-22537	2608.8	0.23883	-0.060805	1.0003
2.366	128.4	-22540	2608.6	0.23697	-0.060707	0.99903
2.368	128.4	-22544	2608.4	0.23512	-0.06061	0.99776
2.37	128.44	-22544	2608.2	0.23326	-0.060512	0.9965
2.372	128.45	-22541	2608	0.23287	-0.059926	0.99669
2.374	128.44	-22541	2607.8	0.23248	-0.059341	0.99689
2.376	128.45	-22545	2607.7	0.23209	-0.058755	0.99708
2.378	128.45	-22546	2607.6	0.2317	-0.05817	0.99728
2.38	128.44	-22543	2607.4	0.23131	-0.057584	0.99747
2.382	128.43	-22542	2607.3	0.2319	-0.058365	0.99737
2.384	128.42	-22542	2607.1	0.23248	-0.059146	0.99728
2.386	128.44	-22542	2607	0.23307	-0.059926	0.99718
2.388	128.46	-22542	2606.9	0.23365	-0.060707	0.99708
2.39	128.46	-22544	2606.8	0.23424	-0.061488	0.99698
2.392	128.43	-22548	2606.7	0.23404	-0.06061	0.99679
2.394	128.41	-22549	2606.6	0.23385	-0.059731	0.99659
2.396	128.4	-22549	2606.5	0.23365	-0.058853	0.9964
2.398	128.41	-22550	2606.4	0.23346	-0.057974	0.9962
2.4	128.43	-22553	2606.3	0.23326	-0.057096	0.99601
2.402	128.43	-22558	2606.2	0.23317	-0.057096	0.99601
2.404	128.4	-22564	2606.2	0.23307	-0.057096	0.99601
2.406	128.39	-22564	2606.1	0.23297	-0.057096	0.99601
2.408	128.39	-22560	2606.1	0.23287	-0.057096	0.99601
2.41	128.43	-22558	2606	0.23278	-0.057096	0.99601
2.412	128.4	-22559	2606	0.23258	-0.057584	0.99601
2.414	128.38	-22560	2605.9	0.23239	-0.058072	0.99601
2.416	128.39	-22561	2605.9	0.23219	-0.05856	0.99601
2.418	128.39	-22562	2605.9	0.232	-0.059048	0.99601
2.42	128.41	-22563	2605.9	0.2318	-0.059536	0.99601
2.422	128.43	-22561	2605.8	0.23297	-0.059634	0.99698
2.424	128.41	-22558	2605.8	0.23414	-0.059731	0.99796
2.426	128.42	-22559	2605.8	0.23531	-0.059829	0.99894
2.428	128.44	-22563	2605.7	0.23648	-0.059926	0.99991
2.43	128.4	-22564	2605.7	0.23766	-0.060024	1.0009
2.432	128.35	-22562	2605.6	0.23639	-0.059926	0.99981
2.434	128.3	-22563	2605.6	0.23512	-0.059829	0.99874
2.436	128.3	-22567	2605.5	0.23385	-0.059731	0.99767
2.438	128.36	-22571	2605.5	0.23258	-0.059634	0.99659
2.44	128.39	-22576	2605.4	0.23131	-0.059536	0.99552
2.442	128.4	-22578	2605.4	0.23209	-0.059341	0.99454
2.444	128.38	-22578	2605.4	0.23287	-0.059146	0.99357
2.446	128.35	-22577	2605.4	0.23365	-0.05895	0.99259
2.448	128.35	-22576	2605.4	0.23444	-0.058755	0.99162
2.45	128.35	-22575	2605.3	0.23522	-0.05856	0.99064
2.452	128.36	-22573	2605.4	0.2357	-0.058658	0.99103
2.454	128.37	-22571	2605.4	0.23619	-0.058755	0.99142
2.456	128.36	-22570	2605.5	0.23668	-0.058853	0.99181
2.458	128.33	-22571	2605.6	0.23717	-0.05895	0.9922
2.46	128.32	-22574	2605.7	0.23766	-0.059048	0.99259
2.462	128.34	-22580	2605.9	0.23805	-0.059438	0.99249
2.464	128.36	-22591	2606	0.23844	-0.059829	0.9924
2.466	128.36	-22596	2606.3	0.23883	-0.060219	0.9923
2.468	128.33	-22593	2606.7	0.23922	-0.06061	0.9922
2.47	128.31	-22592	2607	0.23961	-0.061	0.9921
2.472	128.34	-22591	2607.5	0.23961	-0.06061	0.9921
2.474	128.34	-22589	2608	0.23961	-0.060219	0.9921
2.476	128.32	-22586	2608.5	0.23961	-0.059829	0.9921
2.478	128.32	-22583	2609.1	0.23961	-0.059438	0.9921
2.48	128.32	-22581	2609.7	0.23961	-0.059048	0.9921
2.482	128.3	-22583	2610.5	0.23863	-0.059243	0.9922
2.484	128.28	-22588	2611.2	0.23766	-0.059438	0.9923
2.486	128.27	-22590	2611.9	0.23668	-0.059634	0.9924
2.488	128.29	-22587	2612.7	0.2357	-0.059829	0.99249
2.49	128.32	-22586	2613.5	0.23473	-0.060024	0.99259
2.492	128.3	-22587	2614.2	0.23414	-0.059536	0.99318
2.494	128.27	-22588	2614.9	0.23356	-0.059048	0.99376
2.496	128.25	-22591	2615.6	0.23297	-0.05856	0.99435
2.498	128.25	-22596	2616.4	0.23239	-0.058072	0.99493
2.5	128.31	-22602	2617.2	0.2318	-0.057584	0.99552
2.502	128.34	-22603	2617.9	0.2319	-0.057584	0.99591
2.504	128.32	-22601	2618.7	0.232	-0.057584	0.9963
2.506	128.31	-22601	2619.4	0.23209	-0.057584	0.99669
2.508	128.33	-22605	2620.2	0.23219	-0.057584	0.99708
2.51	128.28	-22604	2621	0.23229	-0.057584	0.99747
2.512	128.28	-22598	2621.7	0.2319	-0.057389	0.99698
2.514	128.3	-22595	2622.5	0.23151	-0.057194	0.9965
2.516	128.28	-22594	2623.2	0.23112	-0.056998	0.99601
2.518	128.26	-22591	2623.9	0.23073	-0.056803	0.99552
2.52	128.28	-22584	2624.7	0.23034	-0.056608	0.99503
2.522	128.29	-22582	2625.4	0.23112	-0.057584	0.99532
2.524	128.28	-22583	2626.1	0.2319	-0.05856	0.99562
2.526	128.3	-22583	2626.8	0.23268	-0.059536	0.99591
2.528	128.33	-22584	2627.5	0.23346	-0.060512	0.9962
2.53	128.31	-22584	2628.2	0.23424	-0.061488	0.9965
2.532	128.3	-22584	2628.9	0.23317	-0.06061	0.99601
2.534	128.32	-22585	2629.5	0.23209	-0.059731	0.99552
2.536	128.35	-22586	2630.2	0.23102	-0.058853	0.99503
2.538	128.36	-22586	2630.8	0.22995	-0.057974	0.99454
2.54	128.35	-22586	2631.5	0.22887	-0.057096	0.99406
2.542	128.33	-22585	2632	0.22916	-0.057096	0.99493
2.544	128.33	-22584	2632.5	0.22946	-0.057096	0.99581
2.546	128.33	-22581	2633	0.22975	-0.057096	0.99669
2.548	128.32	-22576	2633.4	0.23004	-0.057096	0.99757
2.55	128.35	-22579	2633.9	0.23034	-0.057096	0.99845
2.552	128.39	-22588	2634.3	0.23131	-0.058755	0.99806
2.554	128.37	-22590	2634.6	0.23229	-0.060414	0.99767
2.556	128.34	-22585	2635	0.23326	-0.062074	0.99728
2.558	128.36	-22584	2635.3	0.23424	-0.063733	0.99689
2.56	128.37	-22588	2635.6	0.23522	-0.065392	0.9965
2.562	128.36	-22588	2635.9	0.23678	-0.064221	0.99786
2.564	128.38	-22584	2636.1	0.23834	-0.06305	0.99923
2.566	128.41	-22582	2636.4	0.2399	-0.061878	1.0006
2.568	128.41	-22581	2636.6	0.24146	-0.060707	1.002
2.57	128.39	-22577	2636.8	0.24302	-0.059536	1.0033
2.572	128.39	-22570	2637	0.24322	-0.05895	1.0028
2.574	128.39	-22567	2637.1	0.24341	-0.058365	1.0024
2.576	128.43	-22567	2637.3	0.24361	-0.057779	1.0019
2.578	128.43	-22566	2637.4	0.2438	-0.057194	1.0014
2.58	128.4	-22565	2637.5	0.244	-0.056608	1.0009
2.582	128.43	-22563	2637.5	0.24351	-0.057486	1.0009
2.584	128.44	-22560	2637.6	0.24302	-0.058365	1.0009
2.586	128.42	-22558	2637.6	0.24254	-0.059243	1.0009
2.588	128.4	-22557	2637.6	0.24205	-0.060122	1.0009
2.59	128.4	-22556	2637.7	0.24156	-0.061	1.0009
2.592	128.43	-22554	2637.7	0.24146	-0.060707	1.0022
2.594	128.45	-22554	2637.7	0.24136	-0.060414	1.0034
2.596	128.47	-22555	2637.7	0.24127	-0.060122	1.0047
2.598	128.49	-22554	2637.8	0.24117	-0.059829	1.006
2.6	128.5	-22550	2637.8	0.24107	-0.059536	1.0072
2.602	128.47	-22549	2637.8	0.24068	-0.060414	1.0057
2.604	128.46	-22550	2637.9	0.24029	-0.061293	1.0041
2.606	128.47	-22549	2637.9	0.2399	-0.062171	1.0025
2.608	128.45	-22547	2637.9	0.23951	-0.06305	1.001
2.61	128.39	-22544	2637.9	0.23912	-0.063928	0.99942
2.612	128.41	-22538	2637.9	0.23941	-0.064611	0.99981
2.614	128.46	-22537	2637.9	0.23971	-0.065294	1.0002
2.616	128.47	-22542	2637.9	0.24	-0.065978	1.0006
2.618	128.45	-22543	2638	0.24029	-0.066661	1.001
2.62	128.45	-22541	2638.1	0.24058	-0.067344	1.0014
2.622	128.46	-22540	2638.1	0.24039	-0.067051	1.0011
2.624	128.45	-22540	2638.1	0.24019	-0.066758	1.0008
2.626	128.45	-22540	2638.1	0.24	-0.066466	1.0005
2.628	128.46	-22542	2638.1	0.2398	-0.066173	1.0002
2.63	128.45	-22542	2638.1	0.23961	-0.06588	0.99991
2.632	128.43	-22540	2638	0.23824	-0.065294	0.99972
2.634	128.4	-22539	2637.9	0.23688	-0.064709	0.99952
2.636	128.39	-22539	2637.8	0.23551	-0.064123	0.99933
2.638	128.44	-22536	2637.7	0.23414	-0.063538	0.99913
2.64	128.5	-22529	2637.7	0.23278	-0.062952	0.99894
2.642	128.51	-22523	2637.6	0.23219	-0.062854	0.99884
2.644	128.5	-22518	2637.5	0.2316	-0.062757	0.99874
2.646	128.47	-22516	2637.4	0.23102	-0.062659	0.99864
2.648	128.43	-22517	2637.2	0.23043	-0.062562	0.99855
2.65	128.44	-22518	2637	0.22985	-0.062464	0.99845
2.652	128.46	-22521	2636.8	0.23004	-0.062366	0.99825
2.654	128.47	-22519	2636.6	0.23024	-0.062269	0.99806
2.656	128.44	-22512	2636.4	0.23043	-0.062171	0.99786
2.658	128.44	-22509	2636.1	0.23063	-0.062074	0.99767
2.66	128.45	-22511	2635.8	0.23082	-0.061976	0.99747
2.662	128.44	-22515	2635.5	0.23043	-0.062074	0.99767
2.664	128.43	-22521	2635.1	0.23004	-0.062171	0.99786
2.666	128.45	-22523	2634.8	0.22965	-0.062269	0.99806
2.668	128.42	-22520	2634.5	0.22926	-0.062366	0.99825
2.67	128.44	-22518	2634.2	0.22887	-0.062464	0.99845
2.672	128.5	-22519	2633.9	0.22887	-0.062366	0.99855
2.674	128.44	-22520	2633.5	0.22887	-0.062269	0.99864
2.676	128.44	-22523	2633.2	0.22887	-0.062171	0.99874
2.678	128.46	-22522	2632.9	0.22887	-0.062074	0.99884
2.68	128.47	-22518	2632.6	0.22887	-0.061976	0.99894
2.682	128.44	-22517	2632.3	0.22936	-0.062171	0.99776
2.684	128.42	-22517	2632	0.22985	-0.062366	0.99659
2.686	128.42	-22515	2631.7	0.23034	-0.062562	0.99542
2.688	128.41	-22510	2631.3	0.23082	-0.062757	0.99425
2.69	128.39	-22506	2631	0.23131	-0.062952	0.99308
2.692	128.43	-22502	2630.7	0.23151	-0.062464	0.99347
2.694	128.45	-22503	2630.4	0.2317	-0.061976	0.99386
2.696	128.41	-22507	2630.1	0.2319	-0.061488	0.99425
2.698	128.4	-22509	2629.8	0.23209	-0.061	0.99464
2.7	128.42	-22509	2629.4	0.23229	-0.060512	0.99503
2.702	128.45	-22508	2629.1	0.2318	-0.059731	0.99474
2.704	128.44	-22507	2628.8	0.23131	-0.05895	0.99445
2.706	128.42	-22507	2628.5	0.23082	-0.05817	0.99415
2.708	128.43	-22509	2628.3	0.23034	-0.057389	0.99386
2.71	128.45	-22510	2628.1	0.22985	-0.056608	0.99357
2.712	128.45	-22509	2627.9	0.22926	-0.056901	0.99425
2.714	128.43	-22508	2627.7	0.22868	-0.057194	0.99493
2.716	128.41	-22507	2627.5	0.22809	-0.057486	0.99562
2.718	128.43	-22509	2627.3	0.22751	-0.057779	0.9963
2.72	128.45	-22512	2627.1	0.22692	-0.058072	0.99698
2.722	128.43	-22515	2627	0.2277	-0.057486	0.99601
2.724	128.42	-22516	2626.8	0.22848	-0.056901	0.99503
2.726	128.41	-22517	2626.7	0.22926	-0.056315	0.99406
2.728	128.4	-22517	2626.5	0.23004	-0.05573	0.99308
2.73	128.42	-22514	2626.4	0.23082	-0.055144	0.9921
2.732	128.45	-22506	2626.2	0.23073	-0.055827	0.99328
2.734	128.45	-22503	2626.1	0.23063	-0.05651	0.99445
2.736	128.45	-22504	2626	0.23053	-0.057194	0.99562
2.738	128.45	-22506	2625.9	0.23043	-0.057877	0.99679
2.74	128.44	-22510	2625.9	0.23034	-0.05856	0.99796
2.742	128.43	-22514	2625.8	0.22956	-0.058267	0.99757
2.744	128.42	-22517	2625.8	0.22877	-0.057974	0.99718
2.746	128.42	-22519	2625.7	0.22799	-0.057682	0.99679
2.748	128.41	-22519	2625.6	0.22721	-0.057389	0.9964
2.75	128.41	-22518	2625.5	0.22643	-0.057096	0.99601
2.752	128.46	-22518	2625.4	0.22672	-0.057194	0.9962
2.754	128.43	-22516	2625.4	0.22702	-0.057291	0.9964
2.756	128.4	-22514	2625.4	0.22731	-0.057389	0.99659
2.758	128.4	-22512	2625.3	0.2276	-0.057486	0.99679
2.76	128.41	-22511	2625.3	0.2279	-0.057584	0.99698
2.762	128.41	-22511	2625.3	0.22838	-0.057779	0.99728
2.764	128.42	-22512	2625.2	0.22887	-0.057974	0.99757
2.766	128.49	-22514	2625.2	0.22936	-0.05817	0.99786
2.768	128.51	-22518	2625.1	0.22985	-0.058365	0.99816
2.77	128.46	-22519	2625.1	0.23034	-0.05856	0.99845
2.772	128.41	-22518	2625	0.23121	-0.05856	0.99874
2.774	128.42	-22518	2624.9	0.23209	-0.05856	0.99903
2.776	128.46	-22517	2624.8	0.23297	-0.05856	0.99933
2.778	128.46	-22517	2624.8	0.23385	-0.05856	0.99962
2.78	128.42	-22517	2624.7	0.23473	-0.05856	0.99991
2.782	128.42	-22515	2624.6	0.23492	-0.059438	0.99962
2.784	128.45	-22512	2624.5	0.23512	-0.060317	0.99933
2.786	128.44	-22511	2624.4	0.23531	-0.061195	0.99903
2.788	128.46	-22510	2624.3	0.23551	-0.062074	0.99874
2.79	128.46	-22513	2624.2	0.2357	-0.062952	0.99845
2.792	128.44	-22520	2624	0.23473	-0.062366	0.99786
2.794	128.43	-22524	2623.9	0.23375	-0.061781	0.99728
2.796	128.43	-22525	2623.8	0.23278	-0.061195	0.99669
2.798	128.41	-22524	2623.7	0.2318	-0.06061	0.99611
2.8	128.39	-22523	2623.6	0.23082	-0.060024	0.99552
2.802	128.39	-22521	2623.5	0.23317	-0.059536	0.99689
2.804	128.39	-22521	2623.4	0.23551	-0.059048	0.99825
2.806	128.4	-22520	2623.3	0.23785	-0.05856	0.99962
2.808	128.41	-22521	2623.2	0.24019	-0.058072	1.001
2.81	128.4	-22522	2623.1	0.24254	-0.057584	1.0024
2.812	128.37	-22523	2623	0.24322	-0.057584	1.0024
2.814	128.37	-22523	2622.9	0.2439	-0.057584	1.0024
2.816	128.39	-22520	2622.8	0.24459	-0.057584	1.0024
2.818	128.38	-22518	2622.7	0.24527	-0.057584	1.0024
2.82	128.34	-22517	2622.7	0.24595	-0.057584	1.0024
2.822	128.32	-22518	2622.6	0.24507	-0.057974	1.0023
2.824	128.37	-22519	2622.5	0.2442	-0.058365	1.0022
2.826	128.4	-22520	2622.4	0.24332	-0.058755	1.0021
2.828	128.41	-22521	2622.4	0.24244	-0.059146	1.002
2.83	128.37	-22524	2622.3	0.24156	-0.059536	1.0019
2.832	128.35	-22528	2622.2	0.24039	-0.060707	1.001
2.834	128.36	-22529	2622.1	0.23922	-0.061878	1.0001
2.836	128.38	-22527	2622	0.23805	-0.06305	0.99923
2.838	128.38	-22525	2621.9	0.23688	-0.064221	0.99835
2.84	128.41	-22521	2621.8	0.2357	-0.065392	0.99747
2.842	128.42	-22521	2621.7	0.23668	-0.065002	0.99611
2.844	128.41	-22526	2621.6	0.23766	-0.064611	0.99474
2.846	128.42	-22531	2621.5	0.23863	-0.064221	0.99337
2.848	128.4	-22536	2621.5	0.23961	-0.06383	0.99201
2.85	128.37	-22536	2621.4	0.24058	-0.06344	0.99064
2.852	128.36	-22532	2621.3	0.24	-0.064318	0.99015
2.854	128.37	-22530	2621.2	0.23941	-0.065197	0.98966
2.856	128.36	-22529	2621.2	0.23883	-0.066075	0.98918
2.858	128.35	-22527	2621.1	0.23824	-0.066954	0.98869
2.86	128.34	-22525	2621.1	0.23766	-0.067832	0.9882
2.862	128.36	-22525	2621	0.23766	-0.067051	0.98986
2.864	128.42	-22525	2620.9	0.23766	-0.06627	0.99152
2.866	128.41	-22527	2620.8	0.23766	-0.06549	0.99318
2.868	128.38	-22529	2620.7	0.23766	-0.064709	0.99484
2.87	128.37	-22528	2620.6	0.23766	-0.063928	0.9965
2.872	128.41	-22523	2620.5	0.23746	-0.064318	0.99698
2.874	128.43	-22521	2620.4	0.23727	-0.064709	0.99747
2.876	128.44	-22522	2620.3	0.23707	-0.065099	0.99796
2.878	128.46	-22523	2620.1	0.23688	-0.06549	0.99845
2.88	128.46	-22525	2620	0.23668	-0.06588	0.99894
2.882	128.45	-22528	2619.9	0.23639	-0.065294	0.99884
2.884	128.45	-22531	2619.7	0.23609	-0.064709	0.99874
2.886	128.44	-22532	2619.6	0.2358	-0.064123	0.99864
2.888	128.43	-22532	2619.4	0.23551	-0.063538	0.99855
2.89	128.45	-22531	2619.2	0.23522	-0.062952	0.99845
2.892	128.46	-22530	2619	0.23473	-0.062562	0.99825
2.894	128.47	-22531	2618.8	0.23424	-0.062171	0.99806
2.896	128.48	-22532	2618.6	0.23375	-0.061781	0.99786
2.898	128.48	-22532	2618.5	0.23326	-0.06139	0.99767
2.9	128.49	-22532	2618.3	0.23278	-0.061	0.99747
2.902	128.48	-22534	2618.1	0.23229	-0.06061	0.99757
2.904	128.46	-22538	2618	0.2318	-0.060219	0.99767
2.906	128.45	-22540	2617.8	0.23131	-0.059829	0.99776
2.908	128.43	-22541	2617.5	0.23082	-0.059438	0.99786
2.91	128.45	-22540	2617.3	0.23034	-0.059048	0.99796
2.912	128.49	-22536	2617.2	0.23004	-0.059146	0.99776
2.914	128.51	-22539	2617	0.22975	-0.059243	0.99757
2.916	128.51	-22547	2616.8	0.22946	-0.059341	0.99737
2.918	128.53	-22548	2616.7	0.22916	-0.059438	0.99718
2.92	128.52	-22542	2616.5	0.22887	-0.059536	0.99698
2.922	128.43	-22541	2616.4	0.22926	-0.059926	0.99718
2.924	128.42	-22547	2616.2	0.22965	-0.060317	0.99737
2.926	128.46	-22547	2616.1	0.23004	-0.060707	0.99757
2.928	128.49	-22544	2616	0.23043	-0.061098	0.99776
2.93	128.48	-22542	2615.9	0.23082	-0.061488	0.99796
2.932	128.47	-22543	2615.7	0.23131	-0.06139	0.99864
2.934	128.48	-22543	2615.6	0.2318	-0.061293	0.99933
2.936	128.42	-22544	2615.5	0.23229	-0.061195	1
2.938	128.44	-22546	2615.4	0.23278	-0.061098	1.0007
2.94	128.51	-22549	2615.3	0.23326	-0.061	1.0014
2.942	128.53	-22550	2615.1	0.23317	-0.061488	1.0009
2.944	128.57	-22548	2615	0.23307	-0.061976	1.0004
2.946	128.57	-22550	2614.8	0.23297	-0.062464	0.99991
2.948	128.57	-22554	2614.7	0.23287	-0.062952	0.99942
2.95	128.54	-22558	2614.5	0.23278	-0.06344	0.99894
2.952	128.49	-22563	2614.4	0.23287	-0.062757	0.99933
2.954	128.45	-22562	2614.3	0.23297	-0.062074	0.99972
2.956	128.4	-22557	2614.1	0.23307	-0.06139	1.0001
2.958	128.33	-22554	2614	0.23317	-0.060707	1.0005
2.96	128.22	-22555	2613.9	0.23326	-0.060024	1.0009
2.962	128.12	-22556	2613.7	0.23297	-0.060122	1.0001
2.964	128.07	-22559	2613.5	0.23268	-0.060219	0.99933
2.966	127.97	-22561	2613.3	0.23239	-0.060317	0.99855
2.968	127.82	-22562	2613.2	0.23209	-0.060414	0.99776
2.97	127.66	-22561	2613	0.2318	-0.060512	0.99698
2.972	127.53	-22558	2612.9	0.2317	-0.060707	0.99747
2.974	127.4	-22556	2612.7	0.2316	-0.060902	0.99796
2.976	127.32	-22555	2612.6	0.23151	-0.061098	0.99845
2.978	127.3	-22556	2612.4	0.23141	-0.061293	0.99894
2.98	127.33	-22560	2612.2	0.23131	-0.061488	0.99942
2.982	127.43	-22561	2612.1	0.23121	-0.061195	0.99962
2.984	127.59	-22559	2611.9	0.23112	-0.060902	0.99981
2.986	127.79	-22557	2611.7	0.23102	-0.06061	1
2.988	127.95	-22556	2611.5	0.23092	-0.060317	1.0002
2.99	128.06	-22559	2611.4	0.23082	-0.060024	1.0004
2.992	128.19	-22566	2611.2	0.23151	-0.060219	1.0004
2.994	128.3	-22569	2611	0.23219	-0.060414	1.0004
2.996	128.4	-22570	2610.9	0.23287	-0.06061	1.0004
2.998	128.45	-22570	2610.7	0.23356	-0.060805	1.0004
3	128.47	-22569	2610.5	0.23424	-0.061	1.0004
3.002	128.51	-22570	2610.3	0.23326	-0.061	0.99952
3.004	128.55	-22571	2610.2	0.23229	-0.061	0.99864
3.006	128.49	-22572	2610.1	0.23131	-0.061	0.99776
3.008	128.45	-22572	2609.9	0.23034	-0.061	0.99689
3.01	128.42	-22571	2609.8	0.22936	-0.061	0.99601
3.012	128.39	-22569	2609.7	0.22887	-0.061293	0.99581
3.014	128.38	-22569	2609.5	0.22838	-0.061586	0.99562
3.016	128.38	-22571	2609.4	0.2279	-0.061878	0.99542
3.018	128.34	-22573	2609.3	0.22741	-0.062171	0.99523
3.02	128.37	-22574	2609.2	0.22692	-0.062464	0.99503
3.022	128.41	-22577	2609.1	0.22936	-0.063147	0.99347
3.024	128.38	-22580	2608.9	0.2318	-0.06383	0.99191
3.026	128.39	-22581	2608.7	0.23424	-0.064514	0.99035
3.028	128.41	-22578	2608.6	0.23668	-0.065197	0.98879
3.03	128.44	-22575	2608.4	0.23912	-0.06588	0.98722
3.032	128.43	-22571	2608.3	0.23941	-0.065782	0.98752
3.034	128.37	-22571	2608.1	0.23971	-0.065685	0.98781
3.036	128.36	-22573	2608	0.24	-0.065587	0.9881
3.038	128.38	-22574	2607.8	0.24029	-0.06549	0.9884
3.04	128.4	-22575	2607.6	0.24058	-0.065392	0.98869
3.042	128.42	-22575	2607.5	0.2398	-0.06549	0.98869
3.044	128.43	-22575	2607.3	0.23902	-0.065587	0.98869
3.046	128.41	-22580	2607.1	0.23824	-0.065685	0.98869
3.048	128.41	-22588	2606.9	0.23746	-0.065782	0.98869
3.05	128.41	-22592	2606.8	0.23668	-0.06588	0.98869
3.052	128.4	-22592	2606.6	0.23668	-0.066173	0.98781
3.054	128.36	-22589	2606.4	0.23668	-0.066466	0.98693
3.056	128.34	-22585	2606.3	0.23668	-0.066758	0.98605
3.058	128.36	-22586	2606.1	0.23668	-0.067051	0.98517
3.06	128.43	-22593	2606	0.23668	-0.067344	0.9843
3.062	128.45	-22596	2605.9	0.23746	-0.066466	0.98527
3.064	128.41	-22594	2605.8	0.23824	-0.065587	0.98625
3.066	128.41	-22594	2605.7	0.23902	-0.064709	0.98722
3.068	128.43	-22597	2605.5	0.2398	-0.06383	0.9882
3.07	128.43	-22599	2605.3	0.24058	-0.062952	0.98918
3.072	128.39	-22600	2605.1	0.2398	-0.063538	0.98976
3.074	128.35	-22601	2605	0.23902	-0.064123	0.99035
3.076	128.35	-22602	2604.8	0.23824	-0.064709	0.99093
3.078	128.37	-22602	2604.7	0.23746	-0.065294	0.99152
3.08	128.41	-22600	2604.5	0.23668	-0.06588	0.9921
3.082	128.4	-22599	2604.4	0.23756	-0.064416	0.9922
3.084	128.38	-22598	2604.2	0.23844	-0.062952	0.9923
3.086	128.34	-22600	2604.1	0.23932	-0.061488	0.9924
3.088	128.34	-22604	2604	0.24019	-0.060024	0.99249
3.09	128.38	-22604	2604	0.24107	-0.05856	0.99259
3.092	128.38	-22600	2603.9	0.24058	-0.059048	0.99318
3.094	128.36	-22600	2603.9	0.2401	-0.059536	0.99376
3.096	128.38	-22603	2603.9	0.23961	-0.060024	0.99435
3.098	128.37	-22604	2603.9	0.23912	-0.060512	0.99493
3.1	128.36	-22603	2603.8	0.23863	-0.061	0.99552
3.102	128.35	-22601	2603.8	0.23795	-0.061098	0.99532
3.104	128.33	-22600	2603.8	0.23727	-0.061195	0.99513
3.106	128.33	-22600	2603.7	0.23658	-0.061293	0.99493
3.108	128.37	-22602	2603.7	0.2359	-0.06139	0.99474
3.11	128.36	-22603	2603.6	0.23522	-0.061488	0.99454
3.112	128.34	-22602	2603.6	0.23502	-0.061195	0.99445
3.114	128.33	-22602	2603.5	0.23483	-0.060902	0.99435
3.116	128.31	-22603	2603.4	0.23463	-0.06061	0.99425
3.118	128.31	-22608	2603.4	0.23444	-0.060317	0.99415
3.12	128.34	-22617	2603.3	0.23424	-0.060024	0.99406
3.122	128.34	-22624	2603.2	0.23512	-0.061098	0.99328
3.124	128.32	-22628	2603.1	0.236	-0.062171	0.99249
3.126	128.32	-22630	2603.1	0.23688	-0.063245	0.99171
3.128	128.31	-22630	2603	0.23775	-0.064318	0.99093
3.13	128.32	-22631	2602.9	0.23863	-0.065392	0.99015
3.132	128.3	-22632	2602.9	0.23814	-0.065002	0.99054
3.134	128.29	-22632	2602.9	0.23766	-0.064611	0.99093
3.136	128.31	-22631	2602.9	0.23717	-0.064221	0.99132
3.138	128.32	-22627	2603	0.23668	-0.06383	0.99171
3.14	128.31	-22620	2603.1	0.23619	-0.06344	0.9921
3.142	128.29	-22616	2603.3	0.23483	-0.062269	0.99308
3.144	128.31	-22617	2603.5	0.23346	-0.061098	0.99406
3.146	128.36	-22621	2603.8	0.23209	-0.059926	0.99503
3.148	128.35	-22626	2604.3	0.23073	-0.058755	0.99601
3.15	128.3	-22629	2604.7	0.22936	-0.057584	0.99698
3.152	128.28	-22629	2605.2	0.23014	-0.057682	0.9964
3.154	128.27	-22629	2605.8	0.23092	-0.057779	0.99581
3.156	128.26	-22628	2606.4	0.2317	-0.057877	0.99523
3.158	128.25	-22628	2607.1	0.23248	-0.057974	0.99464
3.16	128.25	-22630	2607.9	0.23326	-0.058072	0.99406
3.162	128.22	-22629	2608.6	0.23278	-0.05817	0.99445
3.164	128.22	-22626	2609.4	0.23229	-0.058267	0.99484
3.166	128.26	-22625	2610.2	0.2318	-0.058365	0.99523
3.168	128.28	-22626	2611	0.23131	-0.058462	0.99562
3.17	128.27	-22628	2611.8	0.23082	-0.05856	0.99601
3.172	128.27	-22630	2612.6	0.23092	-0.057779	0.99523
3.174	128.29	-22634	2613.4	0.23102	-0.056998	0.99445
3.176	128.28	-22639	2614.2	0.23112	-0.056218	0.99367
3.178	128.25	-22642	2615	0.23121	-0.055437	0.99288
3.18	128.21	-22642	2615.8	0.23131	-0.054656	0.9921
3.182	128.21	-22640	2616.6	0.23063	-0.055339	0.99367
3.184	128.25	-22636	2617.4	0.22995	-0.056022	0.99523
3.186	128.24	-22634	2618.2	0.22926	-0.056706	0.99679
3.188	128.21	-22634	2619	0.22858	-0.057389	0.99835
3.19	128.27	-22633	2619.8	0.2279	-0.058072	0.99991
3.192	128.28	-22631	2620.5	0.22848	-0.057096	0.99835
3.194	128.25	-22630	2621.3	0.22907	-0.05612	0.99679
3.196	128.24	-22630	2622.1	0.22965	-0.055144	0.99523
3.198	128.29	-22631	2622.8	0.23024	-0.054168	0.99367
3.2	128.3	-22633	2623.5	0.23082	-0.053192	0.9921
3.202	128.26	-22634	2624.2	0.23278	-0.054949	0.99376
3.204	128.26	-22633	2624.9	0.23473	-0.056706	0.99542
3.206	128.29	-22631	2625.6	0.23668	-0.058462	0.99708
3.208	128.29	-22630	2626.2	0.23863	-0.060219	0.99874
3.21	128.3	-22627	2626.9	0.24058	-0.061976	1.0004
3.212	128.29	-22623	2627.5	0.23971	-0.062269	1.0005
3.214	128.29	-22621	2628.1	0.23883	-0.062562	1.0006
3.216	128.28	-22621	2628.7	0.23795	-0.062854	1.0007
3.218	128.27	-22622	2629.2	0.23707	-0.063147	1.0008
3.22	128.25	-22622	2629.8	0.23619	-0.06344	1.0009
3.222	128.27	-22623	2630.2	0.23531	-0.063245	1.0003
3.224	128.29	-22625	2630.7	0.23444	-0.06305	0.99972
3.226	128.29	-22625	2631.1	0.23356	-0.062854	0.99913
3.228	128.28	-22622	2631.5	0.23268	-0.062659	0.99855
3.23	128.28	-22618	2631.9	0.2318	-0.062464	0.99796
3.232	128.3	-22613	2632.2	0.23209	-0.063147	0.99776
3.234	128.34	-22609	2632.6	0.23239	-0.06383	0.99757
3.236	128.35	-22608	2632.9	0.23268	-0.064514	0.99737
3.238	128.34	-22607	2633.2	0.23297	-0.065197	0.99718
3.24	128.32	-22606	2633.5	0.23326	-0.06588	0.99698
3.242	128.34	-22605	2633.7	0.23297	-0.065002	0.99737
3.244	128.34	-22605	2633.9	0.23268	-0.064123	0.99776
3.246	128.35	-22604	2634.1	0.23239	-0.063245	0.99816
3.248	128.34	-22599	2634.3	0.23209	-0.062366	0.99855
3.25	128.31	-22598	2634.4	0.2318	-0.061488	0.99894
3.252	128.33	-22600	2634.6	0.2317	-0.06139	0.99942
3.254	128.34	-22600	2634.7	0.2316	-0.061293	0.99991
3.256	128.38	-22599	2634.9	0.23151	-0.061195	1.0004
3.258	128.4	-22599	2635	0.23141	-0.061098	1.0009
3.26	128.38	-22600	2635.2	0.23131	-0.061	1.0014
3.262	128.41	-22598	2635.3	0.23336	-0.06139	1.0016
3.264	128.41	-22593	2635.4	0.23541	-0.061781	1.0018
3.266	128.38	-22591	2635.5	0.23746	-0.062171	1.002
3.268	128.39	-22592	2635.7	0.23951	-0.062562	1.0022
3.27	128.41	-22591	2635.8	0.24156	-0.062952	1.0024
3.272	128.41	-22590	2635.9	0.24136	-0.063245	1.0024
3.274	128.41	-22588	2636.1	0.24117	-0.063538	1.0024
3.276	128.4	-22587	2636.2	0.24097	-0.06383	1.0024
3.278	128.41	-22587	2636.3	0.24078	-0.064123	1.0024
3.28	128.4	-22587	2636.4	0.24058	-0.064416	1.0024
3.282	128.35	-22585	2636.5	0.24019	-0.064806	1.0025
3.284	128.35	-22581	2636.5	0.2398	-0.065197	1.0027
3.286	128.36	-22580	2636.6	0.23941	-0.065587	1.0029
3.288	128.4	-22582	2636.6	0.23902	-0.065978	1.0031
3.29	128.42	-22581	2636.7	0.23863	-0.066368	1.0033
3.292	128.42	-22576	2636.7	0.23736	-0.065978	1.0025
3.294	128.4	-22573	2636.8	0.23609	-0.065587	1.0018
3.296	128.41	-22571	2636.8	0.23483	-0.065197	1.001
3.298	128.4	-22574	2636.9	0.23356	-0.064806	1.0002
3.3	128.39	-22579	2637	0.23229	-0.064416	0.99942
3.302	128.38	-22578	2637	0.23248	-0.065002	0.99913
3.304	128.37	-22571	2637	0.23268	-0.065587	0.99884
3.306	128.36	-22568	2637	0.23287	-0.066173	0.99855
3.308	128.37	-22569	2636.9	0.23307	-0.066758	0.99825
3.31	128.41	-22569	2636.9	0.23326	-0.067344	0.99796
3.312	128.42	-22568	2636.8	0.23336	-0.066466	0.99835
3.314	128.41	-22564	2636.6	0.23346	-0.065587	0.99874
3.316	128.42	-22558	2636.5	0.23356	-0.064709	0.99913
3.318	128.44	-22554	2636.4	0.23365	-0.06383	0.99952
3.32	128.44	-22552	2636.2	0.23375	-0.062952	0.99991
3.322	128.41	-22551	2636	0.23385	-0.062659	1.0005
3.324	128.38	-22550	2635.8	0.23395	-0.062366	1.0011
3.326	128.38	-22548	2635.6	0.23404	-0.062074	1.0017
3.328	128.38	-22547	2635.3	0.23414	-0.061781	1.0023
3.33	128.39	-22547	2635.1	0.23424	-0.061488	1.0028
3.332	128.41	-22549	2634.7	0.23346	-0.061293	1.002
3.334	128.39	-22550	2634.4	0.23268	-0.061098	1.0011
3.336	128.4	-22550	2634.1	0.2319	-0.060902	1.0002
3.338	128.46	-22547	2633.8	0.23112	-0.060707	0.99933
3.34	128.45	-22542	2633.5	0.23034	-0.060512	0.99845
3.342	128.43	-22540	2633.1	0.23073	-0.06061	0.99913
3.344	128.43	-22543	2632.7	0.23112	-0.060707	0.99981
3.346	128.41	-22543	2632.3	0.23151	-0.060805	1.0005
3.348	128.36	-22541	2632	0.2319	-0.060902	1.0012
3.35	128.36	-22540	2631.6	0.23229	-0.061	1.0019
3.352	128.38	-22541	2631.3	0.23141	-0.061683	1
3.354	128.4	-22541	2630.9	0.23053	-0.062366	0.99816
3.356	128.41	-22540	2630.6	0.22965	-0.06305	0.9963
3.358	128.42	-22541	2630.2	0.22877	-0.063733	0.99445
3.36	128.4	-22543	2629.9	0.2279	-0.064416	0.99259
3.362	128.35	-22544	2629.5	0.2278	-0.064318	0.99249
3.364	128.33	-22543	2629.2	0.2277	-0.064221	0.9924
3.366	128.35	-22542	2628.9	0.2276	-0.064123	0.9923
3.368	128.38	-22540	2628.5	0.22751	-0.064026	0.9922
3.37	128.4	-22536	2628.2	0.22741	-0.063928	0.9921
3.372	128.42	-22531	2627.9	0.22712	-0.063538	0.99269
3.374	128.41	-22530	2627.6	0.22682	-0.063147	0.99328
3.376	128.39	-22534	2627.3	0.22653	-0.062757	0.99386
3.378	128.39	-22535	2627	0.22624	-0.062366	0.99445
3.38	128.37	-22533	2626.8	0.22594	-0.061976	0.99503
3.382	128.34	-22534	2626.5	0.22594	-0.062757	0.99406
3.384	128.36	-22537	2626.3	0.22594	-0.063538	0.99308
3.386	128.38	-22536	2626.1	0.22594	-0.064318	0.9921
3.388	128.38	-22529	2625.9	0.22594	-0.065099	0.99113
3.39	128.37	-22525	2625.8	0.22594	-0.06588	0.99015
3.392	128.37	-22524	2625.6	0.22536	-0.064806	0.99142
3.394	128.4	-22525	2625.4	0.22477	-0.063733	0.99269
3.396	128.4	-22528	2625.3	0.22419	-0.062659	0.99396
3.398	128.39	-22531	2625.1	0.2236	-0.061586	0.99523
3.4	128.38	-22535	2625	0.22302	-0.060512	0.9965
3.402	128.37	-22536	2624.9	0.22409	-0.060414	0.9963
3.404	128.36	-22533	2624.7	0.22516	-0.060317	0.99611
3.406	128.37	-22533	2624.6	0.22624	-0.060219	0.99591
3.408	128.39	-22535	2624.5	0.22731	-0.060122	0.99572
3.41	128.4	-22537	2624.4	0.22838	-0.060024	0.99552
3.412	128.39	-22538	2624.3	0.22907	-0.060122	0.9962
3.414	128.39	-22537	2624.2	0.22975	-0.060219	0.99689
3.416	128.4	-22532	2624.1	0.23043	-0.060317	0.99757
3.418	128.42	-22528	2624	0.23112	-0.060414	0.99825
3.42	128.39	-22525	2623.9	0.2318	-0.060512	0.99894
3.422	128.38	-22525	2623.8	0.23151	-0.059731	0.99894
3.424	128.39	-22528	2623.8	0.23121	-0.05895	0.99894
3.426	128.39	-22529	2623.7	0.23092	-0.05817	0.99894
3.428	128.36	-22530	2623.7	0.23063	-0.057389	0.99894
3.43	128.33	-22531	2623.7	0.23034	-0.056608	0.99894
3.432	128.36	-22532	2623.6	0.23004	-0.056413	0.99845
3.434	128.39	-22537	2623.6	0.22975	-0.056218	0.99796
3.436	128.41	-22544	2623.6	0.22946	-0.056022	0.99747
3.438	128.37	-22546	2623.5	0.22916	-0.055827	0.99698
3.44	128.36	-22541	2623.5	0.22887	-0.055632	0.9965
3.442	128.4	-22536	2623.5	0.22946	-0.05612	0.99669
3.444	128.4	-22533	2623.4	0.23004	-0.056608	0.99689
3.446	128.38	-22531	2623.4	0.23063	-0.057096	0.99708
3.448	128.37	-22532	2623.4	0.23121	-0.057584	0.99728
3.45	128.36	-22531	2623.4	0.2318	-0.058072	0.99747
3.452	128.38	-22529	2623.3	0.2316	-0.057877	0.99679
3.454	128.36	-22531	2623.2	0.23141	-0.057682	0.99611
3.456	128.4	-22538	2623.1	0.23121	-0.057486	0.99542
3.458	128.38	-22538	2623	0.23102	-0.057291	0.99474
3.46	128.35	-22532	2623	0.23082	-0.057096	0.99406
3.462	128.38	-22531	2622.9	0.23063	-0.056998	0.99415
3.464	128.42	-22535	2622.8	0.23043	-0.056901	0.99425
3.466	128.39	-22538	2622.8	0.23024	-0.056803	0.99435
3.468	128.37	-22541	2622.7	0.23004	-0.056706	0.99445
3.47	128.4	-22542	2622.7	0.22985	-0.056608	0.99454
3.472	128.44	-22541	2622.7	0.22965	-0.057389	0.99454
3.474	128.43	-22538	2622.6	0.22946	-0.05817	0.99454
3.476	128.39	-22532	2622.6	0.22926	-0.05895	0.99454
3.478	128.37	-22532	2622.5	0.22907	-0.059731	0.99454
3.48	128.39	-22537	2622.5	0.22887	-0.060512	0.99454
3.482	128.37	-22538	2622.4	0.22907	-0.060317	0.99493
3.484	128.31	-22537	2622.3	0.22926	-0.060122	0.99532
3.486	128.31	-22535	2622.2	0.22946	-0.059926	0.99572
3.488	128.35	-22534	2622.2	0.22965	-0.059731	0.99611
3.49	128.33	-22534	2622.1	0.22985	-0.059536	0.9965
3.492	128.31	-22536	2622.1	0.22995	-0.059536	0.9962
3.494	128.31	-22537	2622	0.23004	-0.059536	0.99591
3.496	128.33	-22536	2621.9	0.23014	-0.059536	0.99562
3.498	128.32	-22536	2621.8	0.23024	-0.059536	0.99532
3.5	128.32	-22538	2621.8	0.23034	-0.059536	0.99503
3.502	128.32	-22541	2621.7	0.22995	-0.059438	0.99464
3.504	128.32	-22546	2621.6	0.22956	-0.059341	0.99425
3.506	128.37	-22547	2621.5	0.22916	-0.059243	0.99386
3.508	128.39	-22543	2621.4	0.22877	-0.059146	0.99347
3.51	128.36	-22540	2621.3	0.22838	-0.059048	0.99308
3.512	128.33	-22539	2621.1	0.22838	-0.058755	0.99445
3.514	128.33	-22541	2621	0.22838	-0.058462	0.99581
3.516	128.33	-22546	2620.9	0.22838	-0.05817	0.99718
3.518	128.29	-22548	2620.8	0.22838	-0.057877	0.99855
3.52	128.3	-22547	2620.6	0.22838	-0.057584	0.99991
3.522	128.3	-22543	2620.5	0.22946	-0.057974	1.0003
3.524	128.29	-22537	2620.3	0.23053	-0.058365	1.0007
3.526	128.28	-22536	2620.2	0.2316	-0.058755	1.0011
3.528	128.29	-22541	2620.1	0.23268	-0.059146	1.0015
3.53	128.37	-22540	2620	0.23375	-0.059536	1.0019
3.532	128.38	-22535	2619.9	0.23307	-0.059926	1.001
3.534	128.35	-22531	2619.7	0.23239	-0.060317	1.0001
3.536	128.32	-22531	2619.5	0.2317	-0.060707	0.99923
3.538	128.29	-22533	2619.4	0.23102	-0.061098	0.99835
3.54	128.3	-22540	2619.2	0.23034	-0.061488	0.99747
3.542	128.35	-22543	2619	0.23043	-0.061293	0.99796
3.544	128.36	-22542	2618.8	0.23053	-0.061098	0.99845
3.546	128.35	-22543	2618.6	0.23063	-0.060902	0.99894
3.548	128.34	-22545	2618.5	0.23073	-0.060707	0.99942
3.55	128.32	-22546	2618.4	0.23082	-0.060512	0.99991
3.552	128.34	-22547	2618.2	0.23014	-0.060414	0.99923
3.554	128.38	-22546	2618.1	0.22946	-0.060317	0.99855
3.556	128.39	-22545	2618	0.22877	-0.060219	0.99786
3.558	128.38	-22545	2617.8	0.22809	-0.060122	0.99718
3.56	128.38	-22545	2617.7	0.22741	-0.060024	0.9965
3.562	128.41	-22545	2617.5	0.22848	-0.060414	0.99718
3.564	128.44	-22545	2617.4	0.22956	-0.060805	0.99786
3.566	128.42	-22545	2617.2	0.23063	-0.061195	0.99855
3.568	128.39	-22546	2617.1	0.2317	-0.061586	0.99923
3.57	128.38	-22547	2617	0.23278	-0.061976	0.99991
3.572	128.41	-22548	2616.9	0.23278	-0.06139	0.99991
3.574	128.44	-22550	2616.8	0.23278	-0.060805	0.99991
3.576	128.45	-22552	2616.6	0.23278	-0.060219	0.99991
3.578	128.43	-22555	2616.4	0.23278	-0.059634	0.99991
3.58	128.42	-22558	2616.3	0.23278	-0.059048	0.99991
3.582	128.44	-22555	2616.1	0.23278	-0.059243	1.0005
3.584	128.46	-22546	2615.9	0.23278	-0.059438	1.0011
3.586	128.44	-22542	2615.8	0.23278	-0.059634	1.0017
3.588	128.42	-22544	2615.6	0.23278	-0.059829	1.0023
3.59	128.39	-22546	2615.4	0.23278	-0.060024	1.0028
3.592	128.36	-22549	2615.2	0.23248	-0.060512	1.0024
3.594	128.37	-22551	2615	0.23219	-0.061	1.0019
3.596	128.43	-22553	2614.9	0.2319	-0.061488	1.0014
3.598	128.46	-22557	2614.6	0.2316	-0.061976	1.0009
3.6	128.43	-22561	2614.4	0.23131	-0.062464	1.0004
3.602	128.42	-22563	2614.3	0.23131	-0.061976	1.0007
3.604	128.43	-22562	2614.1	0.23131	-0.061488	1.001
3.606	128.43	-22561	2614	0.23131	-0.061	1.0013
3.608	128.37	-22560	2613.8	0.23131	-0.060512	1.0016
3.61	128.3	-22560	2613.7	0.23131	-0.060024	1.0019
3.612	128.3	-22562	2613.5	0.23073	-0.060317	1.0006
3.614	128.44	-22561	2613.4	0.23014	-0.06061	0.99933
3.616	128.48	-22559	2613.3	0.22956	-0.060902	0.99806
3.618	128.46	-22559	2613.2	0.22897	-0.061195	0.99679
3.62	128.46	-22561	2613.1	0.22838	-0.061488	0.99552
3.622	128.48	-22563	2613	0.2279	-0.062562	0.99523
3.624	128.5	-22563	2612.9	0.22741	-0.063635	0.99493
3.626	128.49	-22563	2612.9	0.22692	-0.064709	0.99464
3.628	128.53	-22563	2612.7	0.22643	-0.065782	0.99435
3.63	128.54	-22565	2612.6	0.22594	-0.066856	0.99406
3.632	128.51	-22570	2612.6	0.22565	-0.066368	0.99425
3.634	128.46	-22571	2612.5	0.22536	-0.06588	0.99445
3.636	128.37	-22568	2612.4	0.22507	-0.065392	0.99464
3.638	128.29	-22567	2612.4	0.22477	-0.064904	0.99484
3.64	128.21	-22566	2612.3	0.22448	-0.064416	0.99503
3.642	128.1	-22567	2612.2	0.22575	-0.064026	0.99601
3.644	127.99	-22570	2612.1	0.22702	-0.063635	0.99698
3.646	127.89	-22571	2612	0.22829	-0.063245	0.99796
3.648	127.77	-22569	2611.9	0.22956	-0.062854	0.99894
3.65	127.65	-22566	2611.9	0.23082	-0.062464	0.99991
3.652	127.53	-22564	2611.7	0.23141	-0.06305	0.99933
3.654	127.43	-22562	2611.6	0.232	-0.063635	0.99874
3.656	127.34	-22561	2611.4	0.23258	-0.064221	0.99816
3.658	127.27	-22563	2611.3	0.23317	-0.064806	0.99757
3.66	127.26	-22568	2611.2	0.23375	-0.065392	0.99698
3.662	127.29	-22568	2611	0.23385	-0.065197	0.99698
3.664	127.41	-22563	2610.8	0.23395	-0.065002	0.99698
3.666	127.58	-22563	2610.6	0.23404	-0.064806	0.99698
3.668	127.77	-22568	2610.5	0.23414	-0.064611	0.99698
3.67	127.95	-22571	2610.3	0.23424	-0.064416	0.99698
3.672	128.11	-22571	2610.1	0.23346	-0.064221	0.99737
3.674	128.25	-22570	2609.9	0.23268	-0.064026	0.99776
3.676	128.29	-22569	2609.7	0.2319	-0.06383	0.99816
3.678	128.35	-22569	2609.5	0.23112	-0.063635	0.99855
3.68	128.4	-22571	2609.2	0.23034	-0.06344	0.99894
3.682	128.44	-22569	2609	0.23102	-0.062952	1
3.684	128.45	-22564	2608.7	0.2317	-0.062464	1.0011
3.686	128.43	-22568	2608.5	0.23239	-0.061976	1.0022
3.688	128.43	-22581	2608.3	0.23307	-0.061488	1.0032
3.69	128.4	-22590	2608	0.23375	-0.061	1.0043
3.692	128.34	-22593	2607.8	0.23307	-0.061293	1.0031
3.694	128.36	-22596	2607.6	0.23239	-0.061586	1.002
3.696	128.35	-22597	2607.5	0.2317	-0.061878	1.0008
3.698	128.31	-22598	2607.4	0.23102	-0.062171	0.99962
3.7	128.31	-22599	2607.2	0.23034	-0.062464	0.99845
3.702	128.28	-22599	2607.1	0.23024	-0.061781	0.99874
3.704	128.31	-22598	2607	0.23014	-0.061098	0.99903
3.706	128.33	-22599	2606.8	0.23004	-0.060414	0.99933
3.708	128.26	-22600	2606.7	0.22995	-0.059731	0.99962
3.71	128.32	-22596	2606.5	0.22985	-0.059048	0.99991
3.712	128.36	-22586	2606.5	0.22975	-0.058365	0.99933
3.714	128.36	-22581	2606.4	0.22965	-0.057682	0.99874
3.716	128.38	-22581	2606.4	0.22956	-0.056998	0.99816
3.718	128.39	-22583	2606.3	0.22946	-0.056315	0.99757
3.72	128.37	-22587	2606.2	0.22936	-0.055632	0.99698
3.722	128.36	-22590	2606.1	0.22965	-0.056706	0.99747
3.724	128.35	-22593	2606.1	0.22995	-0.057779	0.99796
3.726	128.33	-22595	2606	0.23024	-0.058853	0.99845
3.728	128.34	-22597	2605.8	0.23053	-0.059926	0.99894
3.73	128.36	-22598	2605.7	0.23082	-0.061	0.99942
3.732	128.38	-22598	2605.6	0.23014	-0.060902	0.99923
3.734	128.39	-22598	2605.5	0.22946	-0.060805	0.99903
3.736	128.38	-22599	2605.4	0.22877	-0.060707	0.99884
3.738	128.37	-22600	2605.3	0.22809	-0.06061	0.99864
3.74	128.33	-22602	2605.1	0.22741	-0.060512	0.99845
3.742	128.31	-22603	2605	0.22799	-0.061	0.99825
3.744	128.33	-22604	2604.9	0.22858	-0.061488	0.99806
3.746	128.32	-22603	2604.7	0.22916	-0.061976	0.99786
3.748	128.32	-22599	2604.6	0.22975	-0.062464	0.99767
3.75	128.34	-22599	2604.4	0.23034	-0.062952	0.99747
3.752	128.36	-22603	2604.3	0.23131	-0.063147	0.99776
3.754	128.39	-22607	2604.1	0.23229	-0.063342	0.99806
3.756	128.36	-22612	2603.9	0.23326	-0.063538	0.99835
3.758	128.31	-22613	2603.7	0.23424	-0.063733	0.99864
3.76	128.28	-22612	2603.6	0.23522	-0.063928	0.99894
3.762	128.26	-22612	2603.4	0.23346	-0.064318	0.99718
3.764	128.32	-22612	2603.2	0.2317	-0.064709	0.99542
3.766	128.38	-22610	2603.1	0.22995	-0.065099	0.99367
3.768	128.38	-22606	2603	0.22819	-0.06549	0.99191
3.77	128.33	-22611	2603	0.22643	-0.06588	0.99015
3.772	128.31	-22625	2602.9	0.22633	-0.065002	0.99123
3.774	128.33	-22630	2602.8	0.22624	-0.064123	0.9923
3.776	128.33	-22628	2602.7	0.22614	-0.063245	0.99337
3.778	128.26	-22622	2602.7	0.22604	-0.062366	0.99445
3.78	128.24	-22613	2602.7	0.22594	-0.061488	0.99552
3.782	128.26	-22612	2602.6	0.22643	-0.06139	0.99591
3.784	128.3	-22618	2602.6	0.22692	-0.061293	0.9963
3.786	128.34	-22621	2602.6	0.22741	-0.061195	0.99669
3.788	128.34	-22618	2602.6	0.2279	-0.061098	0.99708
3.79	128.29	-22617	2602.6	0.22838	-0.061	0.99747
3.792	128.28	-22617	2602.6	0.22799	-0.061195	0.99747
3.794	128.26	-22619	2602.6	0.2276	-0.06139	0.99747
3.796	128.3	-22624	2602.6	0.22721	-0.061586	0.99747
3.798	128.35	-22624	2602.6	0.22682	-0.061781	0.99747
3.8	128.36	-22620	2602.6	0.22643	-0.061976	0.99747
3.802	128.33	-22619	2602.7	0.22643	-0.062366	0.9965
3.804	128.27	-22621	2602.7	0.22643	-0.062757	0.99552
3.806	128.24	-22623	2602.7	0.22643	-0.063147	0.99454
3.808	128.24	-22624	2602.7	0.22643	-0.063538	0.99357
3.81	128.27	-22625	2602.7	0.22643	-0.063928	0.99259
3.812	128.26	-22626	2602.8	0.22633	-0.06383	0.9923
3.814	128.26	-22627	2602.8	0.22624	-0.063733	0.99201
3.816	128.28	-22628	2602.9	0.22614	-0.063635	0.99171
3.818	128.29	-22629	2603	0.22604	-0.063538	0.99142
3.82	128.29	-22630	2603.1	0.22594	-0.06344	0.99113
3.822	128.25	-22629	2603.3	0.22546	-0.063928	0.99142
3.824	128.22	-22629	2603.5	0.22497	-0.064416	0.99171
3.826	128.22	-22633	2603.7	0.22448	-0.064904	0.99201
3.828	128.25	-22642	2604.1	0.22399	-0.065392	0.9923
3.83	128.27	-22645	2604.4	0.2235	-0.06588	0.99259
3.832	128.24	-22644	2604.9	0.22409	-0.065294	0.99357
3.834	128.2	-22641	2605.4	0.22468	-0.064709	0.99454
3.836	128.2	-22636	2605.9	0.22526	-0.064123	0.99552
3.838	128.23	-22635	2606.5	0.22585	-0.063538	0.9965
3.84	128.23	-22636	2607.2	0.22643	-0.062952	0.99747
3.842	128.21	-22637	2607.9	0.22672	-0.062464	0.99796
3.844	128.19	-22636	2608.6	0.22702	-0.061976	0.99845
3.846	128.18	-22633	2609.3	0.22731	-0.061488	0.99894
3.848	128.18	-22630	2609.9	0.2276	-0.061	0.99942
3.85	128.2	-22631	2610.6	0.2279	-0.060512	0.99991
3.852	128.25	-22637	2611.4	0.2279	-0.060512	0.99942
3.854	128.23	-22640	2612.2	0.2279	-0.060512	0.99894
3.856	128.23	-22639	2612.9	0.2279	-0.060512	0.99845
3.858	128.23	-22641	2613.7	0.2279	-0.060512	0.99796
3.86	128.2	-22646	2614.4	0.2279	-0.060512	0.99747
3.862	128.18	-22645	2615.2	0.2277	-0.061488	0.99552
3.864	128.18	-22639	2616	0.22751	-0.062464	0.99357
3.866	128.2	-22636	2616.7	0.22731	-0.06344	0.99162
3.868	128.17	-22636	2617.5	0.22712	-0.064416	0.98966
3.87	128.18	-22636	2618.3	0.22692	-0.065392	0.98771
3.872	128.22	-22639	2619.1	0.22663	-0.065002	0.98927
3.874	128.22	-22638	2619.9	0.22633	-0.064611	0.99084
3.876	128.21	-22635	2620.6	0.22604	-0.064221	0.9924
3.878	128.21	-22635	2621.4	0.22575	-0.06383	0.99396
3.88	128.24	-22636	2622.1	0.22546	-0.06344	0.99552
3.882	128.22	-22636	2622.9	0.22594	-0.063635	0.99532
3.884	128.25	-22633	2623.6	0.22643	-0.06383	0.99513
3.886	128.26	-22632	2624.3	0.22692	-0.064026	0.99493
3.888	128.24	-22632	2624.9	0.22741	-0.064221	0.99474
3.89	128.22	-22632	2625.6	0.2279	-0.064416	0.99454
3.892	128.22	-22631	2626.2	0.2279	-0.063928	0.99493
3.894	128.21	-22629	2626.8	0.2279	-0.06344	0.99532
3.896	128.19	-22626	2627.4	0.2279	-0.062952	0.99572
3.898	128.19	-22626	2628	0.2279	-0.062464	0.99611
3.9	128.2	-22629	2628.5	0.2279	-0.061976	0.9965
3.902	128.25	-22630	2629	0.22829	-0.062366	0.99601
3.904	128.27	-22627	2629.6	0.22868	-0.062757	0.99552
3.906	128.26	-22625	2630	0.22907	-0.063147	0.99503
3.908	128.25	-22624	2630.4	0.22946	-0.063538	0.99454
3.91	128.24	-22622	2630.8	0.22985	-0.063928	0.99406
3.912	128.27	-22621	2631.1	0.23024	-0.064221	0.99454
3.914	128.3	-22619	2631.5	0.23063	-0.064514	0.99503
3.916	128.3	-22618	2631.8	0.23102	-0.064806	0.99552
3.918	128.28	-22617	2632.1	0.23141	-0.065099	0.99601
3.92	128.29	-22617	2632.3	0.2318	-0.065392	0.9965
3.922	128.29	-22615	2632.6	0.23082	-0.065197	0.99708
3.924	128.26	-22613	2632.8	0.22985	-0.065002	0.99767
3.926	128.24	-22611	2633	0.22887	-0.064806	0.99825
3.928	128.27	-22610	2633.2	0.2279	-0.064611	0.99884
3.93	128.31	-22608	2633.4	0.22692	-0.064416	0.99942
3.932	128.34	-22603	2633.6	0.22663	-0.065197	0.99884
3.934	128.32	-22603	2633.7	0.22633	-0.065978	0.99825
3.936	128.31	-22606	2633.9	0.22604	-0.066758	0.99767
3.938	128.3	-22604	2634	0.22575	-0.067539	0.99708
3.94	128.29	-22597	2634.1	0.22546	-0.06832	0.9965
3.942	128.32	-22593	2634.3	0.22536	-0.069296	0.99708
3.944	128.32	-22592	2634.4	0.22526	-0.070272	0.99767
3.946	128.31	-22590	2634.6	0.22516	-0.071248	0.99825
3.948	128.33	-22589	2634.7	0.22507	-0.072224	0.99884
3.95	128.36	-22588	2634.9	0.22497	-0.0732	0.99942
3.952	128.36	-22589	2635	0.22575	-0.071834	0.99874
3.954	128.37	-22588	2635.1	0.22653	-0.070467	0.99806
3.956	128.37	-22585	2635.2	0.22731	-0.069101	0.99737
3.958	128.34	-22585	2635.3	0.22809	-0.067734	0.99669
3.96	128.35	-22588	2635.4	0.22887	-0.066368	0.99601
3.962	128.33	-22590	2635.4	0.22848	-0.066563	0.99552
3.964	128.31	-22592	2635.5	0.22809	-0.066758	0.99503
3.966	128.32	-22590	2635.6	0.2277	-0.066954	0.99454
3.968	128.36	-22587	2635.6	0.22731	-0.067149	0.99406
3.97	128.4	-22580	2635.6	0.22692	-0.067344	0.99357
3.972	128.36	-22571	2635.6	0.22672	-0.067246	0.99376
3.974	128.32	-22566	2635.6	0.22653	-0.067149	0.99396
3.976	128.32	-22564	2635.6	0.22633	-0.067051	0.99415
3.978	128.35	-22564	2635.6	0.22614	-0.066954	0.99435
3.98	128.38	-22566	2635.6	0.22594	-0.066856	0.99454
3.982	128.37	-22569	2635.6	0.22604	-0.066954	0.99406
3.984	128.36	-22574	2635.5	0.22614	-0.067051	0.99357
3.986	128.36	-22573	2635.5	0.22624	-0.067149	0.99308
3.988	128.37	-22567	2635.4	0.22633	-0.067246	0.99259
3.99	128.39	-22564	2635.3	0.22643	-0.067344	0.9921
3.992	128.4	-22564	2635.2	0.22633	-0.068222	0.99181
3.994	128.39	-22563	2635.1	0.22624	-0.069101	0.99152
3.996	128.37	-22561	2635	0.22614	-0.069979	0.99123
3.998	128.37	-22559	2634.8	0.22604	-0.070858	0.99093
4	128.38	-22557	2634.7	0.22594	-0.071736	0.99064
4.002	128.39	-22556	2634.4	0.22633	-0.070565	0.99035
4.004	128.39	-22554	2634.2	0.22672	-0.069394	0.99005
4.006	128.39	-22553	2633.9	0.22712	-0.068222	0.98976
4.008	128.38	-22552	2633.7	0.22751	-0.067051	0.98947
4.01	128.35	-22550	2633.5	0.2279	-0.06588	0.98918
4.012	128.35	-22549	2633.2	0.22819	-0.065587	0.98947
4.014	128.34	-22549	2633	0.22848	-0.065294	0.98976
4.016	128.33	-22552	2632.7	0.22877	-0.065002	0.99005
4.018	128.33	-22553	2632.3	0.22907	-0.064709	0.99035
4.02	128.32	-22551	2632	0.22936	-0.064416	0.99064
4.022	128.34	-22548	2631.6	0.22926	-0.064611	0.99064
4.024	128.4	-22544	2631.1	0.22916	-0.064806	0.99064
4.026	128.37	-22543	2630.8	0.22907	-0.065002	0.99064
4.028	128.32	-22545	2630.4	0.22897	-0.065197	0.99064
4.03	128.31	-22546	2630	0.22887	-0.065392	0.99064
4.032	128.31	-22546	2629.7	0.2279	-0.065392	0.99123
4.034	128.33	-22546	2629.3	0.22692	-0.065392	0.99181
4.036	128.36	-22546	2628.9	0.22594	-0.065392	0.9924
4.038	128.34	-22546	2628.6	0.22497	-0.065392	0.99298
4.04	128.36	-22546	2628.3	0.22399	-0.065392	0.99357
4.042	128.37	-22545	2627.9	0.22448	-0.065099	0.99425
4.044	128.37	-22544	2627.6	0.22497	-0.064806	0.99493
4.046	128.34	-22542	2627.3	0.22546	-0.064514	0.99562
4.048	128.36	-22539	2627	0.22594	-0.064221	0.9963
4.05	128.32	-22538	2626.7	0.22643	-0.063928	0.99698
4.052	128.29	-22539	2626.3	0.22682	-0.063733	0.9962
4.054	128.35	-22538	2626	0.22721	-0.063538	0.99542
4.056	128.41	-22538	2625.6	0.2276	-0.063342	0.99464
4.058	128.38	-22538	2625.3	0.22799	-0.063147	0.99386
4.06	128.36	-22538	2625	0.22838	-0.062952	0.99308
4.062	128.37	-22539	2624.6	0.22887	-0.06344	0.99259
4.064	128.39	-22542	2624.3	0.22936	-0.063928	0.9921
4.066	128.38	-22541	2624	0.22985	-0.064416	0.99162
4.068	128.36	-22538	2623.7	0.23034	-0.064904	0.99113
4.07	128.34	-22536	2623.5	0.23082	-0.065392	0.99064
4.072	128.31	-22535	2623.2	0.22907	-0.065392	0.99113
4.074	128.29	-22535	2623	0.22731	-0.065392	0.99162
4.076	128.31	-22538	2622.7	0.22555	-0.065392	0.9921
4.078	128.34	-22539	2622.5	0.2238	-0.065392	0.99259
4.08	128.37	-22538	2622.3	0.22204	-0.065392	0.99308
4.082	128.38	-22537	2622.1	0.22233	-0.065782	0.99347
4.084	128.38	-22537	2621.9	0.22263	-0.066173	0.99386
4.086	128.35	-22538	2621.7	0.22292	-0.066563	0.99425
4.088	128.32	-22541	2621.6	0.22321	-0.066954	0.99464
4.09	128.32	-22540	2621.4	0.2235	-0.067344	0.99503
4.092	128.31	-22536	2621.3	0.22458	-0.06627	0.99532
4.094	128.31	-22534	2621.2	0.22565	-0.065197	0.99562
4.096	128.34	-22533	2621.1	0.22672	-0.064123	0.99591
4.098	128.35	-22533	2621	0.2278	-0.06305	0.9962
4.1	128.35	-22535	2620.9	0.22887	-0.061976	0.9965
4.102	128.32	-22536	2620.8	0.22848	-0.061488	0.99689
4.104	128.3	-22536	2620.8	0.22809	-0.061	0.99728
4.106	128.33	-22535	2620.7	0.2277	-0.060512	0.99767
4.108	128.38	-22535	2620.6	0.22731	-0.060024	0.99806
4.11	128.39	-22536	2620.5	0.22692	-0.059536	0.99845
4.112	128.36	-22538	2620.5	0.22799	-0.060219	0.99884
4.114	128.34	-22540	2620.4	0.22907	-0.060902	0.99923
4.116	128.34	-22543	2620.3	0.23014	-0.061586	0.99962
4.118	128.33	-22542	2620.3	0.23121	-0.062269	1
4.12	128.29	-22538	2620.2	0.23229	-0.062952	1.0004
4.122	128.34	-22538	2620.1	0.23258	-0.062952	1.0002
4.124	128.37	-22542	2620.1	0.23287	-0.062952	1
4.126	128.37	-22542	2620	0.23317	-0.062952	0.99981
4.128	128.37	-22538	2619.9	0.23346	-0.062952	0.99962
4.13	128.32	-22537	2619.8	0.23375	-0.062952	0.99942
4.132	128.37	-22540	2619.8	0.23424	-0.06305	0.99962
4.134	128.36	-22540	2619.8	0.23473	-0.063147	0.99981
4.136	128.35	-22536	2619.7	0.23522	-0.063245	1
4.138	128.36	-22534	2619.6	0.2357	-0.063342	1.0002
4.14	128.35	-22533	2619.5	0.23619	-0.06344	1.0004
4.142	128.32	-22534	2619.3	0.23512	-0.062562	1.0002
4.144	128.33	-22535	2619.2	0.23404	-0.061683	1
4.146	128.34	-22536	2619	0.23297	-0.060805	0.99981
4.148	128.33	-22536	2618.9	0.2319	-0.059926	0.99962
4.15	128.34	-22534	2618.7	0.23082	-0.059048	0.99942
4.152	128.36	-22531	2618.6	0.2319	-0.060512	0.99835
4.154	128.34	-22531	2618.5	0.23297	-0.061976	0.99728
4.156	128.29	-22535	2618.4	0.23404	-0.06344	0.9962
4.158	128.28	-22537	2618.2	0.23512	-0.064904	0.99513
4.16	128.29	-22537	2618.1	0.23619	-0.066368	0.99406
4.162	128.31	-22537	2618	0.23541	-0.065587	0.99513
4.164	128.33	-22538	2617.9	0.23463	-0.064806	0.9962
4.166	128.29	-22540	2617.7	0.23385	-0.064026	0.99728
4.168	128.26	-22541	2617.6	0.23307	-0.063245	0.99835
4.17	128.27	-22542	2617.5	0.23229	-0.062464	0.99942
4.172	128.29	-22542	2617.4	0.23248	-0.063147	0.99894
4.174	128.29	-22541	2617.3	0.23268	-0.06383	0.99845
4.176	128.3	-22538	2617.2	0.23287	-0.064514	0.99796
4.178	128.3	-22539	2617	0.23307	-0.065197	0.99747
4.18	128.29	-22546	2616.9	0.23326	-0.06588	0.99698
4.182	128.27	-22548	2616.8	0.23434	-0.065782	0.99767
4.184	128.25	-22545	2616.7	0.23541	-0.065685	0.99835
4.186	128.28	-22544	2616.6	0.23648	-0.065587	0.99903
4.188	128.32	-22545	2616.5	0.23756	-0.06549	0.99972
4.19	128.34	-22548	2616.4	0.23863	-0.065392	1.0004
4.192	128.33	-22552	2616.2	0.23844	-0.06588	0.99894
4.194	128.28	-22555	2616.1	0.23824	-0.066368	0.99747
4.196	128.26	-22557	2615.9	0.23805	-0.066856	0.99601
4.198	128.28	-22555	2615.8	0.23785	-0.067344	0.99454
4.2	128.3	-22550	2615.6	0.23766	-0.067832	0.99308
4.202	128.3	-22547	2615.4	0.23736	-0.066856	0.99425
4.204	128.3	-22547	2615.3	0.23707	-0.06588	0.99542
4.206	128.3	-22549	2615.1	0.23678	-0.064904	0.99659
4.208	128.34	-22553	2614.9	0.23648	-0.063928	0.99776
4.21	128.31	-22554	2614.7	0.23619	-0.062952	0.99894
4.212	128.25	-22552	2614.5	0.2357	-0.06305	0.99933
4.214	128.25	-22548	2614.3	0.23522	-0.063147	0.99972
4.216	128.24	-22543	2614.1	0.23473	-0.063245	1.0001
4.218	128.26	-22542	2613.9	0.23424	-0.063342	1.0005
4.22	128.26	-22547	2613.7	0.23375	-0.06344	1.0009
4.222	128.3	-22549	2613.5	0.23297	-0.062757	1.0011
4.224	128.32	-22548	2613.3	0.23219	-0.062074	1.0013
4.226	128.33	-22546	2613	0.23141	-0.06139	1.0015
4.228	128.34	-22541	2612.8	0.23063	-0.060707	1.0017
4.23	128.34	-22538	2612.6	0.22985	-0.060024	1.0019
4.232	128.34	-22539	2612.4	0.23014	-0.060219	1.0014
4.234	128.38	-22538	2612.1	0.23043	-0.060414	1.0009
4.236	128.38	-22537	2611.9	0.23073	-0.06061	1.0004
4.238	128.35	-22536	2611.7	0.23102	-0.060805	0.99991
4.24	128.35	-22535	2611.5	0.23131	-0.061	0.99942
4.242	128.37	-22536	2611.3	0.23004	-0.062366	0.99796
4.244	128.38	-22538	2611.1	0.22877	-0.063733	0.9965
4.246	128.38	-22548	2610.9	0.22751	-0.065099	0.99503
4.248	128.39	-22564	2610.7	0.22624	-0.066466	0.99357
4.25	128.38	-22568	2610.5	0.22497	-0.067832	0.9921
4.252	128.38	-22560	2610.4	0.22536	-0.066954	0.9921
4.254	128.39	-22555	2610.3	0.22575	-0.066075	0.9921
4.256	128.39	-22553	2610.1	0.22614	-0.065197	0.9921
4.258	128.37	-22552	2609.9	0.22653	-0.064318	0.9921
4.26	128.35	-22551	2609.7	0.22692	-0.06344	0.9921
4.262	128.37	-22554	2609.6	0.22594	-0.064611	0.99249
4.264	128.42	-22559	2609.4	0.22497	-0.065782	0.99288
4.266	128.44	-22561	2609.3	0.22399	-0.066954	0.99328
4.268	128.4	-22560	2609.2	0.22302	-0.068125	0.99367
4.27	128.34	-22557	2609.1	0.22204	-0.069296	0.99406
4.272	128.33	-22554	2609	0.22389	-0.068125	0.99396
4.274	128.36	-22553	2608.8	0.22575	-0.066954	0.99386
4.276	128.38	-22553	2608.7	0.2276	-0.065782	0.99376
4.278	128.36	-22554	2608.6	0.22946	-0.064611	0.99367
4.28	128.34	-22557	2608.5	0.23131	-0.06344	0.99357
4.282	128.35	-22558	2608.4	0.23004	-0.063538	0.99445
4.284	128.37	-22556	2608.3	0.22877	-0.063635	0.99532
4.286	128.42	-22557	2608.2	0.22751	-0.063733	0.9962
4.288	128.38	-22562	2608.1	0.22624	-0.06383	0.99708
4.29	128.35	-22563	2607.9	0.22497	-0.063928	0.99796
4.292	128.37	-22562	2607.8	0.22419	-0.064611	0.99728
4.294	128.42	-22564	2607.6	0.22341	-0.065294	0.99659
4.296	128.46	-22569	2607.5	0.22263	-0.065978	0.99591
4.298	128.42	-22569	2607.3	0.22184	-0.066661	0.99523
4.3	128.41	-22565	2607.1	0.22106	-0.067344	0.99454
4.302	128.43	-22562	2606.9	0.22136	-0.067442	0.99415
4.304	128.45	-22561	2606.6	0.22165	-0.067539	0.99376
4.306	128.49	-22564	2606.4	0.22194	-0.067637	0.99337
4.308	128.5	-22570	2606.2	0.22224	-0.067734	0.99298
4.31	128.45	-22569	2605.9	0.22253	-0.067832	0.99259
4.312	128.36	-22561	2605.8	0.22282	-0.067539	0.99259
4.314	128.26	-22560	2605.6	0.22311	-0.067246	0.99259
4.316	128.2	-22564	2605.4	0.22341	-0.066954	0.99259
4.318	128.13	-22566	2605.2	0.2237	-0.066661	0.99259
4.32	128.01	-22565	2605	0.22399	-0.066368	0.99259
4.322	127.88	-22564	2604.8	0.22487	-0.065685	0.9923
4.324	127.73	-22563	2604.6	0.22575	-0.065002	0.99201
4.326	127.61	-22564	2604.4	0.22663	-0.064318	0.99171
4.328	127.51	-22564	2604.2	0.22751	-0.063635	0.99142
4.33	127.41	-22566	2604.1	0.22838	-0.062952	0.99113
4.332	127.34	-22569	2603.9	0.2277	-0.063928	0.99123
4.334	127.28	-22570	2603.7	0.22702	-0.064904	0.99132
4.336	127.21	-22569	2603.6	0.22633	-0.06588	0.99142
4.338	127.24	-22565	2603.4	0.22565	-0.066856	0.99152
4.34	127.39	-22559	2603.3	0.22497	-0.067832	0.99162
4.342	127.58	-22563	2603.2	0.22526	-0.067637	0.99132
4.344	127.77	-22576	2603.1	0.22555	-0.067442	0.99103
4.346	127.93	-22580	2603	0.22585	-0.067246	0.99074
4.348	128.05	-22575	2602.9	0.22614	-0.067051	0.99044
4.35	128.16	-22572	2602.7	0.22643	-0.066856	0.99015
4.352	128.28	-22570	2602.6	0.22633	-0.066075	0.99152
4.354	128.35	-22571	2602.5	0.22624	-0.065294	0.99288
4.356	128.39	-22574	2602.4	0.22614	-0.064514	0.99425
4.358	128.41	-22574	2602.3	0.22604	-0.063733	0.99562
4.36	128.42	-22573	2602.2	0.22594	-0.062952	0.99698
4.362	128.4	-22574	2602.1	0.22624	-0.064026	0.9963
4.364	128.4	-22578	2601.9	0.22653	-0.065099	0.99562
4.366	128.35	-22580	2601.8	0.22682	-0.066173	0.99493
4.368	128.3	-22578	2601.6	0.22712	-0.067246	0.99425
4.37	128.3	-22577	2601.5	0.22741	-0.06832	0.99357
4.372	128.26	-22576	2601.3	0.22731	-0.068125	0.99298
4.374	128.27	-22575	2601.2	0.22721	-0.06793	0.9924
4.376	128.28	-22574	2601	0.22712	-0.067734	0.99181
4.378	128.25	-22571	2600.9	0.22702	-0.067539	0.99123
4.38	128.3	-22568	2600.8	0.22692	-0.067344	0.99064
4.382	128.36	-22571	2600.6	0.2276	-0.065978	0.99162
4.384	128.33	-22580	2600.3	0.22829	-0.064611	0.99259
4.386	128.31	-22585	2600.2	0.22897	-0.063245	0.99357
4.388	128.34	-22584	2600	0.22965	-0.061878	0.99454
4.39	128.35	-22582	2599.9	0.23034	-0.060512	0.99552
4.392	128.32	-22579	2599.8	0.22916	-0.061878	0.99503
4.394	128.31	-22576	2599.6	0.22799	-0.063245	0.99454
4.396	128.34	-22575	2599.4	0.22682	-0.064611	0.99406
4.398	128.35	-22578	2599.3	0.22565	-0.065978	0.99357
4.4	128.33	-22586	2599.2	0.22448	-0.067344	0.99308
4.402	128.31	-22587	2599	0.22448	-0.066563	0.99318
4.404	128.29	-22582	2598.9	0.22448	-0.065782	0.99328
4.406	128.29	-22583	2598.7	0.22448	-0.065002	0.99337
4.408	128.31	-22591	2598.6	0.22448	-0.064221	0.99347
4.41	128.31	-22593	2598.5	0.22448	-0.06344	0.99357
4.412	128.3	-22590	2598.4	0.22526	-0.062854	0.99425
4.414	128.31	-22592	2598.3	0.22604	-0.062269	0.99493
4.416	128.32	-22600	2598.2	0.22682	-0.061683	0.99562
4.418	128.32	-22602	2598.1	0.2276	-0.061098	0.9963
4.42	128.3	-22599	2598	0.22838	-0.060512	0.99698
4.422	128.29	-22597	2597.8	0.22751	-0.061195	0.99669
4.424	128.31	-22596	2597.7	0.22663	-0.061878	0.9964
4.426	128.32	-22595	2597.6	0.22575	-0.062562	0.99611
4.428	128.31	-22595	2597.5	0.22487	-0.063245	0.99581
4.43	128.31	-22595	2597.3	0.22399	-0.063928	0.99552
4.432	128.3	-22595	2597.2	0.22565	-0.063245	0.9965
4.434	128.29	-22597	2597	0.22731	-0.062562	0.99747
4.436	128.29	-22600	2596.9	0.22897	-0.061878	0.99845
4.438	128.31	-22601	2596.7	0.23063	-0.061195	0.99942
4.44	128.29	-22602	2596.5	0.23229	-0.060512	1.0004
4.442	128.27	-22602	2596.4	0.23151	-0.060219	1.0001
4.444	128.28	-22603	2596.2	0.23073	-0.059926	0.99981
4.446	128.31	-22603	2596.1	0.22995	-0.059634	0.99952
4.448	128.34	-22600	2595.9	0.22916	-0.059341	0.99923
4.45	128.33	-22599	2595.8	0.22838	-0.059048	0.99894
4.452	128.3	-22598	2595.6	0.22965	-0.060317	0.99845
4.454	128.28	-22600	2595.5	0.23092	-0.061586	0.99796
4.456	128.26	-22604	2595.4	0.23219	-0.062854	0.99747
4.458	128.23	-22608	2595.3	0.23346	-0.064123	0.99698
4.46	128.24	-22610	2595.1	0.23473	-0.065392	0.9965
4.462	128.21	-22610	2595	0.23395	-0.064416	0.99581
4.464	128.2	-22609	2594.8	0.23317	-0.06344	0.99513
4.466	128.24	-22610	2594.6	0.23239	-0.062464	0.99445
4.468	128.3	-22611	2594.5	0.2316	-0.061488	0.99376
4.47	128.32	-22613	2594.4	0.23082	-0.060512	0.99308
4.472	128.29	-22615	2594.2	0.22985	-0.060317	0.99357
4.474	128.26	-22615	2594.1	0.22887	-0.060122	0.99406
4.476	128.25	-22613	2594	0.2279	-0.059926	0.99454
4.478	128.24	-22612	2593.9	0.22692	-0.059731	0.99503
4.48	128.2	-22613	2593.8	0.22594	-0.059536	0.99552
4.482	128.21	-22615	2593.7	0.22672	-0.059829	0.99474
4.484	128.25	-22617	2593.6	0.22751	-0.060122	0.99396
4.486	128.29	-22617	2593.6	0.22829	-0.060414	0.99318
4.488	128.3	-22614	2593.5	0.22907	-0.060707	0.9924
4.49	128.26	-22613	2593.5	0.22985	-0.061	0.99162
4.492	128.23	-22613	2593.5	0.23141	-0.062366	0.99064
4.494	128.18	-22614	2593.5	0.23297	-0.063733	0.98966
4.496	128.16	-22616	2593.6	0.23453	-0.065099	0.98869
4.498	128.2	-22616	2593.6	0.23609	-0.066466	0.98771
4.5	128.22	-22615	2593.7	0.23766	-0.067832	0.98674
4.502	128.18	-22615	2594	0.23775	-0.067442	0.98761
4.504	128.16	-22616	2594.2	0.23785	-0.067051	0.98849
4.506	128.19	-22619	2594.5	0.23795	-0.066661	0.98937
4.508	128.2	-22624	2594.9	0.23805	-0.06627	0.99025
4.51	128.22	-22627	2595.3	0.23814	-0.06588	0.99113
4.512	128.22	-22629	2595.9	0.23697	-0.065294	0.99162
4.514	128.18	-22631	2596.4	0.2358	-0.064709	0.9921
4.516	128.18	-22633	2597	0.23463	-0.064123	0.99259
4.518	128.21	-22634	2597.6	0.23346	-0.063538	0.99308
4.52	128.19	-22635	2598.2	0.23229	-0.062952	0.99357
4.522	128.17	-22633	2598.8	0.23239	-0.061976	0.99503
4.524	128.18	-22630	2599.5	0.23248	-0.061	0.9965
4.526	128.2	-22627	2600.1	0.23258	-0.060024	0.99796
4.528	128.19	-22624	2600.9	0.23268	-0.059048	0.99942
4.53	128.17	-22624	2601.6	0.23278	-0.058072	1.0009
4.532	128.14	-22627	2602.3	0.23248	-0.057682	1.0006
4.534	128.13	-22629	2603.1	0.23219	-0.057291	1.0003
4.536	128.17	-22632	2603.8	0.2319	-0.056901	1
4.538	128.21	-22633	2604.6	0.2316	-0.05651	0.99972
4.54	128.2	-22633	2605.3	0.23131	-0.05612	0.99942
4.542	128.17	-22631	2606.1	0.232	-0.057974	0.99942
4.544	128.12	-22628	2606.9	0.23268	-0.059829	0.99942
4.546	128.1	-22627	2607.7	0.23336	-0.061683	0.99942
4.548	128.15	-22627	2608.4	0.23404	-0.063538	0.99942
4.55	128.17	-22624	2609.2	0.23473	-0.065392	0.99942
4.552	128.18	-22619	2610	0.23444	-0.065002	0.99952
4.554	128.2	-22619	2610.7	0.23414	-0.064611	0.99962
4.556	128.21	-22625	2611.4	0.23385	-0.064221	0.99972
4.558	128.21	-22629	2612.1	0.23356	-0.06383	0.99981
4.56	128.18	-22631	2612.9	0.23326	-0.06344	0.99991
4.562	128.17	-22630	2613.5	0.23326	-0.06344	1.0004
4.564	128.18	-22625	2614.1	0.23326	-0.06344	1.0009
4.566	128.2	-22621	2614.7	0.23326	-0.06344	1.0014
4.568	128.2	-22619	2615.3	0.23326	-0.06344	1.0019
4.57	128.19	-22619	2616	0.23326	-0.06344	1.0024
4.572	128.2	-22622	2616.5	0.23297	-0.063342	1.0024
4.574	128.2	-22622	2617	0.23268	-0.063245	1.0024
4.576	128.21	-22618	2617.5	0.23239	-0.063147	1.0024
4.578	128.21	-22614	2618	0.23209	-0.06305	1.0024
4.58	128.19	-22608	2618.5	0.2318	-0.062952	1.0024
4.582	128.19	-22609	2618.9	0.23131	-0.062952	1.0018
4.584	128.19	-22614	2619.3	0.23082	-0.062952	1.0012
4.586	128.21	-22614	2619.7	0.23034	-0.062952	1.0006
4.588	128.24	-22609	2620	0.22985	-0.062952	1
4.59	128.28	-22605	2620.4	0.22936	-0.062952	0.99942
4.592	128.27	-22601	2620.8	0.23063	-0.063635	0.99962
4.594	128.23	-22598	2621.1	0.2319	-0.064318	0.99981
4.596	128.23	-22596	2621.4	0.23317	-0.065002	1
4.598	128.25	-22597	2621.7	0.23444	-0.065685	1.0002
4.6	128.26	-22601	2622	0.2357	-0.066368	1.0004
4.602	128.27	-22597	2622.2	0.23434	-0.065782	1
4.604	128.26	-22588	2622.4	0.23297	-0.065197	0.99962
4.606	128.24	-22582	2622.6	0.2316	-0.064611	0.99923
4.608	128.26	-22581	2622.8	0.23024	-0.064026	0.99884
4.61	128.28	-22586	2623	0.22887	-0.06344	0.99845
4.612	128.28	-22596	2623.1	0.22926	-0.063635	0.99884
4.614	128.28	-22602	2623.2	0.22965	-0.06383	0.99923
4.616	128.28	-22604	2623.3	0.23004	-0.064026	0.99962
4.618	128.31	-22600	2623.4	0.23043	-0.064221	1
4.62	128.32	-22592	2623.4	0.23082	-0.064416	1.0004
4.622	128.3	-22588	2623.5	0.23092	-0.064514	1.0002
4.624	128.29	-22587	2623.6	0.23102	-0.064611	1
4.626	128.3	-22588	2623.6	0.23112	-0.064709	0.99981
