t	ekg	optical	pressure	accel_x	accel_y	accel_z
4.5475e-13	63.793	-18303	2297.7	-0.32354	0.91646	0.30939
0.002	63.791	-18302	2297.7	-0.32335	0.91617	0.30949
0.004	63.783	-18301	2297.7	-0.32315	0.91588	0.30959
0.006	63.777	-18304	2297.8	-0.32296	0.91559	0.30968
0.008	63.776	-18307	2297.8	-0.32276	0.91529	0.30978
0.01	63.776	-18305	2297.8	-0.32257	0.915	0.30988
0.012	63.776	-18304	2297.9	-0.32179	0.91578	0.31066
0.014	63.785	-18304	2298	-0.32101	0.91656	0.31144
0.016	63.791	-18305	2298.1	-0.32023	0.91734	0.31222
0.018	63.795	-18303	2298.2	-0.31944	0.91812	0.313
0.02	63.787	-18301	2298.3	-0.31866	0.9189	0.31378
0.022	63.773	-18301	2298.4	-0.31798	0.91978	0.31447
0.024	63.77	-18301	2298.4	-0.3173	0.92066	0.31515
0.026	63.78	-18303	2298.5	-0.31661	0.92154	0.31583
0.028	63.78	-18306	2298.6	-0.31593	0.92242	0.31652
0.03	63.791	-18306	2298.6	-0.31525	0.9233	0.3172
0.032	63.801	-18306	2298.7	-0.31593	0.92291	0.31769
0.034	63.799	-18307	2298.7	-0.31661	0.92252	0.31818
0.036	63.788	-18308	2298.8	-0.3173	0.92212	0.31866
0.038	63.789	-18310	2298.8	-0.31798	0.92173	0.31915
0.04	63.79	-18313	2298.9	-0.31866	0.92134	0.31964
0.042	63.787	-18306	2298.9	-0.3171	0.92037	0.31866
0.044	63.784	-18300	2299	-0.31554	0.91939	0.31769
0.046	63.785	-18309	2299	-0.31398	0.91842	0.31671
0.048	63.796	-18317	2299	-0.31242	0.91744	0.31574
0.05	63.805	-18313	2299	-0.31086	0.91646	0.31476
0.052	63.803	-18309	2299.1	-0.31125	0.91685	0.31466
0.054	63.798	-18310	2299.2	-0.31164	0.91724	0.31456
0.056	63.789	-18311	2299.2	-0.31203	0.91764	0.31447
0.058	63.782	-18314	2299.2	-0.31242	0.91803	0.31437
0.06	63.78	-18316	2299.2	-0.31281	0.91842	0.31427
0.062	63.778	-18318	2299.2	-0.31388	0.91949	0.31583
0.064	63.781	-18320	2299.2	-0.31496	0.92056	0.3174
0.066	63.79	-18311	2299.3	-0.31603	0.92164	0.31896
0.068	63.796	-18302	2299.3	-0.3171	0.92271	0.32052
0.07	63.796	-18304	2299.3	-0.31818	0.92378	0.32208
0.072	63.791	-18306	2299.3	-0.31876	0.92261	0.32169
0.074	63.785	-18311	2299.2	-0.31935	0.92144	0.3213
0.076	63.783	-18316	2299.2	-0.31993	0.92027	0.32091
0.078	63.789	-18313	2299.1	-0.32052	0.9191	0.32052
0.08	63.796	-18309	2299.1	-0.3211	0.91793	0.32013
0.082	63.799	-18311	2299.1	-0.32286	0.91764	0.3211
0.084	63.795	-18313	2299.1	-0.32462	0.91734	0.32208
0.086	63.791	-18312	2299.1	-0.32637	0.91705	0.32306
0.088	63.781	-18312	2299.2	-0.32813	0.91676	0.32403
0.09	63.766	-18313	2299.2	-0.32989	0.91646	0.32501
0.092	63.748	-18313	2299.2	-0.32969	0.91646	0.32403
0.094	63.729	-18314	2299.3	-0.3295	0.91646	0.32306
0.096	63.711	-18315	2299.3	-0.3293	0.91646	0.32208
0.098	63.708	-18317	2299.4	-0.32911	0.91646	0.3211
0.1	63.706	-18319	2299.4	-0.32891	0.91646	0.32013
0.102	63.709	-18313	2299.5	-0.32813	0.91549	0.32218
0.104	63.714	-18308	2299.6	-0.32735	0.91451	0.32423
0.106	63.719	-18324	2299.7	-0.32657	0.91354	0.32628
0.108	63.719	-18341	2299.8	-0.32579	0.91256	0.32833
0.11	63.722	-18338	2299.9	-0.32501	0.91158	0.33038
0.112	63.734	-18336	2299.9	-0.32374	0.90973	0.32803
0.114	63.744	-18329	2299.9	-0.32247	0.90788	0.32569
0.116	63.746	-18322	2299.9	-0.3212	0.90602	0.32335
0.118	63.748	-18329	2299.9	-0.31993	0.90417	0.32101
0.12	63.743	-18337	2299.9	-0.31866	0.90231	0.31866
0.122	63.735	-18333	2299.9	-0.31866	0.90329	0.31866
0.124	63.73	-18329	2299.9	-0.31866	0.90426	0.31866
0.126	63.725	-18322	2299.9	-0.31866	0.90524	0.31866
0.128	63.732	-18314	2299.9	-0.31866	0.90622	0.31866
0.13	63.744	-18307	2299.9	-0.31866	0.90719	0.31866
0.132	63.748	-18299	2299.8	-0.31759	0.90739	0.31857
0.134	63.753	-18302	2299.8	-0.31652	0.90758	0.31847
0.136	63.763	-18304	2299.8	-0.31544	0.90778	0.31837
0.138	63.778	-18313	2299.7	-0.31437	0.90797	0.31827
0.14	63.79	-18321	2299.7	-0.3133	0.90817	0.31818
0.142	63.799	-18319	2299.7	-0.31291	0.90748	0.3171
0.144	63.807	-18316	2299.6	-0.31252	0.9068	0.31603
0.146	63.817	-18318	2299.6	-0.31212	0.90612	0.31496
0.148	63.829	-18320	2299.6	-0.31173	0.90544	0.31388
0.15	63.838	-18318	2299.5	-0.31134	0.90475	0.31281
0.152	63.836	-18316	2299.4	-0.31144	0.90495	0.313
0.154	63.825	-18326	2299.4	-0.31154	0.90514	0.3132
0.156	63.818	-18336	2299.3	-0.31164	0.90534	0.31339
0.158	63.813	-18336	2299.2	-0.31173	0.90553	0.31359
0.16	63.814	-18335	2299.1	-0.31183	0.90573	0.31378
0.162	63.819	-18328	2299	-0.31154	0.90631	0.31378
0.164	63.822	-18321	2298.9	-0.31125	0.9069	0.31378
0.166	63.823	-18325	2298.7	-0.31095	0.90748	0.31378
0.168	63.821	-18329	2298.6	-0.31066	0.90807	0.31378
0.17	63.815	-18326	2298.5	-0.31037	0.90866	0.31378
0.172	63.804	-18323	2298.5	-0.31232	0.90983	0.31281
0.174	63.797	-18322	2298.4	-0.31427	0.911	0.31183
0.176	63.799	-18321	2298.3	-0.31622	0.91217	0.31086
0.178	63.798	-18328	2298.2	-0.31818	0.91334	0.30988
0.18	63.804	-18334	2298.1	-0.32013	0.91451	0.3089
0.182	63.815	-18329	2298	-0.32013	0.91578	0.309
0.184	63.818	-18324	2298	-0.32013	0.91705	0.3091
0.186	63.812	-18327	2297.9	-0.32013	0.91832	0.3092
0.188	63.809	-18329	2297.8	-0.32013	0.91959	0.30929
0.19	63.8	-18329	2297.8	-0.32013	0.92086	0.30939
0.192	63.793	-18329	2297.7	-0.32023	0.92076	0.30959
0.194	63.808	-18326	2297.7	-0.32032	0.92066	0.30978
0.196	63.828	-18324	2297.7	-0.32042	0.92056	0.30998
0.198	63.856	-18328	2297.6	-0.32052	0.92047	0.31017
0.2	63.893	-18332	2297.6	-0.32062	0.92037	0.31037
0.202	63.931	-18326	2297.6	-0.31866	0.92037	0.31134
0.204	63.976	-18321	2297.6	-0.31671	0.92037	0.31232
0.206	63.997	-18323	2297.6	-0.31476	0.92037	0.3133
0.208	63.988	-18325	2297.6	-0.31281	0.92037	0.31427
0.21	63.96	-18335	2297.5	-0.31086	0.92037	0.31525
0.212	63.92	-18345	2297.5	-0.31115	0.92076	0.31525
0.214	63.875	-18342	2297.5	-0.31144	0.92115	0.31525
0.216	63.808	-18338	2297.5	-0.31173	0.92154	0.31525
0.218	63.736	-18335	2297.6	-0.31203	0.92193	0.31525
0.22	63.649	-18331	2297.6	-0.31232	0.92232	0.31525
0.222	63.531	-18327	2297.6	-0.31144	0.92242	0.31642
0.224	63.413	-18323	2297.7	-0.31056	0.92252	0.31759
0.226	63.284	-18329	2297.8	-0.30968	0.92261	0.31876
0.228	63.148	-18335	2297.8	-0.30881	0.92271	0.31993
0.23	63.018	-18335	2297.9	-0.30793	0.92281	0.3211
0.232	62.886	-18335	2297.9	-0.30822	0.92212	0.32101
0.234	62.772	-18331	2298	-0.30851	0.92144	0.32091
0.236	62.709	-18328	2298	-0.30881	0.92076	0.32081
0.238	62.685	-18329	2298	-0.3091	0.92008	0.32071
0.24	62.711	-18331	2298.1	-0.30939	0.91939	0.32062
0.242	62.805	-18331	2298.1	-0.31037	0.91959	0.31905
0.244	62.935	-18332	2298.2	-0.31134	0.91978	0.31749
0.246	63.086	-18334	2298.2	-0.31232	0.91998	0.31593
0.248	63.245	-18335	2298.3	-0.3133	0.92017	0.31437
0.25	63.379	-18333	2298.3	-0.31427	0.92037	0.31281
0.252	63.491	-18331	2298.3	-0.31447	0.91939	0.31281
0.254	63.583	-18336	2298.3	-0.31466	0.91842	0.31281
0.256	63.655	-18342	2298.3	-0.31486	0.91744	0.31281
0.258	63.711	-18335	2298.3	-0.31505	0.91646	0.31281
0.26	63.761	-18328	2298.4	-0.31525	0.91549	0.31281
0.262	63.799	-18331	2298.4	-0.31378	0.91559	0.3131
0.264	63.836	-18335	2298.4	-0.31232	0.91568	0.31339
0.266	63.869	-18337	2298.4	-0.31086	0.91578	0.31369
0.268	63.859	-18339	2298.5	-0.30939	0.91588	0.31398
0.27	63.821	-18338	2298.6	-0.30793	0.91598	0.31427
0.272	63.791	-18337	2298.5	-0.30832	0.9151	0.31427
0.274	63.768	-18337	2298.4	-0.30871	0.91422	0.31427
0.276	63.748	-18336	2298.3	-0.3091	0.91334	0.31427
0.278	63.735	-18337	2298.2	-0.30949	0.91246	0.31427
0.28	63.736	-18337	2298.2	-0.30988	0.91158	0.31427
0.282	63.75	-18335	2298.2	-0.30949	0.91149	0.31398
0.284	63.75	-18333	2298.2	-0.3091	0.91139	0.31369
0.286	63.741	-18337	2298.2	-0.30871	0.91129	0.31339
0.288	63.737	-18341	2298.3	-0.30832	0.91119	0.3131
0.29	63.728	-18347	2298.3	-0.30793	0.9111	0.31281
0.292	63.714	-18353	2298.2	-0.30695	0.91119	0.31378
0.294	63.708	-18347	2298.1	-0.30598	0.91129	0.31476
0.296	63.71	-18341	2298	-0.305	0.91139	0.31574
0.298	63.724	-18341	2297.9	-0.30402	0.91149	0.31671
0.3	63.725	-18341	2297.8	-0.30305	0.91158	0.31769
0.302	63.711	-18343	2297.8	-0.30324	0.91188	0.31681
0.304	63.693	-18344	2297.7	-0.30344	0.91217	0.31593
0.306	63.682	-18345	2297.6	-0.30363	0.91246	0.31505
0.308	63.683	-18345	2297.5	-0.30383	0.91276	0.31417
0.31	63.681	-18347	2297.4	-0.30402	0.91305	0.3133
0.312	63.684	-18348	2297.2	-0.30666	0.91334	0.31252
0.314	63.69	-18344	2297.1	-0.30929	0.91363	0.31173
0.316	63.685	-18341	2297	-0.31193	0.91393	0.31095
0.318	63.674	-18342	2297	-0.31456	0.91422	0.31017
0.32	63.669	-18343	2296.9	-0.3172	0.91451	0.30939
0.322	63.665	-18346	2296.8	-0.31564	0.91441	0.30637
0.324	63.658	-18349	2296.7	-0.31408	0.91432	0.30334
0.326	63.654	-18345	2296.6	-0.31252	0.91422	0.30032
0.328	63.65	-18342	2296.6	-0.31095	0.91412	0.29729
0.33	63.653	-18344	2296.6	-0.30939	0.91402	0.29426
0.332	63.655	-18346	2296.6	-0.30949	0.91324	0.29622
0.334	63.65	-18346	2296.5	-0.30959	0.91246	0.29817
0.336	63.642	-18346	2296.4	-0.30968	0.91168	0.30012
0.338	63.632	-18349	2296.4	-0.30978	0.9109	0.30207
0.34	63.624	-18352	2296.4	-0.30988	0.91012	0.30402
0.342	63.609	-18354	2296.3	-0.30842	0.91071	0.30363
0.344	63.597	-18357	2296.3	-0.30695	0.91129	0.30324
0.346	63.599	-18355	2296.3	-0.30549	0.91188	0.30285
0.348	63.6	-18353	2296.2	-0.30402	0.91246	0.30246
0.35	63.604	-18353	2296.2	-0.30256	0.91305	0.30207
0.352	63.61	-18353	2296.2	-0.30188	0.91315	0.30227
0.354	63.594	-18354	2296.1	-0.30119	0.91324	0.30246
0.356	63.579	-18355	2296.1	-0.30051	0.91334	0.30266
0.358	63.573	-18354	2296	-0.29983	0.91344	0.30285
0.36	63.576	-18352	2296	-0.29914	0.91354	0.30305
0.362	63.586	-18352	2296	-0.29895	0.91373	0.30295
0.364	63.589	-18353	2295.9	-0.29875	0.91393	0.30285
0.366	63.581	-18355	2295.9	-0.29856	0.91412	0.30276
0.368	63.574	-18357	2295.9	-0.29836	0.91432	0.30266
0.37	63.567	-18356	2295.8	-0.29817	0.91451	0.30256
0.372	63.555	-18356	2295.7	-0.29817	0.91373	0.30256
0.374	63.553	-18353	2295.7	-0.29817	0.91295	0.30256
0.376	63.549	-18351	2295.6	-0.29817	0.91217	0.30256
0.378	63.548	-18351	2295.6	-0.29817	0.91139	0.30256
0.38	63.556	-18351	2295.5	-0.29817	0.91061	0.30256
0.382	63.554	-18352	2295.5	-0.29817	0.91168	0.30178
0.384	63.549	-18354	2295.4	-0.29817	0.91276	0.301
0.386	63.549	-18355	2295.3	-0.29817	0.91383	0.30022
0.388	63.545	-18356	2295.3	-0.29817	0.9149	0.29944
0.39	63.537	-18353	2295.3	-0.29817	0.91598	0.29866
0.392	63.53	-18350	2295.3	-0.29973	0.91598	0.29953
0.394	63.528	-18349	2295.3	-0.30129	0.91598	0.30041
0.396	63.53	-18348	2295.3	-0.30285	0.91598	0.30129
0.398	63.531	-18342	2295.4	-0.30441	0.91598	0.30217
0.4	63.526	-18337	2295.4	-0.30598	0.91598	0.30305
0.402	63.517	-18336	2295.5	-0.30617	0.91646	0.30344
0.404	63.511	-18336	2295.6	-0.30637	0.91695	0.30383
0.406	63.499	-18341	2295.7	-0.30656	0.91744	0.30422
0.408	63.488	-18346	2295.8	-0.30676	0.91793	0.30461
0.41	63.487	-18347	2295.9	-0.30695	0.91842	0.305
0.412	63.493	-18347	2296.1	-0.30842	0.91861	0.3052
0.414	63.504	-18344	2296.2	-0.30988	0.91881	0.30539
0.416	63.513	-18340	2296.4	-0.31134	0.919	0.30559
0.418	63.515	-18341	2296.6	-0.31281	0.9192	0.30578
0.42	63.513	-18341	2296.8	-0.31427	0.91939	0.30598
0.422	63.507	-18336	2297	-0.31486	0.92017	0.30764
0.424	63.504	-18331	2297.1	-0.31544	0.92095	0.30929
0.426	63.502	-18328	2297.3	-0.31603	0.92173	0.31095
0.428	63.51	-18325	2297.6	-0.31661	0.92252	0.31261
0.43	63.522	-18327	2297.8	-0.3172	0.9233	0.31427
0.432	63.53	-18328	2297.9	-0.3171	0.92271	0.31417
0.434	63.533	-18330	2298.1	-0.317	0.92212	0.31408
0.436	63.534	-18331	2298.3	-0.31691	0.92154	0.31398
0.438	63.525	-18323	2298.6	-0.31681	0.92095	0.31388
0.44	63.516	-18314	2298.8	-0.31671	0.92037	0.31378
0.442	63.519	-18319	2298.9	-0.31642	0.92047	0.31427
0.444	63.529	-18324	2299.1	-0.31613	0.92056	0.31476
0.446	63.541	-18324	2299.3	-0.31583	0.92066	0.31525
0.448	63.552	-18323	2299.4	-0.31554	0.92076	0.31574
0.45	63.564	-18327	2299.6	-0.31525	0.92086	0.31622
0.452	63.575	-18330	2299.7	-0.31505	0.92008	0.31593
0.454	63.576	-18318	2299.9	-0.31486	0.91929	0.31564
0.456	63.573	-18307	2300	-0.31466	0.91851	0.31535
0.458	63.579	-18306	2300.2	-0.31447	0.91773	0.31505
0.46	63.599	-18306	2300.3	-0.31427	0.91695	0.31476
0.462	63.606	-18307	2300.4	-0.31212	0.91637	0.31447
0.464	63.624	-18308	2300.6	-0.30998	0.91578	0.31417
0.466	63.639	-18307	2300.7	-0.30783	0.9152	0.31388
0.468	63.652	-18307	2300.8	-0.30568	0.91461	0.31359
0.47	63.659	-18311	2300.9	-0.30354	0.91402	0.3133
0.472	63.664	-18316	2300.9	-0.30324	0.91402	0.31378
0.474	63.664	-18316	2301	-0.30295	0.91402	0.31427
0.476	63.665	-18316	2301.1	-0.30266	0.91402	0.31476
0.478	63.68	-18307	2301.1	-0.30236	0.91402	0.31525
0.48	63.698	-18298	2301.1	-0.30207	0.91402	0.31574
0.482	63.719	-18303	2301.2	-0.30178	0.91441	0.31544
0.484	63.727	-18308	2301.3	-0.30149	0.9148	0.31515
0.486	63.732	-18311	2301.3	-0.30119	0.9152	0.31486
0.488	63.733	-18314	2301.4	-0.3009	0.91559	0.31456
0.49	63.727	-18303	2301.4	-0.30061	0.91598	0.31427
0.492	63.722	-18292	2301.4	-0.30168	0.9151	0.31505
0.494	63.725	-18296	2301.5	-0.30276	0.91422	0.31583
0.496	63.736	-18299	2301.5	-0.30383	0.91334	0.31661
0.498	63.746	-18302	2301.5	-0.3049	0.91246	0.3174
0.5	63.753	-18306	2301.5	-0.30598	0.91158	0.31818
0.502	63.756	-18302	2301.5	-0.30529	0.91217	0.31788
0.504	63.752	-18298	2301.5	-0.30461	0.91276	0.31759
0.506	63.745	-18294	2301.5	-0.30393	0.91334	0.3173
0.508	63.748	-18290	2301.5	-0.30324	0.91393	0.317
0.51	63.757	-18295	2301.5	-0.30256	0.91451	0.31671
0.512	63.759	-18299	2301.5	-0.30363	0.91373	0.3172
0.514	63.756	-18298	2301.5	-0.30471	0.91295	0.31769
0.516	63.757	-18296	2301.5	-0.30578	0.91217	0.31818
0.518	63.758	-18298	2301.5	-0.30685	0.91139	0.31866
0.52	63.752	-18300	2301.6	-0.30793	0.91061	0.31915
0.522	63.747	-18298	2301.6	-0.30861	0.91041	0.31935
0.524	63.74	-18297	2301.6	-0.30929	0.91022	0.31954
0.526	63.728	-18295	2301.6	-0.30998	0.91002	0.31974
0.528	63.726	-18293	2301.6	-0.31066	0.90983	0.31993
0.53	63.741	-18294	2301.6	-0.31134	0.90963	0.32013
0.532	63.741	-18295	2301.7	-0.31222	0.91071	0.31876
0.534	63.734	-18293	2301.7	-0.3131	0.91178	0.3174
0.536	63.734	-18291	2301.7	-0.31398	0.91285	0.31603
0.538	63.723	-18294	2301.7	-0.31486	0.91393	0.31466
0.54	63.722	-18298	2301.8	-0.31574	0.915	0.3133
0.542	63.718	-18297	2301.8	-0.31788	0.9148	0.31261
0.544	63.711	-18296	2301.9	-0.32003	0.91461	0.31193
0.546	63.722	-18293	2301.9	-0.32218	0.91441	0.31125
0.548	63.737	-18291	2302	-0.32432	0.91422	0.31056
0.55	63.727	-18293	2302.1	-0.32647	0.91402	0.30988
0.552	63.721	-18295	2302.1	-0.32618	0.9151	0.31056
0.554	63.716	-18295	2302.2	-0.32589	0.91617	0.31125
0.556	63.709	-18295	2302.3	-0.32559	0.91724	0.31193
0.558	63.711	-18296	2302.4	-0.3253	0.91832	0.31261
0.56	63.713	-18297	2302.4	-0.32501	0.91939	0.3133
0.562	63.72	-18295	2302.5	-0.32364	0.9192	0.31369
0.564	63.724	-18293	2302.6	-0.32228	0.919	0.31408
0.566	63.73	-18290	2302.7	-0.32091	0.91881	0.31447
0.568	63.734	-18286	2302.8	-0.31954	0.91861	0.31486
0.57	63.73	-18289	2302.9	-0.31818	0.91842	0.31525
0.572	63.728	-18291	2302.9	-0.3172	0.91842	0.31544
0.574	63.726	-18292	2303	-0.31622	0.91842	0.31564
0.576	63.72	-18293	2303	-0.31525	0.91842	0.31583
0.578	63.725	-18295	2303.1	-0.31427	0.91842	0.31603
0.58	63.738	-18298	2303.2	-0.3133	0.91842	0.31622
0.582	63.743	-18297	2303.3	-0.31232	0.91764	0.31681
0.584	63.746	-18296	2303.3	-0.31134	0.91685	0.3174
0.586	63.754	-18298	2303.4	-0.31037	0.91607	0.31798
0.588	63.749	-18300	2303.5	-0.30939	0.91529	0.31857
0.59	63.739	-18295	2303.5	-0.30842	0.91451	0.31915
0.592	63.742	-18290	2303.6	-0.3091	0.9152	0.31915
0.594	63.752	-18295	2303.6	-0.30978	0.91588	0.31915
0.596	63.751	-18301	2303.7	-0.31047	0.91656	0.31915
0.598	63.747	-18296	2303.7	-0.31115	0.91724	0.31915
0.6	63.751	-18291	2303.7	-0.31183	0.91793	0.31915
0.602	63.754	-18292	2303.8	-0.31183	0.91676	0.32052
0.604	63.746	-18293	2303.9	-0.31183	0.91559	0.32188
0.606	63.739	-18299	2303.9	-0.31183	0.91441	0.32325
0.608	63.748	-18304	2304	-0.31183	0.91324	0.32462
0.61	63.749	-18301	2304	-0.31183	0.91207	0.32598
0.612	63.746	-18299	2304	-0.31271	0.91315	0.3255
0.614	63.754	-18297	2304	-0.31359	0.91422	0.32501
0.616	63.761	-18294	2304	-0.31447	0.91529	0.32452
0.618	63.773	-18296	2304.1	-0.31535	0.91637	0.32403
0.62	63.77	-18297	2304.1	-0.31622	0.91744	0.32354
0.622	63.753	-18297	2304.2	-0.31535	0.91695	0.32354
0.624	63.749	-18296	2304.3	-0.31447	0.91646	0.32354
0.626	63.737	-18296	2304.3	-0.31359	0.91598	0.32354
0.628	63.739	-18297	2304.4	-0.31271	0.91549	0.32354
0.63	63.744	-18298	2304.4	-0.31183	0.915	0.32354
0.632	63.72	-18300	2304.4	-0.31183	0.91393	0.32393
0.634	63.697	-18304	2304.4	-0.31183	0.91285	0.32432
0.636	63.674	-18309	2304.5	-0.31183	0.91178	0.32472
0.638	63.666	-18304	2304.5	-0.31183	0.91071	0.32511
0.64	63.66	-18300	2304.5	-0.31183	0.90963	0.3255
0.642	63.668	-18300	2304.5	-0.31281	0.91012	0.3253
0.644	63.687	-18300	2304.6	-0.31378	0.91061	0.32511
0.646	63.701	-18300	2304.6	-0.31476	0.9111	0.32491
0.648	63.705	-18301	2304.7	-0.31574	0.91158	0.32472
0.65	63.708	-18308	2304.8	-0.31671	0.91207	0.32452
0.652	63.714	-18316	2304.8	-0.31564	0.91158	0.32403
0.654	63.709	-18303	2304.8	-0.31456	0.9111	0.32354
0.656	63.701	-18291	2304.8	-0.31349	0.91061	0.32306
0.658	63.694	-18294	2304.7	-0.31242	0.91012	0.32257
0.66	63.698	-18297	2304.7	-0.31134	0.90963	0.32208
0.662	63.712	-18294	2304.7	-0.31115	0.90953	0.32149
0.664	63.723	-18292	2304.8	-0.31095	0.90944	0.32091
0.666	63.726	-18291	2304.8	-0.31076	0.90934	0.32032
0.668	63.721	-18291	2304.8	-0.31056	0.90924	0.31974
0.67	63.717	-18292	2304.7	-0.31037	0.90914	0.31915
0.672	63.724	-18293	2304.7	-0.30949	0.90963	0.31886
0.674	63.732	-18292	2304.7	-0.30861	0.91012	0.31857
0.676	63.737	-18292	2304.7	-0.30773	0.91061	0.31827
0.678	63.748	-18292	2304.7	-0.30685	0.9111	0.31798
0.68	63.77	-18292	2304.6	-0.30598	0.91158	0.31769
0.682	63.783	-18294	2304.6	-0.30617	0.91139	0.3174
0.684	63.786	-18296	2304.6	-0.30637	0.91119	0.3171
0.686	63.783	-18297	2304.6	-0.30656	0.911	0.31681
0.688	63.775	-18297	2304.6	-0.30676	0.9108	0.31652
0.69	63.771	-18301	2304.6	-0.30695	0.91061	0.31622
0.692	63.766	-18305	2304.5	-0.30861	0.91149	0.31486
0.694	63.765	-18305	2304.4	-0.31027	0.91236	0.31349
0.696	63.773	-18305	2304.4	-0.31193	0.91324	0.31212
0.698	63.767	-18310	2304.4	-0.31359	0.91412	0.31076
0.7	63.768	-18315	2304.3	-0.31525	0.915	0.30939
0.702	63.772	-18310	2304.3	-0.31486	0.9152	0.30881
0.704	63.769	-18305	2304.3	-0.31447	0.91539	0.30822
0.706	63.76	-18305	2304.3	-0.31408	0.91559	0.30764
0.708	63.749	-18304	2304.3	-0.31369	0.91578	0.30705
0.71	63.742	-18312	2304.2	-0.3133	0.91598	0.30646
0.712	63.758	-18320	2304.2	-0.31359	0.91744	0.30724
0.714	63.77	-18307	2304.1	-0.31388	0.9189	0.30803
0.716	63.768	-18294	2304.1	-0.31417	0.92037	0.30881
0.718	63.757	-18295	2304	-0.31447	0.92183	0.30959
0.72	63.74	-18297	2304	-0.31476	0.9233	0.31037
0.722	63.736	-18301	2304	-0.31496	0.92281	0.31017
0.724	63.741	-18304	2304	-0.31515	0.92232	0.30998
0.726	63.75	-18303	2304	-0.31535	0.92183	0.30978
0.728	63.747	-18301	2303.9	-0.31554	0.92134	0.30959
0.73	63.755	-18300	2303.9	-0.31574	0.92086	0.30939
0.732	63.77	-18298	2303.8	-0.31554	0.92056	0.30968
0.734	63.783	-18299	2303.8	-0.31535	0.92027	0.30998
0.736	63.8	-18300	2303.8	-0.31515	0.91998	0.31027
0.738	63.819	-18299	2303.7	-0.31496	0.91968	0.31056
0.74	63.845	-18298	2303.7	-0.31476	0.91939	0.31086
0.742	63.869	-18298	2303.7	-0.31476	0.91871	0.31027
0.744	63.887	-18297	2303.7	-0.31476	0.91803	0.30968
0.746	63.891	-18304	2303.7	-0.31476	0.91734	0.3091
0.748	63.875	-18312	2303.7	-0.31476	0.91666	0.30851
0.75	63.844	-18312	2303.7	-0.31476	0.91598	0.30793
0.752	63.803	-18312	2303.7	-0.31476	0.91656	0.30803
0.754	63.742	-18311	2303.6	-0.31476	0.91715	0.30812
0.756	63.665	-18309	2303.6	-0.31476	0.91773	0.30822
0.758	63.586	-18309	2303.6	-0.31476	0.91832	0.30832
0.76	63.506	-18309	2303.6	-0.31476	0.9189	0.30842
0.762	63.427	-18310	2303.7	-0.31544	0.9191	0.30881
0.764	63.338	-18311	2303.7	-0.31613	0.91929	0.3092
0.766	63.229	-18311	2303.7	-0.31681	0.91949	0.30959
0.768	63.116	-18312	2303.6	-0.31749	0.91968	0.30998
0.77	63.003	-18311	2303.6	-0.31818	0.91988	0.31037
0.772	62.902	-18311	2303.6	-0.31808	0.91988	0.30998
0.774	62.85	-18309	2303.6	-0.31798	0.91988	0.30959
0.776	62.862	-18307	2303.6	-0.31788	0.91988	0.3092
0.778	62.913	-18306	2303.7	-0.31779	0.91988	0.30881
0.78	62.995	-18306	2303.7	-0.31769	0.91988	0.30842
0.782	63.089	-18308	2303.7	-0.31749	0.91968	0.30871
0.784	63.198	-18310	2303.8	-0.3173	0.91949	0.309
0.786	63.311	-18309	2303.8	-0.3171	0.91929	0.30929
0.788	63.428	-18308	2303.8	-0.31691	0.9191	0.30959
0.79	63.556	-18308	2303.9	-0.31671	0.9189	0.30988
0.792	63.658	-18309	2303.8	-0.31427	0.91685	0.31115
0.794	63.695	-18310	2303.8	-0.31183	0.9148	0.31242
0.796	63.722	-18312	2303.8	-0.30939	0.91276	0.31369
0.798	63.762	-18310	2303.8	-0.30695	0.91071	0.31496
0.8	63.775	-18308	2303.8	-0.30451	0.90866	0.31622
0.802	63.785	-18308	2303.8	-0.30471	0.90885	0.31622
0.804	63.808	-18307	2303.8	-0.3049	0.90905	0.31622
0.806	63.844	-18313	2303.8	-0.3051	0.90924	0.31622
0.808	63.854	-18319	2303.9	-0.30529	0.90944	0.31622
0.81	63.826	-18318	2303.9	-0.30549	0.90963	0.31622
0.812	63.808	-18316	2303.9	-0.30617	0.91061	0.31525
0.814	63.79	-18313	2303.9	-0.30685	0.91158	0.31427
0.816	63.772	-18310	2303.9	-0.30754	0.91256	0.3133
0.818	63.769	-18308	2303.9	-0.30822	0.91354	0.31232
0.82	63.764	-18306	2303.9	-0.3089	0.91451	0.31134
0.822	63.741	-18308	2303.9	-0.30754	0.91432	0.31222
0.824	63.711	-18311	2303.9	-0.30617	0.91412	0.3131
0.826	63.695	-18313	2303.9	-0.3048	0.91393	0.31398
0.828	63.691	-18316	2303.9	-0.30344	0.91373	0.31486
0.83	63.689	-18319	2303.9	-0.30207	0.91354	0.31574
0.832	63.684	-18322	2303.9	-0.30256	0.91256	0.31642
0.834	63.681	-18321	2303.9	-0.30305	0.91158	0.3171
0.836	63.679	-18320	2303.9	-0.30354	0.91061	0.31779
0.838	63.683	-18319	2303.8	-0.30402	0.90963	0.31847
0.84	63.688	-18318	2303.7	-0.30451	0.90866	0.31915
0.842	63.689	-18319	2303.6	-0.3049	0.90905	0.31798
0.844	63.692	-18321	2303.5	-0.30529	0.90944	0.31681
0.846	63.7	-18319	2303.4	-0.30568	0.90983	0.31564
0.848	63.712	-18318	2303.3	-0.30607	0.91022	0.31447
0.85	63.718	-18318	2303.3	-0.30646	0.91061	0.3133
0.852	63.71	-18317	2303.2	-0.30685	0.91041	0.31388
0.854	63.695	-18320	2303.2	-0.30724	0.91022	0.31447
0.856	63.681	-18323	2303.2	-0.30764	0.91002	0.31505
0.858	63.67	-18322	2303.2	-0.30803	0.90983	0.31564
0.86	63.66	-18322	2303.2	-0.30842	0.90963	0.31622
0.862	63.662	-18324	2303.2	-0.30842	0.91032	0.31486
0.864	63.672	-18325	2303.2	-0.30842	0.911	0.31349
0.866	63.674	-18320	2303.1	-0.30842	0.91168	0.31212
0.868	63.671	-18314	2303	-0.30842	0.91236	0.31076
0.87	63.683	-18317	2303	-0.30842	0.91305	0.30939
0.872	63.684	-18320	2302.7	-0.30968	0.91451	0.30988
0.874	63.665	-18319	2302.4	-0.31095	0.91598	0.31037
0.876	63.645	-18317	2302.3	-0.31222	0.91744	0.31086
0.878	63.635	-18322	2302.3	-0.31349	0.9189	0.31134
0.88	63.651	-18328	2302.2	-0.31476	0.92037	0.31183
0.882	63.649	-18326	2302.3	-0.31574	0.92008	0.31105
0.884	63.661	-18324	2302.3	-0.31671	0.91978	0.31027
0.886	63.672	-18324	2302.3	-0.31769	0.91949	0.30949
0.888	63.656	-18324	2302.3	-0.31866	0.9192	0.30871
0.89	63.642	-18323	2302.3	-0.31964	0.9189	0.30793
0.892	63.639	-18323	2302.3	-0.31847	0.91812	0.30871
0.894	63.638	-18326	2302.3	-0.3173	0.91734	0.30949
0.896	63.637	-18330	2302.3	-0.31613	0.91656	0.31027
0.898	63.646	-18329	2302.3	-0.31496	0.91578	0.31105
0.9	63.649	-18327	2302.3	-0.31378	0.915	0.31183
0.902	63.646	-18324	2302.4	-0.31173	0.91578	0.31242
0.904	63.643	-18321	2302.4	-0.30968	0.91656	0.313
0.906	63.641	-18320	2302.4	-0.30764	0.91734	0.31359
0.908	63.641	-18319	2302.4	-0.30559	0.91812	0.31417
0.91	63.639	-18323	2302.3	-0.30354	0.9189	0.31476
0.912	63.643	-18326	2302.2	-0.3052	0.91851	0.31574
0.914	63.647	-18327	2302.2	-0.30685	0.91812	0.31671
0.916	63.643	-18327	2302.3	-0.30851	0.91773	0.31769
0.918	63.643	-18333	2302.4	-0.31017	0.91734	0.31866
0.92	63.639	-18340	2302.6	-0.31183	0.91695	0.31964
0.922	63.627	-18330	2302.7	-0.31252	0.91764	0.31896
0.924	63.617	-18320	2302.7	-0.3132	0.91832	0.31827
0.926	63.612	-18319	2302.8	-0.31388	0.919	0.31759
0.928	63.609	-18319	2303	-0.31456	0.91968	0.31691
0.93	63.612	-18321	2303.1	-0.31525	0.92037	0.31622
0.932	63.621	-18324	2303.3	-0.31359	0.91861	0.31691
0.934	63.624	-18322	2303.4	-0.31193	0.91685	0.31759
0.936	63.617	-18319	2303.4	-0.31027	0.9151	0.31827
0.938	63.606	-18315	2303.3	-0.30861	0.91334	0.31896
0.94	63.588	-18310	2303.3	-0.30695	0.91158	0.31964
0.942	63.584	-18316	2303.5	-0.30793	0.91149	0.32042
0.944	63.593	-18322	2303.7	-0.3089	0.91139	0.3212
0.946	63.599	-18320	2304	-0.30988	0.91129	0.32198
0.948	63.601	-18319	2304.3	-0.31086	0.91119	0.32276
0.95	63.579	-18318	2304.6	-0.31183	0.9111	0.32354
0.952	63.563	-18318	2304.9	-0.31447	0.91061	0.32335
0.954	63.55	-18310	2305.2	-0.3171	0.91012	0.32315
0.956	63.537	-18303	2305.3	-0.31974	0.90963	0.32296
0.958	63.53	-18305	2305.2	-0.32237	0.90914	0.32276
0.96	63.525	-18307	2305.2	-0.32501	0.90866	0.32257
0.962	63.529	-18304	2305.3	-0.32345	0.90963	0.32286
0.964	63.536	-18302	2305.3	-0.32188	0.91061	0.32315
0.966	63.533	-18304	2305.5	-0.32032	0.91158	0.32345
0.968	63.524	-18306	2305.8	-0.31876	0.91256	0.32374
0.97	63.52	-18301	2306.1	-0.3172	0.91354	0.32403
0.972	63.517	-18296	2306.2	-0.31974	0.91305	0.32462
0.974	63.509	-18298	2306.4	-0.32228	0.91256	0.3252
0.976	63.495	-18299	2306.6	-0.32481	0.91207	0.32579
0.978	63.507	-18298	2306.7	-0.32735	0.91158	0.32637
0.98	63.548	-18298	2306.8	-0.32989	0.9111	0.32696
0.982	63.561	-18298	2306.8	-0.32696	0.91158	0.32735
0.984	63.565	-18298	2306.9	-0.32403	0.91207	0.32774
0.986	63.572	-18292	2307	-0.3211	0.91256	0.32813
0.988	63.579	-18286	2307	-0.31818	0.91305	0.32852
0.99	63.588	-18291	2307.1	-0.31525	0.91354	0.32891
0.992	63.586	-18296	2307.2	-0.31476	0.9148	0.32706
0.994	63.595	-18292	2307.3	-0.31427	0.91607	0.3252
0.996	63.615	-18289	2307.3	-0.31378	0.91734	0.32335
0.998	63.634	-18284	2307.3	-0.3133	0.91861	0.32149
1	63.648	-18278	2307.3	-0.31281	0.91988	0.31964
1.002	63.662	-18277	2307.3	-0.31359	0.91871	0.32042
1.004	63.672	-18275	2307.3	-0.31437	0.91754	0.3212
1.006	63.68	-18277	2307.3	-0.31515	0.91637	0.32198
1.008	63.687	-18278	2307.3	-0.31593	0.9152	0.32276
1.01	63.69	-18275	2307.3	-0.31671	0.91402	0.32354
1.012	63.696	-18272	2307.2	-0.31564	0.91256	0.32354
1.014	63.703	-18272	2307.2	-0.31456	0.9111	0.32354
1.016	63.712	-18273	2307.2	-0.31349	0.90963	0.32354
1.018	63.726	-18275	2307.1	-0.31242	0.90817	0.32354
1.02	63.734	-18278	2307.1	-0.31134	0.9067	0.32354
1.022	63.741	-18277	2307.1	-0.31134	0.90739	0.32354
1.024	63.745	-18276	2307.1	-0.31134	0.90807	0.32354
1.026	63.753	-18272	2307	-0.31134	0.90875	0.32354
1.028	63.764	-18268	2307	-0.31134	0.90944	0.32354
1.03	63.776	-18266	2306.9	-0.31134	0.91012	0.32354
1.032	63.779	-18263	2306.9	-0.31125	0.91051	0.32247
1.034	63.779	-18264	2306.8	-0.31115	0.9109	0.3214
1.036	63.784	-18265	2306.8	-0.31105	0.91129	0.32032
1.038	63.785	-18268	2306.7	-0.31095	0.91168	0.31925
1.04	63.775	-18271	2306.6	-0.31086	0.91207	0.31818
1.042	63.771	-18267	2306.6	-0.31105	0.91188	0.31847
1.044	63.779	-18263	2306.5	-0.31125	0.91168	0.31876
1.046	63.789	-18265	2306.5	-0.31144	0.91149	0.31905
1.048	63.782	-18266	2306.5	-0.31164	0.91129	0.31935
1.05	63.795	-18264	2306.4	-0.31183	0.9111	0.31964
1.052	63.8	-18263	2306.4	-0.31203	0.91178	0.31876
1.054	63.794	-18260	2306.4	-0.31222	0.91246	0.31788
1.056	63.784	-18258	2306.4	-0.31242	0.91315	0.317
1.058	63.777	-18257	2306.4	-0.31261	0.91383	0.31613
1.06	63.796	-18257	2306.3	-0.31281	0.91451	0.31525
1.062	63.801	-18260	2306.3	-0.31388	0.91559	0.31535
1.064	63.801	-18262	2306.3	-0.31496	0.91666	0.31544
1.066	63.806	-18261	2306.2	-0.31603	0.91773	0.31554
1.068	63.802	-18259	2306.2	-0.3171	0.91881	0.31564
1.07	63.782	-18258	2306.1	-0.31818	0.91988	0.31574
1.072	63.747	-18256	2306.1	-0.31818	0.92037	0.31642
1.074	63.71	-18258	2306.1	-0.31818	0.92086	0.3171
1.076	63.678	-18259	2306.1	-0.31818	0.92134	0.31779
1.078	63.671	-18262	2306.2	-0.31818	0.92183	0.31847
1.08	63.667	-18264	2306.2	-0.31818	0.92232	0.31915
1.082	63.657	-18266	2306.2	-0.31788	0.92193	0.31827
1.084	63.649	-18267	2306.3	-0.31759	0.92154	0.3174
1.086	63.642	-18265	2306.3	-0.3173	0.92115	0.31652
1.088	63.631	-18263	2306.3	-0.317	0.92076	0.31564
1.09	63.623	-18264	2306.3	-0.31671	0.92037	0.31476
1.092	63.623	-18264	2306.4	-0.31798	0.9189	0.31564
1.094	63.626	-18263	2306.4	-0.31925	0.91744	0.31652
1.096	63.622	-18262	2306.4	-0.32052	0.91598	0.3174
1.098	63.619	-18257	2306.4	-0.32179	0.91451	0.31827
1.1	63.625	-18252	2306.4	-0.32306	0.91305	0.31915
1.102	63.633	-18254	2306.3	-0.32335	0.91207	0.32101
1.104	63.638	-18256	2306.3	-0.32364	0.9111	0.32286
1.106	63.639	-18260	2306.2	-0.32393	0.91012	0.32472
1.108	63.643	-18265	2306.2	-0.32423	0.90914	0.32657
1.11	63.652	-18262	2306.2	-0.32452	0.90817	0.32842
1.112	63.655	-18259	2306.1	-0.32345	0.90973	0.32803
1.114	63.664	-18260	2306.1	-0.32237	0.91129	0.32764
1.116	63.674	-18261	2306	-0.3213	0.91285	0.32725
1.118	63.676	-18257	2306	-0.32023	0.91441	0.32686
1.12	63.671	-18253	2306	-0.31915	0.91598	0.32647
1.122	63.662	-18260	2305.9	-0.31905	0.91559	0.32686
1.124	63.662	-18267	2305.8	-0.31896	0.9152	0.32725
1.126	63.661	-18266	2305.7	-0.31886	0.9148	0.32764
1.128	63.665	-18266	2305.7	-0.31876	0.91441	0.32803
1.13	63.692	-18267	2305.6	-0.31866	0.91402	0.32842
1.132	63.713	-18269	2305.5	-0.31866	0.91422	0.32784
1.134	63.708	-18271	2305.4	-0.31866	0.91441	0.32725
1.136	63.711	-18273	2305.3	-0.31866	0.91461	0.32667
1.138	63.719	-18271	2305.2	-0.31866	0.9148	0.32608
1.14	63.707	-18269	2305.1	-0.31866	0.915	0.3255
1.142	63.69	-18265	2305.1	-0.31866	0.91461	0.32628
1.144	63.699	-18260	2305	-0.31866	0.91422	0.32706
1.146	63.694	-18261	2305	-0.31866	0.91383	0.32784
1.148	63.688	-18261	2304.9	-0.31866	0.91344	0.32862
1.15	63.682	-18262	2304.8	-0.31866	0.91305	0.3294
1.152	63.678	-18263	2304.8	-0.31808	0.91276	0.3296
1.154	63.677	-18265	2304.7	-0.31749	0.91246	0.32979
1.156	63.679	-18268	2304.7	-0.31691	0.91217	0.32999
1.158	63.676	-18272	2304.6	-0.31632	0.91188	0.33018
1.16	63.666	-18277	2304.5	-0.31574	0.91158	0.33038
1.162	63.657	-18277	2304.5	-0.31681	0.911	0.33067
1.164	63.66	-18277	2304.4	-0.31788	0.91041	0.33096
1.166	63.667	-18271	2304.4	-0.31896	0.90983	0.33125
1.168	63.666	-18266	2304.3	-0.32003	0.90924	0.33155
1.17	63.666	-18266	2304.3	-0.3211	0.90866	0.33184
1.172	63.662	-18266	2304.2	-0.32071	0.90914	0.33194
1.174	63.643	-18268	2304.2	-0.32032	0.90963	0.33204
1.176	63.622	-18271	2304.1	-0.31993	0.91012	0.33213
1.178	63.61	-18273	2304.1	-0.31954	0.91061	0.33223
1.18	63.61	-18275	2304.1	-0.31915	0.9111	0.33233
1.182	63.619	-18276	2304	-0.31925	0.9108	0.33262
1.184	63.626	-18277	2304	-0.31935	0.91051	0.33291
1.186	63.632	-18275	2303.9	-0.31944	0.91022	0.33321
1.188	63.644	-18274	2303.9	-0.31954	0.90992	0.3335
1.19	63.653	-18273	2303.8	-0.31964	0.90963	0.33379
1.192	63.659	-18271	2303.7	-0.31944	0.90973	0.33389
1.194	63.664	-18271	2303.6	-0.31925	0.90983	0.33399
1.196	63.665	-18271	2303.6	-0.31905	0.90992	0.33408
1.198	63.67	-18271	2303.5	-0.31886	0.91002	0.33418
1.2	63.67	-18270	2303.4	-0.31866	0.91012	0.33428
1.202	63.666	-18273	2303.4	-0.31857	0.91071	0.3334
1.204	63.67	-18276	2303.3	-0.31847	0.91129	0.33252
1.206	63.663	-18278	2303.3	-0.31837	0.91188	0.33164
1.208	63.642	-18280	2303.1	-0.31827	0.91246	0.33077
1.21	63.626	-18279	2303	-0.31818	0.91305	0.32989
1.212	63.631	-18277	2302.9	-0.31808	0.91236	0.33067
1.214	63.641	-18278	2302.9	-0.31798	0.91168	0.33145
1.216	63.658	-18279	2302.8	-0.31788	0.911	0.33223
1.218	63.661	-18281	2302.6	-0.31779	0.91032	0.33301
1.22	63.656	-18283	2302.5	-0.31769	0.90963	0.33379
1.222	63.659	-18283	2302.4	-0.31749	0.90992	0.33321
1.224	63.655	-18283	2302.3	-0.3173	0.91022	0.33262
1.226	63.661	-18285	2302.2	-0.3171	0.91051	0.33204
1.228	63.675	-18286	2302	-0.31691	0.9108	0.33145
1.23	63.678	-18287	2301.9	-0.31671	0.9111	0.33086
1.232	63.684	-18287	2301.8	-0.31759	0.91041	0.33047
1.234	63.697	-18288	2301.7	-0.31847	0.90973	0.33008
1.236	63.709	-18290	2301.6	-0.31935	0.90905	0.32969
1.238	63.697	-18289	2301.4	-0.32023	0.90836	0.3293
1.24	63.679	-18288	2301.3	-0.3211	0.90768	0.32891
1.242	63.679	-18282	2301.1	-0.32101	0.9069	0.32735
1.244	63.679	-18276	2301	-0.32091	0.90612	0.32579
1.246	63.702	-18274	2300.8	-0.32081	0.90534	0.32423
1.248	63.724	-18272	2300.7	-0.32071	0.90456	0.32267
1.25	63.727	-18278	2300.6	-0.32062	0.90378	0.3211
1.252	63.729	-18284	2300.5	-0.32237	0.90485	0.32159
1.254	63.729	-18282	2300.3	-0.32413	0.90592	0.32208
1.256	63.724	-18280	2300.2	-0.32589	0.907	0.32257
1.258	63.726	-18279	2300.1	-0.32764	0.90807	0.32306
1.26	63.713	-18277	2300	-0.3294	0.90914	0.32354
1.262	63.71	-18278	2299.8	-0.32881	0.90846	0.32384
1.264	63.733	-18278	2299.7	-0.32823	0.90778	0.32413
1.266	63.751	-18277	2299.6	-0.32764	0.90709	0.32442
1.268	63.75	-18275	2299.4	-0.32706	0.90641	0.32472
1.27	63.746	-18275	2299.3	-0.32647	0.90573	0.32501
1.272	63.746	-18274	2299.2	-0.32667	0.90553	0.32462
1.274	63.747	-18273	2299	-0.32686	0.90534	0.32423
1.276	63.76	-18272	2298.9	-0.32706	0.90514	0.32384
1.278	63.788	-18273	2298.9	-0.32725	0.90495	0.32345
1.28	63.805	-18273	2298.8	-0.32745	0.90475	0.32306
1.282	63.811	-18280	2298.7	-0.32696	0.90436	0.32257
1.284	63.819	-18288	2298.6	-0.32647	0.90397	0.32208
1.286	63.804	-18295	2298.5	-0.32598	0.90358	0.32159
1.288	63.768	-18303	2298.4	-0.3255	0.90319	0.3211
1.29	63.72	-18301	2298.3	-0.32501	0.9028	0.32062
1.292	63.678	-18299	2298.2	-0.32472	0.903	0.32052
1.294	63.646	-18298	2298.2	-0.32442	0.90319	0.32042
1.296	63.61	-18297	2298.1	-0.32413	0.90339	0.32032
1.298	63.566	-18299	2298	-0.32384	0.90358	0.32023
1.3	63.508	-18300	2297.9	-0.32354	0.90378	0.32013
1.302	63.431	-18295	2297.9	-0.32276	0.90397	0.32013
1.304	63.353	-18290	2297.8	-0.32198	0.90417	0.32013
1.306	63.25	-18293	2297.7	-0.3212	0.90436	0.32013
1.308	63.125	-18296	2297.7	-0.32042	0.90456	0.32013
1.31	63.021	-18292	2297.7	-0.31964	0.90475	0.32013
1.312	62.944	-18288	2297.6	-0.32013	0.90465	0.32052
1.314	62.906	-18286	2297.6	-0.32062	0.90456	0.32091
1.316	62.906	-18284	2297.6	-0.3211	0.90446	0.3213
1.318	62.936	-18292	2297.5	-0.32159	0.90436	0.32169
1.32	63.002	-18301	2297.5	-0.32208	0.90426	0.32208
1.322	63.079	-18302	2297.5	-0.32003	0.90407	0.3214
1.324	63.155	-18304	2297.5	-0.31798	0.90387	0.32071
1.326	63.249	-18305	2297.5	-0.31593	0.90368	0.32003
1.328	63.357	-18305	2297.4	-0.31388	0.90348	0.31935
1.33	63.476	-18306	2297.4	-0.31183	0.90329	0.31866
1.332	63.583	-18306	2297.3	-0.31193	0.9027	0.31759
1.334	63.649	-18306	2297.3	-0.31203	0.90212	0.31652
1.336	63.677	-18307	2297.2	-0.31212	0.90153	0.31544
1.338	63.684	-18304	2297.3	-0.31222	0.90095	0.31437
1.34	63.688	-18301	2297.3	-0.31232	0.90036	0.3133
1.342	63.713	-18303	2297.2	-0.31125	0.89968	0.31378
1.344	63.748	-18305	2297.2	-0.31017	0.89899	0.31427
1.346	63.768	-18301	2297.1	-0.3091	0.89831	0.31476
1.348	63.774	-18297	2297.1	-0.30803	0.89763	0.31525
1.35	63.765	-18300	2297.1	-0.30695	0.89694	0.31574
1.352	63.751	-18303	2297.2	-0.30695	0.89743	0.31603
1.354	63.733	-18302	2297.2	-0.30695	0.89792	0.31632
1.356	63.714	-18301	2297.1	-0.30695	0.89841	0.31661
1.358	63.709	-18306	2297.1	-0.30695	0.8989	0.31691
1.36	63.71	-18310	2297.1	-0.30695	0.89938	0.3172
1.362	63.711	-18308	2297	-0.30685	0.89938	0.31661
1.364	63.715	-18305	2296.9	-0.30676	0.89938	0.31603
1.366	63.718	-18307	2296.9	-0.30666	0.89938	0.31544
1.368	63.719	-18308	2296.8	-0.30656	0.89938	0.31486
1.37	63.727	-18309	2296.8	-0.30646	0.89938	0.31427
1.372	63.732	-18309	2296.7	-0.30744	0.89919	0.31427
1.374	63.719	-18307	2296.6	-0.30842	0.89899	0.31427
1.376	63.706	-18306	2296.5	-0.30939	0.8988	0.31427
1.378	63.706	-18306	2296.3	-0.31037	0.8986	0.31427
1.38	63.723	-18306	2296.2	-0.31134	0.89841	0.31427
1.382	63.734	-18308	2296	-0.31017	0.89929	0.31388
1.384	63.743	-18310	2295.8	-0.309	0.90016	0.31349
1.386	63.736	-18314	2295.7	-0.30783	0.90104	0.3131
1.388	63.731	-18317	2295.6	-0.30666	0.90192	0.31271
1.39	63.731	-18313	2295.5	-0.30549	0.9028	0.31232
1.392	63.73	-18309	2295.4	-0.30656	0.90348	0.31271
1.394	63.729	-18310	2295.3	-0.30764	0.90417	0.3131
1.396	63.723	-18311	2295.2	-0.30871	0.90485	0.31349
1.398	63.718	-18310	2295.1	-0.30978	0.90553	0.31388
1.4	63.702	-18309	2295.1	-0.31086	0.90622	0.31427
1.402	63.678	-18309	2295	-0.31017	0.90641	0.31417
1.404	63.657	-18309	2294.9	-0.30949	0.90661	0.31408
1.406	63.642	-18312	2294.9	-0.30881	0.9068	0.31398
1.408	63.637	-18314	2294.8	-0.30812	0.907	0.31388
1.41	63.628	-18312	2294.7	-0.30744	0.90719	0.31378
1.412	63.628	-18310	2294.7	-0.30734	0.90846	0.31349
1.414	63.641	-18309	2294.6	-0.30724	0.90973	0.3132
1.416	63.663	-18308	2294.5	-0.30715	0.911	0.31291
1.418	63.665	-18311	2294.5	-0.30705	0.91227	0.31261
1.42	63.657	-18314	2294.4	-0.30695	0.91354	0.31232
1.422	63.659	-18311	2294.3	-0.30598	0.91227	0.313
1.424	63.658	-18309	2294.2	-0.305	0.911	0.31369
1.426	63.653	-18311	2294.2	-0.30402	0.90973	0.31437
1.428	63.655	-18314	2294.1	-0.30305	0.90846	0.31505
1.43	63.663	-18313	2294	-0.30207	0.90719	0.31574
1.432	63.67	-18312	2294	-0.30119	0.90739	0.31691
1.434	63.676	-18313	2293.9	-0.30032	0.90758	0.31808
1.436	63.676	-18314	2293.9	-0.29944	0.90778	0.31925
1.438	63.67	-18314	2293.9	-0.29856	0.90797	0.32042
1.44	63.662	-18313	2293.9	-0.29768	0.90817	0.32159
1.442	63.658	-18316	2293.9	-0.29758	0.90846	0.32101
1.444	63.659	-18318	2293.9	-0.29748	0.90875	0.32042
1.446	63.661	-18319	2293.9	-0.29739	0.90905	0.31984
1.448	63.665	-18320	2294	-0.29729	0.90934	0.31925
1.45	63.671	-18320	2294	-0.29719	0.90963	0.31866
1.452	63.676	-18320	2294	-0.2968	0.90983	0.31847
1.454	63.669	-18314	2294.1	-0.29641	0.91002	0.31827
1.456	63.658	-18309	2294.1	-0.29602	0.91022	0.31808
1.458	63.644	-18318	2294.1	-0.29563	0.91041	0.31788
1.46	63.636	-18327	2294.2	-0.29524	0.91061	0.31769
1.462	63.639	-18322	2294.3	-0.29622	0.91051	0.31798
1.464	63.645	-18316	2294.3	-0.29719	0.91041	0.31827
1.466	63.652	-18318	2294.4	-0.29817	0.91032	0.31857
1.468	63.655	-18320	2294.5	-0.29914	0.91022	0.31886
1.47	63.653	-18322	2294.5	-0.30012	0.91012	0.31915
1.472	63.649	-18323	2294.6	-0.29983	0.91002	0.31935
1.474	63.644	-18317	2294.7	-0.29953	0.90992	0.31954
1.476	63.634	-18312	2294.8	-0.29924	0.90983	0.31974
1.478	63.632	-18311	2294.9	-0.29895	0.90973	0.31993
1.48	63.635	-18311	2295	-0.29866	0.90963	0.32013
1.482	63.626	-18315	2295.2	-0.30061	0.90866	0.31974
1.484	63.634	-18318	2295.4	-0.30256	0.90768	0.31935
1.486	63.646	-18311	2295.6	-0.30451	0.9067	0.31896
1.488	63.649	-18305	2295.7	-0.30646	0.90573	0.31857
1.49	63.633	-18304	2295.9	-0.30842	0.90475	0.31818
1.492	63.63	-18304	2296	-0.3089	0.90456	0.31652
1.494	63.629	-18302	2296.2	-0.30939	0.90436	0.31486
1.496	63.635	-18299	2296.3	-0.30988	0.90417	0.3132
1.498	63.646	-18300	2296.5	-0.31037	0.90397	0.31154
1.5	63.658	-18302	2296.6	-0.31086	0.90378	0.30988
1.502	63.662	-18296	2296.8	-0.31066	0.90329	0.31017
1.504	63.651	-18290	2296.9	-0.31047	0.9028	0.31047
1.506	63.652	-18298	2297.1	-0.31027	0.90231	0.31076
1.508	63.66	-18305	2297.1	-0.31008	0.90182	0.31105
1.51	63.666	-18303	2297.2	-0.30988	0.90134	0.31134
1.512	63.667	-18301	2297.3	-0.31027	0.90251	0.31193
1.514	63.675	-18296	2297.4	-0.31066	0.90368	0.31252
1.516	63.686	-18290	2297.5	-0.31105	0.90485	0.3131
1.518	63.691	-18292	2297.5	-0.31144	0.90602	0.31369
1.52	63.689	-18293	2297.6	-0.31183	0.90719	0.31427
1.522	63.686	-18292	2297.6	-0.31066	0.90651	0.31398
1.524	63.683	-18291	2297.7	-0.30949	0.90583	0.31369
1.526	63.685	-18284	2297.7	-0.30832	0.90514	0.31339
1.528	63.696	-18278	2297.8	-0.30715	0.90446	0.3131
1.53	63.711	-18280	2297.9	-0.30598	0.90378	0.31281
1.532	63.729	-18282	2297.9	-0.30383	0.90456	0.31369
1.534	63.745	-18277	2297.9	-0.30168	0.90534	0.31456
1.536	63.749	-18273	2297.9	-0.29953	0.90612	0.31544
1.538	63.741	-18271	2297.9	-0.29739	0.9069	0.31632
1.54	63.737	-18268	2297.9	-0.29524	0.90768	0.3172
1.542	63.75	-18267	2297.9	-0.29592	0.90768	0.3173
1.544	63.752	-18265	2297.9	-0.29661	0.90768	0.3174
1.546	63.769	-18265	2297.9	-0.29729	0.90768	0.31749
1.548	63.783	-18264	2297.9	-0.29797	0.90768	0.31759
1.55	63.793	-18258	2297.8	-0.29866	0.90768	0.31769
1.552	63.799	-18251	2297.8	-0.29807	0.90758	0.3171
1.554	63.805	-18261	2297.8	-0.29748	0.90748	0.31652
1.556	63.805	-18271	2297.8	-0.2969	0.90739	0.31593
1.558	63.799	-18267	2297.8	-0.29631	0.90729	0.31535
1.56	63.797	-18263	2297.7	-0.29573	0.90719	0.31476
1.562	63.795	-18260	2297.7	-0.29583	0.90748	0.31554
1.564	63.799	-18257	2297.7	-0.29592	0.90778	0.31632
1.566	63.821	-18258	2297.7	-0.29602	0.90807	0.3171
1.568	63.84	-18259	2297.6	-0.29612	0.90836	0.31788
1.57	63.84	-18258	2297.6	-0.29622	0.90866	0.31866
1.572	63.832	-18258	2297.6	-0.29729	0.90856	0.31827
1.574	63.825	-18257	2297.6	-0.29836	0.90846	0.31788
1.576	63.821	-18257	2297.6	-0.29944	0.90836	0.31749
1.578	63.826	-18250	2297.5	-0.30051	0.90827	0.3171
1.58	63.835	-18244	2297.5	-0.30158	0.90817	0.31671
1.582	63.851	-18249	2297.5	-0.30276	0.90768	0.31642
1.584	63.858	-18254	2297.5	-0.30393	0.90719	0.31613
1.586	63.854	-18253	2297.5	-0.3051	0.9067	0.31583
1.588	63.848	-18252	2297.5	-0.30627	0.90622	0.31554
1.59	63.84	-18253	2297.5	-0.30744	0.90573	0.31525
1.592	63.832	-18253	2297.5	-0.30744	0.90592	0.31593
1.594	63.83	-18249	2297.6	-0.30744	0.90612	0.31661
1.596	63.837	-18246	2297.6	-0.30744	0.90631	0.3173
1.598	63.843	-18247	2297.6	-0.30744	0.90651	0.31798
1.6	63.843	-18248	2297.7	-0.30744	0.9067	0.31866
1.602	63.846	-18250	2297.8	-0.30842	0.9068	0.31847
1.604	63.846	-18252	2297.8	-0.30939	0.9069	0.31827
1.606	63.841	-18251	2297.9	-0.31037	0.907	0.31808
1.608	63.834	-18250	2297.9	-0.31134	0.90709	0.31788
1.61	63.827	-18251	2298	-0.31232	0.90719	0.31769
1.612	63.823	-18252	2298	-0.31466	0.90729	0.31857
1.614	63.827	-18252	2298	-0.317	0.90739	0.31944
1.616	63.831	-18253	2298.1	-0.31935	0.90748	0.32032
1.618	63.833	-18250	2298.1	-0.32169	0.90758	0.3212
1.62	63.835	-18247	2298.1	-0.32403	0.90768	0.32208
1.622	63.827	-18249	2298.2	-0.32423	0.90748	0.32228
1.624	63.816	-18250	2298.3	-0.32442	0.90729	0.32247
1.626	63.811	-18252	2298.3	-0.32462	0.90709	0.32267
1.628	63.805	-18254	2298.4	-0.32481	0.9069	0.32286
1.63	63.801	-18252	2298.4	-0.32501	0.9067	0.32306
1.632	63.812	-18250	2298.5	-0.32491	0.90641	0.32481
1.634	63.829	-18253	2298.5	-0.32481	0.90612	0.32657
1.636	63.833	-18257	2298.5	-0.32472	0.90583	0.32833
1.638	63.819	-18254	2298.6	-0.32462	0.90553	0.33008
1.64	63.803	-18252	2298.6	-0.32452	0.90524	0.33184
1.642	63.795	-18250	2298.6	-0.32569	0.90553	0.33106
1.644	63.809	-18248	2298.7	-0.32686	0.90583	0.33028
1.646	63.82	-18252	2298.7	-0.32803	0.90612	0.3295
1.648	63.817	-18255	2298.7	-0.3292	0.90641	0.32872
1.65	63.825	-18255	2298.7	-0.33038	0.9067	0.32794
1.652	63.821	-18254	2298.7	-0.33047	0.90622	0.32774
1.654	63.826	-18254	2298.8	-0.33057	0.90573	0.32755
1.656	63.821	-18255	2298.8	-0.33067	0.90524	0.32735
1.658	63.811	-18254	2298.8	-0.33077	0.90475	0.32716
1.66	63.806	-18254	2298.8	-0.33086	0.90426	0.32696
1.662	63.811	-18255	2298.8	-0.32872	0.90446	0.32833
1.664	63.82	-18255	2298.8	-0.32657	0.90465	0.32969
1.666	63.827	-18255	2298.8	-0.32442	0.90485	0.33106
1.668	63.828	-18254	2298.8	-0.32228	0.90504	0.33243
1.67	63.817	-18256	2298.8	-0.32013	0.90524	0.33379
1.672	63.81	-18257	2298.8	-0.32023	0.90456	0.33369
1.674	63.806	-18257	2298.7	-0.32032	0.90387	0.3336
1.676	63.802	-18256	2298.7	-0.32042	0.90319	0.3335
1.678	63.802	-18256	2298.7	-0.32052	0.90251	0.3334
1.68	63.807	-18256	2298.7	-0.32062	0.90182	0.3333
1.682	63.815	-18257	2298.8	-0.32052	0.90231	0.33301
1.684	63.821	-18259	2298.8	-0.32042	0.9028	0.33272
1.686	63.82	-18257	2298.8	-0.32032	0.90329	0.33243
1.688	63.811	-18256	2298.8	-0.32023	0.90378	0.33213
1.69	63.803	-18255	2298.8	-0.32013	0.90426	0.33184
1.692	63.802	-18255	2298.8	-0.32013	0.90348	0.33262
1.694	63.803	-18256	2298.8	-0.32013	0.9027	0.3334
1.696	63.8	-18257	2298.9	-0.32013	0.90192	0.33418
1.698	63.803	-18257	2298.9	-0.32013	0.90114	0.33496
1.7	63.812	-18257	2298.9	-0.32013	0.90036	0.33574
1.702	63.816	-18257	2298.9	-0.32149	0.90016	0.33613
1.704	63.811	-18256	2298.9	-0.32286	0.89997	0.33652
1.706	63.797	-18259	2298.9	-0.32423	0.89977	0.33692
1.708	63.79	-18261	2298.8	-0.32559	0.89958	0.33731
1.71	63.784	-18260	2298.8	-0.32696	0.89938	0.3377
1.712	63.761	-18259	2298.8	-0.32628	0.89987	0.33662
1.714	63.746	-18257	2298.8	-0.32559	0.90036	0.33555
1.716	63.739	-18254	2298.8	-0.32491	0.90085	0.33448
1.718	63.74	-18257	2298.7	-0.32423	0.90134	0.3334
1.72	63.744	-18259	2298.7	-0.32354	0.90182	0.33233
1.722	63.743	-18261	2298.7	-0.32364	0.90221	0.33262
1.724	63.749	-18263	2298.8	-0.32374	0.9026	0.33291
1.726	63.752	-18263	2298.8	-0.32384	0.903	0.33321
1.728	63.757	-18263	2298.8	-0.32393	0.90339	0.3335
1.73	63.772	-18263	2298.8	-0.32403	0.90378	0.33379
1.732	63.773	-18262	2298.9	-0.32403	0.90319	0.3336
1.734	63.773	-18262	2298.9	-0.32403	0.9026	0.3334
1.736	63.775	-18261	2299	-0.32403	0.90202	0.33321
1.738	63.774	-18261	2299	-0.32403	0.90143	0.33301
1.74	63.78	-18261	2299	-0.32403	0.90085	0.33282
1.742	63.776	-18260	2299.1	-0.32491	0.90114	0.33233
1.744	63.768	-18259	2299.1	-0.32579	0.90143	0.33184
1.746	63.763	-18259	2299.2	-0.32667	0.90173	0.33135
1.748	63.771	-18260	2299.2	-0.32755	0.90202	0.33086
1.75	63.786	-18259	2299.2	-0.32842	0.90231	0.33038
1.752	63.801	-18257	2299.2	-0.32979	0.90417	0.33164
1.754	63.815	-18256	2299.3	-0.33116	0.90602	0.33291
1.756	63.823	-18255	2299.3	-0.33252	0.90788	0.33418
1.758	63.823	-18258	2299.3	-0.33389	0.90973	0.33545
1.76	63.827	-18261	2299.4	-0.33526	0.91158	0.33672
1.762	63.834	-18265	2299.4	-0.33379	0.91188	0.33604
1.764	63.84	-18269	2299.4	-0.33233	0.91217	0.33535
1.766	63.844	-18267	2299.4	-0.33086	0.91246	0.33467
1.768	63.848	-18265	2299.4	-0.3294	0.91276	0.33399
1.77	63.85	-18263	2299.4	-0.32794	0.91305	0.3333
1.772	63.852	-18262	2299.4	-0.32774	0.91129	0.33291
1.774	63.852	-18263	2299.5	-0.32755	0.90953	0.33252
1.776	63.846	-18264	2299.4	-0.32735	0.90778	0.33213
1.778	63.839	-18264	2299.4	-0.32716	0.90602	0.33174
1.78	63.839	-18264	2299.3	-0.32696	0.90426	0.33135
1.782	63.844	-18266	2299.3	-0.32696	0.90544	0.33174
1.784	63.847	-18267	2299.3	-0.32696	0.90661	0.33213
1.786	63.845	-18265	2299.2	-0.32696	0.90778	0.33252
1.788	63.84	-18264	2299.2	-0.32696	0.90895	0.33291
1.79	63.834	-18266	2299.1	-0.32696	0.91012	0.3333
1.792	63.826	-18268	2299	-0.32706	0.90866	0.33223
1.794	63.823	-18268	2299	-0.32716	0.90719	0.33116
1.796	63.83	-18268	2298.9	-0.32725	0.90573	0.33008
1.798	63.839	-18264	2298.8	-0.32735	0.90426	0.32901
1.8	63.84	-18260	2298.7	-0.32745	0.9028	0.32794
1.802	63.838	-18266	2298.6	-0.32784	0.90387	0.32862
1.804	63.834	-18271	2298.6	-0.32823	0.90495	0.3293
1.806	63.826	-18274	2298.5	-0.32862	0.90602	0.32999
1.808	63.823	-18277	2298.3	-0.32901	0.90709	0.33067
1.81	63.817	-18271	2298.2	-0.3294	0.90817	0.33135
1.812	63.821	-18265	2298.1	-0.33047	0.90797	0.33086
1.814	63.849	-18265	2298.1	-0.33155	0.90778	0.33038
1.816	63.867	-18265	2298	-0.33262	0.90758	0.32989
1.818	63.886	-18265	2297.9	-0.33369	0.90739	0.3294
1.82	63.906	-18266	2297.8	-0.33477	0.90719	0.32891
1.822	63.908	-18265	2297.7	-0.33379	0.90602	0.32784
1.824	63.889	-18264	2297.7	-0.33282	0.90485	0.32676
1.826	63.865	-18266	2297.6	-0.33184	0.90368	0.32569
1.828	63.833	-18268	2297.5	-0.33086	0.90251	0.32462
1.83	63.797	-18270	2297.5	-0.32989	0.90134	0.32354
1.832	63.752	-18271	2297.4	-0.32969	0.90153	0.32364
1.834	63.696	-18267	2297.3	-0.3295	0.90173	0.32374
1.836	63.618	-18263	2297.3	-0.3293	0.90192	0.32384
1.838	63.528	-18263	2297.2	-0.32911	0.90212	0.32393
1.84	63.432	-18263	2297.1	-0.32891	0.90231	0.32403
1.842	63.326	-18266	2297.1	-0.3292	0.90348	0.3253
1.844	63.211	-18269	2297	-0.3295	0.90465	0.32657
1.846	63.112	-18268	2297	-0.32979	0.90583	0.32784
1.848	63.015	-18268	2297	-0.33008	0.907	0.32911
1.85	62.945	-18283	2297	-0.33038	0.90817	0.33038
1.852	62.925	-18297	2297	-0.32989	0.9068	0.32862
1.854	62.931	-18295	2297	-0.3294	0.90544	0.32686
1.856	62.974	-18292	2297	-0.32891	0.90407	0.32511
1.858	63.052	-18289	2297	-0.32842	0.9027	0.32335
1.86	63.157	-18286	2297	-0.32794	0.90134	0.32159
1.862	63.267	-18289	2297	-0.32637	0.90192	0.3214
1.864	63.376	-18292	2297	-0.32481	0.90251	0.3212
1.866	63.498	-18293	2297.1	-0.32325	0.90309	0.32101
1.868	63.602	-18293	2297.1	-0.32169	0.90368	0.32081
1.87	63.667	-18285	2297.2	-0.32013	0.90426	0.32062
1.872	63.7	-18277	2297.1	-0.32013	0.90446	0.32091
1.874	63.713	-18278	2297.1	-0.32013	0.90465	0.3212
1.876	63.727	-18278	2297.1	-0.32013	0.90485	0.32149
1.878	63.748	-18281	2297.1	-0.32013	0.90504	0.32179
1.88	63.792	-18283	2297.1	-0.32013	0.90524	0.32208
1.882	63.832	-18284	2297.1	-0.31984	0.90534	0.3214
1.884	63.84	-18286	2297.2	-0.31954	0.90544	0.32071
1.886	63.811	-18283	2297.2	-0.31925	0.90553	0.32003
1.888	63.781	-18280	2297.2	-0.31896	0.90563	0.31935
1.89	63.766	-18281	2297.2	-0.31866	0.90573	0.31866
1.892	63.759	-18282	2297.2	-0.31954	0.90583	0.31984
1.894	63.757	-18285	2297.3	-0.32042	0.90592	0.32101
1.896	63.757	-18289	2297.3	-0.3213	0.90602	0.32218
1.898	63.761	-18290	2297.3	-0.32218	0.90612	0.32335
1.9	63.768	-18291	2297.3	-0.32306	0.90622	0.32452
1.902	63.769	-18290	2297.3	-0.32345	0.90553	0.32393
1.904	63.776	-18289	2297.2	-0.32384	0.90485	0.32335
1.906	63.771	-18288	2297.2	-0.32423	0.90417	0.32276
1.908	63.764	-18288	2297.1	-0.32462	0.90348	0.32218
1.91	63.759	-18287	2297.1	-0.32501	0.9028	0.32159
1.912	63.768	-18287	2297	-0.32511	0.9029	0.32179
1.914	63.769	-18290	2297	-0.3252	0.903	0.32198
1.916	63.763	-18292	2297	-0.3253	0.90309	0.32218
1.918	63.779	-18289	2296.9	-0.3254	0.90319	0.32237
1.92	63.785	-18285	2296.8	-0.3255	0.90329	0.32257
1.922	63.778	-18286	2296.7	-0.3252	0.90417	0.32306
1.924	63.767	-18287	2296.6	-0.32491	0.90504	0.32354
1.926	63.763	-18284	2296.6	-0.32462	0.90592	0.32403
1.928	63.768	-18281	2296.6	-0.32432	0.9068	0.32452
1.93	63.77	-18279	2296.6	-0.32403	0.90768	0.32501
1.932	63.758	-18277	2296.6	-0.32345	0.90914	0.32413
1.934	63.746	-18283	2296.6	-0.32286	0.91061	0.32325
1.936	63.743	-18288	2296.6	-0.32228	0.91207	0.32237
1.938	63.735	-18288	2296.6	-0.32169	0.91354	0.32149
1.94	63.717	-18287	2296.7	-0.3211	0.915	0.32062
1.942	63.697	-18289	2296.7	-0.31915	0.91549	0.32013
1.944	63.689	-18290	2296.7	-0.3172	0.91598	0.31964
1.946	63.703	-18292	2296.7	-0.31525	0.91646	0.31915
1.948	63.723	-18294	2296.7	-0.3133	0.91695	0.31866
1.95	63.731	-18288	2296.7	-0.31134	0.91744	0.31818
1.952	63.724	-18282	2296.7	-0.31291	0.91881	0.31905
1.954	63.705	-18287	2296.7	-0.31447	0.92017	0.31993
1.956	63.687	-18292	2296.6	-0.31603	0.92154	0.32081
1.958	63.678	-18293	2296.6	-0.31759	0.92291	0.32169
1.96	63.674	-18294	2296.5	-0.31915	0.92427	0.32257
1.962	63.669	-18290	2296.5	-0.31857	0.92232	0.32257
1.964	63.672	-18286	2296.5	-0.31798	0.92037	0.32257
1.966	63.673	-18288	2296.5	-0.3174	0.91842	0.32257
1.968	63.668	-18290	2296.5	-0.31681	0.91646	0.32257
1.97	63.652	-18291	2296.5	-0.31622	0.91451	0.32257
1.972	63.641	-18293	2296.5	-0.31505	0.91383	0.32393
1.974	63.635	-18292	2296.4	-0.31388	0.91315	0.3253
1.976	63.623	-18292	2296.4	-0.31271	0.91246	0.32667
1.978	63.621	-18292	2296.5	-0.31154	0.91178	0.32803
1.98	63.625	-18292	2296.5	-0.31037	0.9111	0.3294
1.982	63.621	-18289	2296.5	-0.30968	0.91168	0.32901
1.984	63.613	-18287	2296.5	-0.309	0.91227	0.32862
1.986	63.594	-18290	2296.5	-0.30832	0.91285	0.32823
1.988	63.583	-18293	2296.5	-0.30764	0.91344	0.32784
1.99	63.577	-18295	2296.5	-0.30695	0.91402	0.32745
1.992	63.567	-18297	2296.5	-0.30715	0.91354	0.32833
1.994	63.561	-18297	2296.5	-0.30734	0.91305	0.3292
1.996	63.552	-18297	2296.5	-0.30754	0.91256	0.33008
1.998	63.555	-18296	2296.5	-0.30773	0.91207	0.33096
2	63.556	-18295	2296.5	-0.30793	0.91158	0.33184
2.002	63.54	-18296	2296.5	-0.30842	0.91129	0.33155
2.004	63.53	-18297	2296.5	-0.3089	0.911	0.33125
2.006	63.523	-18293	2296.6	-0.30939	0.91071	0.33096
2.008	63.518	-18289	2296.7	-0.30988	0.91041	0.33067
2.01	63.502	-18289	2296.7	-0.31037	0.91012	0.33038
2.012	63.487	-18289	2296.8	-0.30968	0.91012	0.33008
2.014	63.481	-18292	2296.9	-0.309	0.91012	0.32979
2.016	63.479	-18295	2297	-0.30832	0.91012	0.3295
2.018	63.475	-18294	2297.2	-0.30764	0.91012	0.3292
2.02	63.459	-18292	2297.3	-0.30695	0.91012	0.32891
2.022	63.443	-18285	2297.5	-0.30822	0.90973	0.32891
2.024	63.437	-18278	2297.7	-0.30949	0.90934	0.32891
2.026	63.436	-18281	2297.8	-0.31076	0.90895	0.32891
2.028	63.436	-18285	2298	-0.31203	0.90856	0.32891
2.03	63.439	-18285	2298.1	-0.3133	0.90817	0.32891
2.032	63.449	-18286	2298.3	-0.31378	0.90827	0.32979
2.034	63.458	-18276	2298.4	-0.31427	0.90836	0.33067
2.036	63.455	-18266	2298.5	-0.31476	0.90846	0.33155
2.038	63.445	-18269	2298.7	-0.31525	0.90856	0.33243
2.04	63.443	-18272	2298.8	-0.31574	0.90866	0.3333
2.042	63.447	-18270	2298.9	-0.31652	0.90895	0.33301
2.044	63.448	-18267	2299	-0.3173	0.90924	0.33272
2.046	63.456	-18266	2299.1	-0.31808	0.90953	0.33243
2.048	63.465	-18265	2299.2	-0.31886	0.90983	0.33213
2.05	63.467	-18265	2299.4	-0.31964	0.91012	0.33184
2.052	63.467	-18265	2299.5	-0.31954	0.90973	0.33155
2.054	63.468	-18265	2299.6	-0.31944	0.90934	0.33125
2.056	63.47	-18266	2299.7	-0.31935	0.90895	0.33096
2.058	63.474	-18264	2299.8	-0.31925	0.90856	0.33067
2.06	63.475	-18262	2299.9	-0.31915	0.90817	0.33038
2.062	63.479	-18257	2299.9	-0.32003	0.90768	0.33018
2.064	63.495	-18252	2300	-0.32091	0.90719	0.32999
2.066	63.509	-18246	2300.1	-0.32179	0.9067	0.32979
2.068	63.518	-18241	2300.2	-0.32267	0.90622	0.3296
2.07	63.512	-18238	2300.3	-0.32354	0.90573	0.3294
2.072	63.516	-18235	2300.3	-0.32374	0.90475	0.32755
2.074	63.528	-18234	2300.4	-0.32393	0.90378	0.32569
2.076	63.532	-18233	2300.4	-0.32413	0.9028	0.32384
2.078	63.536	-18240	2300.5	-0.32432	0.90182	0.32198
2.08	63.554	-18247	2300.6	-0.32452	0.90085	0.32013
2.082	63.567	-18246	2300.6	-0.32345	0.90192	0.32023
2.084	63.583	-18246	2300.5	-0.32237	0.903	0.32032
2.086	63.591	-18239	2300.6	-0.3213	0.90407	0.32042
2.088	63.587	-18232	2300.6	-0.32023	0.90514	0.32052
2.09	63.587	-18236	2300.7	-0.31915	0.90622	0.32062
2.092	63.593	-18241	2300.7	-0.31886	0.90583	0.31984
2.094	63.601	-18241	2300.7	-0.31857	0.90544	0.31905
2.096	63.608	-18242	2300.7	-0.31827	0.90504	0.31827
2.098	63.617	-18236	2300.7	-0.31798	0.90465	0.31749
2.1	63.63	-18231	2300.7	-0.31769	0.90426	0.31671
2.102	63.633	-18229	2300.8	-0.31642	0.90241	0.3174
2.104	63.626	-18227	2300.8	-0.31515	0.90056	0.31808
2.106	63.617	-18229	2300.8	-0.31388	0.8987	0.31876
2.108	63.615	-18231	2300.7	-0.31261	0.89685	0.31944
2.11	63.617	-18232	2300.7	-0.31134	0.89499	0.32013
2.112	63.622	-18232	2300.7	-0.3133	0.89587	0.31827
2.114	63.626	-18229	2300.7	-0.31525	0.89675	0.31642
2.116	63.629	-18226	2300.6	-0.3172	0.89763	0.31456
2.118	63.636	-18227	2300.6	-0.31915	0.89851	0.31271
2.12	63.643	-18228	2300.6	-0.3211	0.89938	0.31086
2.122	63.64	-18230	2300.6	-0.32179	0.89899	0.31115
2.124	63.635	-18232	2300.5	-0.32247	0.8986	0.31144
2.126	63.637	-18229	2300.5	-0.32315	0.89821	0.31173
2.128	63.635	-18227	2300.5	-0.32384	0.89782	0.31203
2.13	63.633	-18226	2300.6	-0.32452	0.89743	0.31232
2.132	63.636	-18226	2300.6	-0.32364	0.89851	0.31242
2.134	63.631	-18227	2300.6	-0.32276	0.89958	0.31252
2.136	63.621	-18228	2300.7	-0.32188	0.90065	0.31261
2.138	63.626	-18225	2300.7	-0.32101	0.90173	0.31271
2.14	63.643	-18222	2300.7	-0.32013	0.9028	0.31281
2.142	63.638	-18223	2300.7	-0.32042	0.90387	0.31349
2.144	63.627	-18224	2300.8	-0.32071	0.90495	0.31417
2.146	63.639	-18224	2300.8	-0.32101	0.90602	0.31486
2.148	63.65	-18224	2300.8	-0.3213	0.90709	0.31554
2.15	63.65	-18220	2300.8	-0.32159	0.90817	0.31622
2.152	63.642	-18216	2300.9	-0.32198	0.90875	0.31632
2.154	63.641	-18216	2301	-0.32237	0.90934	0.31642
2.156	63.636	-18216	2301.1	-0.32276	0.90992	0.31652
2.158	63.626	-18217	2301.3	-0.32315	0.91051	0.31661
2.16	63.617	-18218	2301.5	-0.32354	0.9111	0.31671
2.162	63.638	-18219	2301.7	-0.32267	0.91071	0.3171
2.164	63.65	-18220	2301.9	-0.32179	0.91032	0.31749
2.166	63.645	-18219	2302.1	-0.32091	0.90992	0.31788
2.168	63.639	-18218	2302.1	-0.32003	0.90953	0.31827
2.17	63.634	-18218	2302.2	-0.31915	0.90914	0.31866
2.172	63.631	-18219	2302.3	-0.31925	0.91002	0.31964
2.174	63.626	-18220	2302.4	-0.31935	0.9109	0.32062
2.176	63.623	-18221	2302.5	-0.31944	0.91178	0.32159
2.178	63.623	-18219	2302.4	-0.31954	0.91266	0.32257
2.18	63.628	-18216	2302.4	-0.31964	0.91354	0.32354
2.182	63.64	-18217	2302.4	-0.32149	0.91383	0.3252
2.184	63.637	-18219	2302.4	-0.32335	0.91412	0.32686
2.186	63.635	-18214	2302.4	-0.3252	0.91441	0.32852
2.188	63.635	-18209	2302.4	-0.32706	0.91471	0.33018
2.19	63.633	-18214	2302.4	-0.32891	0.915	0.33184
2.192	63.632	-18219	2302.4	-0.3296	0.91393	0.33291
2.194	63.636	-18223	2302.4	-0.33028	0.91285	0.33399
2.196	63.643	-18227	2302.4	-0.33096	0.91178	0.33506
2.198	63.644	-18226	2302.5	-0.33164	0.91071	0.33613
2.2	63.647	-18225	2302.6	-0.33233	0.90963	0.33721
2.202	63.661	-18228	2302.7	-0.3293	0.90934	0.33643
2.204	63.672	-18232	2302.8	-0.32628	0.90905	0.33565
2.206	63.672	-18230	2302.9	-0.32325	0.90875	0.33487
2.208	63.664	-18227	2303.1	-0.32023	0.90846	0.33408
2.21	63.656	-18226	2303.2	-0.3172	0.90817	0.3333
2.212	63.658	-18225	2303.2	-0.31554	0.90729	0.33311
2.214	63.666	-18224	2303.3	-0.31388	0.90641	0.33291
2.216	63.67	-18223	2303.3	-0.31222	0.90553	0.33272
2.218	63.671	-18223	2303.3	-0.31056	0.90465	0.33252
2.22	63.672	-18224	2303.4	-0.3089	0.90378	0.33233
2.222	63.671	-18227	2303.4	-0.30959	0.90436	0.33291
2.224	63.663	-18231	2303.4	-0.31027	0.90495	0.3335
2.226	63.651	-18230	2303.4	-0.31095	0.90553	0.33408
2.228	63.651	-18229	2303.5	-0.31164	0.90612	0.33467
2.23	63.665	-18226	2303.5	-0.31232	0.9067	0.33526
2.232	63.677	-18223	2303.5	-0.31271	0.90631	0.3335
2.234	63.67	-18225	2303.5	-0.3131	0.90592	0.33174
2.236	63.672	-18227	2303.5	-0.31349	0.90553	0.32999
2.238	63.677	-18228	2303.4	-0.31388	0.90514	0.32823
2.24	63.66	-18229	2303.4	-0.31427	0.90475	0.32647
2.242	63.653	-18229	2303.3	-0.31359	0.90397	0.32716
2.244	63.661	-18229	2303.2	-0.31291	0.90319	0.32784
2.246	63.661	-18229	2303.2	-0.31222	0.90241	0.32852
2.248	63.642	-18230	2303.2	-0.31154	0.90163	0.3292
2.25	63.621	-18222	2303.1	-0.31086	0.90085	0.32989
2.252	63.618	-18215	2303	-0.31134	0.90095	0.3292
2.254	63.614	-18223	2302.9	-0.31183	0.90104	0.32852
2.256	63.604	-18230	2302.9	-0.31232	0.90114	0.32784
2.258	63.589	-18228	2302.8	-0.31281	0.90124	0.32716
2.26	63.595	-18226	2302.8	-0.3133	0.90134	0.32647
2.262	63.622	-18218	2302.7	-0.31369	0.9026	0.32745
2.264	63.629	-18211	2302.6	-0.31408	0.90387	0.32842
2.266	63.626	-18219	2302.6	-0.31447	0.90514	0.3294
2.268	63.638	-18228	2302.5	-0.31486	0.90641	0.33038
2.27	63.64	-18225	2302.5	-0.31525	0.90768	0.33135
2.272	63.626	-18223	2302.5	-0.31554	0.90875	0.33038
2.274	63.616	-18231	2302.5	-0.31583	0.90983	0.3294
2.276	63.614	-18239	2302.5	-0.31613	0.9109	0.32842
2.278	63.621	-18229	2302.4	-0.31642	0.91197	0.32745
2.28	63.626	-18219	2302.4	-0.31671	0.91305	0.32647
2.282	63.636	-18224	2302.4	-0.31866	0.91178	0.32559
2.284	63.643	-18229	2302.4	-0.32062	0.91051	0.32472
2.286	63.64	-18226	2302.4	-0.32257	0.90924	0.32384
2.288	63.642	-18223	2302.4	-0.32452	0.90797	0.32296
2.29	63.642	-18219	2302.5	-0.32647	0.9067	0.32208
2.292	63.639	-18215	2302.5	-0.3255	0.90768	0.3213
2.294	63.644	-18223	2302.5	-0.32452	0.90866	0.32052
2.296	63.659	-18231	2302.5	-0.32354	0.90963	0.31974
2.298	63.682	-18230	2302.6	-0.32257	0.91061	0.31896
2.3	63.699	-18229	2302.6	-0.32159	0.91158	0.31818
2.302	63.706	-18223	2302.6	-0.32257	0.91168	0.31886
2.304	63.705	-18217	2302.7	-0.32354	0.91178	0.31954
2.306	63.698	-18220	2302.7	-0.32452	0.91188	0.32023
2.308	63.695	-18224	2302.7	-0.3255	0.91197	0.32091
2.31	63.694	-18228	2302.8	-0.32647	0.91207	0.32159
2.312	63.695	-18231	2302.8	-0.32579	0.91266	0.32198
2.314	63.697	-18229	2302.9	-0.32511	0.91324	0.32237
2.316	63.701	-18227	2302.9	-0.32442	0.91383	0.32276
2.318	63.694	-18230	2302.9	-0.32374	0.91441	0.32315
2.32	63.692	-18232	2302.9	-0.32306	0.915	0.32354
2.322	63.688	-18234	2303	-0.32325	0.91441	0.32393
2.324	63.687	-18236	2303	-0.32345	0.91383	0.32432
2.326	63.685	-18232	2303	-0.32364	0.91324	0.32472
2.328	63.686	-18227	2303	-0.32384	0.91266	0.32511
2.33	63.692	-18230	2303	-0.32403	0.91207	0.3255
2.332	63.707	-18233	2303	-0.32364	0.91227	0.32569
2.334	63.708	-18230	2303	-0.32325	0.91246	0.32589
2.336	63.703	-18228	2303	-0.32286	0.91266	0.32608
2.338	63.691	-18230	2303	-0.32247	0.91285	0.32628
2.34	63.687	-18231	2302.9	-0.32208	0.91305	0.32647
2.342	63.684	-18235	2302.9	-0.3212	0.91363	0.32706
2.344	63.694	-18238	2302.9	-0.32032	0.91422	0.32764
2.346	63.705	-18238	2302.9	-0.31944	0.9148	0.32823
2.348	63.708	-18238	2302.8	-0.31857	0.91539	0.32881
2.35	63.711	-18237	2302.8	-0.31769	0.91598	0.3294
2.352	63.72	-18236	2302.7	-0.31798	0.9149	0.32999
2.354	63.742	-18239	2302.7	-0.31827	0.91383	0.33057
2.356	63.766	-18242	2302.6	-0.31857	0.91276	0.33116
2.358	63.798	-18239	2302.6	-0.31886	0.91168	0.33174
2.36	63.843	-18237	2302.5	-0.31915	0.91061	0.33233
2.362	63.869	-18241	2302.5	-0.31915	0.9111	0.33174
2.364	63.873	-18244	2302.4	-0.31915	0.91158	0.33116
2.366	63.854	-18242	2302.3	-0.31915	0.91207	0.33057
2.368	63.821	-18239	2302.3	-0.31915	0.91256	0.32999
2.37	63.783	-18238	2302.2	-0.31915	0.91305	0.3294
2.372	63.721	-18238	2302.1	-0.31798	0.91178	0.33018
2.374	63.643	-18239	2302.1	-0.31681	0.91051	0.33096
2.376	63.562	-18239	2302	-0.31564	0.90924	0.33174
2.378	63.469	-18243	2302	-0.31447	0.90797	0.33252
2.38	63.373	-18248	2302	-0.3133	0.9067	0.3333
2.382	63.272	-18236	2301.9	-0.31281	0.90651	0.33272
2.384	63.147	-18224	2301.9	-0.31232	0.90631	0.33213
2.386	63.02	-18229	2301.8	-0.31183	0.90612	0.33155
2.388	62.899	-18234	2301.7	-0.31134	0.90592	0.33096
2.39	62.787	-18238	2301.7	-0.31086	0.90573	0.33038
2.392	62.728	-18241	2301.6	-0.31193	0.90592	0.33008
2.394	62.734	-18243	2301.6	-0.313	0.90612	0.32979
2.396	62.78	-18244	2301.5	-0.31408	0.90631	0.3295
2.398	62.892	-18240	2301.4	-0.31515	0.90651	0.3292
2.4	63.011	-18236	2301.4	-0.31622	0.9067	0.32891
2.402	63.136	-18240	2301.3	-0.3173	0.90592	0.32745
2.404	63.265	-18244	2301.2	-0.31837	0.90514	0.32598
2.406	63.394	-18245	2301.1	-0.31944	0.90436	0.32452
2.408	63.511	-18245	2301	-0.32052	0.90358	0.32306
2.41	63.602	-18240	2300.9	-0.32159	0.9028	0.32159
2.412	63.657	-18235	2300.8	-0.32179	0.90251	0.3214
2.414	63.682	-18239	2300.7	-0.32198	0.90221	0.3212
2.416	63.712	-18244	2300.7	-0.32218	0.90192	0.32101
2.418	63.737	-18241	2300.6	-0.32237	0.90163	0.32081
2.42	63.763	-18238	2300.5	-0.32257	0.90134	0.32062
2.422	63.795	-18242	2300.4	-0.3211	0.9027	0.32042
2.424	63.814	-18246	2300.3	-0.31964	0.90407	0.32023
2.426	63.794	-18258	2300.2	-0.31818	0.90544	0.32003
2.428	63.762	-18270	2300.2	-0.31671	0.9068	0.31984
2.43	63.748	-18268	2300.1	-0.31525	0.90817	0.31964
2.432	63.741	-18266	2300	-0.31642	0.90729	0.31935
2.434	63.732	-18266	2299.9	-0.31759	0.90641	0.31905
2.436	63.716	-18267	2299.9	-0.31876	0.90553	0.31876
2.438	63.716	-18270	2299.9	-0.31993	0.90465	0.31847
2.44	63.72	-18273	2299.8	-0.3211	0.90378	0.31818
2.442	63.727	-18264	2299.8	-0.32149	0.90475	0.31837
2.444	63.731	-18256	2299.8	-0.32188	0.90573	0.31857
2.446	63.737	-18256	2299.7	-0.32228	0.9067	0.31876
2.448	63.737	-18256	2299.6	-0.32267	0.90768	0.31896
2.45	63.741	-18255	2299.6	-0.32306	0.90866	0.31915
2.452	63.748	-18254	2299.5	-0.3214	0.90788	0.31905
2.454	63.749	-18253	2299.4	-0.31974	0.90709	0.31896
2.456	63.747	-18251	2299.4	-0.31808	0.90631	0.31886
2.458	63.743	-18251	2299.3	-0.31642	0.90553	0.31876
2.46	63.74	-18251	2299.2	-0.31476	0.90475	0.31866
2.462	63.742	-18252	2299.1	-0.31544	0.90524	0.31847
2.464	63.751	-18254	2299	-0.31613	0.90573	0.31827
2.466	63.757	-18251	2298.9	-0.31681	0.90622	0.31808
2.468	63.753	-18249	2298.8	-0.31749	0.9067	0.31788
2.47	63.75	-18256	2298.7	-0.31818	0.90719	0.31769
2.472	63.747	-18264	2298.7	-0.31857	0.90768	0.31759
2.474	63.74	-18266	2298.6	-0.31896	0.90817	0.31749
2.476	63.733	-18268	2298.6	-0.31935	0.90866	0.3174
2.478	63.732	-18265	2298.6	-0.31974	0.90914	0.3173
2.48	63.735	-18263	2298.6	-0.32013	0.90963	0.3172
2.482	63.739	-18262	2298.5	-0.31954	0.91032	0.31652
2.484	63.746	-18262	2298.5	-0.31896	0.911	0.31583
2.486	63.729	-18265	2298.5	-0.31837	0.91168	0.31515
2.488	63.708	-18268	2298.4	-0.31779	0.91236	0.31447
2.49	63.711	-18266	2298.4	-0.3172	0.91305	0.31378
2.492	63.695	-18264	2298.4	-0.31857	0.91168	0.31359
2.494	63.694	-18260	2298.3	-0.31993	0.91032	0.31339
2.496	63.709	-18257	2298.3	-0.3213	0.90895	0.3132
2.498	63.718	-18259	2298.3	-0.32267	0.90758	0.313
2.5	63.722	-18262	2298.2	-0.32403	0.90622	0.31281
2.502	63.719	-18263	2298.1	-0.32335	0.90602	0.313
2.504	63.707	-18263	2298	-0.32267	0.90583	0.3132
2.506	63.694	-18262	2298	-0.32198	0.90563	0.31339
2.508	63.685	-18261	2297.9	-0.3213	0.90544	0.31359
2.51	63.681	-18261	2297.8	-0.32062	0.90524	0.31378
2.512	63.678	-18261	2297.8	-0.31954	0.90495	0.31476
2.514	63.68	-18264	2297.8	-0.31847	0.90465	0.31574
2.516	63.681	-18267	2297.7	-0.3174	0.90436	0.31671
2.518	63.68	-18267	2297.7	-0.31632	0.90407	0.31769
2.52	63.677	-18267	2297.7	-0.31525	0.90378	0.31866
2.522	63.674	-18263	2297.7	-0.31652	0.90426	0.32003
2.524	63.67	-18259	2297.7	-0.31779	0.90475	0.3214
2.526	63.66	-18260	2297.6	-0.31905	0.90524	0.32276
2.528	63.658	-18261	2297.6	-0.32032	0.90573	0.32413
2.53	63.663	-18262	2297.5	-0.32159	0.90622	0.3255
2.532	63.661	-18262	2297.5	-0.32218	0.90544	0.3252
2.534	63.65	-18267	2297.5	-0.32276	0.90465	0.32491
2.536	63.638	-18271	2297.5	-0.32335	0.90387	0.32462
2.538	63.627	-18269	2297.5	-0.32393	0.90309	0.32432
2.54	63.621	-18267	2297.5	-0.32452	0.90231	0.32403
2.542	63.618	-18264	2297.6	-0.32423	0.9027	0.32335
2.544	63.614	-18261	2297.7	-0.32393	0.90309	0.32267
2.546	63.61	-18259	2297.8	-0.32364	0.90348	0.32198
2.548	63.605	-18257	2297.9	-0.32335	0.90387	0.3213
2.55	63.6	-18255	2298.1	-0.32306	0.90426	0.32062
2.552	63.601	-18254	2298.3	-0.32179	0.90544	0.32218
2.554	63.597	-18255	2298.5	-0.32052	0.90661	0.32374
2.556	63.589	-18257	2298.7	-0.31925	0.90778	0.3253
2.558	63.584	-18256	2298.9	-0.31798	0.90895	0.32686
2.56	63.579	-18255	2299.2	-0.31671	0.91012	0.32842
2.562	63.582	-18252	2299.6	-0.317	0.90953	0.32745
2.564	63.587	-18249	2299.9	-0.3173	0.90895	0.32647
2.566	63.586	-18250	2300.2	-0.31759	0.90836	0.3255
2.568	63.594	-18250	2300.5	-0.31788	0.90778	0.32452
2.57	63.593	-18246	2300.7	-0.31818	0.90719	0.32354
2.572	63.583	-18242	2301	-0.31564	0.9069	0.32286
2.574	63.577	-18241	2301.2	-0.3131	0.90661	0.32218
2.576	63.577	-18241	2301.4	-0.31056	0.90631	0.32149
2.578	63.572	-18242	2301.7	-0.30803	0.90602	0.32081
2.58	63.583	-18243	2301.9	-0.30549	0.90573	0.32013
2.582	63.605	-18241	2302.1	-0.309	0.90592	0.3212
2.584	63.617	-18239	2302.3	-0.31252	0.90612	0.32228
2.586	63.61	-18237	2302.5	-0.31603	0.90631	0.32335
2.588	63.599	-18235	2302.6	-0.31954	0.90651	0.32442
2.59	63.588	-18233	2302.8	-0.32306	0.9067	0.3255
2.592	63.597	-18232	2302.9	-0.32315	0.90583	0.32393
2.594	63.605	-18228	2303	-0.32325	0.90495	0.32237
2.596	63.604	-18225	2303.1	-0.32335	0.90407	0.32081
2.598	63.604	-18222	2303.3	-0.32345	0.90319	0.31925
2.6	63.616	-18219	2303.5	-0.32354	0.90231	0.31769
2.602	63.636	-18222	2303.7	-0.32296	0.90436	0.31779
2.604	63.638	-18226	2303.9	-0.32237	0.90641	0.31788
2.606	63.64	-18222	2304.1	-0.32179	0.90846	0.31798
2.608	63.643	-18218	2304.3	-0.3212	0.91051	0.31808
2.61	63.642	-18212	2304.5	-0.32062	0.91256	0.31818
2.612	63.644	-18207	2304.8	-0.31964	0.91276	0.31769
2.614	63.659	-18215	2305	-0.31866	0.91295	0.3172
2.616	63.675	-18222	2305.2	-0.31769	0.91315	0.31671
2.618	63.68	-18219	2305.5	-0.31671	0.91334	0.31622
2.62	63.69	-18215	2305.8	-0.31574	0.91354	0.31574
2.622	63.701	-18214	2306	-0.3173	0.91295	0.31505
2.624	63.697	-18214	2306.2	-0.31886	0.91236	0.31437
2.626	63.691	-18212	2306.4	-0.32042	0.91178	0.31369
2.628	63.698	-18211	2306.6	-0.32198	0.91119	0.313
2.63	63.71	-18216	2306.8	-0.32354	0.91061	0.31232
2.632	63.721	-18221	2307.1	-0.32257	0.91168	0.31242
2.634	63.727	-18215	2307.4	-0.32159	0.91276	0.31252
2.636	63.724	-18208	2307.6	-0.32062	0.91383	0.31261
2.638	63.726	-18206	2307.9	-0.31964	0.9149	0.31271
2.64	63.732	-18204	2308.1	-0.31866	0.91598	0.31281
2.642	63.737	-18203	2308.2	-0.31925	0.91549	0.3131
2.644	63.741	-18201	2308.4	-0.31984	0.915	0.31339
2.646	63.739	-18201	2308.5	-0.32042	0.91451	0.31369
2.648	63.74	-18201	2308.7	-0.32101	0.91402	0.31398
2.65	63.74	-18204	2308.9	-0.32159	0.91354	0.31427
2.652	63.747	-18208	2309.1	-0.32062	0.91412	0.31437
2.654	63.747	-18201	2309.2	-0.31964	0.91471	0.31447
2.656	63.743	-18194	2309.4	-0.31866	0.91529	0.31456
2.658	63.739	-18193	2309.5	-0.31769	0.91588	0.31466
2.66	63.738	-18192	2309.7	-0.31671	0.91646	0.31476
2.662	63.74	-18198	2309.9	-0.3172	0.91676	0.31554
2.664	63.74	-18203	2310.2	-0.31769	0.91705	0.31632
2.666	63.735	-18200	2310.4	-0.31818	0.91734	0.3171
2.668	63.732	-18196	2310.6	-0.31866	0.91764	0.31788
2.67	63.75	-18197	2310.9	-0.31915	0.91793	0.31866
2.672	63.752	-18197	2311.1	-0.31808	0.91724	0.31866
2.674	63.741	-18196	2311.3	-0.317	0.91656	0.31866
2.676	63.725	-18196	2311.5	-0.31593	0.91588	0.31866
2.678	63.716	-18199	2311.7	-0.31486	0.9152	0.31866
2.68	63.742	-18202	2312	-0.31378	0.91451	0.31866
2.682	63.75	-18195	2312.2	-0.31271	0.91451	0.31798
2.684	63.75	-18189	2312.4	-0.31164	0.91451	0.3173
2.686	63.744	-18191	2312.7	-0.31056	0.91451	0.31661
2.688	63.743	-18194	2312.9	-0.30949	0.91451	0.31593
2.69	63.751	-18195	2313.1	-0.30842	0.91451	0.31525
2.692	63.739	-18196	2313.3	-0.31056	0.91549	0.31661
2.694	63.733	-18191	2313.4	-0.31271	0.91646	0.31798
2.696	63.741	-18185	2313.5	-0.31486	0.91744	0.31935
2.698	63.742	-18185	2313.7	-0.317	0.91842	0.32071
2.7	63.741	-18184	2313.9	-0.31915	0.91939	0.32208
2.702	63.747	-18183	2314.1	-0.32052	0.91881	0.32228
2.704	63.748	-18182	2314.2	-0.32188	0.91822	0.32247
2.706	63.741	-18179	2314.4	-0.32325	0.91764	0.32267
2.708	63.73	-18175	2314.5	-0.32462	0.91705	0.32286
2.71	63.729	-18184	2314.6	-0.32598	0.91646	0.32306
2.712	63.732	-18193	2314.6	-0.32628	0.91559	0.32423
2.714	63.735	-18194	2314.7	-0.32657	0.91471	0.3254
2.716	63.738	-18195	2314.8	-0.32686	0.91383	0.32657
2.718	63.735	-18199	2314.9	-0.32716	0.91295	0.32774
2.72	63.725	-18203	2315	-0.32745	0.91207	0.32891
2.722	63.718	-18197	2315.2	-0.32637	0.91139	0.32989
2.724	63.714	-18191	2315.3	-0.3253	0.91071	0.33086
2.726	63.712	-18195	2315.4	-0.32423	0.91002	0.33184
2.728	63.716	-18199	2315.5	-0.32315	0.90934	0.33282
2.73	63.715	-18196	2315.6	-0.32208	0.90866	0.33379
2.732	63.717	-18192	2315.6	-0.32169	0.90895	0.33408
2.734	63.722	-18192	2315.7	-0.3213	0.90924	0.33438
2.736	63.723	-18193	2315.7	-0.32091	0.90953	0.33467
2.738	63.723	-18193	2315.8	-0.32052	0.90983	0.33496
2.74	63.725	-18192	2315.9	-0.32013	0.91012	0.33526
2.742	63.719	-18186	2315.9	-0.31974	0.90983	0.33487
2.744	63.709	-18179	2316	-0.31935	0.90953	0.33448
2.746	63.709	-18190	2316	-0.31896	0.90924	0.33408
2.748	63.716	-18202	2316.1	-0.31857	0.90895	0.33369
2.75	63.728	-18193	2316.1	-0.31818	0.90866	0.3333
2.752	63.737	-18184	2316.1	-0.3173	0.90856	0.3335
2.754	63.737	-18184	2316.1	-0.31642	0.90846	0.33369
2.756	63.727	-18183	2316.1	-0.31554	0.90836	0.33389
2.758	63.717	-18188	2316.1	-0.31466	0.90827	0.33408
2.76	63.72	-18193	2316.1	-0.31378	0.90817	0.33428
2.762	63.725	-18196	2316.1	-0.31378	0.90807	0.33321
2.764	63.73	-18199	2316.1	-0.31378	0.90797	0.33213
2.766	63.726	-18197	2316.1	-0.31378	0.90788	0.33106
2.768	63.732	-18195	2316.1	-0.31378	0.90778	0.32999
2.77	63.728	-18189	2316	-0.31378	0.90768	0.32891
2.772	63.719	-18183	2316	-0.31456	0.90817	0.32901
2.774	63.72	-18186	2316	-0.31535	0.90866	0.32911
2.776	63.727	-18188	2316	-0.31613	0.90914	0.3292
2.778	63.734	-18186	2316	-0.31691	0.90963	0.3293
2.78	63.73	-18184	2315.9	-0.31769	0.91012	0.3294
2.782	63.728	-18189	2315.9	-0.31905	0.90944	0.32862
2.784	63.735	-18195	2315.8	-0.32042	0.90875	0.32784
2.786	63.733	-18200	2315.8	-0.32179	0.90807	0.32706
2.788	63.724	-18205	2315.7	-0.32315	0.90739	0.32628
2.79	63.718	-18196	2315.6	-0.32452	0.9067	0.3255
2.792	63.711	-18186	2315.5	-0.32384	0.90573	0.32432
2.794	63.699	-18193	2315.4	-0.32315	0.90475	0.32315
2.796	63.692	-18199	2315.4	-0.32247	0.90378	0.32198
2.798	63.68	-18199	2315.3	-0.32179	0.9028	0.32081
2.8	63.663	-18199	2315.2	-0.3211	0.90182	0.31964
2.802	63.652	-18190	2315.1	-0.32208	0.90251	0.32023
2.804	63.646	-18182	2315	-0.32306	0.90319	0.32081
2.806	63.645	-18191	2314.9	-0.32403	0.90387	0.3214
2.808	63.651	-18201	2314.8	-0.32501	0.90456	0.32198
2.81	63.662	-18199	2314.7	-0.32598	0.90524	0.32257
2.812	63.671	-18197	2314.6	-0.32755	0.90612	0.32335
2.814	63.68	-18199	2314.4	-0.32911	0.907	0.32413
2.816	63.688	-18201	2314.3	-0.33067	0.90788	0.32491
2.818	63.692	-18200	2314.2	-0.33223	0.90875	0.32569
2.82	63.686	-18198	2314.1	-0.33379	0.90963	0.32647
2.822	63.681	-18196	2314	-0.33311	0.91002	0.3255
2.824	63.678	-18193	2313.9	-0.33243	0.91041	0.32452
2.826	63.67	-18191	2313.8	-0.33174	0.9108	0.32354
2.828	63.677	-18188	2313.8	-0.33106	0.91119	0.32257
2.83	63.685	-18192	2313.7	-0.33038	0.91158	0.32159
2.832	63.692	-18195	2313.6	-0.33047	0.91149	0.32149
2.834	63.694	-18201	2313.5	-0.33057	0.91139	0.3214
2.836	63.684	-18207	2313.4	-0.33067	0.91129	0.3213
2.838	63.684	-18201	2313.3	-0.33077	0.91119	0.3212
2.84	63.697	-18194	2313.2	-0.33086	0.9111	0.3211
2.842	63.717	-18192	2313.1	-0.33223	0.90992	0.32179
2.844	63.737	-18190	2313	-0.3336	0.90875	0.32247
2.846	63.752	-18192	2312.9	-0.33496	0.90758	0.32315
2.848	63.77	-18195	2312.9	-0.33633	0.90641	0.32384
2.85	63.78	-18195	2312.8	-0.3377	0.90524	0.32452
2.852	63.769	-18195	2312.8	-0.33633	0.90514	0.32306
2.854	63.773	-18199	2312.7	-0.33496	0.90504	0.32159
2.856	63.762	-18203	2312.7	-0.3336	0.90495	0.32013
2.858	63.766	-18199	2312.7	-0.33223	0.90485	0.31866
2.86	63.777	-18196	2312.7	-0.33086	0.90475	0.3172
2.862	63.775	-18195	2312.7	-0.33155	0.90573	0.31808
2.864	63.786	-18195	2312.7	-0.33223	0.9067	0.31896
2.866	63.784	-18195	2312.8	-0.33291	0.90768	0.31984
2.868	63.777	-18194	2312.8	-0.3336	0.90866	0.32071
2.87	63.775	-18195	2312.8	-0.33428	0.90963	0.32159
2.872	63.775	-18196	2312.8	-0.3335	0.91012	0.32208
2.874	63.771	-18203	2312.8	-0.33272	0.91061	0.32257
2.876	63.771	-18209	2312.8	-0.33194	0.9111	0.32306
2.878	63.771	-18208	2312.8	-0.33116	0.91158	0.32354
2.88	63.77	-18207	2312.8	-0.33038	0.91207	0.32403
2.882	63.771	-18201	2312.8	-0.32989	0.91217	0.32491
2.884	63.769	-18195	2312.7	-0.3294	0.91227	0.32579
2.886	63.766	-18198	2312.7	-0.32891	0.91236	0.32667
2.888	63.762	-18200	2312.6	-0.32842	0.91246	0.32755
2.89	63.761	-18201	2312.6	-0.32794	0.91256	0.32842
2.892	63.765	-18203	2312.5	-0.32676	0.91207	0.3295
2.894	63.769	-18202	2312.5	-0.32559	0.91158	0.33057
2.896	63.77	-18201	2312.4	-0.32442	0.9111	0.33164
2.898	63.776	-18200	2312.3	-0.32325	0.91061	0.33272
2.9	63.793	-18199	2312.2	-0.32208	0.91012	0.33379
2.902	63.817	-18202	2312.2	-0.32247	0.90944	0.33467
2.904	63.851	-18205	2312.1	-0.32286	0.90875	0.33555
2.906	63.878	-18204	2312	-0.32325	0.90807	0.33643
2.908	63.908	-18203	2311.9	-0.32364	0.90739	0.33731
2.91	63.943	-18207	2311.8	-0.32403	0.9067	0.33818
2.912	63.956	-18211	2311.7	-0.32501	0.90729	0.33809
2.914	63.944	-18206	2311.6	-0.32598	0.90788	0.33799
2.916	63.917	-18201	2311.5	-0.32696	0.90846	0.33789
2.918	63.876	-18205	2311.4	-0.32794	0.90905	0.33779
2.92	63.818	-18209	2311.3	-0.32891	0.90963	0.3377
2.922	63.739	-18209	2311.2	-0.32833	0.90866	0.3376
2.924	63.656	-18209	2311.1	-0.32774	0.90768	0.3375
2.926	63.542	-18208	2311.1	-0.32716	0.9067	0.3374
2.928	63.42	-18207	2311	-0.32657	0.90573	0.33731
2.93	63.321	-18205	2311	-0.32598	0.90475	0.33721
2.932	63.181	-18203	2310.9	-0.32442	0.90456	0.33555
2.934	63.043	-18203	2310.9	-0.32286	0.90436	0.33389
2.936	62.911	-18203	2310.9	-0.3213	0.90417	0.33223
2.938	62.782	-18207	2310.8	-0.31974	0.90397	0.33057
2.94	62.691	-18210	2310.8	-0.31818	0.90378	0.32891
2.942	62.658	-18210	2310.8	-0.31847	0.90495	0.32999
2.944	62.672	-18211	2310.8	-0.31876	0.90612	0.33106
2.946	62.76	-18212	2310.9	-0.31905	0.90729	0.33213
2.948	62.898	-18213	2310.9	-0.31935	0.90846	0.33321
2.95	63.08	-18215	2310.9	-0.31964	0.90963	0.33428
2.952	63.25	-18216	2310.9	-0.31905	0.90992	0.3334
2.954	63.38	-18217	2310.9	-0.31847	0.91022	0.33252
2.956	63.485	-18217	2310.9	-0.31788	0.91051	0.33164
2.958	63.575	-18219	2310.9	-0.3173	0.9108	0.33077
2.96	63.649	-18221	2310.9	-0.31671	0.9111	0.32989
2.962	63.695	-18220	2310.9	-0.31876	0.9108	0.32911
2.964	63.745	-18219	2310.9	-0.32081	0.91051	0.32833
2.966	63.796	-18215	2310.9	-0.32286	0.91022	0.32755
2.968	63.836	-18210	2311	-0.32491	0.90992	0.32676
2.97	63.854	-18208	2311	-0.32696	0.90963	0.32598
2.972	63.844	-18206	2311	-0.32657	0.90924	0.32511
2.974	63.818	-18205	2311.1	-0.32618	0.90885	0.32423
2.976	63.793	-18203	2311.1	-0.32579	0.90846	0.32335
2.978	63.779	-18206	2311.1	-0.3254	0.90807	0.32247
2.98	63.776	-18209	2311.1	-0.32501	0.90768	0.32159
2.982	63.774	-18211	2311.1	-0.32442	0.90768	0.32198
2.984	63.768	-18214	2311	-0.32384	0.90768	0.32237
2.986	63.77	-18216	2311	-0.32325	0.90768	0.32276
2.988	63.776	-18218	2311	-0.32267	0.90768	0.32315
2.99	63.775	-18218	2310.9	-0.32208	0.90768	0.32354
2.992	63.775	-18217	2310.9	-0.32257	0.90748	0.32364
2.994	63.779	-18214	2310.8	-0.32306	0.90729	0.32374
2.996	63.784	-18211	2310.7	-0.32354	0.90709	0.32384
2.998	63.786	-18210	2310.6	-0.32403	0.9069	0.32393
3	63.789	-18210	2310.4	-0.32452	0.9067	0.32403
3.002	63.791	-18213	2310.3	-0.32452	0.90622	0.32335
3.004	63.78	-18216	2310.1	-0.32452	0.90573	0.32267
3.006	63.773	-18219	2310	-0.32452	0.90524	0.32198
3.008	63.769	-18223	2309.8	-0.32452	0.90475	0.3213
3.01	63.769	-18228	2309.7	-0.32452	0.90426	0.32062
3.012	63.759	-18234	2309.5	-0.32354	0.90436	0.32003
3.014	63.754	-18236	2309.4	-0.32257	0.90446	0.31944
3.016	63.763	-18239	2309.2	-0.32159	0.90456	0.31886
3.018	63.759	-18241	2309.1	-0.32062	0.90465	0.31827
3.02	63.756	-18244	2308.9	-0.31964	0.90475	0.31769
3.022	63.746	-18244	2308.9	-0.32013	0.90651	0.31681
3.024	63.743	-18244	2308.8	-0.32062	0.90827	0.31593
3.026	63.736	-18238	2308.8	-0.3211	0.91002	0.31505
3.028	63.735	-18232	2308.7	-0.32159	0.91178	0.31417
3.03	63.744	-18228	2308.7	-0.32208	0.91354	0.3133
3.032	63.749	-18225	2308.7	-0.32188	0.91295	0.31359
3.034	63.75	-18221	2308.7	-0.32169	0.91236	0.31388
3.036	63.743	-18217	2308.8	-0.32149	0.91178	0.31417
3.038	63.727	-18215	2308.8	-0.3213	0.91119	0.31447
3.04	63.726	-18214	2308.8	-0.3211	0.91061	0.31476
3.042	63.728	-18219	2308.8	-0.32208	0.91041	0.31466
3.044	63.715	-18223	2308.8	-0.32306	0.91022	0.31456
3.046	63.709	-18225	2308.9	-0.32403	0.91002	0.31447
3.048	63.711	-18226	2309	-0.32501	0.90983	0.31437
3.05	63.72	-18233	2309	-0.32598	0.90963	0.31427
3.052	63.716	-18239	2309.1	-0.32559	0.90797	0.31359
3.054	63.709	-18236	2309.2	-0.3252	0.90631	0.31291
3.056	63.702	-18233	2309.2	-0.32481	0.90465	0.31222
3.058	63.695	-18238	2309.3	-0.32442	0.903	0.31154
3.06	63.69	-18244	2309.3	-0.32403	0.90134	0.31086
3.062	63.687	-18242	2309.4	-0.32267	0.90221	0.31095
3.064	63.688	-18240	2309.4	-0.3213	0.90309	0.31105
3.066	63.688	-18242	2309.5	-0.31993	0.90397	0.31115
3.068	63.683	-18244	2309.5	-0.31857	0.90485	0.31125
3.07	63.673	-18243	2309.6	-0.3172	0.90573	0.31134
3.072	63.664	-18242	2309.6	-0.31583	0.90534	0.31203
3.074	63.654	-18238	2309.7	-0.31447	0.90495	0.31271
3.076	63.634	-18235	2309.7	-0.3131	0.90456	0.31339
3.078	63.622	-18234	2309.7	-0.31173	0.90417	0.31408
3.08	63.622	-18233	2309.7	-0.31037	0.90378	0.31476
3.082	63.618	-18233	2309.7	-0.31066	0.90387	0.31437
3.084	63.611	-18232	2309.8	-0.31095	0.90397	0.31398
3.086	63.612	-18232	2309.8	-0.31125	0.90407	0.31359
3.088	63.614	-18232	2309.8	-0.31154	0.90417	0.3132
3.09	63.618	-18227	2309.8	-0.31183	0.90426	0.31281
3.092	63.606	-18222	2309.8	-0.31125	0.90514	0.31359
3.094	63.605	-18227	2309.8	-0.31066	0.90602	0.31437
3.096	63.609	-18232	2309.9	-0.31008	0.9069	0.31515
3.098	63.605	-18230	2309.9	-0.30949	0.90778	0.31593
3.1	63.602	-18229	2310	-0.3089	0.90866	0.31671
3.102	63.592	-18233	2310.1	-0.3089	0.90856	0.31788
3.104	63.585	-18237	2310.1	-0.3089	0.90846	0.31905
3.106	63.565	-18233	2310.2	-0.3089	0.90836	0.32023
3.108	63.56	-18229	2310.3	-0.3089	0.90827	0.3214
3.11	63.564	-18225	2310.4	-0.3089	0.90817	0.32257
3.112	63.566	-18221	2310.5	-0.3092	0.90846	0.32276
3.114	63.571	-18218	2310.7	-0.30949	0.90875	0.32296
3.116	63.577	-18215	2310.8	-0.30978	0.90905	0.32315
3.118	63.585	-18209	2310.9	-0.31008	0.90934	0.32335
3.12	63.587	-18203	2310.9	-0.31037	0.90963	0.32354
3.122	63.584	-18207	2311.1	-0.31008	0.91061	0.32296
3.124	63.583	-18211	2311.2	-0.30978	0.91158	0.32237
3.126	63.578	-18207	2311.3	-0.30949	0.91256	0.32179
3.128	63.577	-18203	2311.4	-0.3092	0.91354	0.3212
3.13	63.587	-18202	2311.5	-0.3089	0.91451	0.32062
3.132	63.601	-18202	2311.6	-0.31027	0.91539	0.32071
3.134	63.603	-18199	2311.6	-0.31164	0.91627	0.32081
3.136	63.601	-18197	2311.7	-0.313	0.91715	0.32091
3.138	63.602	-18199	2311.8	-0.31437	0.91803	0.32101
3.14	63.606	-18201	2312	-0.31574	0.9189	0.3211
3.142	63.608	-18194	2312.1	-0.31622	0.91881	0.32169
3.144	63.609	-18187	2312.2	-0.31671	0.91871	0.32228
3.146	63.616	-18185	2312.3	-0.3172	0.91861	0.32286
3.148	63.628	-18184	2312.4	-0.31769	0.91851	0.32345
3.15	63.641	-18187	2312.5	-0.31818	0.91842	0.32403
3.152	63.647	-18190	2312.6	-0.31857	0.91822	0.32364
3.154	63.643	-18189	2312.7	-0.31896	0.91803	0.32325
3.156	63.64	-18188	2312.8	-0.31935	0.91783	0.32286
3.158	63.651	-18183	2312.9	-0.31974	0.91764	0.32247
3.16	63.666	-18178	2313	-0.32013	0.91744	0.32208
3.162	63.676	-18177	2313	-0.31857	0.91715	0.32149
3.164	63.68	-18177	2313.1	-0.317	0.91685	0.32091
3.166	63.684	-18177	2313.1	-0.31544	0.91656	0.32032
3.168	63.699	-18178	2313.1	-0.31388	0.91627	0.31974
3.17	63.708	-18184	2313.2	-0.31232	0.91598	0.31915
3.172	63.712	-18189	2313.2	-0.31252	0.91383	0.31974
3.174	63.716	-18183	2313.3	-0.31271	0.91168	0.32032
3.176	63.715	-18177	2313.3	-0.31291	0.90953	0.32091
3.178	63.724	-18175	2313.3	-0.3131	0.90739	0.32149
3.18	63.733	-18173	2313.3	-0.3133	0.90524	0.32208
3.182	63.732	-18175	2313.3	-0.31378	0.90592	0.32286
3.184	63.749	-18177	2313.3	-0.31427	0.90661	0.32364
3.186	63.763	-18174	2313.3	-0.31476	0.90729	0.32442
3.188	63.753	-18172	2313.3	-0.31525	0.90797	0.3252
3.19	63.748	-18173	2313.3	-0.31574	0.90866	0.32598
3.192	63.756	-18174	2313.3	-0.31622	0.90866	0.32559
3.194	63.756	-18176	2313.3	-0.31671	0.90866	0.3252
3.196	63.755	-18178	2313.3	-0.3172	0.90866	0.32481
3.198	63.765	-18175	2313.3	-0.31769	0.90866	0.32442
3.2	63.772	-18173	2313.2	-0.31818	0.90866	0.32403
3.202	63.77	-18171	2313.2	-0.3173	0.90729	0.3214
3.204	63.761	-18168	2313.1	-0.31642	0.90592	0.31876
3.206	63.747	-18167	2313.1	-0.31554	0.90456	0.31613
3.208	63.747	-18165	2313	-0.31466	0.90319	0.31349
3.21	63.75	-18165	2312.9	-0.31378	0.90182	0.31086
3.212	63.755	-18165	2312.9	-0.31398	0.90173	0.31076
3.214	63.76	-18166	2312.8	-0.31417	0.90163	0.31066
3.216	63.764	-18167	2312.7	-0.31437	0.90153	0.31056
3.218	63.762	-18159	2312.7	-0.31456	0.90143	0.31047
3.22	63.764	-18151	2312.6	-0.31476	0.90134	0.31037
3.222	63.768	-18156	2312.6	-0.31622	0.90134	0.30988
3.224	63.765	-18161	2312.6	-0.31769	0.90134	0.30939
3.226	63.764	-18163	2312.5	-0.31915	0.90134	0.3089
3.228	63.771	-18165	2312.4	-0.32062	0.90134	0.30842
3.23	63.777	-18159	2312.3	-0.32208	0.90134	0.30793
3.232	63.777	-18153	2312.3	-0.32237	0.90134	0.3091
3.234	63.776	-18153	2312.3	-0.32267	0.90134	0.31027
3.236	63.776	-18153	2312.2	-0.32296	0.90134	0.31144
3.238	63.771	-18158	2312.2	-0.32325	0.90134	0.31261
3.24	63.761	-18163	2312.1	-0.32354	0.90134	0.31378
3.242	63.757	-18159	2312.1	-0.32403	0.90202	0.31417
3.244	63.76	-18156	2312.2	-0.32452	0.9027	0.31456
3.246	63.767	-18154	2312.2	-0.32501	0.90339	0.31496
3.248	63.772	-18152	2312.2	-0.3255	0.90407	0.31535
3.25	63.773	-18156	2312.2	-0.32598	0.90475	0.31574
3.252	63.764	-18161	2312.2	-0.32706	0.90563	0.31691
3.254	63.748	-18166	2312.2	-0.32813	0.90651	0.31808
3.256	63.745	-18172	2312.2	-0.3292	0.90739	0.31925
3.258	63.752	-18167	2312.3	-0.33028	0.90827	0.32042
3.26	63.752	-18161	2312.4	-0.33135	0.90914	0.32159
3.262	63.743	-18158	2312.5	-0.3335	0.90905	0.32228
3.264	63.748	-18154	2312.6	-0.33565	0.90895	0.32296
3.266	63.759	-18159	2312.7	-0.33779	0.90885	0.32364
3.268	63.759	-18164	2312.8	-0.33994	0.90875	0.32432
3.27	63.752	-18163	2312.9	-0.34209	0.90866	0.32501
3.272	63.752	-18162	2312.9	-0.3417	0.90846	0.32559
3.274	63.748	-18163	2313	-0.34131	0.90827	0.32618
3.276	63.749	-18163	2313.1	-0.34092	0.90807	0.32676
3.278	63.748	-18160	2313.2	-0.34053	0.90788	0.32735
3.28	63.747	-18157	2313.4	-0.34014	0.90768	0.32794
3.282	63.751	-18167	2313.5	-0.33926	0.90768	0.32833
3.284	63.753	-18177	2313.6	-0.33838	0.90768	0.32872
3.286	63.758	-18171	2313.8	-0.3375	0.90768	0.32911
3.288	63.751	-18164	2313.9	-0.33662	0.90768	0.3295
3.29	63.744	-18168	2314	-0.33574	0.90768	0.32989
3.292	63.753	-18171	2314.2	-0.33574	0.90788	0.33106
3.294	63.753	-18173	2314.3	-0.33574	0.90807	0.33223
3.296	63.758	-18176	2314.5	-0.33574	0.90827	0.3334
3.298	63.766	-18173	2314.6	-0.33574	0.90846	0.33457
3.3	63.766	-18171	2314.8	-0.33574	0.90866	0.33574
3.302	63.763	-18171	2314.9	-0.33438	0.90866	0.33526
3.304	63.759	-18171	2315	-0.33301	0.90866	0.33477
3.306	63.757	-18170	2315.1	-0.33164	0.90866	0.33428
3.308	63.753	-18169	2315.1	-0.33028	0.90866	0.33379
3.31	63.75	-18164	2315.1	-0.32891	0.90866	0.3333
3.312	63.753	-18159	2315.2	-0.32989	0.90866	0.33506
3.314	63.759	-18160	2315.3	-0.33086	0.90866	0.33682
3.316	63.765	-18162	2315.4	-0.33184	0.90866	0.33857
3.318	63.769	-18170	2315.4	-0.33282	0.90866	0.34033
3.32	63.764	-18179	2315.5	-0.33379	0.90866	0.34209
3.322	63.755	-18174	2315.5	-0.33379	0.90905	0.34199
3.324	63.746	-18169	2315.6	-0.33379	0.90944	0.34189
3.326	63.745	-18173	2315.6	-0.33379	0.90983	0.3418
3.328	63.746	-18176	2315.6	-0.33379	0.91022	0.3417
3.33	63.742	-18177	2315.7	-0.33379	0.91061	0.3416
3.332	63.747	-18178	2315.7	-0.33252	0.90934	0.34121
3.334	63.751	-18178	2315.7	-0.33125	0.90807	0.34082
3.336	63.748	-18178	2315.8	-0.32999	0.9068	0.34043
3.338	63.747	-18180	2315.8	-0.32872	0.90553	0.34004
3.34	63.741	-18182	2315.8	-0.32745	0.90426	0.33965
3.342	63.729	-18180	2315.8	-0.32745	0.90436	0.34033
3.344	63.723	-18178	2315.9	-0.32745	0.90446	0.34101
3.346	63.727	-18173	2315.9	-0.32745	0.90456	0.3417
3.348	63.731	-18168	2315.9	-0.32745	0.90465	0.34238
3.35	63.725	-18170	2315.9	-0.32745	0.90475	0.34306
3.352	63.703	-18172	2315.9	-0.32794	0.90514	0.34267
3.354	63.675	-18181	2316	-0.32842	0.90553	0.34228
3.356	63.662	-18190	2316	-0.32891	0.90592	0.34189
3.358	63.652	-18181	2316.1	-0.3294	0.90631	0.3415
3.36	63.652	-18173	2316.1	-0.32989	0.9067	0.34111
3.362	63.661	-18174	2316.1	-0.32911	0.90651	0.34033
3.364	63.683	-18176	2316.2	-0.32833	0.90631	0.33955
3.366	63.696	-18180	2316.2	-0.32755	0.90612	0.33877
3.368	63.696	-18185	2316.2	-0.32676	0.90592	0.33799
3.37	63.692	-18185	2316.3	-0.32598	0.90573	0.33721
3.372	63.698	-18184	2316.3	-0.32423	0.90651	0.33682
3.374	63.694	-18182	2316.4	-0.32247	0.90729	0.33643
3.376	63.693	-18180	2316.4	-0.32071	0.90807	0.33604
3.378	63.693	-18179	2316.4	-0.31896	0.90885	0.33565
3.38	63.696	-18178	2316.5	-0.3172	0.90963	0.33526
3.382	63.704	-18178	2316.5	-0.31671	0.91022	0.33408
3.384	63.715	-18177	2316.6	-0.31622	0.9108	0.33291
3.386	63.719	-18182	2316.6	-0.31574	0.91139	0.33174
3.388	63.711	-18188	2316.6	-0.31525	0.91197	0.33057
3.39	63.702	-18186	2316.6	-0.31476	0.91256	0.3294
3.392	63.704	-18184	2316.7	-0.31642	0.91207	0.3292
3.394	63.715	-18181	2316.8	-0.31808	0.91158	0.32901
3.396	63.733	-18179	2316.8	-0.31974	0.9111	0.32881
3.398	63.749	-18179	2316.9	-0.3214	0.91061	0.32862
3.4	63.763	-18179	2316.9	-0.32306	0.91012	0.32842
3.402	63.778	-18179	2316.9	-0.32267	0.91071	0.32676
3.404	63.782	-18180	2317	-0.32228	0.91129	0.32511
3.406	63.772	-18183	2317	-0.32188	0.91188	0.32345
3.408	63.765	-18185	2317	-0.32149	0.91246	0.32179
3.41	63.77	-18185	2317	-0.3211	0.91305	0.32013
3.412	63.776	-18185	2317	-0.32101	0.91315	0.31984
3.414	63.775	-18186	2317	-0.32091	0.91324	0.31954
3.416	63.78	-18188	2317.1	-0.32081	0.91334	0.31925
3.418	63.787	-18190	2317	-0.32071	0.91344	0.31896
3.42	63.782	-18192	2317	-0.32062	0.91354	0.31866
3.422	63.772	-18189	2317	-0.31905	0.91344	0.31847
3.424	63.76	-18186	2317	-0.31749	0.91334	0.31827
3.426	63.759	-18185	2317	-0.31593	0.91324	0.31808
3.428	63.76	-18183	2317	-0.31437	0.91315	0.31788
3.43	63.761	-18184	2317	-0.31281	0.91305	0.31769
3.432	63.761	-18185	2317	-0.31281	0.91276	0.31837
3.434	63.762	-18187	2317	-0.31281	0.91246	0.31905
3.436	63.765	-18188	2317	-0.31281	0.91217	0.31974
3.438	63.763	-18186	2317	-0.31281	0.91188	0.32042
3.44	63.76	-18183	2317	-0.31281	0.91158	0.3211
3.442	63.761	-18184	2317	-0.3133	0.91188	0.3211
3.444	63.768	-18185	2316.9	-0.31378	0.91217	0.3211
3.446	63.775	-18186	2316.9	-0.31427	0.91246	0.3211
3.448	63.776	-18187	2316.9	-0.31476	0.91276	0.3211
3.45	63.775	-18182	2316.9	-0.31525	0.91305	0.3211
3.452	63.781	-18178	2316.9	-0.31496	0.91207	0.32091
3.454	63.785	-18180	2316.9	-0.31466	0.9111	0.32071
3.456	63.785	-18181	2316.9	-0.31437	0.91012	0.32052
3.458	63.805	-18185	2316.9	-0.31408	0.90914	0.32032
3.46	63.843	-18188	2316.9	-0.31378	0.90817	0.32013
3.462	63.886	-18187	2316.9	-0.31261	0.90827	0.31993
3.464	63.922	-18187	2316.8	-0.31144	0.90836	0.31974
3.466	63.943	-18189	2316.8	-0.31027	0.90846	0.31954
3.468	63.936	-18190	2316.7	-0.3091	0.90856	0.31935
3.47	63.903	-18191	2316.6	-0.30793	0.90866	0.31915
3.472	63.857	-18191	2316.6	-0.30783	0.90778	0.31964
3.474	63.803	-18189	2316.5	-0.30773	0.9069	0.32013
3.476	63.726	-18186	2316.5	-0.30764	0.90602	0.32062
3.478	63.65	-18194	2316.4	-0.30754	0.90514	0.3211
3.48	63.577	-18202	2316.4	-0.30744	0.90426	0.32159
3.482	63.484	-18200	2316.3	-0.30695	0.90456	0.32052
3.484	63.371	-18199	2316.2	-0.30646	0.90485	0.31944
3.486	63.236	-18199	2316.2	-0.30598	0.90514	0.31837
3.488	63.089	-18198	2316.1	-0.30549	0.90544	0.3173
3.49	62.952	-18198	2316	-0.305	0.90573	0.31622
3.492	62.827	-18197	2315.9	-0.3052	0.90553	0.31642
3.494	62.726	-18203	2315.9	-0.30539	0.90534	0.31661
3.496	62.68	-18208	2315.8	-0.30559	0.90514	0.31681
3.498	62.683	-18200	2315.7	-0.30578	0.90495	0.317
3.5	62.737	-18193	2315.6	-0.30598	0.90475	0.3172
3.502	62.843	-18196	2315.5	-0.30568	0.90553	0.3174
3.504	62.966	-18199	2315.4	-0.30539	0.90631	0.31759
3.506	63.107	-18200	2315.3	-0.3051	0.90709	0.31779
3.508	63.253	-18201	2315.2	-0.3048	0.90788	0.31798
3.51	63.381	-18203	2315.2	-0.30451	0.90866	0.31818
3.512	63.502	-18204	2315	-0.30666	0.90914	0.31915
3.514	63.584	-18202	2314.9	-0.30881	0.90963	0.32013
3.516	63.648	-18200	2314.8	-0.31095	0.91012	0.3211
3.518	63.689	-18201	2314.7	-0.3131	0.91061	0.32208
3.52	63.732	-18202	2314.7	-0.31525	0.9111	0.32306
3.522	63.75	-18203	2314.6	-0.31456	0.91061	0.32218
3.524	63.771	-18205	2314.5	-0.31388	0.91012	0.3213
3.526	63.795	-18209	2314.4	-0.3132	0.90963	0.32042
3.528	63.788	-18212	2314.4	-0.31252	0.90914	0.31954
3.53	63.774	-18211	2314.3	-0.31183	0.90866	0.31866
3.532	63.749	-18210	2314.3	-0.31066	0.90856	0.31837
3.534	63.731	-18207	2314.2	-0.30949	0.90846	0.31808
3.536	63.712	-18204	2314.1	-0.30832	0.90836	0.31779
3.538	63.7	-18213	2314.1	-0.30715	0.90827	0.31749
3.54	63.689	-18222	2314.1	-0.30598	0.90817	0.3172
3.542	63.683	-18218	2314	-0.30617	0.90807	0.31759
3.544	63.685	-18215	2313.9	-0.30637	0.90797	0.31798
3.546	63.685	-18209	2313.8	-0.30656	0.90788	0.31837
3.548	63.686	-18203	2313.8	-0.30676	0.90778	0.31876
3.55	63.679	-18202	2313.8	-0.30695	0.90768	0.31915
3.552	63.665	-18201	2313.7	-0.30861	0.90924	0.31944
3.554	63.657	-18206	2313.6	-0.31027	0.9108	0.31974
3.556	63.646	-18212	2313.5	-0.31193	0.91236	0.32003
3.558	63.635	-18210	2313.4	-0.31359	0.91393	0.32032
3.56	63.633	-18208	2313.3	-0.31525	0.91549	0.32062
3.562	63.635	-18210	2313.2	-0.31574	0.91598	0.31984
3.564	63.642	-18212	2313.1	-0.31622	0.91646	0.31905
3.566	63.648	-18212	2313	-0.31671	0.91695	0.31827
3.568	63.648	-18212	2312.9	-0.3172	0.91744	0.31749
3.57	63.642	-18212	2312.8	-0.31769	0.91793	0.31671
3.572	63.63	-18211	2312.7	-0.31593	0.91676	0.317
3.574	63.614	-18213	2312.7	-0.31417	0.91559	0.3173
3.576	63.607	-18216	2312.6	-0.31242	0.91441	0.31759
3.578	63.615	-18215	2312.6	-0.31066	0.91324	0.31788
3.58	63.626	-18214	2312.5	-0.3089	0.91207	0.31818
3.582	63.629	-18212	2312.5	-0.31086	0.91441	0.31915
3.584	63.621	-18211	2312.4	-0.31281	0.91676	0.32013
3.586	63.613	-18209	2312.4	-0.31476	0.9191	0.3211
3.588	63.61	-18207	2312.4	-0.31671	0.92144	0.32208
3.59	63.613	-18214	2312.4	-0.31866	0.92378	0.32306
3.592	63.614	-18221	2312.3	-0.32003	0.92242	0.32276
3.594	63.625	-18226	2312.2	-0.3214	0.92105	0.32247
3.596	63.623	-18232	2312.2	-0.32276	0.91968	0.32218
3.598	63.622	-18237	2312.1	-0.32413	0.91832	0.32188
3.6	63.615	-18242	2312.1	-0.3255	0.91695	0.32159
3.602	63.603	-18244	2312.1	-0.32452	0.91666	0.32228
3.604	63.598	-18247	2312	-0.32354	0.91637	0.32296
3.606	63.598	-18233	2312	-0.32257	0.91607	0.32364
3.608	63.575	-18219	2311.9	-0.32159	0.91578	0.32432
3.61	63.57	-18216	2311.9	-0.32062	0.91549	0.32501
3.612	63.588	-18213	2311.9	-0.31974	0.9151	0.32784
3.614	63.592	-18224	2311.9	-0.31886	0.91471	0.33067
3.616	63.593	-18235	2311.9	-0.31798	0.91432	0.3335
3.618	63.597	-18233	2312	-0.3171	0.91393	0.33633
3.62	63.594	-18230	2312	-0.31622	0.91354	0.33916
3.622	63.583	-18225	2311.9	-0.31671	0.91334	0.33887
3.624	63.582	-18219	2311.9	-0.3172	0.91315	0.33857
3.626	63.578	-18228	2311.9	-0.31769	0.91295	0.33828
3.628	63.573	-18237	2311.9	-0.31818	0.91276	0.33799
3.63	63.579	-18228	2311.9	-0.31866	0.91256	0.3377
3.632	63.587	-18220	2311.9	-0.32013	0.91149	0.33818
3.634	63.587	-18228	2311.9	-0.32159	0.91041	0.33867
3.636	63.576	-18236	2311.9	-0.32306	0.90934	0.33916
3.638	63.574	-18231	2311.8	-0.32452	0.90827	0.33965
3.64	63.573	-18227	2311.8	-0.32598	0.90719	0.34014
3.642	63.565	-18230	2311.8	-0.32667	0.90778	0.34014
3.644	63.56	-18233	2311.9	-0.32735	0.90836	0.34014
3.646	63.557	-18235	2311.9	-0.32803	0.90895	0.34014
3.648	63.557	-18237	2311.9	-0.32872	0.90953	0.34014
3.65	63.56	-18233	2312	-0.3294	0.91012	0.34014
3.652	63.56	-18230	2312	-0.3295	0.91041	0.33975
3.654	63.556	-18225	2312.1	-0.3296	0.91071	0.33936
3.656	63.551	-18221	2312.2	-0.32969	0.911	0.33896
3.658	63.541	-18222	2312.4	-0.32979	0.91129	0.33857
3.66	63.528	-18223	2312.5	-0.32989	0.91158	0.33818
3.662	63.52	-18220	2312.6	-0.32891	0.91061	0.3377
3.664	63.528	-18218	2312.7	-0.32794	0.90963	0.33721
3.666	63.544	-18216	2312.9	-0.32696	0.90866	0.33672
3.668	63.539	-18215	2313	-0.32598	0.90768	0.33623
3.67	63.529	-18216	2313.1	-0.32501	0.9067	0.33574
3.672	63.521	-18217	2313.2	-0.32423	0.90661	0.33545
3.674	63.515	-18215	2313.3	-0.32345	0.90651	0.33516
3.676	63.502	-18214	2313.5	-0.32267	0.90641	0.33487
3.678	63.509	-18215	2313.6	-0.32188	0.90631	0.33457
3.68	63.521	-18215	2313.7	-0.3211	0.90622	0.33428
3.682	63.532	-18211	2313.8	-0.32169	0.90514	0.3334
3.684	63.532	-18208	2313.9	-0.32228	0.90407	0.33252
3.686	63.529	-18206	2314	-0.32286	0.903	0.33164
3.688	63.512	-18204	2314.1	-0.32345	0.90192	0.33077
3.69	63.505	-18201	2314.1	-0.32403	0.90085	0.32989
3.692	63.521	-18198	2314.2	-0.32481	0.90153	0.32989
3.694	63.536	-18202	2314.3	-0.32559	0.90221	0.32989
3.696	63.54	-18207	2314.4	-0.32637	0.9029	0.32989
3.698	63.549	-18205	2314.5	-0.32716	0.90358	0.32989
3.7	63.545	-18204	2314.6	-0.32794	0.90426	0.32989
3.702	63.548	-18201	2314.6	-0.32764	0.90407	0.3295
3.704	63.548	-18198	2314.7	-0.32735	0.90387	0.32911
3.706	63.556	-18195	2314.9	-0.32706	0.90368	0.32872
3.708	63.55	-18193	2315	-0.32676	0.90348	0.32833
3.71	63.555	-18190	2315.1	-0.32647	0.90329	0.32794
3.712	63.56	-18187	2315.1	-0.32696	0.903	0.32725
3.714	63.578	-18184	2315.1	-0.32745	0.9027	0.32657
3.716	63.587	-18181	2315.1	-0.32794	0.90241	0.32589
3.718	63.593	-18180	2315.2	-0.32842	0.90212	0.3252
3.72	63.6	-18180	2315.3	-0.32891	0.90182	0.32452
3.722	63.607	-18179	2315.3	-0.32706	0.90202	0.32325
3.724	63.614	-18177	2315.3	-0.3252	0.90221	0.32198
3.726	63.618	-18180	2315.3	-0.32335	0.90241	0.32071
3.728	63.628	-18182	2315.4	-0.32149	0.9026	0.31944
3.73	63.649	-18182	2315.5	-0.31964	0.9028	0.31818
3.732	63.663	-18183	2315.5	-0.32081	0.903	0.31915
3.734	63.67	-18181	2315.6	-0.32198	0.90319	0.32013
3.736	63.675	-18179	2315.6	-0.32315	0.90339	0.3211
3.738	63.673	-18180	2315.7	-0.32432	0.90358	0.32208
3.74	63.672	-18180	2315.8	-0.3255	0.90378	0.32306
3.742	63.685	-18175	2315.8	-0.32286	0.90387	0.32179
3.744	63.7	-18170	2315.8	-0.32023	0.90397	0.32052
3.746	63.707	-18168	2315.9	-0.31759	0.90407	0.31925
3.748	63.72	-18166	2315.9	-0.31496	0.90417	0.31798
3.75	63.735	-18163	2315.9	-0.31232	0.90426	0.31671
3.752	63.742	-18160	2316	-0.31232	0.90456	0.31671
3.754	63.742	-18166	2316.1	-0.31232	0.90485	0.31671
3.756	63.737	-18171	2316.1	-0.31232	0.90514	0.31671
3.758	63.734	-18171	2316.2	-0.31232	0.90544	0.31671
3.76	63.732	-18171	2316.3	-0.31232	0.90573	0.31671
3.762	63.74	-18175	2316.2	-0.31134	0.90553	0.31691
3.764	63.757	-18178	2316.2	-0.31037	0.90534	0.3171
3.766	63.767	-18170	2316.2	-0.30939	0.90514	0.3173
3.768	63.765	-18162	2316.3	-0.30842	0.90495	0.31749
3.77	63.755	-18160	2316.3	-0.30744	0.90475	0.31769
3.772	63.75	-18158	2316.4	-0.30764	0.90456	0.3172
3.774	63.735	-18157	2316.4	-0.30783	0.90436	0.31671
3.776	63.72	-18156	2316.4	-0.30803	0.90417	0.31622
3.778	63.718	-18157	2316.4	-0.30822	0.90397	0.31574
3.78	63.721	-18158	2316.5	-0.30842	0.90378	0.31525
3.782	63.737	-18158	2316.5	-0.30851	0.90387	0.31544
3.784	63.752	-18158	2316.5	-0.30861	0.90397	0.31564
3.786	63.739	-18158	2316.6	-0.30871	0.90407	0.31583
3.788	63.733	-18158	2316.6	-0.30881	0.90417	0.31603
3.79	63.742	-18159	2316.6	-0.3089	0.90426	0.31622
3.792	63.738	-18159	2316.6	-0.31008	0.90592	0.317
3.794	63.736	-18165	2316.6	-0.31125	0.90758	0.31779
3.796	63.739	-18171	2316.6	-0.31242	0.90924	0.31857
3.798	63.734	-18166	2316.7	-0.31359	0.9109	0.31935
3.8	63.735	-18161	2316.7	-0.31476	0.91256	0.32013
3.802	63.732	-18157	2316.8	-0.31632	0.91207	0.32101
3.804	63.721	-18152	2316.8	-0.31788	0.91158	0.32188
3.806	63.71	-18150	2316.9	-0.31944	0.9111	0.32276
3.808	63.715	-18148	2317	-0.32101	0.91061	0.32364
3.81	63.72	-18150	2317	-0.32257	0.91012	0.32452
3.812	63.716	-18152	2317.1	-0.32267	0.90963	0.32511
3.814	63.712	-18154	2317.1	-0.32276	0.90914	0.32569
3.816	63.714	-18156	2317.1	-0.32286	0.90866	0.32628
3.818	63.714	-18160	2317.2	-0.32296	0.90817	0.32686
3.82	63.712	-18164	2317.3	-0.32306	0.90768	0.32745
3.822	63.706	-18162	2317.3	-0.32345	0.90778	0.32735
3.824	63.7	-18159	2317.4	-0.32384	0.90788	0.32725
3.826	63.702	-18157	2317.5	-0.32423	0.90797	0.32716
3.828	63.71	-18155	2317.6	-0.32462	0.90807	0.32706
3.83	63.715	-18158	2317.7	-0.32501	0.90817	0.32696
3.832	63.717	-18160	2317.7	-0.32296	0.90885	0.32735
3.834	63.72	-18161	2317.8	-0.32091	0.90953	0.32774
3.836	63.714	-18162	2317.8	-0.31886	0.91022	0.32813
3.838	63.708	-18163	2317.9	-0.31681	0.9109	0.32852
3.84	63.703	-18164	2317.9	-0.31476	0.91158	0.32891
3.842	63.702	-18162	2317.9	-0.31339	0.9108	0.3294
3.844	63.715	-18160	2318	-0.31203	0.91002	0.32989
3.846	63.721	-18163	2318	-0.31066	0.90924	0.33038
3.848	63.723	-18165	2318	-0.30929	0.90846	0.33086
3.85	63.727	-18167	2318.1	-0.30793	0.90768	0.33135
3.852	63.742	-18169	2318.1	-0.30861	0.90817	0.33106
3.854	63.749	-18166	2318.2	-0.30929	0.90866	0.33077
3.856	63.732	-18163	2318.2	-0.30998	0.90914	0.33047
3.858	63.714	-18163	2318.2	-0.31066	0.90963	0.33018
3.86	63.708	-18164	2318.2	-0.31134	0.91012	0.32989
3.862	63.703	-18165	2318.2	-0.31125	0.90963	0.33057
3.864	63.707	-18167	2318.3	-0.31115	0.90914	0.33125
3.866	63.71	-18167	2318.3	-0.31105	0.90866	0.33194
3.868	63.709	-18166	2318.3	-0.31095	0.90817	0.33262
3.87	63.707	-18164	2318.4	-0.31086	0.90768	0.3333
3.872	63.698	-18161	2318.4	-0.31066	0.90778	0.3336
3.874	63.697	-18161	2318.4	-0.31047	0.90788	0.33389
3.876	63.686	-18162	2318.4	-0.31027	0.90797	0.33418
3.878	63.697	-18167	2318.4	-0.31008	0.90807	0.33448
3.88	63.696	-18172	2318.4	-0.30988	0.90817	0.33477
3.882	63.689	-18171	2318.4	-0.30978	0.90729	0.33418
3.884	63.691	-18171	2318.3	-0.30968	0.90641	0.3336
3.886	63.69	-18169	2318.3	-0.30959	0.90553	0.33301
3.888	63.688	-18167	2318.4	-0.30949	0.90465	0.33243
3.89	63.687	-18168	2318.4	-0.30939	0.90378	0.33184
3.892	63.675	-18169	2318.4	-0.31056	0.90544	0.33233
3.894	63.673	-18171	2318.4	-0.31173	0.90709	0.33282
3.896	63.669	-18173	2318.4	-0.31291	0.90875	0.3333
3.898	63.655	-18174	2318.4	-0.31408	0.91041	0.33379
3.9	63.638	-18176	2318.4	-0.31525	0.91207	0.33428
3.902	63.625	-18173	2318.4	-0.31505	0.91197	0.33428
3.904	63.624	-18170	2318.4	-0.31486	0.91188	0.33428
3.906	63.63	-18172	2318.4	-0.31466	0.91178	0.33428
3.908	63.632	-18173	2318.5	-0.31447	0.91168	0.33428
3.91	63.633	-18175	2318.6	-0.31427	0.91158	0.33428
3.912	63.638	-18176	2318.6	-0.31447	0.91071	0.33438
3.914	63.648	-18172	2318.6	-0.31466	0.90983	0.33448
3.916	63.657	-18167	2318.6	-0.31486	0.90895	0.33457
3.918	63.658	-18167	2318.5	-0.31505	0.90807	0.33467
3.92	63.651	-18166	2318.5	-0.31525	0.90719	0.33477
3.922	63.643	-18166	2318.5	-0.31544	0.90768	0.33408
3.924	63.646	-18166	2318.6	-0.31564	0.90817	0.3334
3.926	63.649	-18166	2318.6	-0.31583	0.90866	0.33272
3.928	63.659	-18167	2318.6	-0.31603	0.90914	0.33204
3.93	63.673	-18166	2318.6	-0.31622	0.90963	0.33135
3.932	63.675	-18166	2318.6	-0.31554	0.90895	0.33135
3.934	63.685	-18170	2318.6	-0.31486	0.90827	0.33135
3.936	63.683	-18174	2318.5	-0.31417	0.90758	0.33135
3.938	63.677	-18174	2318.5	-0.31349	0.9069	0.33135
3.94	63.684	-18175	2318.5	-0.31281	0.90622	0.33135
3.942	63.684	-18175	2318.5	-0.31437	0.90709	0.33028
3.944	63.685	-18175	2318.5	-0.31593	0.90797	0.3292
3.946	63.684	-18174	2318.4	-0.31749	0.90885	0.32813
3.948	63.685	-18173	2318.4	-0.31905	0.90973	0.32706
3.95	63.697	-18175	2318.4	-0.32062	0.91061	0.32598
3.952	63.718	-18177	2318.4	-0.32013	0.91022	0.3254
3.954	63.717	-18179	2318.3	-0.31964	0.90983	0.32481
3.956	63.723	-18181	2318.3	-0.31915	0.90944	0.32423
3.958	63.718	-18183	2318.2	-0.31866	0.90905	0.32364
3.96	63.719	-18184	2318.2	-0.31818	0.90866	0.32306
3.962	63.724	-18181	2318	-0.31798	0.90905	0.32413
3.964	63.742	-18178	2317.9	-0.31779	0.90944	0.3252
3.966	63.749	-18175	2317.7	-0.31759	0.90983	0.32628
3.968	63.747	-18173	2317.5	-0.3174	0.91022	0.32735
3.97	63.747	-18177	2317.4	-0.3172	0.91061	0.32842
3.972	63.747	-18181	2317.3	-0.31798	0.91129	0.32803
3.974	63.736	-18178	2317.3	-0.31876	0.91197	0.32764
3.976	63.731	-18176	2317.3	-0.31954	0.91266	0.32725
3.978	63.741	-18177	2317.1	-0.32032	0.91334	0.32686
3.98	63.742	-18178	2317	-0.3211	0.91402	0.32647
3.982	63.738	-18178	2317	-0.3211	0.91344	0.32628
3.984	63.737	-18179	2316.9	-0.3211	0.91285	0.32608
3.986	63.725	-18183	2316.9	-0.3211	0.91227	0.32589
3.988	63.703	-18187	2316.7	-0.3211	0.91168	0.32569
3.99	63.688	-18182	2316.6	-0.3211	0.9111	0.3255
3.992	63.685	-18177	2316.5	-0.32062	0.9111	0.32579
3.994	63.686	-18180	2316.5	-0.32013	0.9111	0.32608
3.996	63.691	-18184	2316.4	-0.31964	0.9111	0.32637
3.998	63.702	-18180	2316.4	-0.31915	0.9111	0.32667
4	63.72	-18177	2316.3	-0.31866	0.9111	0.32696
4.002	63.745	-18178	2316.3	-0.31886	0.9109	0.32716
4.004	63.767	-18179	2316.2	-0.31905	0.91071	0.32735
4.006	63.793	-18181	2316.2	-0.31925	0.91051	0.32755
4.008	63.821	-18183	2316.2	-0.31944	0.91032	0.32774
4.01	63.828	-18187	2316.2	-0.31964	0.91012	0.32794
4.012	63.816	-18191	2316.2	-0.31974	0.90963	0.32794
4.014	63.798	-18192	2316.1	-0.31984	0.90914	0.32794
4.016	63.761	-18193	2316.1	-0.31993	0.90866	0.32794
4.018	63.714	-18190	2316.1	-0.32003	0.90817	0.32794
4.02	63.664	-18186	2316	-0.32013	0.90768	0.32794
4.022	63.6	-18183	2316	-0.32062	0.90788	0.32764
4.024	63.506	-18180	2315.9	-0.3211	0.90807	0.32735
4.026	63.408	-18182	2315.9	-0.32159	0.90827	0.32706
4.028	63.296	-18184	2315.9	-0.32208	0.90846	0.32676
4.03	63.17	-18180	2315.9	-0.32257	0.90866	0.32647
4.032	63.066	-18175	2315.9	-0.32315	0.90778	0.32608
4.034	62.99	-18182	2315.9	-0.32374	0.9069	0.32569
4.036	62.903	-18188	2315.9	-0.32432	0.90602	0.3253
4.038	62.848	-18190	2315.9	-0.32491	0.90514	0.32491
4.04	62.847	-18191	2315.9	-0.3255	0.90426	0.32452
4.042	62.886	-18187	2316	-0.32374	0.90563	0.32608
4.044	62.958	-18182	2316	-0.32198	0.907	0.32764
4.046	63.045	-18181	2316	-0.32023	0.90836	0.3292
4.048	63.169	-18180	2316	-0.31847	0.90973	0.33077
4.05	63.284	-18187	2316	-0.31671	0.9111	0.33233
4.052	63.39	-18193	2316	-0.317	0.91139	0.33223
4.054	63.518	-18189	2316	-0.3173	0.91168	0.33213
4.056	63.622	-18184	2316	-0.31759	0.91197	0.33204
4.058	63.676	-18185	2316	-0.31788	0.91227	0.33194
4.06	63.69	-18186	2315.9	-0.31818	0.91256	0.33184
4.062	63.702	-18192	2315.9	-0.31808	0.91236	0.33184
4.064	63.709	-18198	2315.8	-0.31798	0.91217	0.33184
4.066	63.729	-18195	2315.8	-0.31788	0.91197	0.33184
4.068	63.761	-18192	2315.8	-0.31779	0.91178	0.33184
4.07	63.784	-18195	2315.8	-0.31769	0.91158	0.33184
4.072	63.771	-18197	2315.8	-0.3172	0.91149	0.33184
4.074	63.749	-18196	2315.7	-0.31671	0.91139	0.33184
4.076	63.728	-18195	2315.7	-0.31622	0.91129	0.33184
4.078	63.704	-18192	2315.7	-0.31574	0.91119	0.33184
4.08	63.69	-18190	2315.6	-0.31525	0.9111	0.33184
4.082	63.687	-18194	2315.6	-0.31486	0.911	0.33213
4.084	63.69	-18197	2315.6	-0.31447	0.9109	0.33243
4.086	63.693	-18197	2315.5	-0.31408	0.9108	0.33272
4.088	63.691	-18196	2315.5	-0.31369	0.91071	0.33301
4.09	63.687	-18198	2315.5	-0.3133	0.91061	0.3333
4.092	63.678	-18200	2315.4	-0.31398	0.91041	0.3334
4.094	63.667	-18199	2315.4	-0.31466	0.91022	0.3335
4.096	63.673	-18198	2315.3	-0.31535	0.91002	0.3336
4.098	63.678	-18200	2315.2	-0.31603	0.90983	0.33369
4.1	63.678	-18202	2315	-0.31671	0.90963	0.33379
4.102	63.682	-18197	2314.9	-0.31583	0.90856	0.3334
4.104	63.672	-18192	2314.8	-0.31496	0.90748	0.33301
4.106	63.67	-18194	2314.7	-0.31408	0.90641	0.33262
4.108	63.66	-18196	2314.6	-0.3132	0.90534	0.33223
4.11	63.646	-18198	2314.5	-0.31232	0.90426	0.33184
4.112	63.639	-18199	2314.3	-0.313	0.90504	0.33233
4.114	63.648	-18206	2314.2	-0.31369	0.90583	0.33282
4.116	63.645	-18213	2314.1	-0.31437	0.90661	0.3333
4.118	63.645	-18209	2314	-0.31505	0.90739	0.33379
4.12	63.639	-18205	2313.9	-0.31574	0.90817	0.33428
4.122	63.62	-18209	2313.9	-0.31632	0.90924	0.3333
4.124	63.621	-18214	2313.9	-0.31691	0.91032	0.33233
4.126	63.614	-18217	2313.9	-0.31749	0.91139	0.33135
4.128	63.614	-18221	2313.8	-0.31808	0.91246	0.33038
4.13	63.63	-18218	2313.7	-0.31866	0.91354	0.3294
4.132	63.638	-18215	2313.7	-0.31954	0.91354	0.3294
4.134	63.644	-18208	2313.6	-0.32042	0.91354	0.3294
4.136	63.638	-18202	2313.5	-0.3213	0.91354	0.3294
4.138	63.633	-18204	2313.4	-0.32218	0.91354	0.3294
4.14	63.624	-18206	2313.3	-0.32306	0.91354	0.3294
4.142	63.62	-18205	2313.2	-0.32179	0.91354	0.32989
4.144	63.614	-18205	2313.1	-0.32052	0.91354	0.33038
4.146	63.627	-18208	2313	-0.31925	0.91354	0.33086
4.148	63.634	-18212	2312.9	-0.31798	0.91354	0.33135
4.15	63.63	-18208	2312.8	-0.31671	0.91354	0.33184
4.152	63.631	-18204	2312.7	-0.31671	0.91354	0.33145
4.154	63.636	-18212	2312.6	-0.31671	0.91354	0.33106
4.156	63.634	-18220	2312.5	-0.31671	0.91354	0.33067
4.158	63.627	-18216	2312.4	-0.31671	0.91354	0.33028
4.16	63.622	-18213	2312.3	-0.31671	0.91354	0.32989
4.162	63.622	-18212	2312.2	-0.31583	0.91188	0.33028
4.164	63.627	-18211	2312.2	-0.31496	0.91022	0.33067
4.166	63.634	-18211	2312.1	-0.31408	0.90856	0.33106
4.168	63.632	-18211	2312	-0.3132	0.9069	0.33145
4.17	63.623	-18215	2311.9	-0.31232	0.90524	0.33184
4.172	63.612	-18219	2311.9	-0.3131	0.90602	0.33282
4.174	63.607	-18222	2311.9	-0.31388	0.9068	0.33379
4.176	63.61	-18225	2311.8	-0.31466	0.90758	0.33477
4.178	63.611	-18231	2311.8	-0.31544	0.90836	0.33574
4.18	63.614	-18236	2311.8	-0.31622	0.90914	0.33672
4.182	63.615	-18231	2311.7	-0.31661	0.90924	0.33613
4.184	63.617	-18226	2311.7	-0.317	0.90934	0.33555
4.186	63.616	-18225	2311.7	-0.3174	0.90944	0.33496
4.188	63.61	-18224	2311.6	-0.31779	0.90953	0.33438
4.19	63.61	-18226	2311.6	-0.31818	0.90963	0.33379
4.192	63.608	-18228	2311.6	-0.31896	0.90827	0.33399
4.194	63.597	-18226	2311.6	-0.31974	0.9069	0.33418
4.196	63.592	-18223	2311.6	-0.32052	0.90553	0.33438
4.198	63.593	-18216	2311.7	-0.3213	0.90417	0.33457
4.2	63.592	-18209	2311.7	-0.32208	0.9028	0.33477
4.202	63.588	-18210	2311.8	-0.32257	0.90202	0.33321
4.204	63.584	-18210	2311.9	-0.32306	0.90124	0.33164
4.206	63.572	-18206	2311.9	-0.32354	0.90046	0.33008
4.208	63.558	-18202	2312	-0.32403	0.89968	0.32852
4.21	63.561	-18198	2312.1	-0.32452	0.8989	0.32696
4.212	63.564	-18194	2312.2	-0.3254	0.89802	0.32872
4.214	63.57	-18197	2312.3	-0.32628	0.89714	0.33047
4.216	63.57	-18200	2312.4	-0.32716	0.89626	0.33223
4.218	63.558	-18201	2312.6	-0.32803	0.89538	0.33399
4.22	63.532	-18201	2312.7	-0.32891	0.8945	0.33574
4.222	63.498	-18197	2312.8	-0.32852	0.89411	0.33555
4.224	63.483	-18194	2312.8	-0.32813	0.89372	0.33535
4.226	63.479	-18196	2312.9	-0.32774	0.89333	0.33516
4.228	63.475	-18199	2313	-0.32735	0.89294	0.33496
4.23	63.475	-18197	2313.1	-0.32696	0.89255	0.33477
4.232	63.478	-18196	2313.2	-0.32774	0.89431	0.3333
4.234	63.489	-18194	2313.3	-0.32852	0.89607	0.33184
4.236	63.495	-18192	2313.4	-0.3293	0.89782	0.33038
4.238	63.492	-18191	2313.5	-0.33008	0.89958	0.32891
4.24	63.488	-18190	2313.7	-0.33086	0.90134	0.32745
4.242	63.495	-18184	2313.8	-0.33204	0.90016	0.32794
4.244	63.501	-18179	2313.8	-0.33321	0.89899	0.32842
4.246	63.505	-18177	2314	-0.33438	0.89782	0.32891
4.248	63.524	-18175	2314.1	-0.33555	0.89665	0.3294
4.25	63.545	-18176	2314.2	-0.33672	0.89548	0.32989
4.252	63.554	-18176	2314.3	-0.33604	0.89694	0.32842
4.254	63.556	-18174	2314.4	-0.33535	0.89841	0.32696
4.256	63.555	-18172	2314.5	-0.33467	0.89987	0.3255
4.258	63.554	-18171	2314.6	-0.33399	0.90134	0.32403
4.26	63.557	-18169	2314.7	-0.3333	0.9028	0.32257
4.262	63.574	-18173	2314.7	-0.33213	0.90163	0.32218
4.264	63.594	-18177	2314.8	-0.33096	0.90046	0.32179
4.266	63.613	-18176	2314.8	-0.32979	0.89929	0.3214
4.268	63.627	-18175	2314.9	-0.32862	0.89812	0.32101
4.27	63.636	-18172	2315	-0.32745	0.89694	0.32062
4.272	63.638	-18168	2315	-0.3253	0.89802	0.31974
4.274	63.642	-18163	2315	-0.32315	0.89909	0.31886
4.276	63.65	-18157	2315.1	-0.32101	0.90016	0.31798
4.278	63.653	-18155	2315.1	-0.31886	0.90124	0.3171
4.28	63.664	-18153	2315.2	-0.31671	0.90231	0.31622
4.282	63.684	-18154	2315.2	-0.31661	0.9026	0.31632
4.284	63.682	-18155	2315.2	-0.31652	0.9029	0.31642
4.286	63.689	-18156	2315.3	-0.31642	0.90319	0.31652
4.288	63.696	-18157	2315.3	-0.31632	0.90348	0.31661
4.29	63.708	-18154	2315.4	-0.31622	0.90378	0.31671
4.292	63.712	-18151	2315.3	-0.31661	0.90417	0.31642
4.294	63.71	-18151	2315.3	-0.317	0.90456	0.31613
4.296	63.713	-18151	2315.3	-0.3174	0.90495	0.31583
4.298	63.725	-18149	2315.4	-0.31779	0.90534	0.31554
4.3	63.738	-18147	2315.4	-0.31818	0.90573	0.31525
4.302	63.75	-18147	2315.4	-0.3171	0.90514	0.31486
4.304	63.759	-18147	2315.4	-0.31603	0.90456	0.31447
4.306	63.745	-18147	2315.4	-0.31496	0.90397	0.31408
4.308	63.746	-18147	2315.5	-0.31388	0.90339	0.31369
4.31	63.75	-18146	2315.5	-0.31281	0.9028	0.3133
4.312	63.759	-18145	2315.6	-0.31252	0.90339	0.31369
4.314	63.762	-18145	2315.6	-0.31222	0.90397	0.31408
4.316	63.759	-18144	2315.7	-0.31193	0.90456	0.31447
4.318	63.752	-18142	2315.8	-0.31164	0.90514	0.31486
4.32	63.751	-18141	2315.9	-0.31134	0.90573	0.31525
4.322	63.757	-18144	2316	-0.31242	0.90709	0.31613
4.324	63.76	-18146	2316.1	-0.31349	0.90846	0.317
4.326	63.758	-18147	2316.2	-0.31456	0.90983	0.31788
4.328	63.759	-18148	2316.3	-0.31564	0.91119	0.31876
4.33	63.764	-18145	2316.4	-0.31671	0.91256	0.31964
4.332	63.767	-18143	2316.5	-0.31593	0.91315	0.31925
4.334	63.765	-18139	2316.6	-0.31515	0.91373	0.31886
4.336	63.759	-18136	2316.7	-0.31437	0.91432	0.31847
4.338	63.754	-18139	2316.9	-0.31359	0.9149	0.31808
4.34	63.754	-18142	2317	-0.31281	0.91549	0.31769
4.342	63.754	-18142	2317.2	-0.31349	0.91578	0.31827
4.344	63.754	-18142	2317.3	-0.31417	0.91607	0.31886
4.346	63.76	-18138	2317.4	-0.31486	0.91637	0.31944
4.348	63.767	-18135	2317.6	-0.31554	0.91666	0.32003
4.35	63.767	-18137	2317.8	-0.31622	0.91695	0.32062
4.352	63.737	-18140	2318	-0.31574	0.91607	0.3211
4.354	63.7	-18142	2318.1	-0.31525	0.9152	0.32159
4.356	63.68	-18145	2318.2	-0.31476	0.91432	0.32208
4.358	63.671	-18143	2318.4	-0.31427	0.91344	0.32257
4.36	63.673	-18142	2318.5	-0.31378	0.91256	0.32306
4.362	63.669	-18141	2318.6	-0.31466	0.91305	0.32325
4.364	63.67	-18140	2318.8	-0.31554	0.91354	0.32345
4.366	63.675	-18140	2318.9	-0.31642	0.91402	0.32364
4.368	63.68	-18141	2318.9	-0.3173	0.91451	0.32384
4.37	63.691	-18141	2319	-0.31818	0.915	0.32403
4.372	63.688	-18141	2319	-0.31779	0.9149	0.32452
4.374	63.689	-18146	2319.1	-0.3174	0.9148	0.32501
4.376	63.701	-18150	2319.1	-0.317	0.91471	0.3255
4.378	63.708	-18148	2319.1	-0.31661	0.91461	0.32598
4.38	63.708	-18146	2319.2	-0.31622	0.91451	0.32647
4.382	63.711	-18142	2319.2	-0.313	0.91432	0.32745
4.384	63.72	-18138	2319.2	-0.30978	0.91412	0.32842
4.386	63.727	-18141	2319.2	-0.30656	0.91393	0.3294
4.388	63.721	-18144	2319.2	-0.30334	0.91373	0.33038
4.39	63.717	-18148	2319.2	-0.30012	0.91354	0.33135
4.392	63.721	-18153	2319.2	-0.30022	0.91305	0.33194
4.394	63.72	-18148	2319.2	-0.30032	0.91256	0.33252
4.396	63.721	-18144	2319.1	-0.30041	0.91207	0.33311
4.398	63.726	-18141	2319.1	-0.30051	0.91158	0.33369
4.4	63.727	-18139	2319.1	-0.30061	0.9111	0.33428
4.402	63.739	-18141	2319	-0.30119	0.91041	0.33428
4.404	63.743	-18144	2318.9	-0.30178	0.90973	0.33428
4.406	63.733	-18150	2318.9	-0.30236	0.90905	0.33428
4.408	63.728	-18157	2318.9	-0.30295	0.90836	0.33428
4.41	63.728	-18151	2318.8	-0.30354	0.90768	0.33428
4.412	63.731	-18145	2318.8	-0.30354	0.90797	0.33438
4.414	63.739	-18143	2318.8	-0.30354	0.90827	0.33448
4.416	63.753	-18141	2318.7	-0.30354	0.90856	0.33457
4.418	63.764	-18141	2318.7	-0.30354	0.90885	0.33467
4.42	63.767	-18141	2318.6	-0.30354	0.90914	0.33477
4.422	63.758	-18144	2318.5	-0.30373	0.90866	0.33428
4.424	63.752	-18147	2318.4	-0.30393	0.90817	0.33379
4.426	63.751	-18146	2318.4	-0.30412	0.90768	0.3333
4.428	63.75	-18146	2318.3	-0.30432	0.90719	0.33282
4.43	63.753	-18144	2318.2	-0.30451	0.9067	0.33233
4.432	63.76	-18142	2318.1	-0.30646	0.90612	0.33067
4.434	63.765	-18144	2318	-0.30842	0.90553	0.32901
4.436	63.752	-18147	2318	-0.31037	0.90495	0.32735
4.438	63.73	-18146	2317.9	-0.31232	0.90436	0.32569
4.44	63.713	-18146	2317.9	-0.31427	0.90378	0.32403
4.442	63.695	-18145	2317.8	-0.31554	0.90397	0.32462
4.444	63.689	-18144	2317.7	-0.31681	0.90417	0.3252
4.446	63.702	-18150	2317.6	-0.31808	0.90436	0.32579
4.448	63.714	-18156	2317.5	-0.31935	0.90456	0.32637
4.45	63.723	-18152	2317.5	-0.32062	0.90475	0.32696
4.452	63.73	-18148	2317.4	-0.3211	0.90397	0.32589
4.454	63.736	-18147	2317.3	-0.32159	0.90319	0.32481
4.456	63.734	-18145	2317.3	-0.32208	0.90241	0.32374
4.458	63.736	-18147	2317.2	-0.32257	0.90163	0.32267
4.46	63.739	-18149	2317.2	-0.32306	0.90085	0.32159
4.462	63.739	-18151	2317.1	-0.32276	0.90241	0.32247
4.464	63.741	-18153	2317.1	-0.32247	0.90397	0.32335
4.466	63.751	-18153	2317.1	-0.32218	0.90553	0.32423
4.468	63.756	-18153	2317	-0.32188	0.90709	0.32511
4.47	63.764	-18152	2316.9	-0.32159	0.90866	0.32598
4.472	63.76	-18152	2316.8	-0.3212	0.90807	0.32472
4.474	63.751	-18149	2316.8	-0.32081	0.90748	0.32345
4.476	63.748	-18147	2316.8	-0.32042	0.9069	0.32218
4.478	63.757	-18152	2316.7	-0.32003	0.90631	0.32091
4.48	63.773	-18157	2316.6	-0.31964	0.90573	0.31964
4.482	63.789	-18159	2316.6	-0.31857	0.90631	0.31896
4.484	63.808	-18161	2316.5	-0.31749	0.9069	0.31827
4.486	63.812	-18154	2316.4	-0.31642	0.90748	0.31759
4.488	63.812	-18147	2316.4	-0.31535	0.90807	0.31691
4.49	63.816	-18150	2316.3	-0.31427	0.90866	0.31622
4.492	63.823	-18152	2316.3	-0.31593	0.90827	0.31691
4.494	63.828	-18150	2316.2	-0.31759	0.90788	0.31759
4.496	63.83	-18147	2316.2	-0.31925	0.90748	0.31827
4.498	63.836	-18149	2316.1	-0.32091	0.90709	0.31896
4.5	63.838	-18151	2316	-0.32257	0.9067	0.31964
4.502	63.836	-18151	2315.9	-0.32364	0.9068	0.32032
4.504	63.83	-18150	2315.8	-0.32472	0.9069	0.32101
4.506	63.822	-18149	2315.7	-0.32579	0.907	0.32169
4.508	63.82	-18147	2315.7	-0.32686	0.90709	0.32237
4.51	63.82	-18156	2315.6	-0.32794	0.90719	0.32306
4.512	63.822	-18165	2315.6	-0.32657	0.907	0.32228
4.514	63.832	-18167	2315.5	-0.3252	0.9068	0.32149
4.516	63.843	-18170	2315.5	-0.32384	0.90661	0.32071
4.518	63.846	-18162	2315.4	-0.32247	0.90641	0.31993
4.52	63.842	-18154	2315.4	-0.3211	0.90622	0.31915
4.522	63.832	-18155	2315.3	-0.32237	0.90661	0.32081
4.524	63.819	-18156	2315.2	-0.32364	0.907	0.32247
4.526	63.819	-18160	2315.1	-0.32491	0.90739	0.32413
4.528	63.829	-18163	2315.1	-0.32618	0.90778	0.32579
4.53	63.833	-18155	2315	-0.32745	0.90817	0.32745
4.532	63.838	-18146	2315	-0.32647	0.90768	0.32794
4.534	63.84	-18151	2314.9	-0.3255	0.90719	0.32842
4.536	63.842	-18155	2314.9	-0.32452	0.9067	0.32891
4.538	63.842	-18159	2314.8	-0.32354	0.90622	0.3294
4.54	63.838	-18163	2314.7	-0.32257	0.90573	0.32989
4.542	63.851	-18159	2314.7	-0.32384	0.90602	0.3296
4.544	63.876	-18156	2314.6	-0.32511	0.90631	0.3293
4.546	63.901	-18156	2314.5	-0.32637	0.90661	0.32901
4.548	63.946	-18156	2314.5	-0.32764	0.9069	0.32872
4.55	63.982	-18157	2314.4	-0.32891	0.90719	0.32842
4.552	63.979	-18159	2314.4	-0.32696	0.90758	0.3292
4.554	63.947	-18165	2314.3	-0.32501	0.90797	0.32999
4.556	63.9	-18172	2314.3	-0.32306	0.90836	0.33077
4.558	63.854	-18166	2314.2	-0.3211	0.90875	0.33155
4.56	63.806	-18161	2314.2	-0.31915	0.90914	0.33233
4.562	63.749	-18157	2314.2	-0.32003	0.90768	0.33213
4.564	63.702	-18153	2314.2	-0.32091	0.90622	0.33194
4.566	63.642	-18157	2314.1	-0.32179	0.90475	0.33174
4.568	63.563	-18160	2314.1	-0.32267	0.90329	0.33155
4.57	63.464	-18159	2314.1	-0.32354	0.90182	0.33135
4.572	63.35	-18157	2314.1	-0.32374	0.90221	0.33262
4.574	63.24	-18160	2314	-0.32393	0.9026	0.33389
4.576	63.135	-18162	2314	-0.32413	0.903	0.33516
4.578	63.049	-18162	2314	-0.32432	0.90339	0.33643
4.58	63.008	-18162	2314.1	-0.32452	0.90378	0.3377
4.582	63.011	-18162	2314.1	-0.32364	0.90436	0.33662
4.584	63.055	-18161	2314	-0.32276	0.90495	0.33555
4.586	63.13	-18161	2314.1	-0.32188	0.90553	0.33448
4.588	63.219	-18160	2314.1	-0.32101	0.90612	0.3334
4.59	63.316	-18168	2314.1	-0.32013	0.9067	0.33233
4.592	63.418	-18176	2314.1	-0.32023	0.90553	0.33243
4.594	63.533	-18173	2314.1	-0.32032	0.90436	0.33252
4.596	63.658	-18169	2314.1	-0.32042	0.90319	0.33262
4.598	63.754	-18167	2314.1	-0.32052	0.90202	0.33272
4.6	63.804	-18164	2314.1	-0.32062	0.90085	0.33282
4.602	63.828	-18170	2314	-0.32159	0.90104	0.33311
4.604	63.84	-18175	2314	-0.32257	0.90124	0.3334
4.606	63.843	-18174	2314	-0.32354	0.90143	0.33369
4.608	63.854	-18173	2314	-0.32452	0.90163	0.33399
4.61	63.883	-18171	2313.9	-0.3255	0.90182	0.33428
4.612	63.903	-18169	2313.9	-0.32511	0.90114	0.33408
4.614	63.899	-18174	2313.8	-0.32472	0.90046	0.33389
4.616	63.882	-18179	2313.8	-0.32432	0.89977	0.33369
4.618	63.865	-18179	2313.8	-0.32393	0.89909	0.3335
4.62	63.844	-18179	2313.8	-0.32354	0.89841	0.3333
4.622	63.835	-18176	2313.7	-0.32384	0.89831	0.33243
4.624	63.83	-18172	2313.6	-0.32413	0.89821	0.33155
4.626	63.826	-18175	2313.6	-0.32442	0.89812	0.33067
4.628	63.827	-18178	2313.5	-0.32472	0.89802	0.32979
4.63	63.832	-18176	2313.4	-0.32501	0.89792	0.32891
4.632	63.836	-18174	2313.4	-0.32393	0.89812	0.3293
4.634	63.84	-18175	2313.3	-0.32286	0.89831	0.32969
4.636	63.832	-18177	2313.2	-0.32179	0.89851	0.33008
4.638	63.829	-18182	2313.1	-0.32071	0.8987	0.33047
4.64	63.808	-18187	2313	-0.31964	0.8989	0.33086
4.642	63.808	-18182	2312.9	-0.32052	0.89831	0.33077
4.644	63.823	-18177	2312.8	-0.3214	0.89772	0.33067
4.646	63.836	-18175	2312.7	-0.32228	0.89714	0.33057
4.648	63.844	-18174	2312.6	-0.32315	0.89655	0.33047
4.65	63.849	-18176	2312.4	-0.32403	0.89597	0.33038
4.652	63.842	-18178	2312.3	-0.32511	0.89616	0.32969
4.654	63.834	-18180	2312.1	-0.32618	0.89636	0.32901
4.656	63.828	-18182	2312	-0.32725	0.89655	0.32833
4.658	63.823	-18180	2312	-0.32833	0.89675	0.32764
4.66	63.819	-18177	2311.9	-0.3294	0.89694	0.32696
4.662	63.817	-18179	2311.9	-0.32999	0.89968	0.32647
4.664	63.818	-18181	2311.8	-0.33057	0.90241	0.32598
4.666	63.813	-18183	2311.8	-0.33116	0.90514	0.3255
4.668	63.809	-18184	2311.7	-0.33174	0.90788	0.32501
4.67	63.807	-18183	2311.7	-0.33233	0.91061	0.32452
4.672	63.805	-18182	2311.7	-0.33282	0.91051	0.32462
4.674	63.805	-18187	2311.6	-0.3333	0.91041	0.32472
4.676	63.804	-18191	2311.6	-0.33379	0.91032	0.32481
4.678	63.801	-18192	2311.5	-0.33428	0.91022	0.32491
4.68	63.804	-18193	2311.4	-0.33477	0.91012	0.32501
4.682	63.807	-18190	2311.3	-0.33408	0.91012	0.32618
4.684	63.805	-18187	2311.2	-0.3334	0.91012	0.32735
4.686	63.801	-18186	2311	-0.33272	0.91012	0.32852
4.688	63.793	-18185	2310.9	-0.33204	0.91012	0.32969
4.69	63.78	-18187	2310.8	-0.33135	0.91012	0.33086
