t	ekg	optical	pressure	accel_x	accel_y	accel_z
4.5475e-13	-38.309	-8.6526e+05	2420.3	-0.090768	-0.031232	1.0038
0.002	-38.385	-8.6527e+05	2420.3	-0.091549	-0.030256	1.0042
0.004	-38.46	-8.6527e+05	2420.3	-0.09233	-0.02928	1.0046
0.006	-38.448	-8.6528e+05	2420.6	-0.09311	-0.028304	1.005
0.008	-38.367	-8.6529e+05	2421.1	-0.093891	-0.027328	1.0054
0.01	-38.306	-8.6529e+05	2421.7	-0.094672	-0.026352	1.0058
0.012	-38.27	-8.6529e+05	2423.1	-0.093208	-0.02684	1.0055
0.014	-38.309	-8.6529e+05	2424.4	-0.091744	-0.027328	1.0052
0.016	-38.364	-8.6529e+05	2426.1	-0.09028	-0.027816	1.0049
0.018	-38.392	-8.6529e+05	2428.1	-0.088816	-0.028304	1.0046
0.02	-38.4	-8.653e+05	2430.1	-0.087352	-0.028792	1.0043
0.022	-38.346	-8.653e+05	2432.1	-0.08784	-0.028694	1.0048
0.024	-38.346	-8.6531e+05	2434.1	-0.088328	-0.028597	1.0053
0.026	-38.32	-8.6531e+05	2436	-0.088816	-0.028499	1.0058
0.028	-38.225	-8.6531e+05	2437.7	-0.089304	-0.028402	1.0063
0.03	-38.301	-8.6531e+05	2439.4	-0.089792	-0.028304	1.0067
0.032	-38.441	-8.6532e+05	2440.9	-0.089694	-0.027426	1.0052
0.034	-38.46	-8.6532e+05	2442.3	-0.089597	-0.026547	1.0036
0.036	-38.518	-8.6532e+05	2443.6	-0.089499	-0.025669	1.0021
0.038	-38.481	-8.6532e+05	2444.8	-0.089402	-0.02479	1.0005
0.04	-38.412	-8.6532e+05	2445.9	-0.089304	-0.023912	0.99894
0.042	-38.402	-8.6532e+05	2446.9	-0.088328	-0.023522	0.99933
0.044	-38.367	-8.6533e+05	2447.8	-0.087352	-0.023131	0.99972
0.046	-38.367	-8.6533e+05	2448.7	-0.086376	-0.022741	1.0001
0.048	-38.41	-8.6533e+05	2449.5	-0.0854	-0.02235	1.0005
0.05	-38.428	-8.6533e+05	2450.2	-0.084424	-0.02196	1.0009
0.052	-38.485	-8.6533e+05	2450.9	-0.084717	-0.022838	1.0012
0.054	-38.511	-8.6534e+05	2451.6	-0.08501	-0.023717	1.0015
0.056	-38.46	-8.6534e+05	2452.2	-0.085302	-0.024595	1.0018
0.058	-38.439	-8.6534e+05	2452.8	-0.085595	-0.025474	1.0021
0.06	-38.394	-8.6534e+05	2453.4	-0.085888	-0.026352	1.0024
0.062	-38.364	-8.6533e+05	2453.9	-0.085205	-0.025571	1.0021
0.064	-38.391	-8.6532e+05	2454.4	-0.084522	-0.02479	1.0018
0.066	-38.416	-8.6533e+05	2454.9	-0.083838	-0.02401	1.0015
0.068	-38.493	-8.6533e+05	2455.3	-0.083155	-0.023229	1.0012
0.07	-38.57	-8.6532e+05	2455.7	-0.082472	-0.022448	1.0009
0.072	-38.576	-8.6531e+05	2456.1	-0.083643	-0.023912	1.0006
0.074	-38.521	-8.6531e+05	2456.4	-0.084814	-0.025376	1.0003
0.076	-38.443	-8.6531e+05	2456.6	-0.085986	-0.02684	1
0.078	-38.381	-8.6531e+05	2456.9	-0.087157	-0.028304	0.99972
0.08	-38.366	-8.653e+05	2457.1	-0.088328	-0.029768	0.99942
0.082	-38.393	-8.653e+05	2457.2	-0.087059	-0.028987	1.0003
0.084	-38.437	-8.6529e+05	2457.3	-0.08579	-0.028206	1.0012
0.086	-38.487	-8.6528e+05	2457.4	-0.084522	-0.027426	1.0021
0.088	-38.474	-8.6528e+05	2457.5	-0.083253	-0.026645	1.0029
0.09	-38.391	-8.6528e+05	2457.5	-0.081984	-0.025864	1.0038
0.092	-38.353	-8.6528e+05	2457.6	-0.083253	-0.026547	1.0034
0.094	-38.352	-8.6527e+05	2457.6	-0.084522	-0.02723	1.003
0.096	-38.39	-8.6527e+05	2457.6	-0.08579	-0.027914	1.0026
0.098	-38.447	-8.6527e+05	2457.6	-0.087059	-0.028597	1.0023
0.1	-38.459	-8.6527e+05	2457.6	-0.088328	-0.02928	1.0019
0.102	-38.497	-8.6525e+05	2457.5	-0.088035	-0.02889	1.0028
0.104	-38.511	-8.6523e+05	2457.4	-0.087742	-0.028499	1.0038
0.106	-38.423	-8.6523e+05	2457.3	-0.08745	-0.028109	1.0048
0.108	-38.367	-8.6522e+05	2457.2	-0.087157	-0.027718	1.0058
0.11	-38.326	-8.6522e+05	2457.1	-0.086864	-0.027328	1.0067
0.112	-38.295	-8.6522e+05	2457	-0.087352	-0.027816	1.0062
0.114	-38.339	-8.6521e+05	2456.8	-0.08784	-0.028304	1.0056
0.116	-38.387	-8.652e+05	2456.7	-0.088328	-0.028792	1.005
0.118	-38.388	-8.6519e+05	2456.5	-0.088816	-0.02928	1.0044
0.12	-38.418	-8.6519e+05	2456.4	-0.089304	-0.029768	1.0038
0.122	-38.408	-8.6518e+05	2456.2	-0.090768	-0.029573	1.0035
0.124	-38.392	-8.6517e+05	2456	-0.092232	-0.029378	1.0032
0.126	-38.323	-8.6516e+05	2455.7	-0.093696	-0.029182	1.0029
0.128	-38.214	-8.6515e+05	2455.5	-0.09516	-0.028987	1.0026
0.13	-38.217	-8.6515e+05	2455.2	-0.096624	-0.028792	1.0024
0.132	-38.308	-8.6514e+05	2455	-0.097307	-0.027426	1.0015
0.134	-38.351	-8.6514e+05	2454.8	-0.09799	-0.026059	1.0006
0.136	-38.382	-8.6513e+05	2454.5	-0.098674	-0.024693	0.99972
0.138	-38.37	-8.6513e+05	2454.3	-0.099357	-0.023326	0.99884
0.14	-38.358	-8.6513e+05	2454.1	-0.10004	-0.02196	0.99796
0.142	-38.346	-8.6511e+05	2453.8	-0.099942	-0.021667	0.99786
0.144	-38.278	-8.651e+05	2453.5	-0.099845	-0.021374	0.99776
0.146	-38.269	-8.6509e+05	2453.2	-0.099747	-0.021082	0.99767
0.148	-38.298	-8.6509e+05	2453	-0.09965	-0.020789	0.99757
0.15	-38.33	-8.6508e+05	2452.7	-0.099552	-0.020496	0.99747
0.152	-38.374	-8.6507e+05	2452.5	-0.09965	-0.020789	0.99737
0.154	-38.374	-8.6506e+05	2452.3	-0.099747	-0.021082	0.99728
0.156	-38.32	-8.6505e+05	2452.1	-0.099845	-0.021374	0.99718
0.158	-38.278	-8.6504e+05	2451.9	-0.099942	-0.021667	0.99708
0.16	-38.249	-8.6503e+05	2451.7	-0.10004	-0.02196	0.99698
0.162	-38.226	-8.6503e+05	2451.5	-0.09965	-0.021862	0.99698
0.164	-38.262	-8.6504e+05	2451.3	-0.099259	-0.021765	0.99698
0.166	-38.315	-8.6503e+05	2451.1	-0.098869	-0.021667	0.99698
0.168	-38.338	-8.6502e+05	2451	-0.098478	-0.02157	0.99698
0.17	-38.369	-8.6502e+05	2450.8	-0.098088	-0.021472	0.99698
0.172	-38.376	-8.6502e+05	2450.6	-0.096429	-0.023034	0.99816
0.174	-38.34	-8.6501e+05	2450.4	-0.09477	-0.024595	0.99933
0.176	-38.247	-8.6499e+05	2450.2	-0.09311	-0.026157	1.0005
0.178	-38.165	-8.6499e+05	2450.1	-0.091451	-0.027718	1.0017
0.18	-38.193	-8.6499e+05	2449.9	-0.089792	-0.02928	1.0028
0.182	-38.291	-8.6498e+05	2449.7	-0.089499	-0.028402	1.0024
0.184	-38.337	-8.6496e+05	2449.6	-0.089206	-0.027523	1.0019
0.186	-38.363	-8.6496e+05	2449.4	-0.088914	-0.026645	1.0014
0.188	-38.338	-8.6496e+05	2449.2	-0.088621	-0.025766	1.0009
0.19	-38.279	-8.6496e+05	2449	-0.088328	-0.024888	1.0004
0.192	-38.279	-8.6496e+05	2448.9	-0.089011	-0.02479	1
0.194	-38.239	-8.6495e+05	2448.7	-0.089694	-0.024693	0.99962
0.196	-38.194	-8.6494e+05	2448.6	-0.090378	-0.024595	0.99923
0.198	-38.246	-8.6493e+05	2448.4	-0.091061	-0.024498	0.99884
0.2	-38.279	-8.6493e+05	2448.2	-0.091744	-0.0244	0.99845
0.202	-38.319	-8.6493e+05	2448.1	-0.091744	-0.024986	0.99942
0.204	-38.398	-8.6493e+05	2448	-0.091744	-0.025571	1.0004
0.206	-38.315	-8.6492e+05	2447.9	-0.091744	-0.026157	1.0014
0.208	-38.213	-8.6492e+05	2447.7	-0.091744	-0.026742	1.0024
0.21	-38.18	-8.6492e+05	2447.6	-0.091744	-0.027328	1.0033
0.212	-38.194	-8.6491e+05	2447.6	-0.090866	-0.027816	1.0032
0.214	-38.232	-8.6491e+05	2447.5	-0.089987	-0.028304	1.0031
0.216	-38.236	-8.649e+05	2447.4	-0.089109	-0.028792	1.003
0.218	-38.307	-8.649e+05	2447.3	-0.08823	-0.02928	1.0029
0.22	-38.38	-8.6489e+05	2447.2	-0.087352	-0.029768	1.0028
0.222	-38.355	-8.6489e+05	2447.1	-0.087254	-0.029573	1.0027
0.224	-38.301	-8.6489e+05	2446.9	-0.087157	-0.029378	1.0026
0.226	-38.262	-8.6489e+05	2446.8	-0.087059	-0.029182	1.0025
0.228	-38.247	-8.6489e+05	2446.7	-0.086962	-0.028987	1.0024
0.23	-38.265	-8.6488e+05	2446.5	-0.086864	-0.028792	1.0024
0.232	-38.283	-8.6486e+05	2446.4	-0.08784	-0.029573	1.0018
0.234	-38.32	-8.6486e+05	2446.3	-0.088816	-0.030354	1.0012
0.236	-38.38	-8.6486e+05	2446.1	-0.089792	-0.031134	1.0006
0.238	-38.377	-8.6486e+05	2445.9	-0.090768	-0.031915	1
0.24	-38.304	-8.6486e+05	2445.7	-0.091744	-0.032696	0.99942
0.242	-38.252	-8.6486e+05	2445.5	-0.091061	-0.032306	0.99991
0.244	-38.205	-8.6485e+05	2445.4	-0.090378	-0.031915	1.0004
0.246	-38.197	-8.6485e+05	2445.2	-0.089694	-0.031525	1.0009
0.248	-38.264	-8.6485e+05	2445	-0.089011	-0.031134	1.0014
0.25	-38.329	-8.6485e+05	2444.8	-0.088328	-0.030744	1.0019
0.252	-38.394	-8.6485e+05	2444.5	-0.087645	-0.02967	1.0024
0.254	-38.449	-8.6485e+05	2444.3	-0.086962	-0.028597	1.0028
0.256	-38.422	-8.6485e+05	2444	-0.086278	-0.027523	1.0033
0.258	-38.335	-8.6484e+05	2443.7	-0.085595	-0.02645	1.0038
0.26	-38.242	-8.6483e+05	2443.4	-0.084912	-0.025376	1.0043
0.262	-38.198	-8.6483e+05	2443.1	-0.085107	-0.025962	1.0045
0.264	-38.247	-8.6483e+05	2442.8	-0.085302	-0.026547	1.0047
0.266	-38.295	-8.6483e+05	2442.5	-0.085498	-0.027133	1.0049
0.268	-38.297	-8.6483e+05	2442.3	-0.085693	-0.027718	1.0051
0.27	-38.351	-8.6483e+05	2442	-0.085888	-0.028304	1.0053
0.272	-38.337	-8.6482e+05	2441.7	-0.086571	-0.027621	1.0041
0.274	-38.289	-8.6481e+05	2441.4	-0.087254	-0.026938	1.0029
0.276	-38.254	-8.6481e+05	2441.1	-0.087938	-0.026254	1.0018
0.278	-38.21	-8.6482e+05	2440.9	-0.088621	-0.025571	1.0006
0.28	-38.222	-8.6482e+05	2440.6	-0.089304	-0.024888	0.99942
0.282	-38.265	-8.6482e+05	2440.4	-0.089206	-0.02479	1.0003
0.284	-38.294	-8.6482e+05	2440.2	-0.089109	-0.024693	1.0012
0.286	-38.348	-8.6482e+05	2440	-0.089011	-0.024595	1.0021
0.288	-38.344	-8.6481e+05	2439.9	-0.088914	-0.024498	1.0029
0.29	-38.316	-8.6482e+05	2439.8	-0.088816	-0.0244	1.0038
0.292	-38.292	-8.6482e+05	2439.6	-0.089011	-0.024888	1.0033
0.294	-38.202	-8.6481e+05	2439.5	-0.089206	-0.025376	1.0028
0.296	-38.184	-8.6481e+05	2439.3	-0.089402	-0.025864	1.0024
0.298	-38.251	-8.6481e+05	2439.2	-0.089597	-0.026352	1.0019
0.3	-38.285	-8.6482e+05	2439.1	-0.089792	-0.02684	1.0014
0.302	-38.332	-8.6481e+05	2439.1	-0.090085	-0.028011	1.0012
0.304	-38.323	-8.6481e+05	2439	-0.090378	-0.029182	1.001
0.306	-38.299	-8.6481e+05	2438.9	-0.09067	-0.030354	1.0008
0.308	-38.276	-8.6482e+05	2438.9	-0.090963	-0.031525	1.0006
0.31	-38.184	-8.6482e+05	2438.9	-0.091256	-0.032696	1.0004
0.312	-38.132	-8.6481e+05	2438.8	-0.091451	-0.032403	1.0009
0.314	-38.164	-8.6482e+05	2438.8	-0.091646	-0.03211	1.0014
0.316	-38.206	-8.6482e+05	2438.8	-0.091842	-0.031818	1.0019
0.318	-38.288	-8.6482e+05	2438.7	-0.092037	-0.031525	1.0024
0.32	-38.349	-8.6482e+05	2438.7	-0.092232	-0.031232	1.0028
0.322	-38.301	-8.6482e+05	2438.7	-0.092037	-0.03133	1.0024
0.324	-38.259	-8.6482e+05	2438.7	-0.091842	-0.031427	1.0021
0.326	-38.226	-8.6481e+05	2438.8	-0.091646	-0.031525	1.0017
0.328	-38.19	-8.648e+05	2438.8	-0.091451	-0.031622	1.0013
0.33	-38.212	-8.6481e+05	2438.8	-0.091256	-0.03172	1.0009
0.332	-38.25	-8.6481e+05	2438.9	-0.091158	-0.031818	1.0004
0.334	-38.273	-8.6482e+05	2438.9	-0.091061	-0.031915	0.99991
0.336	-38.347	-8.6482e+05	2439	-0.090963	-0.032013	0.99942
0.338	-38.376	-8.6482e+05	2439.2	-0.090866	-0.03211	0.99894
0.34	-38.278	-8.6481e+05	2439.4	-0.090768	-0.032208	0.99845
0.342	-38.215	-8.6481e+05	2439.5	-0.089987	-0.032306	0.99923
0.344	-38.175	-8.6481e+05	2439.6	-0.089206	-0.032403	1
0.346	-38.169	-8.6481e+05	2439.7	-0.088426	-0.032501	1.0008
0.348	-38.189	-8.648e+05	2439.9	-0.087645	-0.032598	1.0016
0.35	-38.203	-8.6481e+05	2440	-0.086864	-0.032696	1.0024
0.352	-38.252	-8.6481e+05	2440.1	-0.086864	-0.03133	1.0034
0.354	-38.319	-8.6481e+05	2440.2	-0.086864	-0.029963	1.0045
0.356	-38.307	-8.6481e+05	2440.3	-0.086864	-0.028597	1.0056
0.358	-38.233	-8.6481e+05	2440.4	-0.086864	-0.02723	1.0066
0.36	-38.166	-8.6482e+05	2440.5	-0.086864	-0.025864	1.0077
0.362	-38.093	-8.6481e+05	2440.6	-0.086181	-0.026254	1.0067
0.364	-38.133	-8.648e+05	2440.7	-0.085498	-0.026645	1.0058
0.366	-38.206	-8.6481e+05	2440.8	-0.084814	-0.027035	1.0048
0.368	-38.238	-8.6481e+05	2440.9	-0.084131	-0.027426	1.0038
0.37	-38.316	-8.6481e+05	2441	-0.083448	-0.027816	1.0028
0.372	-38.305	-8.6482e+05	2441	-0.083546	-0.027035	1.0029
0.374	-38.244	-8.6482e+05	2441	-0.083643	-0.026254	1.003
0.376	-38.233	-8.6482e+05	2441	-0.083741	-0.025474	1.0031
0.378	-38.14	-8.6482e+05	2441	-0.083838	-0.024693	1.0032
0.38	-38.129	-8.6482e+05	2441	-0.083936	-0.023912	1.0033
0.382	-38.151	-8.6481e+05	2441.1	-0.084912	-0.025474	1.0031
0.384	-38.178	-8.648e+05	2441.2	-0.085888	-0.027035	1.0029
0.386	-38.326	-8.6481e+05	2441.2	-0.086864	-0.028597	1.0027
0.388	-38.339	-8.6482e+05	2441.2	-0.08784	-0.030158	1.0025
0.39	-38.286	-8.6482e+05	2441.2	-0.088816	-0.03172	1.0024
0.392	-38.229	-8.6482e+05	2441.2	-0.088914	-0.031037	1.003
0.394	-38.143	-8.6481e+05	2441.2	-0.089011	-0.030354	1.0037
0.396	-38.165	-8.6481e+05	2441.2	-0.089109	-0.02967	1.0044
0.398	-38.255	-8.6481e+05	2441.1	-0.089206	-0.028987	1.0051
0.4	-38.284	-8.6481e+05	2441	-0.089304	-0.028304	1.0058
0.402	-38.276	-8.6481e+05	2440.9	-0.089694	-0.028304	1.0049
0.404	-38.283	-8.6481e+05	2440.8	-0.090085	-0.028304	1.004
0.406	-38.293	-8.6481e+05	2440.7	-0.090475	-0.028304	1.0031
0.408	-38.274	-8.6481e+05	2440.6	-0.090866	-0.028304	1.0023
0.41	-38.195	-8.6481e+05	2440.4	-0.091256	-0.028304	1.0014
0.412	-38.167	-8.6481e+05	2440.3	-0.09067	-0.028402	1.0022
0.414	-38.227	-8.6481e+05	2440.2	-0.090085	-0.028499	1.0029
0.416	-38.259	-8.6482e+05	2440	-0.089499	-0.028597	1.0037
0.418	-38.263	-8.6482e+05	2439.9	-0.088914	-0.028694	1.0045
0.42	-38.272	-8.6482e+05	2439.7	-0.088328	-0.028792	1.0053
0.422	-38.246	-8.6482e+05	2439.5	-0.089011	-0.028694	1.0055
0.424	-38.211	-8.6482e+05	2439.3	-0.089694	-0.028597	1.0057
0.426	-38.21	-8.6482e+05	2439.1	-0.090378	-0.028499	1.0059
0.428	-38.198	-8.6482e+05	2438.9	-0.091061	-0.028402	1.0061
0.43	-38.169	-8.6483e+05	2438.7	-0.091744	-0.028304	1.0063
0.432	-38.21	-8.6483e+05	2438.8	-0.091451	-0.028597	1.0054
0.434	-38.276	-8.6483e+05	2438.8	-0.091158	-0.02889	1.0045
0.436	-38.317	-8.6484e+05	2438.9	-0.090866	-0.029182	1.0036
0.438	-38.334	-8.6484e+05	2438.9	-0.090573	-0.029475	1.0027
0.44	-38.33	-8.6484e+05	2439	-0.09028	-0.029768	1.0019
0.442	-38.301	-8.6484e+05	2439	-0.089206	-0.029182	1.0024
0.444	-38.236	-8.6484e+05	2439	-0.088133	-0.028597	1.0028
0.446	-38.172	-8.6485e+05	2439	-0.087059	-0.028011	1.0033
0.448	-38.152	-8.6485e+05	2438.9	-0.085986	-0.027426	1.0038
0.45	-38.159	-8.6485e+05	2438.8	-0.084912	-0.02684	1.0043
0.452	-38.236	-8.6485e+05	2438.9	-0.084912	-0.02645	1.0041
0.454	-38.273	-8.6485e+05	2439	-0.084912	-0.026059	1.0039
0.456	-38.243	-8.6485e+05	2439.1	-0.084912	-0.025669	1.0037
0.458	-38.281	-8.6485e+05	2439.4	-0.084912	-0.025278	1.0035
0.46	-38.216	-8.6485e+05	2439.6	-0.084912	-0.024888	1.0033
0.462	-38.1	-8.6485e+05	2439.8	-0.085888	-0.024498	1.0024
0.464	-38.175	-8.6485e+05	2440.1	-0.086864	-0.024107	1.0014
0.466	-38.257	-8.6486e+05	2440.3	-0.08784	-0.023717	1.0004
0.468	-38.3	-8.6487e+05	2440.6	-0.088816	-0.023326	0.99942
0.47	-38.319	-8.6487e+05	2440.9	-0.089792	-0.022936	0.99845
0.472	-38.265	-8.6488e+05	2441.2	-0.089402	-0.0244	0.99942
0.474	-38.205	-8.6488e+05	2441.5	-0.089011	-0.025864	1.0004
0.476	-38.189	-8.6489e+05	2441.9	-0.088621	-0.027328	1.0014
0.478	-38.166	-8.6488e+05	2442.3	-0.08823	-0.028792	1.0024
0.48	-38.165	-8.6488e+05	2442.7	-0.08784	-0.030256	1.0033
0.482	-38.197	-8.6488e+05	2443	-0.087254	-0.029085	1.0028
0.484	-38.268	-8.6489e+05	2443.4	-0.086669	-0.027914	1.0024
0.486	-38.328	-8.649e+05	2443.7	-0.086083	-0.026742	1.0019
0.488	-38.315	-8.649e+05	2444.1	-0.085498	-0.025571	1.0014
0.49	-38.291	-8.649e+05	2444.5	-0.084912	-0.0244	1.0009
0.492	-38.248	-8.649e+05	2444.8	-0.08501	-0.025571	1.0018
0.494	-38.171	-8.649e+05	2445.2	-0.085107	-0.026742	1.0026
0.496	-38.175	-8.649e+05	2445.5	-0.085205	-0.027914	1.0035
0.498	-38.248	-8.6491e+05	2445.8	-0.085302	-0.029085	1.0044
0.5	-38.274	-8.6491e+05	2446.1	-0.0854	-0.030256	1.0053
0.502	-38.292	-8.6492e+05	2446.1	-0.085595	-0.02889	1.006
0.504	-38.319	-8.6493e+05	2446	-0.08579	-0.027523	1.0066
0.506	-38.303	-8.6493e+05	2446.1	-0.085986	-0.026157	1.0073
0.508	-38.274	-8.6493e+05	2446.2	-0.086181	-0.02479	1.008
0.51	-38.197	-8.6493e+05	2446.3	-0.086376	-0.023424	1.0087
0.512	-38.092	-8.6493e+05	2446.8	-0.088621	-0.024107	1.0071
0.514	-38.091	-8.6494e+05	2447.2	-0.090866	-0.02479	1.0056
0.516	-38.134	-8.6495e+05	2447.7	-0.09311	-0.025474	1.004
0.518	-38.189	-8.6495e+05	2448.3	-0.095355	-0.026157	1.0024
0.52	-38.304	-8.6496e+05	2448.8	-0.0976	-0.02684	1.0009
0.522	-38.334	-8.6496e+05	2449.2	-0.094867	-0.02645	1.0015
0.524	-38.272	-8.6496e+05	2449.6	-0.092134	-0.026059	1.0021
0.526	-38.264	-8.6496e+05	2449.7	-0.089402	-0.025669	1.0026
0.528	-38.239	-8.6496e+05	2449.4	-0.086669	-0.025278	1.0032
0.53	-38.26	-8.6496e+05	2449	-0.083936	-0.024888	1.0038
0.532	-38.332	-8.6497e+05	2449.4	-0.086278	-0.025766	1.0043
0.534	-38.399	-8.6497e+05	2449.8	-0.088621	-0.026645	1.0048
0.536	-38.518	-8.6497e+05	2450.2	-0.090963	-0.027523	1.0053
0.538	-38.603	-8.6498e+05	2450.7	-0.093306	-0.028402	1.0058
0.54	-38.586	-8.65e+05	2451.3	-0.095648	-0.02928	1.0063
0.542	-38.53	-8.65e+05	2451.3	-0.091549	-0.028597	1.0052
0.544	-38.394	-8.65e+05	2451.4	-0.08745	-0.027914	1.0041
0.546	-38.396	-8.65e+05	2451.4	-0.08335	-0.02723	1.003
0.548	-38.452	-8.65e+05	2451.4	-0.079251	-0.026547	1.002
0.55	-38.445	-8.65e+05	2451.4	-0.075152	-0.025864	1.0009
0.552	-38.431	-8.6501e+05	2451.4	-0.079251	-0.025278	1.001
0.554	-38.437	-8.6502e+05	2451.5	-0.08335	-0.024693	1.0011
0.556	-38.397	-8.6502e+05	2451.6	-0.08745	-0.024107	1.0012
0.558	-38.348	-8.6502e+05	2451.8	-0.091549	-0.023522	1.0013
0.56	-38.238	-8.6503e+05	2452	-0.095648	-0.022936	1.0014
0.562	-38.039	-8.6503e+05	2452.6	-0.093501	-0.023619	1.0018
0.564	-38.015	-8.6503e+05	2453.2	-0.091354	-0.024302	1.0022
0.566	-38.083	-8.6504e+05	2453.8	-0.089206	-0.024986	1.0025
0.568	-38.192	-8.6504e+05	2454.3	-0.087059	-0.025669	1.0029
0.57	-38.25	-8.6505e+05	2454.8	-0.084912	-0.026352	1.0033
0.572	-38.198	-8.6505e+05	2455	-0.084814	-0.026157	1.0042
0.574	-38.133	-8.6506e+05	2455.3	-0.084717	-0.025962	1.0051
0.576	-38.084	-8.6506e+05	2455.5	-0.084619	-0.025766	1.006
0.578	-38.053	-8.6506e+05	2455.9	-0.084522	-0.025571	1.0068
0.58	-38.078	-8.6506e+05	2456.2	-0.084424	-0.025376	1.0077
0.582	-38.147	-8.6507e+05	2456.6	-0.082862	-0.027718	1.0061
0.584	-38.249	-8.6507e+05	2456.9	-0.081301	-0.030061	1.0044
0.586	-38.338	-8.6507e+05	2457.5	-0.079739	-0.032403	1.0027
0.588	-38.312	-8.6508e+05	2458.5	-0.078178	-0.034746	1.0011
0.59	-38.217	-8.6508e+05	2459.4	-0.076616	-0.037088	0.99942
0.592	-38.17	-8.6509e+05	2461.2	-0.069589	-0.043432	0.99952
0.594	-38.138	-8.6509e+05	2462.9	-0.062562	-0.049776	0.99962
0.596	-38.135	-8.651e+05	2463.9	-0.055534	-0.05612	0.99972
0.598	-38.195	-8.6511e+05	2464.2	-0.048507	-0.062464	0.99981
0.6	-38.218	-8.6512e+05	2464.5	-0.04148	-0.068808	0.99991
0.602	-38.252	-8.6512e+05	2464.5	-0.059926	-0.054363	1.0015
0.604	-38.306	-8.6513e+05	2464.5	-0.078373	-0.039918	1.003
0.606	-38.28	-8.6514e+05	2464.7	-0.096819	-0.025474	1.0046
0.608	-38.243	-8.6514e+05	2465.1	-0.11527	-0.011029	1.0062
0.61	-38.194	-8.6515e+05	2465.4	-0.13371	0.003416	1.0077
0.612	-38.124	-8.6516e+05	2465.5	-0.12307	-0.010736	1.0072
0.614	-38.138	-8.6517e+05	2465.5	-0.11244	-0.024888	1.0067
0.616	-38.193	-8.6517e+05	2465.4	-0.1018	-0.03904	1.0063
0.618	-38.259	-8.6518e+05	2465.2	-0.091158	-0.053192	1.0058
0.62	-38.339	-8.6518e+05	2464.9	-0.08052	-0.067344	1.0053
0.622	-38.286	-8.6518e+05	2464.3	-0.07525	-0.057974	1.0048
0.624	-38.215	-8.6518e+05	2463.6	-0.069979	-0.048605	1.0043
0.626	-38.176	-8.6519e+05	2462.9	-0.064709	-0.039235	1.0038
0.628	-38.112	-8.6519e+05	2462.2	-0.059438	-0.029866	1.0033
0.63	-38.104	-8.652e+05	2461.5	-0.054168	-0.020496	1.0028
0.632	-38.24	-8.652e+05	2461	-0.064416	-0.019813	1.0026
0.634	-38.277	-8.6521e+05	2460.6	-0.074664	-0.01913	1.0024
0.636	-38.307	-8.6521e+05	2460.1	-0.084912	-0.018446	1.0023
0.638	-38.286	-8.6521e+05	2459.8	-0.09516	-0.017763	1.0021
0.64	-38.206	-8.6522e+05	2459.4	-0.10541	-0.01708	1.0019
0.642	-38.155	-8.6522e+05	2459.1	-0.10053	-0.018154	0.99962
0.644	-38.124	-8.6522e+05	2458.9	-0.095648	-0.019227	0.99737
0.646	-38.131	-8.6523e+05	2458.6	-0.090768	-0.020301	0.99513
0.648	-38.189	-8.6524e+05	2458.3	-0.085888	-0.021374	0.99288
0.65	-38.211	-8.6523e+05	2458	-0.081008	-0.022448	0.99064
0.652	-38.252	-8.6523e+05	2457.7	-0.08296	-0.023326	0.9921
0.654	-38.278	-8.6524e+05	2457.4	-0.084912	-0.024205	0.99357
0.656	-38.233	-8.6525e+05	2457.2	-0.086864	-0.025083	0.99503
0.658	-38.197	-8.6525e+05	2456.9	-0.088816	-0.025962	0.9965
0.66	-38.165	-8.6524e+05	2456.7	-0.090768	-0.02684	0.99796
0.662	-38.17	-8.6525e+05	2456.5	-0.089304	-0.026645	0.99923
0.664	-38.251	-8.6526e+05	2456.4	-0.08784	-0.02645	1.0005
0.666	-38.262	-8.6526e+05	2456.1	-0.086376	-0.026254	1.0018
0.668	-38.225	-8.6527e+05	2455.9	-0.084912	-0.026059	1.003
0.67	-38.246	-8.6527e+05	2455.7	-0.083448	-0.025864	1.0043
0.672	-38.268	-8.6527e+05	2455.4	-0.084522	-0.026059	1.0044
0.674	-38.254	-8.6527e+05	2455.1	-0.085595	-0.026254	1.0045
0.676	-38.211	-8.6527e+05	2454.8	-0.086669	-0.02645	1.0046
0.678	-38.154	-8.6528e+05	2454.5	-0.087742	-0.026645	1.0047
0.68	-38.158	-8.6529e+05	2454.2	-0.088816	-0.02684	1.0048
0.682	-38.2	-8.6529e+05	2454	-0.088718	-0.026254	1.0044
0.684	-38.231	-8.653e+05	2453.9	-0.088621	-0.025669	1.004
0.686	-38.293	-8.653e+05	2453.9	-0.088523	-0.025083	1.0036
0.688	-38.312	-8.6531e+05	2454.3	-0.088426	-0.024498	1.0032
0.69	-38.283	-8.6531e+05	2454.7	-0.088328	-0.023912	1.0028
0.692	-38.231	-8.6532e+05	2455.8	-0.088035	-0.0244	1.0031
0.694	-38.148	-8.6532e+05	2456.9	-0.087742	-0.024888	1.0034
0.696	-38.121	-8.6532e+05	2458.2	-0.08745	-0.025376	1.0037
0.698	-38.175	-8.6533e+05	2459.7	-0.087157	-0.025864	1.004
0.7	-38.262	-8.6534e+05	2461.1	-0.086864	-0.026352	1.0043
0.702	-38.304	-8.6534e+05	2462.5	-0.087059	-0.025766	1.0037
0.704	-38.337	-8.6534e+05	2463.8	-0.087254	-0.025181	1.0031
0.706	-38.32	-8.6534e+05	2465	-0.08745	-0.024595	1.0025
0.708	-38.284	-8.6535e+05	2466.1	-0.087645	-0.02401	1.002
0.71	-38.242	-8.6535e+05	2467.2	-0.08784	-0.023424	1.0014
0.712	-38.13	-8.6536e+05	2468.2	-0.087059	-0.024205	1.0019
0.714	-38.15	-8.6537e+05	2469.1	-0.086278	-0.024986	1.0024
0.716	-38.222	-8.6537e+05	2469.9	-0.085498	-0.025766	1.0028
0.718	-38.279	-8.6538e+05	2470.7	-0.084717	-0.026547	1.0033
0.72	-38.389	-8.6538e+05	2471.4	-0.083936	-0.027328	1.0038
0.722	-38.319	-8.6538e+05	2471.9	-0.083546	-0.026938	1.0035
0.724	-38.242	-8.6538e+05	2472.5	-0.083155	-0.026547	1.0032
0.726	-38.269	-8.6538e+05	2473	-0.082765	-0.026157	1.0029
0.728	-38.264	-8.6538e+05	2473.3	-0.082374	-0.025766	1.0026
0.73	-38.255	-8.6538e+05	2473.7	-0.081984	-0.025376	1.0024
0.732	-38.299	-8.6538e+05	2474	-0.082374	-0.025181	1.0019
0.734	-38.348	-8.6538e+05	2474.3	-0.082765	-0.024986	1.0014
0.736	-38.413	-8.6539e+05	2474.5	-0.083155	-0.02479	1.0009
0.738	-38.38	-8.6539e+05	2474.7	-0.083546	-0.024595	1.0004
0.74	-38.326	-8.6539e+05	2474.9	-0.083936	-0.0244	0.99991
0.742	-38.297	-8.6539e+05	2474.9	-0.082472	-0.026059	1.0008
0.744	-38.253	-8.6538e+05	2475	-0.081008	-0.027718	1.0017
0.746	-38.259	-8.6539e+05	2475	-0.079544	-0.029378	1.0025
0.748	-38.288	-8.6539e+05	2474.9	-0.07808	-0.031037	1.0034
0.75	-38.298	-8.6538e+05	2474.8	-0.076616	-0.032696	1.0043
0.752	-38.338	-8.6537e+05	2474.6	-0.077202	-0.032891	1.0036
0.754	-38.361	-8.6536e+05	2474.4	-0.077787	-0.033086	1.0029
0.756	-38.319	-8.6536e+05	2474.2	-0.078373	-0.033282	1.0023
0.758	-38.285	-8.6536e+05	2473.9	-0.078958	-0.033477	1.0016
0.76	-38.277	-8.6536e+05	2473.7	-0.079544	-0.033672	1.0009
0.762	-38.269	-8.6535e+05	2473.4	-0.080227	-0.031915	1.0009
0.764	-38.292	-8.6534e+05	2473.1	-0.08091	-0.030158	1.0009
0.766	-38.323	-8.6533e+05	2472.8	-0.081594	-0.028402	1.0009
0.768	-38.331	-8.6533e+05	2472.5	-0.082277	-0.026645	1.0009
0.77	-38.339	-8.6532e+05	2472.2	-0.08296	-0.024888	1.0009
0.772	-38.301	-8.6532e+05	2471.8	-0.085595	-0.025864	1.0001
0.774	-38.263	-8.6531e+05	2471.5	-0.08823	-0.02684	0.99933
0.776	-38.269	-8.6531e+05	2471.1	-0.090866	-0.027816	0.99855
0.778	-38.242	-8.653e+05	2470.8	-0.093501	-0.028792	0.99776
0.78	-38.218	-8.653e+05	2470.5	-0.096136	-0.029768	0.99698
0.782	-38.243	-8.6529e+05	2470.2	-0.093598	-0.028792	0.99835
0.784	-38.273	-8.6529e+05	2470	-0.091061	-0.027816	0.99972
0.786	-38.363	-8.6527e+05	2469.7	-0.088523	-0.02684	1.0011
0.788	-38.363	-8.6526e+05	2469.4	-0.085986	-0.025864	1.0024
0.79	-38.259	-8.6524e+05	2469.1	-0.083448	-0.024888	1.0038
0.792	-38.194	-8.6523e+05	2468.8	-0.084229	-0.025181	1.0032
0.794	-38.177	-8.6523e+05	2468.6	-0.08501	-0.025474	1.0026
0.796	-38.161	-8.6522e+05	2468.4	-0.08579	-0.025766	1.0021
0.798	-38.213	-8.6521e+05	2468.1	-0.086571	-0.026059	1.0015
0.8	-38.251	-8.652e+05	2467.8	-0.087352	-0.026352	1.0009
0.802	-38.262	-8.6519e+05	2467.6	-0.087645	-0.027328	1.0015
0.804	-38.312	-8.6518e+05	2467.4	-0.087938	-0.028304	1.0021
0.806	-38.209	-8.6517e+05	2467.2	-0.08823	-0.02928	1.0026
0.808	-38.145	-8.6516e+05	2467	-0.088523	-0.030256	1.0032
0.81	-38.112	-8.6515e+05	2466.7	-0.088816	-0.031232	1.0038
0.812	-38.081	-8.6514e+05	2466.4	-0.087742	-0.029573	1.0034
0.814	-38.126	-8.6514e+05	2466.1	-0.086669	-0.027914	1.003
0.816	-38.168	-8.6514e+05	2465.8	-0.085595	-0.026254	1.0026
0.818	-38.214	-8.6512e+05	2465.5	-0.084522	-0.024595	1.0023
0.82	-38.277	-8.651e+05	2465.2	-0.083448	-0.022936	1.0019
0.822	-38.323	-8.651e+05	2465	-0.085302	-0.02401	1.0021
0.824	-38.289	-8.651e+05	2464.8	-0.087157	-0.025083	1.0023
0.826	-38.196	-8.6509e+05	2464.8	-0.089011	-0.026157	1.0024
0.828	-38.077	-8.6507e+05	2464.8	-0.090866	-0.02723	1.0026
0.83	-38.082	-8.6506e+05	2464.8	-0.09272	-0.028304	1.0028
0.832	-38.167	-8.6505e+05	2464.8	-0.091451	-0.028206	1.0035
0.834	-38.223	-8.6504e+05	2464.7	-0.090182	-0.028109	1.0042
0.836	-38.251	-8.6503e+05	2464.7	-0.088914	-0.028011	1.0049
0.838	-38.245	-8.6503e+05	2464.6	-0.087645	-0.027914	1.0056
0.84	-38.185	-8.6502e+05	2464.5	-0.086376	-0.027816	1.0063
0.842	-38.123	-8.6502e+05	2464.4	-0.085693	-0.026938	1.0049
0.844	-38.081	-8.6501e+05	2464.2	-0.08501	-0.026059	1.0035
0.846	-38.082	-8.65e+05	2464	-0.084326	-0.025181	1.0022
0.848	-38.157	-8.6498e+05	2463.8	-0.083643	-0.024302	1.0008
0.85	-38.225	-8.6497e+05	2463.6	-0.08296	-0.023424	0.99942
0.852	-38.238	-8.6497e+05	2463.6	-0.083058	-0.0244	0.99942
0.854	-38.252	-8.6496e+05	2463.5	-0.083155	-0.025376	0.99942
0.856	-38.245	-8.6495e+05	2463.4	-0.083253	-0.026352	0.99942
0.858	-38.188	-8.6494e+05	2463.4	-0.08335	-0.027328	0.99942
0.86	-38.127	-8.6493e+05	2463.4	-0.083448	-0.028304	0.99942
0.862	-38.062	-8.6493e+05	2463.3	-0.083546	-0.028597	0.99991
0.864	-38.091	-8.6493e+05	2463.3	-0.083643	-0.02889	1.0004
0.866	-38.136	-8.6492e+05	2463.3	-0.083741	-0.029182	1.0009
0.868	-38.172	-8.6491e+05	2463.2	-0.083838	-0.029475	1.0014
0.87	-38.231	-8.6491e+05	2463.2	-0.083936	-0.029768	1.0019
0.872	-38.186	-8.649e+05	2463.1	-0.083058	-0.029963	1.0023
0.874	-38.107	-8.649e+05	2463	-0.082179	-0.030158	1.0026
0.876	-38.059	-8.649e+05	2462.9	-0.081301	-0.030354	1.003
0.878	-38.008	-8.6489e+05	2462.6	-0.080422	-0.030549	1.0034
0.88	-38.02	-8.6487e+05	2462.4	-0.079544	-0.030744	1.0038
0.882	-38.085	-8.6487e+05	2462.1	-0.081886	-0.03172	1.003
0.884	-38.149	-8.6486e+05	2461.9	-0.084229	-0.032696	1.0023
0.886	-38.274	-8.6485e+05	2461.6	-0.086571	-0.033672	1.0015
0.888	-38.283	-8.6484e+05	2461.3	-0.088914	-0.034648	1.0007
0.89	-38.231	-8.6484e+05	2461	-0.091256	-0.035624	0.99991
0.892	-38.181	-8.6484e+05	2460.8	-0.092134	-0.03455	0.99972
0.894	-38.064	-8.6483e+05	2460.5	-0.093013	-0.033477	0.99952
0.896	-38.001	-8.6483e+05	2460.3	-0.093891	-0.032403	0.99933
0.898	-38.091	-8.6482e+05	2460.1	-0.09477	-0.03133	0.99913
0.9	-38.153	-8.6481e+05	2459.8	-0.095648	-0.030256	0.99894
0.902	-38.175	-8.648e+05	2459.6	-0.095648	-0.030646	0.99942
0.904	-38.184	-8.6479e+05	2459.4	-0.095648	-0.031037	0.99991
0.906	-38.167	-8.6479e+05	2459.2	-0.095648	-0.031427	1.0004
0.908	-38.151	-8.6478e+05	2458.9	-0.095648	-0.031818	1.0009
0.91	-38.075	-8.6478e+05	2458.7	-0.095648	-0.032208	1.0014
0.912	-38.054	-8.6478e+05	2458.5	-0.095355	-0.032306	1.0008
0.914	-38.101	-8.6477e+05	2458.3	-0.095062	-0.032403	1.0002
0.916	-38.143	-8.6476e+05	2458.1	-0.09477	-0.032501	0.99962
0.918	-38.152	-8.6476e+05	2457.9	-0.094477	-0.032598	0.99903
0.92	-38.181	-8.6476e+05	2457.7	-0.094184	-0.032696	0.99845
0.922	-38.169	-8.6475e+05	2457.4	-0.093501	-0.032891	0.99874
0.924	-38.118	-8.6474e+05	2457.2	-0.092818	-0.033086	0.99903
0.926	-38.064	-8.6474e+05	2456.9	-0.092134	-0.033282	0.99933
0.928	-38.018	-8.6474e+05	2456.5	-0.091451	-0.033477	0.99962
0.93	-38.022	-8.6474e+05	2456.2	-0.090768	-0.033672	0.99991
0.932	-38.082	-8.6474e+05	2455.9	-0.090768	-0.033379	0.99981
0.934	-38.152	-8.6473e+05	2455.6	-0.090768	-0.033086	0.99972
0.936	-38.195	-8.6473e+05	2455.2	-0.090768	-0.032794	0.99962
0.938	-38.214	-8.6472e+05	2454.8	-0.090768	-0.032501	0.99952
0.94	-38.215	-8.6471e+05	2454.3	-0.090768	-0.032208	0.99942
0.942	-38.171	-8.6471e+05	2453.9	-0.089109	-0.031427	1.0003
0.944	-38.048	-8.6471e+05	2453.4	-0.08745	-0.030646	1.0012
0.946	-38.023	-8.6471e+05	2452.9	-0.08579	-0.029866	1.0021
0.948	-38.062	-8.6471e+05	2452.5	-0.084131	-0.029085	1.0029
0.95	-38.086	-8.6471e+05	2452	-0.082472	-0.028304	1.0038
0.952	-38.166	-8.6471e+05	2451.7	-0.081886	-0.027914	1.0041
0.954	-38.201	-8.647e+05	2451.3	-0.081301	-0.027523	1.0044
0.956	-38.144	-8.647e+05	2450.9	-0.080715	-0.027133	1.0047
0.958	-38.088	-8.647e+05	2450.6	-0.08013	-0.026742	1.005
0.96	-38.061	-8.6469e+05	2450.2	-0.079544	-0.026352	1.0053
0.962	-38.002	-8.6469e+05	2449.9	-0.081008	-0.026742	1.0056
0.964	-38.065	-8.6468e+05	2449.6	-0.082472	-0.027133	1.0059
0.966	-38.102	-8.6468e+05	2449.4	-0.083936	-0.027523	1.0062
0.968	-38.12	-8.6467e+05	2449.1	-0.0854	-0.027914	1.0065
0.97	-38.202	-8.6468e+05	2448.8	-0.086864	-0.028304	1.0067
0.972	-38.156	-8.6468e+05	2448.6	-0.086278	-0.028792	1.0062
0.974	-38.076	-8.6468e+05	2448.3	-0.085693	-0.02928	1.0056
0.976	-38	-8.6469e+05	2448	-0.085107	-0.029768	1.005
0.978	-37.931	-8.6468e+05	2447.8	-0.084522	-0.030256	1.0044
0.98	-37.975	-8.6468e+05	2447.5	-0.083936	-0.030744	1.0038
0.982	-38.062	-8.6467e+05	2447.2	-0.084034	-0.030451	1.004
0.984	-38.106	-8.6466e+05	2447	-0.084131	-0.030158	1.0042
0.986	-38.177	-8.6466e+05	2446.7	-0.084229	-0.029866	1.0044
0.988	-38.191	-8.6466e+05	2446.5	-0.084326	-0.029573	1.0046
0.99	-38.163	-8.6466e+05	2446.3	-0.084424	-0.02928	1.0048
0.992	-38.116	-8.6466e+05	2446	-0.086571	-0.029475	1.0037
0.994	-38.038	-8.6466e+05	2445.8	-0.088718	-0.02967	1.0026
0.996	-38.004	-8.6466e+05	2445.6	-0.090866	-0.029866	1.0016
0.998	-38.027	-8.6466e+05	2445.5	-0.093013	-0.030061	1.0005
1	-38.08	-8.6466e+05	2445.4	-0.09516	-0.030256	0.99942
1.002	-38.113	-8.6466e+05	2445.2	-0.094965	-0.029768	1
1.004	-38.136	-8.6466e+05	2445.1	-0.09477	-0.02928	1.0006
1.006	-38.112	-8.6466e+05	2445	-0.094574	-0.028792	1.0012
1.008	-38.073	-8.6466e+05	2444.9	-0.094379	-0.028304	1.0018
1.01	-38.031	-8.6466e+05	2444.9	-0.094184	-0.027816	1.0024
1.012	-37.968	-8.6465e+05	2444.9	-0.094184	-0.028206	1.0024
1.014	-37.952	-8.6465e+05	2444.9	-0.094184	-0.028597	1.0024
1.016	-38.011	-8.6465e+05	2444.8	-0.094184	-0.028987	1.0024
1.018	-38.098	-8.6465e+05	2444.8	-0.094184	-0.029378	1.0024
1.02	-38.203	-8.6466e+05	2444.8	-0.094184	-0.029768	1.0024
1.022	-38.238	-8.6465e+05	2444.8	-0.092134	-0.029378	1.0024
1.024	-38.162	-8.6464e+05	2444.7	-0.090085	-0.028987	1.0024
1.026	-38.087	-8.6465e+05	2444.7	-0.088035	-0.028597	1.0024
1.028	-38.025	-8.6465e+05	2444.7	-0.085986	-0.028206	1.0024
1.03	-37.995	-8.6466e+05	2444.6	-0.083936	-0.027816	1.0024
1.032	-38.062	-8.6466e+05	2444.7	-0.083838	-0.027426	1.0026
1.034	-38.137	-8.6466e+05	2444.7	-0.083741	-0.027035	1.0029
1.036	-38.198	-8.6465e+05	2444.7	-0.083643	-0.026645	1.0032
1.038	-38.167	-8.6465e+05	2444.7	-0.083546	-0.026254	1.0035
1.04	-38.086	-8.6465e+05	2444.6	-0.083448	-0.025864	1.0038
1.042	-38.023	-8.6465e+05	2444.6	-0.08335	-0.026059	1.0043
1.044	-38.004	-8.6465e+05	2444.5	-0.083253	-0.026254	1.0048
1.046	-38.045	-8.6465e+05	2444.5	-0.083155	-0.02645	1.0053
1.048	-38.082	-8.6464e+05	2444.4	-0.083058	-0.026645	1.0058
1.05	-38.071	-8.6465e+05	2444.3	-0.08296	-0.02684	1.0063
1.052	-38.134	-8.6465e+05	2444.2	-0.083838	-0.027523	1.0056
1.054	-38.165	-8.6465e+05	2444.1	-0.084717	-0.028206	1.0049
1.056	-38.126	-8.6465e+05	2444	-0.085595	-0.02889	1.0042
1.058	-38.108	-8.6465e+05	2443.9	-0.086474	-0.029573	1.0035
1.06	-38.113	-8.6464e+05	2443.8	-0.087352	-0.030256	1.0028
1.062	-38.04	-8.6464e+05	2443.7	-0.086864	-0.029573	1.0037
1.064	-38.009	-8.6464e+05	2443.5	-0.086376	-0.02889	1.0046
1.066	-38.01	-8.6464e+05	2443.4	-0.085888	-0.028206	1.0055
1.068	-38.064	-8.6464e+05	2443.3	-0.0854	-0.027523	1.0064
1.07	-38.16	-8.6464e+05	2443.2	-0.084912	-0.02684	1.0072
1.072	-38.156	-8.6464e+05	2443	-0.085498	-0.026742	1.006
1.074	-38.112	-8.6464e+05	2442.8	-0.086083	-0.026645	1.0047
1.076	-38.052	-8.6464e+05	2442.7	-0.086669	-0.026547	1.0034
1.078	-37.963	-8.6464e+05	2442.7	-0.087254	-0.02645	1.0022
1.08	-37.965	-8.6464e+05	2442.7	-0.08784	-0.026352	1.0009
1.082	-38.085	-8.6464e+05	2442.6	-0.086669	-0.026547	1.0016
1.084	-38.156	-8.6464e+05	2442.6	-0.085498	-0.026742	1.0023
1.086	-38.175	-8.6465e+05	2442.5	-0.084326	-0.026938	1.0029
1.088	-38.163	-8.6465e+05	2442.5	-0.083155	-0.027133	1.0036
1.09	-38.124	-8.6464e+05	2442.5	-0.081984	-0.027328	1.0043
1.092	-38.114	-8.6464e+05	2442.4	-0.083058	-0.027035	1.0038
1.094	-38.071	-8.6465e+05	2442.3	-0.084131	-0.026742	1.0033
1.096	-38.013	-8.6466e+05	2442.2	-0.085205	-0.02645	1.0028
1.098	-37.995	-8.6465e+05	2442.2	-0.086278	-0.026157	1.0024
1.1	-38.024	-8.6465e+05	2442.1	-0.087352	-0.025864	1.0019
1.102	-38.126	-8.6465e+05	2442.1	-0.086766	-0.025376	1.0022
1.104	-38.204	-8.6465e+05	2442.1	-0.086181	-0.024888	1.0024
1.106	-38.169	-8.6465e+05	2442.1	-0.085595	-0.0244	1.0027
1.108	-38.089	-8.6465e+05	2442.1	-0.08501	-0.023912	1.003
1.11	-38.021	-8.6465e+05	2442	-0.084424	-0.023424	1.0033
1.112	-37.991	-8.6465e+05	2441.9	-0.084619	-0.023717	1.003
1.114	-38.018	-8.6465e+05	2441.9	-0.084814	-0.02401	1.0027
1.116	-38.063	-8.6465e+05	2441.8	-0.08501	-0.024302	1.0024
1.118	-38.081	-8.6465e+05	2441.8	-0.085205	-0.024595	1.0022
1.12	-38.119	-8.6465e+05	2441.8	-0.0854	-0.024888	1.0019
1.122	-38.117	-8.6465e+05	2441.8	-0.085498	-0.025864	1.0027
1.124	-38.063	-8.6465e+05	2441.7	-0.085595	-0.02684	1.0036
1.126	-38.045	-8.6466e+05	2441.6	-0.085693	-0.027816	1.0045
1.128	-37.994	-8.6466e+05	2441.5	-0.08579	-0.028792	1.0054
1.13	-38.04	-8.6466e+05	2441.5	-0.085888	-0.029768	1.0063
1.132	-38.089	-8.6465e+05	2441.3	-0.086181	-0.029963	1.0054
1.134	-38.129	-8.6465e+05	2441.2	-0.086474	-0.030158	1.0045
1.136	-38.18	-8.6465e+05	2441.1	-0.086766	-0.030354	1.0036
1.138	-38.171	-8.6465e+05	2441	-0.087059	-0.030549	1.0027
1.14	-38.082	-8.6465e+05	2440.8	-0.087352	-0.030744	1.0019
1.142	-38.074	-8.6465e+05	2440.7	-0.086571	-0.030646	1.0024
1.144	-38.009	-8.6465e+05	2440.6	-0.08579	-0.030549	1.0028
1.146	-37.954	-8.6464e+05	2440.4	-0.08501	-0.030451	1.0033
1.148	-37.984	-8.6464e+05	2440.3	-0.084229	-0.030354	1.0038
1.15	-38.014	-8.6465e+05	2440.1	-0.083448	-0.030256	1.0043
1.152	-38.084	-8.6465e+05	2440	-0.083643	-0.029378	1.0037
1.154	-38.13	-8.6466e+05	2439.9	-0.083838	-0.028499	1.0031
1.156	-38.081	-8.6466e+05	2439.7	-0.084034	-0.027621	1.0025
1.158	-38.028	-8.6466e+05	2439.6	-0.084229	-0.026742	1.002
1.16	-37.988	-8.6466e+05	2439.5	-0.084424	-0.025864	1.0014
1.162	-37.953	-8.6467e+05	2439.3	-0.084424	-0.02645	1.0022
1.164	-37.98	-8.6467e+05	2439.2	-0.084424	-0.027035	1.0029
1.166	-38.023	-8.6467e+05	2439.1	-0.084424	-0.027621	1.0037
1.168	-38.033	-8.6467e+05	2438.9	-0.084424	-0.028206	1.0045
1.17	-38.069	-8.6466e+05	2438.7	-0.084424	-0.028792	1.0053
1.172	-38.071	-8.6466e+05	2438.5	-0.083741	-0.028304	1.0046
1.174	-38.051	-8.6466e+05	2438.3	-0.083058	-0.027816	1.0039
1.176	-37.994	-8.6467e+05	2438.1	-0.082374	-0.027328	1.0032
1.178	-37.923	-8.6467e+05	2438	-0.081691	-0.02684	1.0025
1.18	-37.954	-8.6468e+05	2437.9	-0.081008	-0.026352	1.0019
1.182	-38.016	-8.6468e+05	2437.7	-0.081594	-0.02645	1.0024
1.184	-38.032	-8.6468e+05	2437.6	-0.082179	-0.026547	1.003
1.186	-38.053	-8.6468e+05	2437.5	-0.082765	-0.026645	1.0036
1.188	-38.038	-8.6467e+05	2437.3	-0.08335	-0.026742	1.0042
1.19	-37.976	-8.6468e+05	2437.1	-0.083936	-0.02684	1.0048
1.192	-37.945	-8.6469e+05	2436.9	-0.083155	-0.026352	1.004
1.194	-37.915	-8.6469e+05	2436.7	-0.082374	-0.025864	1.0032
1.196	-37.902	-8.647e+05	2436.5	-0.081594	-0.025376	1.0024
1.198	-37.97	-8.647e+05	2436.4	-0.080813	-0.024888	1.0017
1.2	-38.034	-8.647e+05	2436.3	-0.080032	-0.0244	1.0009
1.202	-38.072	-8.647e+05	2436.1	-0.08091	-0.024498	1.0012
1.204	-38.104	-8.6471e+05	2436	-0.081789	-0.024595	1.0015
1.206	-38.048	-8.647e+05	2435.8	-0.082667	-0.024693	1.0018
1.208	-37.994	-8.647e+05	2435.6	-0.083546	-0.02479	1.0021
1.21	-37.97	-8.6471e+05	2435.5	-0.084424	-0.024888	1.0024
1.212	-37.857	-8.6471e+05	2435.3	-0.085107	-0.025864	1.0034
1.214	-37.853	-8.6471e+05	2435.2	-0.08579	-0.02684	1.0045
1.216	-37.918	-8.6471e+05	2435.1	-0.086474	-0.027816	1.0056
1.218	-37.963	-8.6471e+05	2435	-0.087157	-0.028792	1.0066
1.22	-38.068	-8.6471e+05	2434.9	-0.08784	-0.029768	1.0077
1.222	-38.095	-8.6472e+05	2434.8	-0.086766	-0.028792	1.0064
1.224	-38.078	-8.6472e+05	2434.7	-0.085693	-0.027816	1.005
1.226	-38.055	-8.6472e+05	2434.5	-0.084619	-0.02684	1.0036
1.228	-38.043	-8.6472e+05	2434.4	-0.083546	-0.025864	1.0023
1.23	-38.059	-8.6473e+05	2434.3	-0.082472	-0.024888	1.0009
1.232	-38.107	-8.6473e+05	2434.2	-0.082277	-0.024595	1.0012
1.234	-38.186	-8.6473e+05	2434.1	-0.082082	-0.024302	1.0015
1.236	-38.291	-8.6474e+05	2434	-0.081886	-0.02401	1.0018
1.238	-38.323	-8.6474e+05	2433.9	-0.081691	-0.023717	1.0021
1.24	-38.289	-8.6474e+05	2433.9	-0.081496	-0.023424	1.0024
1.242	-38.258	-8.6474e+05	2433.8	-0.081496	-0.023619	1.0027
1.244	-38.232	-8.6474e+05	2433.7	-0.081496	-0.023814	1.0031
1.246	-38.19	-8.6475e+05	2433.6	-0.081496	-0.02401	1.0035
1.248	-38.193	-8.6475e+05	2433.5	-0.081496	-0.024205	1.0039
1.25	-38.197	-8.6475e+05	2433.4	-0.081496	-0.0244	1.0043
1.252	-38.2	-8.6475e+05	2433.2	-0.081886	-0.025083	1.0039
1.254	-38.184	-8.6475e+05	2433.1	-0.082277	-0.025766	1.0035
1.256	-38.091	-8.6476e+05	2433	-0.082667	-0.02645	1.0031
1.258	-37.97	-8.6476e+05	2433	-0.083058	-0.027133	1.0027
1.26	-37.852	-8.6476e+05	2432.9	-0.083448	-0.027816	1.0024
1.262	-37.799	-8.6476e+05	2432.8	-0.083546	-0.027523	1.0022
1.264	-37.85	-8.6476e+05	2432.8	-0.083643	-0.02723	1.002
1.266	-37.916	-8.6476e+05	2432.7	-0.083741	-0.026938	1.0018
1.268	-37.958	-8.6477e+05	2432.7	-0.083838	-0.026645	1.0016
1.27	-37.987	-8.6477e+05	2432.6	-0.083936	-0.026352	1.0014
1.272	-37.95	-8.6478e+05	2432.6	-0.084034	-0.02645	1.0019
1.274	-37.866	-8.6478e+05	2432.5	-0.084131	-0.026547	1.0024
1.276	-37.793	-8.6478e+05	2432.5	-0.084229	-0.026645	1.0028
1.278	-37.72	-8.6478e+05	2432.5	-0.084326	-0.026742	1.0033
1.28	-37.713	-8.6478e+05	2432.5	-0.084424	-0.02684	1.0038
1.282	-37.787	-8.6479e+05	2432.4	-0.083936	-0.02684	1.0042
1.284	-37.848	-8.648e+05	2432.4	-0.083448	-0.02684	1.0046
1.286	-37.922	-8.648e+05	2432.4	-0.08296	-0.02684	1.005
1.288	-37.984	-8.648e+05	2432.3	-0.082472	-0.02684	1.0054
1.29	-37.964	-8.6481e+05	2432.3	-0.081984	-0.02684	1.0058
1.292	-37.939	-8.6481e+05	2432.2	-0.082277	-0.026547	1.0057
1.294	-37.835	-8.6481e+05	2432.1	-0.08257	-0.026254	1.0056
1.296	-37.744	-8.6482e+05	2432	-0.082862	-0.025962	1.0055
1.298	-37.838	-8.6482e+05	2432	-0.083155	-0.025669	1.0054
1.3	-37.9	-8.6483e+05	2431.9	-0.083448	-0.025376	1.0053
1.302	-37.938	-8.6483e+05	2431.8	-0.083643	-0.026352	1.0051
1.304	-37.979	-8.6483e+05	2431.7	-0.083838	-0.027328	1.0049
1.306	-37.921	-8.6483e+05	2431.6	-0.084034	-0.028304	1.0047
1.308	-37.844	-8.6483e+05	2431.4	-0.084229	-0.02928	1.0045
1.31	-37.756	-8.6483e+05	2431.2	-0.084424	-0.030256	1.0043
1.312	-37.694	-8.6483e+05	2431	-0.084424	-0.029573	1.0041
1.314	-37.798	-8.6484e+05	2430.8	-0.084424	-0.02889	1.0039
1.316	-37.925	-8.6485e+05	2430.6	-0.084424	-0.028206	1.0037
1.318	-37.962	-8.6485e+05	2430.4	-0.084424	-0.027523	1.0035
1.32	-37.992	-8.6485e+05	2430.2	-0.084424	-0.02684	1.0033
1.322	-37.947	-8.6486e+05	2430.1	-0.086083	-0.028206	1.0019
1.324	-37.911	-8.6486e+05	2429.9	-0.087742	-0.029573	1.0004
1.326	-37.884	-8.6486e+05	2429.7	-0.089402	-0.030939	0.99894
1.328	-37.796	-8.6487e+05	2429.6	-0.091061	-0.032306	0.99747
1.33	-37.753	-8.6487e+05	2429.5	-0.09272	-0.033672	0.99601
1.332	-37.79	-8.6487e+05	2429.4	-0.09233	-0.033672	0.99659
1.334	-37.822	-8.6487e+05	2429.2	-0.091939	-0.033672	0.99718
1.336	-37.881	-8.6488e+05	2429.1	-0.091549	-0.033672	0.99776
1.338	-37.906	-8.6488e+05	2428.9	-0.091158	-0.033672	0.99835
1.34	-37.906	-8.6489e+05	2428.8	-0.090768	-0.033672	0.99894
1.342	-37.885	-8.6489e+05	2428.7	-0.091646	-0.032989	0.99835
1.344	-37.816	-8.649e+05	2428.6	-0.092525	-0.032306	0.99776
1.346	-37.78	-8.649e+05	2428.4	-0.093403	-0.031622	0.99718
1.348	-37.815	-8.6491e+05	2428.2	-0.094282	-0.030939	0.99659
1.35	-37.869	-8.6491e+05	2428.1	-0.09516	-0.030256	0.99601
1.352	-37.92	-8.649e+05	2427.9	-0.092427	-0.029866	0.99767
1.354	-37.932	-8.6491e+05	2427.7	-0.089694	-0.029475	0.99933
1.356	-37.893	-8.6492e+05	2427.5	-0.086962	-0.029085	1.001
1.358	-37.84	-8.6492e+05	2427.3	-0.084229	-0.028694	1.0026
1.36	-37.78	-8.6492e+05	2427.1	-0.081496	-0.028304	1.0043
1.362	-37.751	-8.6492e+05	2426.9	-0.081691	-0.027718	1.0038
1.364	-37.795	-8.6492e+05	2426.6	-0.081886	-0.027133	1.0033
1.366	-37.85	-8.6492e+05	2426.4	-0.082082	-0.026547	1.0028
1.368	-37.88	-8.6492e+05	2426.2	-0.082277	-0.025962	1.0024
1.37	-37.911	-8.6492e+05	2425.9	-0.082472	-0.025376	1.0019
1.372	-37.915	-8.6493e+05	2425.8	-0.082765	-0.024888	1.0016
1.374	-37.876	-8.6493e+05	2425.6	-0.083058	-0.0244	1.0013
1.376	-37.826	-8.6493e+05	2425.6	-0.08335	-0.023912	1.001
1.378	-37.77	-8.6493e+05	2425.7	-0.083643	-0.023424	1.0007
1.38	-37.76	-8.6494e+05	2425.7	-0.083936	-0.022936	1.0004
1.382	-37.779	-8.6494e+05	2426.5	-0.084229	-0.024302	1.001
1.384	-37.838	-8.6494e+05	2427.2	-0.084522	-0.025669	1.0016
1.386	-37.893	-8.6495e+05	2428.4	-0.084814	-0.027035	1.0022
1.388	-37.894	-8.6495e+05	2429.9	-0.085107	-0.028402	1.0027
1.39	-37.832	-8.6496e+05	2431.4	-0.0854	-0.029768	1.0033
1.392	-37.819	-8.6496e+05	2433.2	-0.085986	-0.030354	1.0034
1.394	-37.782	-8.6496e+05	2435	-0.086571	-0.030939	1.0035
1.396	-37.766	-8.6497e+05	2436.8	-0.087157	-0.031525	1.0036
1.398	-37.826	-8.6497e+05	2438.5	-0.087742	-0.03211	1.0037
1.4	-37.836	-8.6498e+05	2440.3	-0.088328	-0.032696	1.0038
1.402	-37.885	-8.6498e+05	2441.8	-0.089402	-0.032208	1.0031
1.404	-37.994	-8.6499e+05	2443.3	-0.090475	-0.03172	1.0024
1.406	-37.943	-8.6499e+05	2444.7	-0.091549	-0.031232	1.0018
1.408	-37.85	-8.6499e+05	2445.9	-0.092622	-0.030744	1.0011
1.41	-37.78	-8.6499e+05	2447.2	-0.093696	-0.030256	1.0004
1.412	-37.751	-8.6499e+05	2448.3	-0.09233	-0.030939	1.0008
1.414	-37.799	-8.6499e+05	2449.3	-0.090963	-0.031622	1.0012
1.416	-37.856	-8.6499e+05	2450.3	-0.089597	-0.032306	1.0016
1.418	-37.933	-8.6499e+05	2451.2	-0.08823	-0.032989	1.002
1.42	-37.972	-8.6498e+05	2452.2	-0.086864	-0.033672	1.0024
1.422	-37.927	-8.6499e+05	2452.9	-0.086669	-0.03211	1.0029
1.424	-37.862	-8.65e+05	2453.6	-0.086474	-0.030549	1.0035
1.426	-37.812	-8.6499e+05	2454.3	-0.086278	-0.028987	1.0041
1.428	-37.807	-8.6498e+05	2454.9	-0.086083	-0.027426	1.0047
1.43	-37.852	-8.6498e+05	2455.5	-0.085888	-0.025864	1.0053
1.432	-37.895	-8.6497e+05	2456	-0.085595	-0.025864	1.0054
1.434	-37.924	-8.6497e+05	2456.5	-0.085302	-0.025864	1.0055
1.436	-37.98	-8.6497e+05	2456.9	-0.08501	-0.025864	1.0056
1.438	-38.008	-8.6496e+05	2457.3	-0.084717	-0.025864	1.0057
1.44	-37.96	-8.6496e+05	2457.7	-0.084424	-0.025864	1.0058
1.442	-37.914	-8.6496e+05	2457.9	-0.084034	-0.025766	1.0054
1.444	-37.878	-8.6496e+05	2458.2	-0.083643	-0.025669	1.005
1.446	-37.852	-8.6496e+05	2458.4	-0.083253	-0.025571	1.0046
1.448	-37.884	-8.6496e+05	2458.6	-0.082862	-0.025474	1.0042
1.45	-37.911	-8.6495e+05	2458.9	-0.082472	-0.025376	1.0038
1.452	-37.933	-8.6495e+05	2459.1	-0.082082	-0.025864	1.0041
1.454	-37.974	-8.6494e+05	2459.3	-0.081691	-0.026352	1.0044
1.456	-37.952	-8.6492e+05	2459.4	-0.081301	-0.02684	1.0047
1.458	-37.893	-8.6492e+05	2459.6	-0.08091	-0.027328	1.005
1.46	-37.837	-8.6492e+05	2459.7	-0.08052	-0.027816	1.0053
1.462	-37.783	-8.649e+05	2459.8	-0.081496	-0.027328	1.0044
1.464	-37.824	-8.6488e+05	2459.9	-0.082472	-0.02684	1.0035
1.466	-37.884	-8.6488e+05	2460	-0.083448	-0.026352	1.0026
1.468	-37.913	-8.6488e+05	2460	-0.084424	-0.025864	1.0018
1.47	-37.998	-8.6487e+05	2460.1	-0.0854	-0.025376	1.0009
1.472	-37.986	-8.6486e+05	2460.1	-0.085205	-0.026157	1.0016
1.474	-37.922	-8.6485e+05	2460.1	-0.08501	-0.026938	1.0023
1.476	-37.89	-8.6485e+05	2460.1	-0.084814	-0.027718	1.0029
1.478	-37.815	-8.6484e+05	2460.1	-0.084619	-0.028499	1.0036
1.48	-37.802	-8.6483e+05	2460.1	-0.084424	-0.02928	1.0043
1.482	-37.784	-8.6482e+05	2460.1	-0.084717	-0.029378	1.0042
1.484	-37.789	-8.6481e+05	2460.2	-0.08501	-0.029475	1.0041
1.486	-37.897	-8.648e+05	2460.2	-0.085302	-0.029573	1.004
1.488	-37.942	-8.6479e+05	2460.1	-0.085595	-0.02967	1.0039
1.49	-37.915	-8.6478e+05	2460.1	-0.085888	-0.029768	1.0038
1.492	-37.873	-8.6477e+05	2459.9	-0.085986	-0.029573	1.0042
1.494	-37.791	-8.6477e+05	2459.8	-0.086083	-0.029378	1.0046
1.496	-37.759	-8.6476e+05	2459.7	-0.086181	-0.029182	1.005
1.498	-37.763	-8.6476e+05	2459.6	-0.086278	-0.028987	1.0054
1.5	-37.779	-8.6475e+05	2459.5	-0.086376	-0.028792	1.0058
1.502	-37.838	-8.6474e+05	2459.4	-0.086766	-0.029475	1.0053
1.504	-37.859	-8.6473e+05	2459.2	-0.087157	-0.030158	1.0048
1.506	-37.814	-8.6471e+05	2459.1	-0.087547	-0.030842	1.0043
1.508	-37.767	-8.6469e+05	2459	-0.087938	-0.031525	1.0038
1.51	-37.744	-8.6468e+05	2458.9	-0.088328	-0.032208	1.0033
1.512	-37.782	-8.6468e+05	2458.7	-0.087742	-0.031037	1.0036
1.514	-37.81	-8.6467e+05	2458.6	-0.087157	-0.029866	1.0039
1.516	-37.792	-8.6466e+05	2458.4	-0.086571	-0.028694	1.0042
1.518	-37.802	-8.6465e+05	2458.3	-0.085986	-0.027523	1.0045
1.52	-37.835	-8.6465e+05	2458.2	-0.0854	-0.026352	1.0048
1.522	-37.813	-8.6465e+05	2458	-0.085107	-0.026254	1.0046
1.524	-37.749	-8.6464e+05	2457.9	-0.084814	-0.026157	1.0044
1.526	-37.707	-8.6463e+05	2457.8	-0.084522	-0.026059	1.0042
1.528	-37.699	-8.6462e+05	2457.6	-0.084229	-0.025962	1.004
1.53	-37.732	-8.6461e+05	2457.5	-0.083936	-0.025864	1.0038
1.532	-37.785	-8.6461e+05	2457.4	-0.085205	-0.02645	1.0034
1.534	-37.796	-8.646e+05	2457.3	-0.086474	-0.027035	1.003
1.536	-37.796	-8.6459e+05	2457.2	-0.087742	-0.027621	1.0026
1.538	-37.788	-8.6458e+05	2457.1	-0.089011	-0.028206	1.0023
1.54	-37.723	-8.6456e+05	2457	-0.09028	-0.028792	1.0019
1.542	-37.686	-8.6457e+05	2456.9	-0.088621	-0.028011	1.0017
1.544	-37.651	-8.6457e+05	2456.9	-0.086962	-0.02723	1.0015
1.546	-37.635	-8.6455e+05	2456.8	-0.085302	-0.02645	1.0013
1.548	-37.734	-8.6454e+05	2456.8	-0.083643	-0.025669	1.0011
1.55	-37.833	-8.6453e+05	2456.7	-0.081984	-0.024888	1.0009
1.552	-37.864	-8.6452e+05	2456.6	-0.081886	-0.024986	1.0015
1.554	-37.87	-8.6452e+05	2456.6	-0.081789	-0.025083	1.0021
1.556	-37.787	-8.6452e+05	2456.5	-0.081691	-0.025181	1.0026
1.558	-37.726	-8.6451e+05	2456.4	-0.081594	-0.025278	1.0032
1.56	-37.674	-8.6451e+05	2456.4	-0.081496	-0.025376	1.0038
1.562	-37.617	-8.645e+05	2456.3	-0.081594	-0.026157	1.0042
1.564	-37.689	-8.6449e+05	2456.2	-0.081691	-0.026938	1.0046
1.566	-37.753	-8.6448e+05	2456.1	-0.081789	-0.027718	1.005
1.568	-37.842	-8.6448e+05	2456	-0.081886	-0.028499	1.0054
1.57	-37.898	-8.6447e+05	2455.9	-0.081984	-0.02928	1.0058
1.572	-37.842	-8.6447e+05	2455.8	-0.082667	-0.028987	1.0061
1.574	-37.785	-8.6447e+05	2455.7	-0.08335	-0.028694	1.0064
1.576	-37.787	-8.6446e+05	2455.6	-0.084034	-0.028402	1.0066
1.578	-37.701	-8.6445e+05	2455.5	-0.084717	-0.028109	1.0069
1.58	-37.659	-8.6444e+05	2455.4	-0.0854	-0.027816	1.0072
1.582	-37.72	-8.6443e+05	2455.4	-0.085107	-0.027426	1.0057
1.584	-37.756	-8.6443e+05	2455.3	-0.084814	-0.027035	1.0041
1.586	-37.791	-8.6443e+05	2455.2	-0.084522	-0.026645	1.0025
1.588	-37.81	-8.6442e+05	2455.1	-0.084229	-0.026254	1.001
1.59	-37.812	-8.6441e+05	2454.9	-0.083936	-0.025864	0.99942
1.592	-37.807	-8.644e+05	2454.8	-0.084814	-0.026645	0.99981
1.594	-37.766	-8.644e+05	2454.8	-0.085693	-0.027426	1.0002
1.596	-37.756	-8.6439e+05	2454.7	-0.086571	-0.028206	1.0006
1.598	-37.783	-8.6439e+05	2454.6	-0.08745	-0.028987	1.001
1.6	-37.804	-8.6439e+05	2454.5	-0.088328	-0.029768	1.0014
1.602	-37.838	-8.6438e+05	2454.4	-0.089597	-0.02967	1.0012
1.604	-37.842	-8.6437e+05	2454.2	-0.090866	-0.029573	1.001
1.606	-37.793	-8.6437e+05	2454.2	-0.092134	-0.029475	1.0008
1.608	-37.749	-8.6436e+05	2454.1	-0.093403	-0.029378	1.0006
1.61	-37.732	-8.6436e+05	2454	-0.094672	-0.02928	1.0004
1.612	-37.709	-8.6436e+05	2453.8	-0.094477	-0.030158	0.99903
1.614	-37.718	-8.6435e+05	2453.6	-0.094282	-0.031037	0.99767
1.616	-37.767	-8.6435e+05	2453.4	-0.094086	-0.031915	0.9963
1.618	-37.81	-8.6435e+05	2453.2	-0.093891	-0.032794	0.99493
1.62	-37.845	-8.6435e+05	2453	-0.093696	-0.033672	0.99357
1.622	-37.827	-8.6435e+05	2452.8	-0.093891	-0.03377	0.99454
1.624	-37.79	-8.6435e+05	2452.6	-0.094086	-0.033867	0.99552
1.626	-37.759	-8.6434e+05	2452.3	-0.094282	-0.033965	0.9965
1.628	-37.743	-8.6434e+05	2452.1	-0.094477	-0.034062	0.99747
1.63	-37.76	-8.6433e+05	2451.9	-0.094672	-0.03416	0.99845
1.632	-37.799	-8.6432e+05	2451.6	-0.091451	-0.033282	1.0002
1.634	-37.818	-8.6432e+05	2451.4	-0.08823	-0.032403	1.002
1.636	-37.876	-8.6432e+05	2451.1	-0.08501	-0.031525	1.0037
1.638	-37.91	-8.6431e+05	2450.9	-0.081789	-0.030646	1.0055
1.64	-37.869	-8.6431e+05	2450.7	-0.078568	-0.029768	1.0072
1.642	-37.812	-8.6431e+05	2450.5	-0.078958	-0.029182	1.0062
1.644	-37.745	-8.6431e+05	2450.2	-0.079349	-0.028597	1.0051
1.646	-37.711	-8.6431e+05	2450	-0.079739	-0.028011	1.004
1.648	-37.765	-8.643e+05	2449.8	-0.08013	-0.027426	1.0029
1.65	-37.821	-8.6429e+05	2449.5	-0.08052	-0.02684	1.0019
1.652	-37.853	-8.6429e+05	2449.2	-0.08091	-0.027035	1.0023
1.654	-37.873	-8.6429e+05	2449	-0.081301	-0.02723	1.0026
1.656	-37.836	-8.6429e+05	2448.8	-0.081691	-0.027426	1.003
1.658	-37.775	-8.6429e+05	2448.5	-0.082082	-0.027621	1.0034
1.66	-37.733	-8.6429e+05	2448.3	-0.082472	-0.027816	1.0038
1.662	-37.682	-8.6429e+05	2448.1	-0.083253	-0.027426	1.0046
1.664	-37.723	-8.6428e+05	2447.9	-0.084034	-0.027035	1.0054
1.666	-37.747	-8.6428e+05	2447.7	-0.084814	-0.026645	1.0062
1.668	-37.787	-8.6428e+05	2447.6	-0.085595	-0.026254	1.0069
1.67	-37.859	-8.6429e+05	2447.5	-0.086376	-0.025864	1.0077
1.672	-37.881	-8.6429e+05	2447.3	-0.08579	-0.025474	1.0072
1.674	-37.839	-8.6428e+05	2447.2	-0.085205	-0.025083	1.0067
1.676	-37.777	-8.6428e+05	2447.1	-0.084619	-0.024693	1.0063
1.678	-37.726	-8.6428e+05	2447	-0.084034	-0.024302	1.0058
1.68	-37.748	-8.6428e+05	2446.9	-0.083448	-0.023912	1.0053
1.682	-37.79	-8.6428e+05	2446.9	-0.083741	-0.024595	1.0051
1.684	-37.833	-8.6427e+05	2446.8	-0.084034	-0.025278	1.0049
1.686	-37.886	-8.6427e+05	2446.7	-0.084326	-0.025962	1.0047
1.688	-37.894	-8.6427e+05	2446.6	-0.084619	-0.026645	1.0045
1.69	-37.835	-8.6427e+05	2446.5	-0.084912	-0.027328	1.0043
1.692	-37.755	-8.6428e+05	2446.4	-0.085107	-0.026742	1.0036
1.694	-37.708	-8.6428e+05	2446.3	-0.085302	-0.026157	1.0029
1.696	-37.719	-8.6427e+05	2446.2	-0.085498	-0.025571	1.0023
1.698	-37.765	-8.6428e+05	2446.1	-0.085693	-0.024986	1.0016
1.7	-37.8	-8.6428e+05	2446.1	-0.085888	-0.0244	1.0009
1.702	-37.839	-8.6428e+05	2446	-0.08745	-0.025864	1.0004
1.704	-37.873	-8.6428e+05	2446	-0.089011	-0.027328	0.99991
1.706	-37.835	-8.6428e+05	2445.9	-0.090573	-0.028792	0.99942
1.708	-37.783	-8.6428e+05	2445.9	-0.092134	-0.030256	0.99894
1.71	-37.755	-8.6428e+05	2445.9	-0.093696	-0.03172	0.99845
1.712	-37.731	-8.6428e+05	2445.9	-0.092622	-0.030744	1.0002
1.714	-37.761	-8.6428e+05	2446	-0.091549	-0.029768	1.002
1.716	-37.818	-8.6427e+05	2446	-0.090475	-0.028792	1.0037
1.718	-37.856	-8.6427e+05	2446.1	-0.089402	-0.027816	1.0055
1.72	-37.906	-8.6428e+05	2446.2	-0.088328	-0.02684	1.0072
1.722	-37.892	-8.6428e+05	2446.3	-0.088426	-0.027718	1.0071
1.724	-37.834	-8.6428e+05	2446.3	-0.088523	-0.028597	1.007
1.726	-37.798	-8.6428e+05	2446.4	-0.088621	-0.029475	1.0069
1.728	-37.719	-8.6428e+05	2446.4	-0.088718	-0.030354	1.0068
1.73	-37.711	-8.6428e+05	2446.4	-0.088816	-0.031232	1.0067
1.732	-37.781	-8.6429e+05	2446.5	-0.089694	-0.032013	1.005
1.734	-37.794	-8.6429e+05	2446.5	-0.090573	-0.032794	1.0032
1.736	-37.861	-8.6428e+05	2446.5	-0.091451	-0.033574	1.0015
1.738	-37.905	-8.6428e+05	2446.6	-0.09233	-0.034355	0.99972
1.74	-37.856	-8.6428e+05	2446.6	-0.093208	-0.035136	0.99796
1.742	-37.773	-8.6428e+05	2446.6	-0.092915	-0.03455	0.99864
1.744	-37.684	-8.6428e+05	2446.6	-0.092622	-0.033965	0.99933
1.746	-37.671	-8.6428e+05	2446.6	-0.09233	-0.033379	1
1.748	-37.754	-8.6428e+05	2446.5	-0.092037	-0.032794	1.0007
1.75	-37.819	-8.6428e+05	2446.5	-0.091744	-0.032208	1.0014
1.752	-37.867	-8.6429e+05	2446.4	-0.091939	-0.032208	1.0014
1.754	-37.895	-8.6428e+05	2446.4	-0.092134	-0.032208	1.0014
1.756	-37.847	-8.6428e+05	2446.3	-0.09233	-0.032208	1.0014
1.758	-37.819	-8.6428e+05	2446.2	-0.092525	-0.032208	1.0014
1.76	-37.774	-8.6428e+05	2446.2	-0.09272	-0.032208	1.0014
1.762	-37.709	-8.6428e+05	2446.1	-0.092818	-0.032501	1.001
1.764	-37.738	-8.6428e+05	2446	-0.092915	-0.032794	1.0006
1.766	-37.796	-8.6428e+05	2446	-0.093013	-0.033086	1.0002
1.768	-37.861	-8.6428e+05	2445.9	-0.09311	-0.033379	0.99981
1.77	-37.9	-8.6428e+05	2445.9	-0.093208	-0.033672	0.99942
1.772	-37.86	-8.6428e+05	2445.8	-0.094184	-0.032306	0.99952
1.774	-37.816	-8.6428e+05	2445.7	-0.09516	-0.030939	0.99962
1.776	-37.786	-8.6429e+05	2445.7	-0.096136	-0.029573	0.99972
1.778	-37.739	-8.6428e+05	2445.7	-0.097112	-0.028206	0.99981
1.78	-37.73	-8.6428e+05	2445.7	-0.098088	-0.02684	0.99991
1.782	-37.757	-8.6428e+05	2445.6	-0.095648	-0.027133	1.0011
1.784	-37.787	-8.6428e+05	2445.6	-0.093208	-0.027426	1.0023
1.786	-37.846	-8.6428e+05	2445.5	-0.090768	-0.027718	1.0034
1.788	-37.877	-8.6429e+05	2445.5	-0.088328	-0.028011	1.0046
1.79	-37.832	-8.6428e+05	2445.4	-0.085888	-0.028304	1.0058
1.792	-37.79	-8.6428e+05	2445.4	-0.085595	-0.027816	1.006
1.794	-37.75	-8.6428e+05	2445.3	-0.085302	-0.027328	1.0062
1.796	-37.717	-8.6428e+05	2445.3	-0.08501	-0.02684	1.0064
1.798	-37.736	-8.6428e+05	2445.2	-0.084717	-0.026352	1.0065
1.8	-37.773	-8.6428e+05	2445.1	-0.084424	-0.025864	1.0067
1.802	-37.82	-8.6428e+05	2445	-0.084326	-0.024888	1.0056
1.804	-37.874	-8.6429e+05	2445	-0.084229	-0.023912	1.0044
1.806	-37.871	-8.6429e+05	2444.9	-0.084131	-0.022936	1.0032
1.808	-37.826	-8.6429e+05	2444.8	-0.084034	-0.02196	1.0021
1.81	-37.741	-8.6428e+05	2444.7	-0.083936	-0.020984	1.0009
1.812	-37.668	-8.6428e+05	2444.5	-0.083741	-0.022155	1.0017
1.814	-37.707	-8.6429e+05	2444.4	-0.083546	-0.023326	1.0024
1.816	-37.791	-8.6429e+05	2444.3	-0.08335	-0.024498	1.0032
1.818	-37.792	-8.6429e+05	2444.2	-0.083155	-0.025669	1.004
1.82	-37.858	-8.6429e+05	2444.1	-0.08296	-0.02684	1.0048
1.822	-37.85	-8.6429e+05	2444	-0.083448	-0.026645	1.0045
1.824	-37.788	-8.6429e+05	2444	-0.083936	-0.02645	1.0042
1.826	-37.763	-8.6429e+05	2443.9	-0.084424	-0.026254	1.0039
1.828	-37.706	-8.6429e+05	2443.7	-0.084912	-0.026059	1.0036
1.83	-37.72	-8.6429e+05	2443.6	-0.0854	-0.025864	1.0033
1.832	-37.779	-8.6429e+05	2443.4	-0.084814	-0.025474	1.0029
1.834	-37.849	-8.6429e+05	2443.3	-0.084229	-0.025083	1.0025
1.836	-37.883	-8.6429e+05	2443.1	-0.083643	-0.024693	1.0022
1.838	-37.855	-8.6429e+05	2443	-0.083058	-0.024302	1.0018
1.84	-37.786	-8.643e+05	2442.8	-0.082472	-0.023912	1.0014
1.842	-37.735	-8.643e+05	2442.7	-0.08257	-0.024107	1.0017
1.844	-37.685	-8.643e+05	2442.5	-0.082667	-0.024302	1.002
1.846	-37.697	-8.643e+05	2442.3	-0.082765	-0.024498	1.0023
1.848	-37.771	-8.643e+05	2442.1	-0.082862	-0.024693	1.0025
1.85	-37.812	-8.6431e+05	2441.9	-0.08296	-0.024888	1.0028
1.852	-37.832	-8.6431e+05	2441.8	-0.083058	-0.025278	1.0031
1.854	-37.835	-8.6431e+05	2441.6	-0.083155	-0.025669	1.0034
1.856	-37.813	-8.6431e+05	2441.5	-0.083253	-0.026059	1.0037
1.858	-37.779	-8.6431e+05	2441.3	-0.08335	-0.02645	1.004
1.86	-37.753	-8.6432e+05	2441.1	-0.083448	-0.02684	1.0043
1.862	-37.745	-8.6432e+05	2441	-0.084229	-0.02684	1.0041
1.864	-37.76	-8.6432e+05	2440.8	-0.08501	-0.02684	1.0039
1.866	-37.778	-8.6432e+05	2440.7	-0.08579	-0.02684	1.0037
1.868	-37.835	-8.6433e+05	2440.6	-0.086571	-0.02684	1.0035
1.87	-37.916	-8.6432e+05	2440.5	-0.087352	-0.02684	1.0033
1.872	-37.899	-8.6432e+05	2440.4	-0.086962	-0.02723	1.0033
1.874	-37.812	-8.6432e+05	2440.3	-0.086571	-0.027621	1.0033
1.876	-37.753	-8.6433e+05	2440.2	-0.086181	-0.028011	1.0033
1.878	-37.707	-8.6433e+05	2440	-0.08579	-0.028402	1.0033
1.88	-37.726	-8.6434e+05	2439.8	-0.0854	-0.028792	1.0033
1.882	-37.8	-8.6434e+05	2439.7	-0.084619	-0.028499	1.0037
1.884	-37.837	-8.6435e+05	2439.5	-0.083838	-0.028206	1.0041
1.886	-37.874	-8.6435e+05	2439.4	-0.083058	-0.027914	1.0045
1.888	-37.87	-8.6436e+05	2439.2	-0.082277	-0.027621	1.0049
1.89	-37.819	-8.6436e+05	2439	-0.081496	-0.027328	1.0053
1.892	-37.788	-8.6436e+05	2438.6	-0.082667	-0.027914	1.005
1.894	-37.765	-8.6436e+05	2438.3	-0.083838	-0.028499	1.0047
1.896	-37.744	-8.6435e+05	2438	-0.08501	-0.029085	1.0044
1.898	-37.746	-8.6436e+05	2437.8	-0.086181	-0.02967	1.0041
1.9	-37.785	-8.6437e+05	2437.6	-0.087352	-0.030256	1.0038
1.902	-37.822	-8.6437e+05	2437.6	-0.085302	-0.029573	1.0039
1.904	-37.874	-8.6437e+05	2437.5	-0.083253	-0.02889	1.004
1.906	-37.873	-8.6437e+05	2437.5	-0.081203	-0.028206	1.0041
1.908	-37.851	-8.6437e+05	2437.4	-0.079154	-0.027523	1.0042
1.91	-37.792	-8.6437e+05	2437.3	-0.077104	-0.02684	1.0043
1.912	-37.764	-8.6436e+05	2437.1	-0.078568	-0.02645	1.0043
1.914	-37.836	-8.6436e+05	2437	-0.080032	-0.026059	1.0043
1.916	-37.906	-8.6436e+05	2436.9	-0.081496	-0.025669	1.0043
1.918	-37.893	-8.6438e+05	2436.8	-0.08296	-0.025278	1.0043
1.92	-37.899	-8.6439e+05	2436.7	-0.084424	-0.024888	1.0043
1.922	-37.863	-8.6439e+05	2436.5	-0.0854	-0.025083	1.0038
1.924	-37.849	-8.6439e+05	2436.4	-0.086376	-0.025278	1.0033
1.926	-37.825	-8.6439e+05	2436.2	-0.087352	-0.025474	1.0028
1.928	-37.772	-8.644e+05	2436	-0.088328	-0.025669	1.0024
1.93	-37.759	-8.644e+05	2435.9	-0.089304	-0.025864	1.0019
1.932	-37.791	-8.6441e+05	2435.7	-0.087938	-0.025962	1.0024
1.934	-37.81	-8.6441e+05	2435.6	-0.086571	-0.026059	1.0028
1.936	-37.847	-8.6441e+05	2435.4	-0.085205	-0.026157	1.0033
1.938	-37.836	-8.6441e+05	2435.2	-0.083838	-0.026254	1.0038
1.94	-37.788	-8.6441e+05	2435.1	-0.082472	-0.026352	1.0043
1.942	-37.77	-8.6442e+05	2434.9	-0.083448	-0.026645	1.0038
1.944	-37.775	-8.6442e+05	2434.8	-0.084424	-0.026938	1.0033
1.946	-37.804	-8.6442e+05	2434.7	-0.0854	-0.02723	1.0028
1.948	-37.865	-8.6442e+05	2434.5	-0.086376	-0.027523	1.0024
1.95	-37.878	-8.6443e+05	2434.4	-0.087352	-0.027816	1.0019
1.952	-37.875	-8.6443e+05	2434.2	-0.086962	-0.027426	1.0021
1.954	-37.924	-8.6443e+05	2434.1	-0.086571	-0.027035	1.0023
1.956	-37.938	-8.6444e+05	2434	-0.086181	-0.026645	1.0024
1.958	-37.898	-8.6444e+05	2433.8	-0.08579	-0.026254	1.0026
1.96	-37.856	-8.6444e+05	2433.7	-0.0854	-0.025864	1.0028
1.962	-37.804	-8.6445e+05	2433.5	-0.085107	-0.025669	1.0026
1.964	-37.789	-8.6445e+05	2433.4	-0.084814	-0.025474	1.0024
1.966	-37.834	-8.6446e+05	2433.3	-0.084522	-0.025278	1.0023
1.968	-37.88	-8.6446e+05	2433.2	-0.084229	-0.025083	1.0021
1.97	-37.942	-8.6447e+05	2433	-0.083936	-0.024888	1.0019
1.972	-37.952	-8.6448e+05	2432.9	-0.084131	-0.025181	1.002
1.974	-37.902	-8.6448e+05	2432.7	-0.084326	-0.025474	1.0021
1.976	-37.883	-8.6448e+05	2432.6	-0.084522	-0.025766	1.0022
1.978	-37.857	-8.6449e+05	2432.4	-0.084717	-0.026059	1.0023
1.98	-37.88	-8.6449e+05	2432.2	-0.084912	-0.026352	1.0024
1.982	-37.914	-8.6449e+05	2432	-0.084619	-0.026352	1.0027
1.984	-37.929	-8.6449e+05	2431.8	-0.084326	-0.026352	1.0031
1.986	-37.946	-8.6449e+05	2431.7	-0.084034	-0.026352	1.0035
1.988	-37.927	-8.6448e+05	2431.5	-0.083741	-0.026352	1.0039
1.99	-37.905	-8.645e+05	2431.3	-0.083448	-0.026352	1.0043
1.992	-37.936	-8.6451e+05	2431.2	-0.083546	-0.025962	1.0039
1.994	-37.914	-8.6451e+05	2431	-0.083643	-0.025571	1.0035
1.996	-37.877	-8.6451e+05	2430.9	-0.083741	-0.025181	1.0031
1.998	-37.92	-8.6451e+05	2430.8	-0.083838	-0.02479	1.0027
2	-37.947	-8.6451e+05	2430.7	-0.083936	-0.0244	1.0024
2.002	-37.982	-8.6451e+05	2430.5	-0.08257	-0.025571	1.0029
2.004	-37.988	-8.6452e+05	2430.4	-0.081203	-0.026742	1.0035
2.006	-37.973	-8.6453e+05	2430.2	-0.079837	-0.027914	1.0041
2.008	-38.023	-8.6453e+05	2430.1	-0.07847	-0.029085	1.0047
2.01	-38.009	-8.6453e+05	2429.9	-0.077104	-0.030256	1.0053
2.012	-38.002	-8.6453e+05	2429.8	-0.077885	-0.029866	1.0052
2.014	-38.044	-8.6453e+05	2429.6	-0.078666	-0.029475	1.0051
2.016	-38.091	-8.6453e+05	2429.4	-0.079446	-0.029085	1.005
2.018	-38.169	-8.6453e+05	2429.1	-0.080227	-0.028694	1.0049
2.02	-38.268	-8.6453e+05	2428.9	-0.081008	-0.028304	1.0048
2.022	-38.335	-8.6453e+05	2428.7	-0.080325	-0.027914	1.0048
2.024	-38.358	-8.6453e+05	2428.5	-0.079642	-0.027523	1.0048
2.026	-38.299	-8.6454e+05	2428.3	-0.078958	-0.027133	1.0048
2.028	-38.225	-8.6455e+05	2428	-0.078275	-0.026742	1.0048
2.03	-38.247	-8.6456e+05	2427.8	-0.077592	-0.026352	1.0048
2.032	-38.306	-8.6456e+05	2427.6	-0.07769	-0.02723	1.0046
2.034	-38.337	-8.6456e+05	2427.4	-0.077787	-0.028109	1.0044
2.036	-38.367	-8.6457e+05	2427.3	-0.077885	-0.028987	1.0042
2.038	-38.336	-8.6457e+05	2427.1	-0.077982	-0.029866	1.004
2.04	-38.228	-8.6457e+05	2427	-0.07808	-0.030744	1.0038
2.042	-38.132	-8.6457e+05	2426.9	-0.07808	-0.030646	1.0043
2.044	-38.04	-8.6457e+05	2426.7	-0.07808	-0.030549	1.0048
2.046	-37.969	-8.6458e+05	2426.6	-0.07808	-0.030451	1.0053
2.048	-37.989	-8.6459e+05	2426.5	-0.07808	-0.030354	1.0058
2.05	-38.027	-8.646e+05	2426.4	-0.07808	-0.030256	1.0063
2.052	-38.035	-8.646e+05	2426.3	-0.078275	-0.030256	1.0057
2.054	-38.041	-8.646e+05	2426.2	-0.07847	-0.030256	1.0051
2.056	-37.988	-8.646e+05	2426.1	-0.078666	-0.030256	1.0045
2.058	-37.949	-8.646e+05	2426	-0.078861	-0.030256	1.0039
2.06	-37.912	-8.6461e+05	2425.8	-0.079056	-0.030256	1.0033
2.062	-37.879	-8.6461e+05	2425.7	-0.079446	-0.028987	1.0033
2.064	-37.918	-8.6461e+05	2425.6	-0.079837	-0.027718	1.0033
2.066	-37.985	-8.6461e+05	2425.5	-0.080227	-0.02645	1.0033
2.068	-38.056	-8.6462e+05	2425.3	-0.080618	-0.025181	1.0033
2.07	-38.126	-8.6463e+05	2425.2	-0.081008	-0.023912	1.0033
2.072	-38.12	-8.6465e+05	2425.1	-0.08091	-0.0244	1.0039
2.074	-38.072	-8.6464e+05	2425	-0.080813	-0.024888	1.0045
2.076	-38.045	-8.6464e+05	2424.9	-0.080715	-0.025376	1.0051
2.078	-38.008	-8.6465e+05	2424.8	-0.080618	-0.025864	1.0057
2.08	-38.059	-8.6465e+05	2424.6	-0.08052	-0.026352	1.0063
2.082	-38.133	-8.6466e+05	2424.5	-0.080325	-0.026547	1.0059
2.084	-38.161	-8.6467e+05	2424.4	-0.08013	-0.026742	1.0055
2.086	-38.222	-8.6467e+05	2424.2	-0.079934	-0.026938	1.0051
2.088	-38.26	-8.6467e+05	2424.1	-0.079739	-0.027133	1.0047
2.09	-38.197	-8.6468e+05	2424	-0.079544	-0.027328	1.0043
2.092	-38.166	-8.6468e+05	2423.9	-0.080227	-0.027426	1.0041
2.094	-38.085	-8.6469e+05	2423.8	-0.08091	-0.027523	1.0039
2.096	-38.057	-8.6469e+05	2423.6	-0.081594	-0.027621	1.0037
2.098	-38.087	-8.647e+05	2423.4	-0.082277	-0.027718	1.0035
2.1	-38.113	-8.647e+05	2423.2	-0.08296	-0.027816	1.0033
2.102	-38.168	-8.6471e+05	2423	-0.08296	-0.027133	1.003
2.104	-38.223	-8.6471e+05	2422.8	-0.08296	-0.02645	1.0027
2.106	-38.218	-8.6472e+05	2422.6	-0.08296	-0.025766	1.0024
2.108	-38.2	-8.6472e+05	2422.5	-0.08296	-0.025083	1.0022
2.11	-38.136	-8.6472e+05	2422.3	-0.08296	-0.0244	1.0019
2.112	-38.056	-8.6473e+05	2422.2	-0.084326	-0.025571	1.001
2.114	-38.069	-8.6473e+05	2422.1	-0.085693	-0.026742	1.0001
2.116	-38.12	-8.6473e+05	2422	-0.087059	-0.027914	0.99923
2.118	-38.13	-8.6473e+05	2421.9	-0.088426	-0.029085	0.99835
2.12	-38.167	-8.6473e+05	2421.8	-0.089792	-0.030256	0.99747
2.122	-38.208	-8.6474e+05	2421.7	-0.087742	-0.02967	0.99874
2.124	-38.217	-8.6475e+05	2421.6	-0.085693	-0.029085	1
2.126	-38.203	-8.6474e+05	2421.5	-0.083643	-0.028499	1.0013
2.128	-38.165	-8.6474e+05	2421.4	-0.081594	-0.027914	1.0025
2.13	-38.182	-8.6476e+05	2421.2	-0.079544	-0.027328	1.0038
2.132	-38.226	-8.6477e+05	2421.1	-0.079544	-0.028109	1.0033
2.134	-38.236	-8.6477e+05	2421	-0.079544	-0.02889	1.0028
2.136	-38.28	-8.6477e+05	2420.9	-0.079544	-0.02967	1.0024
2.138	-38.302	-8.6478e+05	2420.7	-0.079544	-0.030451	1.0019
2.14	-38.259	-8.6478e+05	2420.6	-0.079544	-0.031232	1.0014
2.142	-38.236	-8.6479e+05	2420.4	-0.079446	-0.030744	1.0024
2.144	-38.201	-8.6479e+05	2420.2	-0.079349	-0.030256	1.0033
2.146	-38.147	-8.648e+05	2419.9	-0.079251	-0.029768	1.0043
2.148	-38.196	-8.6481e+05	2419.7	-0.079154	-0.02928	1.0053
2.15	-38.285	-8.6481e+05	2419.4	-0.079056	-0.028792	1.0063
2.152	-38.352	-8.6482e+05	2419.2	-0.079349	-0.028206	1.0059
2.154	-38.367	-8.6482e+05	2418.9	-0.079642	-0.027621	1.0055
2.156	-38.312	-8.6482e+05	2418.7	-0.079934	-0.027035	1.0051
2.158	-38.25	-8.6483e+05	2418.6	-0.080227	-0.02645	1.0047
2.16	-38.212	-8.6483e+05	2418.5	-0.08052	-0.025864	1.0043
2.162	-38.184	-8.6484e+05	2418.7	-0.08052	-0.026254	1.0047
2.164	-38.264	-8.6484e+05	2418.8	-0.08052	-0.026645	1.0051
2.166	-38.345	-8.6484e+05	2419.3	-0.08052	-0.027035	1.0055
2.168	-38.313	-8.6484e+05	2420.1	-0.08052	-0.027426	1.0059
2.17	-38.354	-8.6484e+05	2420.9	-0.08052	-0.027816	1.0063
2.172	-38.329	-8.6484e+05	2422.6	-0.081203	-0.027035	1.0054
2.174	-38.317	-8.6485e+05	2424.2	-0.081886	-0.026254	1.0045
2.176	-38.331	-8.6485e+05	2425.9	-0.08257	-0.025474	1.0036
2.178	-38.266	-8.6486e+05	2427.8	-0.083253	-0.024693	1.0027
2.18	-38.275	-8.6487e+05	2429.6	-0.083936	-0.023912	1.0019
2.182	-38.353	-8.6487e+05	2431.3	-0.083741	-0.024302	1.0024
2.184	-38.415	-8.6487e+05	2433	-0.083546	-0.024693	1.003
2.186	-38.454	-8.6488e+05	2434.5	-0.08335	-0.025083	1.0036
2.188	-38.444	-8.6489e+05	2435.9	-0.083155	-0.025474	1.0042
2.19	-38.393	-8.6489e+05	2437.3	-0.08296	-0.025864	1.0048
2.192	-38.367	-8.649e+05	2438.4	-0.082667	-0.025474	1.0044
2.194	-38.34	-8.649e+05	2439.5	-0.082374	-0.025083	1.004
2.196	-38.334	-8.6491e+05	2440.5	-0.082082	-0.024693	1.0036
2.198	-38.384	-8.6491e+05	2441.4	-0.081789	-0.024302	1.0032
2.2	-38.432	-8.6491e+05	2442.3	-0.081496	-0.023912	1.0028
2.202	-38.462	-8.6491e+05	2443.2	-0.081301	-0.0244	1.0025
2.204	-38.463	-8.6491e+05	2444	-0.081106	-0.024888	1.0023
2.206	-38.423	-8.6491e+05	2444.7	-0.08091	-0.025376	1.002
2.208	-38.385	-8.6491e+05	2445.4	-0.080715	-0.025864	1.0017
2.21	-38.343	-8.6491e+05	2446	-0.08052	-0.026352	1.0014
2.212	-38.309	-8.649e+05	2446.6	-0.080715	-0.02645	1.0022
2.214	-38.353	-8.6491e+05	2447.1	-0.08091	-0.026547	1.0029
2.216	-38.43	-8.6491e+05	2447.6	-0.081106	-0.026645	1.0037
2.218	-38.487	-8.649e+05	2447.9	-0.081301	-0.026742	1.0045
2.22	-38.55	-8.6489e+05	2448.3	-0.081496	-0.02684	1.0053
2.222	-38.543	-8.6489e+05	2448.7	-0.081008	-0.027914	1.0045
2.224	-38.476	-8.6489e+05	2449	-0.08052	-0.028987	1.0037
2.226	-38.446	-8.6489e+05	2449.4	-0.080032	-0.030061	1.0029
2.228	-38.416	-8.6489e+05	2449.7	-0.079544	-0.031134	1.0022
2.23	-38.445	-8.6488e+05	2450	-0.079056	-0.032208	1.0014
2.232	-38.502	-8.6488e+05	2450.2	-0.07847	-0.032306	1.0007
2.234	-38.511	-8.6487e+05	2450.4	-0.077885	-0.032403	1
2.236	-38.565	-8.6486e+05	2450.6	-0.077299	-0.032501	0.99933
2.238	-38.637	-8.6485e+05	2450.9	-0.076714	-0.032598	0.99864
2.24	-38.535	-8.6484e+05	2451.2	-0.076128	-0.032696	0.99796
2.242	-38.509	-8.6484e+05	2451.7	-0.076714	-0.032208	1.0004
2.244	-38.439	-8.6484e+05	2452.1	-0.077299	-0.03172	1.0028
2.246	-38.368	-8.6484e+05	2452.4	-0.077885	-0.031232	1.0053
2.248	-38.446	-8.6484e+05	2452.5	-0.07847	-0.030744	1.0077
2.25	-38.527	-8.6482e+05	2452.6	-0.079056	-0.030256	1.0102
2.252	-38.578	-8.648e+05	2452.4	-0.080325	-0.029378	1.0077
2.254	-38.638	-8.6479e+05	2452.2	-0.081594	-0.028499	1.0053
2.256	-38.58	-8.6479e+05	2452.1	-0.082862	-0.027621	1.0028
2.258	-38.522	-8.6477e+05	2452.1	-0.084131	-0.026742	1.0004
2.26	-38.51	-8.6476e+05	2452.2	-0.0854	-0.025864	0.99796
2.262	-38.466	-8.6475e+05	2452.2	-0.083741	-0.02684	1
2.264	-38.476	-8.6474e+05	2452.2	-0.082082	-0.027816	1.0021
2.266	-38.499	-8.6474e+05	2452.1	-0.080422	-0.028792	1.0041
2.268	-38.544	-8.6474e+05	2452.1	-0.078763	-0.029768	1.0062
2.27	-38.569	-8.6472e+05	2452	-0.077104	-0.030744	1.0082
2.272	-38.561	-8.647e+05	2452.1	-0.078666	-0.030256	1.0069
2.274	-38.531	-8.6469e+05	2452.1	-0.080227	-0.029768	1.0057
2.276	-38.472	-8.6469e+05	2452.1	-0.081789	-0.02928	1.0044
2.278	-38.39	-8.6468e+05	2452.2	-0.08335	-0.028792	1.0031
2.28	-38.406	-8.6467e+05	2452.2	-0.084912	-0.028304	1.0019
2.282	-38.475	-8.6467e+05	2452.1	-0.084326	-0.027914	1.0033
2.284	-38.512	-8.6467e+05	2452.1	-0.083741	-0.027523	1.0048
2.286	-38.56	-8.6466e+05	2451.9	-0.083155	-0.027133	1.0063
2.288	-38.584	-8.6465e+05	2451.8	-0.08257	-0.026742	1.0077
2.29	-38.534	-8.6464e+05	2451.6	-0.081984	-0.026352	1.0092
2.292	-38.451	-8.6462e+05	2451.4	-0.082082	-0.026352	1.0092
2.294	-38.386	-8.6462e+05	2451.2	-0.082179	-0.026352	1.0092
2.296	-38.376	-8.6461e+05	2451	-0.082277	-0.026352	1.0092
2.298	-38.408	-8.6461e+05	2450.7	-0.082374	-0.026352	1.0092
2.3	-38.448	-8.6461e+05	2450.5	-0.082472	-0.026352	1.0092
2.302	-38.508	-8.646e+05	2450.3	-0.08257	-0.02684	1.0079
2.304	-38.556	-8.6458e+05	2450.1	-0.082667	-0.027328	1.0066
2.306	-38.541	-8.6457e+05	2450	-0.082765	-0.027816	1.0054
2.308	-38.504	-8.6457e+05	2449.8	-0.082862	-0.028304	1.0041
2.31	-38.451	-8.6456e+05	2449.7	-0.08296	-0.028792	1.0028
2.312	-38.394	-8.6454e+05	2449.6	-0.083155	-0.029085	1.0025
2.314	-38.427	-8.6454e+05	2449.5	-0.08335	-0.029378	1.0023
2.316	-38.51	-8.6454e+05	2449.5	-0.083546	-0.02967	1.002
2.318	-38.553	-8.6452e+05	2449.4	-0.083741	-0.029963	1.0017
2.32	-38.578	-8.6451e+05	2449.4	-0.083936	-0.030256	1.0014
2.322	-38.564	-8.6451e+05	2449.3	-0.08335	-0.030451	1.0012
2.324	-38.539	-8.6451e+05	2449.1	-0.082765	-0.030646	1.001
2.326	-38.523	-8.645e+05	2449.1	-0.082179	-0.030842	1.0008
2.328	-38.455	-8.645e+05	2449	-0.081594	-0.031037	1.0006
2.33	-38.415	-8.6449e+05	2448.9	-0.081008	-0.031232	1.0004
2.332	-38.476	-8.6448e+05	2448.8	-0.08091	-0.030256	1.0015
2.334	-38.554	-8.6447e+05	2448.7	-0.080813	-0.02928	1.0025
2.336	-38.644	-8.6447e+05	2448.6	-0.080715	-0.028304	1.0036
2.338	-38.676	-8.6446e+05	2448.5	-0.080618	-0.027328	1.0047
2.34	-38.561	-8.6446e+05	2448.4	-0.08052	-0.026352	1.0058
2.342	-38.508	-8.6445e+05	2448.3	-0.080227	-0.026645	1.0055
2.344	-38.501	-8.6444e+05	2448.3	-0.079934	-0.026938	1.0052
2.346	-38.477	-8.6443e+05	2448.2	-0.079642	-0.02723	1.0049
2.348	-38.516	-8.6443e+05	2448.1	-0.079349	-0.027523	1.0046
2.35	-38.529	-8.6442e+05	2448.1	-0.079056	-0.027816	1.0043
2.352	-38.577	-8.6442e+05	2448	-0.07847	-0.028694	1.004
2.354	-38.591	-8.6441e+05	2447.9	-0.077885	-0.029573	1.0037
2.356	-38.539	-8.644e+05	2447.9	-0.077299	-0.030451	1.0034
2.358	-38.493	-8.644e+05	2448	-0.076714	-0.03133	1.0031
2.36	-38.456	-8.6439e+05	2448	-0.076128	-0.032208	1.0028
2.362	-38.47	-8.6439e+05	2448.1	-0.076226	-0.032208	1.0028
2.364	-38.552	-8.6438e+05	2448.1	-0.076323	-0.032208	1.0028
2.366	-38.602	-8.6438e+05	2448.1	-0.076421	-0.032208	1.0028
2.368	-38.613	-8.6437e+05	2448.1	-0.076518	-0.032208	1.0028
2.37	-38.661	-8.6436e+05	2448.1	-0.076616	-0.032208	1.0028
2.372	-38.675	-8.6434e+05	2448.1	-0.076811	-0.031232	1.0032
2.374	-38.629	-8.6435e+05	2448	-0.077006	-0.030256	1.0036
2.376	-38.552	-8.6435e+05	2447.9	-0.077202	-0.02928	1.004
2.378	-38.469	-8.6434e+05	2447.8	-0.077397	-0.028304	1.0044
2.38	-38.475	-8.6433e+05	2447.8	-0.077592	-0.027328	1.0048
2.382	-38.538	-8.6433e+05	2447.7	-0.078275	-0.027426	1.0048
2.384	-38.577	-8.6433e+05	2447.6	-0.078958	-0.027523	1.0048
2.386	-38.658	-8.6432e+05	2447.4	-0.079642	-0.027621	1.0048
2.388	-38.719	-8.6431e+05	2447.3	-0.080325	-0.027718	1.0048
2.39	-38.667	-8.6431e+05	2447.2	-0.081008	-0.027816	1.0048
2.392	-38.617	-8.643e+05	2447.1	-0.08013	-0.028304	1.0056
2.394	-38.584	-8.643e+05	2447	-0.079251	-0.028792	1.0064
2.396	-38.535	-8.643e+05	2446.9	-0.078373	-0.02928	1.0071
2.398	-38.574	-8.6429e+05	2446.7	-0.077494	-0.029768	1.0079
2.4	-38.645	-8.6428e+05	2446.6	-0.076616	-0.030256	1.0087
2.402	-38.692	-8.6428e+05	2446.4	-0.077202	-0.029866	1.0075
2.404	-38.73	-8.6427e+05	2446.2	-0.077787	-0.029475	1.0064
2.406	-38.684	-8.6427e+05	2446.1	-0.078373	-0.029085	1.0052
2.408	-38.622	-8.6427e+05	2445.9	-0.078958	-0.028694	1.004
2.41	-38.581	-8.6426e+05	2445.7	-0.079544	-0.028304	1.0028
2.412	-38.514	-8.6426e+05	2445.5	-0.08052	-0.028987	1.0016
2.414	-38.538	-8.6425e+05	2445.3	-0.081496	-0.02967	1.0003
2.416	-38.611	-8.6425e+05	2445.1	-0.082472	-0.030354	0.99903
2.418	-38.684	-8.6425e+05	2444.9	-0.083448	-0.031037	0.99776
2.42	-38.798	-8.6424e+05	2444.8	-0.084424	-0.03172	0.9965
2.422	-38.751	-8.6424e+05	2444.5	-0.082277	-0.03211	0.99757
2.424	-38.695	-8.6423e+05	2444.3	-0.08013	-0.032501	0.99864
2.426	-38.65	-8.6424e+05	2444.1	-0.077982	-0.032891	0.99972
2.428	-38.584	-8.6425e+05	2443.9	-0.075835	-0.033282	1.0008
2.43	-38.593	-8.6425e+05	2443.7	-0.073688	-0.033672	1.0019
2.432	-38.658	-8.6424e+05	2443.5	-0.073883	-0.033574	1.0016
2.434	-38.738	-8.6424e+05	2443.2	-0.074078	-0.033477	1.0013
2.436	-38.783	-8.6423e+05	2443	-0.074274	-0.033379	1.001
2.438	-38.76	-8.6423e+05	2442.9	-0.074469	-0.033282	1.0007
2.44	-38.687	-8.6423e+05	2442.7	-0.074664	-0.033184	1.0004
2.442	-38.672	-8.6422e+05	2442.6	-0.074274	-0.032501	1.0014
2.444	-38.665	-8.6422e+05	2442.5	-0.073883	-0.031818	1.0024
2.446	-38.632	-8.6421e+05	2442.4	-0.073493	-0.031134	1.0033
2.448	-38.663	-8.6421e+05	2442.3	-0.073102	-0.030451	1.0043
2.45	-38.717	-8.6421e+05	2442.3	-0.072712	-0.029768	1.0053
2.452	-38.793	-8.6422e+05	2442.2	-0.073005	-0.030256	1.0051
2.454	-38.827	-8.6422e+05	2442.1	-0.073298	-0.030744	1.0049
2.456	-38.752	-8.6422e+05	2442	-0.07359	-0.031232	1.0047
2.458	-38.704	-8.6422e+05	2442	-0.073883	-0.03172	1.0045
2.46	-38.678	-8.6422e+05	2441.9	-0.074176	-0.032208	1.0043
2.462	-38.637	-8.6421e+05	2441.9	-0.074859	-0.032013	1.0046
2.464	-38.658	-8.6421e+05	2441.9	-0.075542	-0.031818	1.0049
2.466	-38.706	-8.6421e+05	2441.9	-0.076226	-0.031622	1.0052
2.468	-38.747	-8.6421e+05	2441.8	-0.076909	-0.031427	1.0055
2.47	-38.793	-8.6421e+05	2441.8	-0.077592	-0.031232	1.0058
2.472	-38.778	-8.6421e+05	2441.8	-0.078275	-0.030451	1.0064
2.474	-38.716	-8.642e+05	2441.7	-0.078958	-0.02967	1.0069
2.476	-38.693	-8.6419e+05	2441.6	-0.079642	-0.02889	1.0075
2.478	-38.664	-8.6419e+05	2441.5	-0.080325	-0.028109	1.0081
2.48	-38.658	-8.6419e+05	2441.5	-0.081008	-0.027328	1.0087
2.482	-38.716	-8.642e+05	2441.5	-0.08091	-0.026645	1.0073
2.484	-38.752	-8.6421e+05	2441.4	-0.080813	-0.025962	1.006
2.486	-38.812	-8.642e+05	2441.4	-0.080715	-0.025278	1.0046
2.488	-38.854	-8.6419e+05	2441.5	-0.080618	-0.024595	1.0032
2.49	-38.796	-8.6419e+05	2441.5	-0.08052	-0.023912	1.0019
2.492	-38.773	-8.6419e+05	2441.5	-0.079739	-0.025181	1.0026
2.494	-38.741	-8.6419e+05	2441.5	-0.078958	-0.02645	1.0034
2.496	-38.686	-8.642e+05	2441.5	-0.078178	-0.027718	1.0042
2.498	-38.763	-8.642e+05	2441.5	-0.077397	-0.028987	1.005
2.5	-38.769	-8.642e+05	2441.5	-0.076616	-0.030256	1.0058
2.502	-38.78	-8.642e+05	2441.5	-0.077104	-0.030061	1.0056
2.504	-38.874	-8.642e+05	2441.6	-0.077592	-0.029866	1.0054
2.506	-38.883	-8.6419e+05	2441.6	-0.07808	-0.02967	1.0052
2.508	-38.783	-8.6418e+05	2441.7	-0.078568	-0.029475	1.005
2.51	-38.727	-8.6418e+05	2441.8	-0.079056	-0.02928	1.0048
2.512	-38.686	-8.6418e+05	2441.9	-0.078666	-0.029963	1.004
2.514	-38.704	-8.6419e+05	2442	-0.078275	-0.030646	1.0032
2.516	-38.754	-8.6419e+05	2442.1	-0.077885	-0.03133	1.0024
2.518	-38.807	-8.6419e+05	2442.2	-0.077494	-0.032013	1.0017
2.52	-38.888	-8.6419e+05	2442.3	-0.077104	-0.032696	1.0009
2.522	-38.893	-8.6418e+05	2442.4	-0.077202	-0.032501	1.001
2.524	-38.888	-8.6418e+05	2442.5	-0.077299	-0.032306	1.0011
2.526	-38.876	-8.6418e+05	2442.6	-0.077397	-0.03211	1.0012
2.528	-38.788	-8.6418e+05	2442.6	-0.077494	-0.031915	1.0013
2.53	-38.754	-8.6419e+05	2442.7	-0.077592	-0.03172	1.0014
2.532	-38.795	-8.6419e+05	2442.7	-0.077494	-0.031427	1.0022
2.534	-38.819	-8.6419e+05	2442.8	-0.077397	-0.031134	1.0029
2.536	-38.885	-8.6419e+05	2442.8	-0.077299	-0.030842	1.0037
2.538	-38.904	-8.6419e+05	2442.8	-0.077202	-0.030549	1.0045
2.54	-38.878	-8.6419e+05	2442.9	-0.077104	-0.030256	1.0053
2.542	-38.85	-8.6419e+05	2442.9	-0.077787	-0.030549	1.0044
2.544	-38.788	-8.6419e+05	2442.9	-0.07847	-0.030842	1.0035
2.546	-38.745	-8.6419e+05	2443	-0.079154	-0.031134	1.0026
2.548	-38.766	-8.6419e+05	2443	-0.079837	-0.031427	1.0018
2.55	-38.817	-8.6419e+05	2443	-0.08052	-0.03172	1.0009
2.552	-38.886	-8.6419e+05	2443.1	-0.079642	-0.031818	1.0014
2.554	-38.926	-8.6418e+05	2443.1	-0.078763	-0.031915	1.0019
2.556	-38.891	-8.6418e+05	2443.1	-0.077885	-0.032013	1.0024
2.558	-38.841	-8.6419e+05	2443.1	-0.077006	-0.03211	1.0028
2.56	-38.81	-8.6419e+05	2443.1	-0.076128	-0.032208	1.0033
2.562	-38.778	-8.6419e+05	2443.1	-0.076323	-0.032501	1.0029
2.564	-38.816	-8.6419e+05	2443.1	-0.076518	-0.032794	1.0025
2.566	-38.878	-8.6419e+05	2443	-0.076714	-0.033086	1.0022
2.568	-38.894	-8.6418e+05	2443	-0.076909	-0.033379	1.0018
2.57	-38.917	-8.6418e+05	2443	-0.077104	-0.033672	1.0014
2.572	-38.926	-8.6418e+05	2442.9	-0.076909	-0.033086	1.002
2.574	-38.89	-8.6419e+05	2442.8	-0.076714	-0.032501	1.0025
2.576	-38.845	-8.6419e+05	2442.8	-0.076518	-0.031915	1.0031
2.578	-38.787	-8.6419e+05	2442.7	-0.076323	-0.03133	1.0037
2.58	-38.79	-8.6418e+05	2442.7	-0.076128	-0.030744	1.0043
2.582	-38.868	-8.6419e+05	2442.5	-0.076128	-0.031232	1.0045
2.584	-38.899	-8.6419e+05	2442.4	-0.076128	-0.03172	1.0047
2.586	-38.928	-8.6419e+05	2442.2	-0.076128	-0.032208	1.0049
2.588	-38.942	-8.6419e+05	2442.1	-0.076128	-0.032696	1.0051
2.59	-38.892	-8.6419e+05	2441.9	-0.076128	-0.033184	1.0053
2.592	-38.951	-8.6419e+05	2441.8	-0.075933	-0.032794	1.0051
2.594	-38.906	-8.642e+05	2441.7	-0.075738	-0.032403	1.0049
2.596	-38.828	-8.642e+05	2441.6	-0.075542	-0.032013	1.0047
2.598	-38.887	-8.642e+05	2441.4	-0.075347	-0.031622	1.0045
2.6	-38.92	-8.6419e+05	2441.3	-0.075152	-0.031232	1.0043
2.602	-38.966	-8.6419e+05	2441.1	-0.076518	-0.030939	1.0038
2.604	-38.993	-8.6419e+05	2440.9	-0.077885	-0.030646	1.0033
2.606	-38.941	-8.6419e+05	2440.7	-0.079251	-0.030354	1.0028
2.608	-38.906	-8.642e+05	2440.5	-0.080618	-0.030061	1.0024
2.61	-38.888	-8.642e+05	2440.4	-0.081984	-0.029768	1.0019
2.612	-38.858	-8.642e+05	2440.3	-0.082472	-0.02889	1.0021
2.614	-38.903	-8.6419e+05	2440.2	-0.08296	-0.028011	1.0023
2.616	-38.98	-8.6419e+05	2440.1	-0.083448	-0.027133	1.0024
2.618	-39.029	-8.6419e+05	2440	-0.083936	-0.026254	1.0026
2.62	-39.067	-8.642e+05	2439.9	-0.084424	-0.025376	1.0028
2.622	-39.05	-8.642e+05	2439.8	-0.083936	-0.025669	1.0034
2.624	-38.991	-8.642e+05	2439.7	-0.083448	-0.025962	1.004
2.626	-38.95	-8.642e+05	2439.6	-0.08296	-0.026254	1.0046
2.628	-38.903	-8.6421e+05	2439.5	-0.082472	-0.026547	1.0052
2.63	-38.91	-8.642e+05	2439.4	-0.081984	-0.02684	1.0058
2.632	-38.973	-8.642e+05	2439.3	-0.081886	-0.026547	1.0052
2.634	-39.017	-8.642e+05	2439.1	-0.081789	-0.026254	1.0046
2.636	-39.044	-8.642e+05	2439	-0.081691	-0.025962	1.004
2.638	-39.055	-8.6421e+05	2439	-0.081594	-0.025669	1.0034
2.64	-39.046	-8.6421e+05	2438.9	-0.081496	-0.025376	1.0028
2.642	-39.025	-8.6421e+05	2438.8	-0.08052	-0.026645	1.0029
2.644	-38.956	-8.6421e+05	2438.6	-0.079544	-0.027914	1.003
2.646	-38.9	-8.6421e+05	2438.5	-0.078568	-0.029182	1.0031
2.648	-38.952	-8.6421e+05	2438.4	-0.077592	-0.030451	1.0032
2.65	-39.008	-8.6421e+05	2438.3	-0.076616	-0.03172	1.0033
2.652	-39.048	-8.6421e+05	2438.2	-0.076909	-0.030939	1.0032
2.654	-39.132	-8.6422e+05	2438.1	-0.077202	-0.030158	1.0031
2.656	-39.112	-8.6422e+05	2438.1	-0.077494	-0.029378	1.003
2.658	-39.037	-8.6423e+05	2438.1	-0.077787	-0.028597	1.0029
2.66	-38.987	-8.6423e+05	2438	-0.07808	-0.027816	1.0028
2.662	-38.926	-8.6423e+05	2438	-0.077494	-0.028402	1.0037
2.664	-38.993	-8.6423e+05	2437.9	-0.076909	-0.028987	1.0046
2.666	-39.073	-8.6424e+05	2437.9	-0.076323	-0.029573	1.0055
2.668	-39.085	-8.6424e+05	2437.8	-0.075738	-0.030158	1.0064
2.67	-39.16	-8.6424e+05	2437.7	-0.075152	-0.030744	1.0072
2.672	-39.176	-8.6423e+05	2437.6	-0.074274	-0.030549	1.0064
2.674	-39.142	-8.6424e+05	2437.5	-0.073395	-0.030354	1.0055
2.676	-39.077	-8.6424e+05	2437.4	-0.072517	-0.030158	1.0046
2.678	-38.992	-8.6425e+05	2437.3	-0.071638	-0.029963	1.0037
2.68	-38.932	-8.6425e+05	2437.3	-0.07076	-0.029768	1.0028
2.682	-38.995	-8.6425e+05	2437.2	-0.071443	-0.030158	1.0023
2.684	-39.086	-8.6425e+05	2437.1	-0.072126	-0.030549	1.0017
2.686	-39.201	-8.6426e+05	2437	-0.07281	-0.030939	1.0011
2.688	-39.2	-8.6426e+05	2436.8	-0.073493	-0.03133	1.0005
2.69	-39.122	-8.6426e+05	2436.7	-0.074176	-0.03172	0.99991
2.692	-39.039	-8.6426e+05	2436.6	-0.076226	-0.030256	0.99942
2.694	-39	-8.6426e+05	2436.5	-0.078275	-0.028792	0.99894
2.696	-38.998	-8.6427e+05	2436.5	-0.080325	-0.027328	0.99845
2.698	-39.039	-8.6427e+05	2436.4	-0.082374	-0.025864	0.99796
2.7	-39.086	-8.6427e+05	2436.4	-0.084424	-0.0244	0.99747
2.702	-39.136	-8.6427e+05	2436.4	-0.083058	-0.025864	0.99874
2.704	-39.17	-8.6426e+05	2436.4	-0.081691	-0.027328	1
2.706	-39.104	-8.6427e+05	2436.4	-0.080325	-0.028792	1.0013
2.708	-39.046	-8.6428e+05	2436.3	-0.078958	-0.030256	1.0025
2.71	-39.022	-8.6428e+05	2436.3	-0.077592	-0.03172	1.0038
2.712	-39.006	-8.6429e+05	2436.2	-0.078373	-0.030744	1.004
2.714	-39.027	-8.6429e+05	2436.2	-0.079154	-0.029768	1.0042
2.716	-39.066	-8.643e+05	2436.1	-0.079934	-0.028792	1.0044
2.718	-39.113	-8.643e+05	2436.1	-0.080715	-0.027816	1.0046
2.72	-39.157	-8.643e+05	2436.1	-0.081496	-0.02684	1.0048
2.722	-39.149	-8.643e+05	2436	-0.080715	-0.027718	1.0046
2.724	-39.107	-8.643e+05	2436	-0.079934	-0.028597	1.0044
2.726	-39.068	-8.6431e+05	2436	-0.079154	-0.029475	1.0042
2.728	-39.046	-8.6431e+05	2435.9	-0.078373	-0.030354	1.004
2.73	-39.076	-8.6432e+05	2435.8	-0.077592	-0.031232	1.0038
2.732	-39.133	-8.6433e+05	2435.8	-0.076909	-0.031427	1.0033
2.734	-39.152	-8.6433e+05	2435.8	-0.076226	-0.031622	1.0028
2.736	-39.159	-8.6433e+05	2435.8	-0.075542	-0.031818	1.0024
2.738	-39.181	-8.6433e+05	2435.8	-0.074859	-0.032013	1.0019
2.74	-39.121	-8.6433e+05	2435.7	-0.074176	-0.032208	1.0014
2.742	-39.087	-8.6433e+05	2435.6	-0.074859	-0.032013	1.002
2.744	-39.075	-8.6434e+05	2435.5	-0.075542	-0.031818	1.0025
2.746	-39.039	-8.6434e+05	2435.5	-0.076226	-0.031622	1.0031
2.748	-39.082	-8.6434e+05	2435.4	-0.076909	-0.031427	1.0037
2.75	-39.133	-8.6434e+05	2435.4	-0.077592	-0.031232	1.0043
2.752	-39.145	-8.6435e+05	2435.3	-0.076616	-0.031232	1.0043
2.754	-39.205	-8.6435e+05	2435.2	-0.07564	-0.031232	1.0043
2.756	-39.155	-8.6435e+05	2435.2	-0.074664	-0.031232	1.0043
2.758	-39.131	-8.6436e+05	2435.2	-0.073688	-0.031232	1.0043
2.76	-39.139	-8.6437e+05	2435.2	-0.072712	-0.031232	1.0043
2.762	-39.073	-8.6437e+05	2435.1	-0.0732	-0.031525	1.0037
2.764	-39.094	-8.6437e+05	2435	-0.073688	-0.031818	1.0031
2.766	-39.14	-8.6437e+05	2435	-0.074176	-0.03211	1.0025
2.768	-39.206	-8.6437e+05	2434.9	-0.074664	-0.032403	1.002
2.77	-39.326	-8.6438e+05	2434.9	-0.075152	-0.032696	1.0014
2.772	-39.324	-8.6439e+05	2434.8	-0.075542	-0.032501	1.0014
2.774	-39.339	-8.6439e+05	2434.7	-0.075933	-0.032306	1.0014
2.776	-39.372	-8.644e+05	2434.6	-0.076323	-0.03211	1.0014
2.778	-39.32	-8.644e+05	2434.4	-0.076714	-0.031915	1.0014
2.78	-39.326	-8.644e+05	2434.3	-0.077104	-0.03172	1.0014
2.782	-39.453	-8.6441e+05	2434.2	-0.077397	-0.031818	1.0011
2.784	-39.542	-8.6441e+05	2434.1	-0.07769	-0.031915	1.0008
2.786	-39.609	-8.6441e+05	2434.1	-0.077982	-0.032013	1.0005
2.788	-39.64	-8.6441e+05	2434	-0.078275	-0.03211	1.0002
2.79	-39.568	-8.6441e+05	2433.9	-0.078568	-0.032208	0.99991
2.792	-39.468	-8.6441e+05	2433.9	-0.07847	-0.032013	1.0004
2.794	-39.384	-8.6441e+05	2433.9	-0.078373	-0.031818	1.0009
2.796	-39.372	-8.6442e+05	2433.9	-0.078275	-0.031622	1.0014
2.798	-39.397	-8.6442e+05	2433.8	-0.078178	-0.031427	1.0019
2.8	-39.379	-8.6442e+05	2433.8	-0.07808	-0.031232	1.0024
2.802	-39.361	-8.6443e+05	2433.7	-0.077885	-0.030354	1.0027
2.804	-39.342	-8.6444e+05	2433.6	-0.07769	-0.029475	1.0031
2.806	-39.246	-8.6444e+05	2433.6	-0.077494	-0.028597	1.0035
2.808	-39.158	-8.6445e+05	2433.6	-0.077299	-0.027718	1.0039
2.81	-39.127	-8.6445e+05	2433.6	-0.077104	-0.02684	1.0043
2.812	-39.086	-8.6446e+05	2433.5	-0.07808	-0.027035	1.004
2.814	-39.077	-8.6445e+05	2433.4	-0.079056	-0.02723	1.0037
2.816	-39.081	-8.6445e+05	2433.4	-0.080032	-0.027426	1.0034
2.818	-39.087	-8.6446e+05	2433.4	-0.081008	-0.027621	1.0031
2.82	-39.139	-8.6447e+05	2433.3	-0.081984	-0.027816	1.0028
2.822	-39.137	-8.6447e+05	2433.2	-0.081301	-0.028694	1.0026
2.824	-39.137	-8.6447e+05	2433.2	-0.080618	-0.029573	1.0024
2.826	-39.169	-8.6448e+05	2433.1	-0.079934	-0.030451	1.0023
2.828	-39.149	-8.6449e+05	2433	-0.079251	-0.03133	1.0021
2.83	-39.133	-8.6448e+05	2432.9	-0.078568	-0.032208	1.0019
2.832	-39.185	-8.6448e+05	2432.9	-0.079154	-0.031134	1.0026
2.834	-39.212	-8.6449e+05	2432.9	-0.079739	-0.030061	1.0034
2.836	-39.253	-8.645e+05	2432.9	-0.080325	-0.028987	1.0042
2.838	-39.286	-8.645e+05	2432.9	-0.08091	-0.027914	1.005
2.84	-39.216	-8.6451e+05	2432.8	-0.081496	-0.02684	1.0058
2.842	-39.207	-8.6451e+05	2432.8	-0.081203	-0.026938	1.0058
2.844	-39.185	-8.6451e+05	2432.8	-0.08091	-0.027035	1.0058
2.846	-39.161	-8.6451e+05	2432.7	-0.080618	-0.027133	1.0058
2.848	-39.222	-8.6451e+05	2432.7	-0.080325	-0.02723	1.0058
2.85	-39.277	-8.6452e+05	2432.6	-0.080032	-0.027328	1.0058
2.852	-39.295	-8.6453e+05	2432.5	-0.079251	-0.027523	1.0064
2.854	-39.332	-8.6453e+05	2432.4	-0.07847	-0.027718	1.0069
2.856	-39.28	-8.6454e+05	2432.3	-0.07769	-0.027914	1.0075
2.858	-39.232	-8.6454e+05	2432.2	-0.076909	-0.028109	1.0081
2.86	-39.205	-8.6454e+05	2432.1	-0.076128	-0.028304	1.0087
2.862	-39.172	-8.6455e+05	2432	-0.075542	-0.028597	1.0082
2.864	-39.211	-8.6455e+05	2431.9	-0.074957	-0.02889	1.0077
2.866	-39.258	-8.6456e+05	2431.7	-0.074371	-0.029182	1.0072
2.868	-39.308	-8.6456e+05	2431.6	-0.073786	-0.029475	1.0067
2.87	-39.371	-8.6457e+05	2431.4	-0.0732	-0.029768	1.0063
2.872	-39.363	-8.6457e+05	2431.4	-0.074371	-0.029182	1.006
2.874	-39.323	-8.6457e+05	2431.3	-0.075542	-0.028597	1.0057
2.876	-39.287	-8.6457e+05	2431.2	-0.076714	-0.028011	1.0054
2.878	-39.216	-8.6458e+05	2431.2	-0.077885	-0.027426	1.0051
2.88	-39.204	-8.6458e+05	2431.1	-0.079056	-0.02684	1.0048
2.882	-39.249	-8.6458e+05	2431	-0.078568	-0.027328	1.005
2.884	-39.313	-8.6458e+05	2430.9	-0.07808	-0.027816	1.0052
2.886	-39.399	-8.6459e+05	2430.8	-0.077592	-0.028304	1.0054
2.888	-39.431	-8.646e+05	2430.7	-0.077104	-0.028792	1.0056
2.89	-39.38	-8.646e+05	2430.5	-0.076616	-0.02928	1.0058
2.892	-39.341	-8.646e+05	2430.4	-0.075933	-0.029768	1.0056
2.894	-39.31	-8.6461e+05	2430.3	-0.07525	-0.030256	1.0054
2.896	-39.28	-8.6461e+05	2430.2	-0.074566	-0.030744	1.0052
2.898	-39.312	-8.6461e+05	2430.1	-0.073883	-0.031232	1.005
2.9	-39.344	-8.6461e+05	2430	-0.0732	-0.03172	1.0048
2.902	-39.363	-8.6462e+05	2429.8	-0.074762	-0.03172	1.0039
2.904	-39.385	-8.6463e+05	2429.6	-0.076323	-0.03172	1.003
2.906	-39.352	-8.6463e+05	2429.5	-0.077885	-0.03172	1.0022
2.908	-39.322	-8.6463e+05	2429.3	-0.079446	-0.03172	1.0013
2.91	-39.318	-8.6464e+05	2429.1	-0.081008	-0.03172	1.0004
2.912	-39.313	-8.6464e+05	2429	-0.079837	-0.03172	1.0011
2.914	-39.363	-8.6464e+05	2428.9	-0.078666	-0.03172	1.0018
2.916	-39.385	-8.6464e+05	2428.9	-0.077494	-0.03172	1.0024
2.918	-39.427	-8.6465e+05	2428.9	-0.076323	-0.03172	1.0031
2.92	-39.493	-8.6466e+05	2428.9	-0.075152	-0.03172	1.0038
2.922	-39.476	-8.6466e+05	2429.3	-0.076323	-0.031037	1.0043
2.924	-39.416	-8.6467e+05	2429.7	-0.077494	-0.030354	1.0048
2.926	-39.367	-8.6467e+05	2430.4	-0.078666	-0.02967	1.0053
2.928	-39.307	-8.6468e+05	2431.5	-0.079837	-0.028987	1.0058
2.93	-39.277	-8.6469e+05	2432.5	-0.081008	-0.028304	1.0063
2.932	-39.315	-8.647e+05	2434.3	-0.080422	-0.028206	1.0065
2.934	-39.414	-8.647e+05	2436.1	-0.079837	-0.028109	1.0066
2.936	-39.483	-8.6469e+05	2438.1	-0.079251	-0.028011	1.0068
2.938	-39.516	-8.647e+05	2440.1	-0.078666	-0.027914	1.007
2.94	-39.449	-8.6472e+05	2442.2	-0.07808	-0.027816	1.0072
2.942	-39.414	-8.6472e+05	2444.1	-0.078763	-0.027328	1.0067
2.944	-39.392	-8.6473e+05	2446.1	-0.079446	-0.02684	1.0063
2.946	-39.372	-8.6473e+05	2447.9	-0.08013	-0.026352	1.0058
2.948	-39.437	-8.6474e+05	2449.6	-0.080813	-0.025864	1.0053
2.95	-39.496	-8.6473e+05	2451.2	-0.081496	-0.025376	1.0048
2.952	-39.554	-8.6472e+05	2452.6	-0.081301	-0.025962	1.0049
2.954	-39.595	-8.6473e+05	2453.9	-0.081106	-0.026547	1.005
2.956	-39.543	-8.6474e+05	2455.2	-0.08091	-0.027133	1.0051
2.958	-39.484	-8.6474e+05	2456.3	-0.080715	-0.027718	1.0052
2.96	-39.449	-8.6474e+05	2457.4	-0.08052	-0.028304	1.0053
2.962	-39.425	-8.6474e+05	2458.4	-0.080032	-0.028206	1.0053
2.964	-39.449	-8.6474e+05	2459.3	-0.079544	-0.028109	1.0053
2.966	-39.491	-8.6474e+05	2460.2	-0.079056	-0.028011	1.0053
2.968	-39.554	-8.6475e+05	2461	-0.078568	-0.027914	1.0053
2.97	-39.612	-8.6475e+05	2461.8	-0.07808	-0.027816	1.0053
2.972	-39.607	-8.6474e+05	2462.4	-0.077202	-0.028792	1.0046
2.974	-39.586	-8.6474e+05	2463	-0.076323	-0.029768	1.0039
2.976	-39.55	-8.6474e+05	2463.6	-0.075445	-0.030744	1.0032
2.978	-39.491	-8.6473e+05	2464.1	-0.074566	-0.03172	1.0025
2.98	-39.494	-8.6472e+05	2464.5	-0.073688	-0.032696	1.0019
2.982	-39.536	-8.6472e+05	2464.9	-0.074859	-0.032306	1.0023
2.984	-39.564	-8.6472e+05	2465.2	-0.07603	-0.031915	1.0026
2.986	-39.626	-8.6472e+05	2465.5	-0.077202	-0.031525	1.003
2.988	-39.67	-8.6471e+05	2465.8	-0.078373	-0.031134	1.0034
2.99	-39.622	-8.647e+05	2466.1	-0.079544	-0.030744	1.0038
2.992	-39.588	-8.647e+05	2466.3	-0.078178	-0.030549	1.0046
2.994	-39.57	-8.647e+05	2466.6	-0.076811	-0.030354	1.0054
2.996	-39.574	-8.647e+05	2466.7	-0.075445	-0.030158	1.0062
2.998	-39.652	-8.6468e+05	2466.8	-0.074078	-0.029963	1.0069
3	-39.697	-8.6467e+05	2467	-0.072712	-0.029768	1.0077
3.002	-39.666	-8.6466e+05	2467.1	-0.072907	-0.030158	1.0065
3.004	-39.677	-8.6466e+05	2467.2	-0.073102	-0.030549	1.0054
3.006	-39.658	-8.6466e+05	2467.2	-0.073298	-0.030939	1.0042
3.008	-39.607	-8.6466e+05	2467.3	-0.073493	-0.03133	1.003
3.01	-39.563	-8.6464e+05	2467.4	-0.073688	-0.03172	1.0019
3.012	-39.5	-8.6463e+05	2467.4	-0.074762	-0.031037	1.002
3.014	-39.515	-8.6462e+05	2467.5	-0.075835	-0.030354	1.0021
3.016	-39.602	-8.6461e+05	2467.6	-0.076909	-0.02967	1.0022
3.018	-39.657	-8.6461e+05	2467.6	-0.077982	-0.028987	1.0023
3.02	-39.761	-8.6461e+05	2467.6	-0.079056	-0.028304	1.0024
3.022	-39.751	-8.6459e+05	2467.7	-0.078763	-0.027914	1.0031
3.024	-39.659	-8.6458e+05	2467.8	-0.07847	-0.027523	1.0039
3.026	-39.591	-8.6457e+05	2467.8	-0.078178	-0.027133	1.0047
3.028	-39.509	-8.6456e+05	2467.8	-0.077885	-0.026742	1.0055
3.03	-39.52	-8.6455e+05	2467.8	-0.077592	-0.026352	1.0063
3.032	-39.598	-8.6455e+05	2467.8	-0.077202	-0.027133	1.0061
3.034	-39.642	-8.6454e+05	2467.8	-0.076811	-0.027914	1.0059
3.036	-39.71	-8.6453e+05	2467.7	-0.076421	-0.028694	1.0057
3.038	-39.697	-8.6452e+05	2467.7	-0.07603	-0.029475	1.0055
3.04	-39.636	-8.6451e+05	2467.7	-0.07564	-0.030256	1.0053
3.042	-39.601	-8.6451e+05	2467.6	-0.076128	-0.030744	1.0044
3.044	-39.53	-8.645e+05	2467.5	-0.076616	-0.031232	1.0035
3.046	-39.49	-8.6448e+05	2467.4	-0.077104	-0.03172	1.0026
3.048	-39.546	-8.6446e+05	2467.3	-0.077592	-0.032208	1.0018
3.05	-39.638	-8.6445e+05	2467.1	-0.07808	-0.032696	1.0009
3.052	-39.677	-8.6444e+05	2467	-0.078666	-0.031427	1.001
3.054	-39.688	-8.6443e+05	2466.9	-0.079251	-0.030158	1.0011
3.056	-39.675	-8.6442e+05	2466.8	-0.079837	-0.02889	1.0012
3.058	-39.645	-8.6442e+05	2466.8	-0.080422	-0.027621	1.0013
3.06	-39.578	-8.6442e+05	2466.8	-0.081008	-0.026352	1.0014
3.062	-39.511	-8.644e+05	2466.8	-0.081496	-0.026645	1.0021
3.064	-39.53	-8.6439e+05	2466.8	-0.081984	-0.026938	1.0027
3.066	-39.596	-8.6439e+05	2466.8	-0.082472	-0.02723	1.0034
3.068	-39.649	-8.6438e+05	2466.8	-0.08296	-0.027523	1.0041
3.07	-39.685	-8.6438e+05	2466.9	-0.083448	-0.027816	1.0048
3.072	-39.683	-8.6437e+05	2466.9	-0.082667	-0.027621	1.0052
3.074	-39.623	-8.6436e+05	2466.9	-0.081886	-0.027426	1.0056
3.076	-39.551	-8.6434e+05	2466.9	-0.081106	-0.02723	1.006
3.078	-39.511	-8.6434e+05	2466.9	-0.080325	-0.027035	1.0064
3.08	-39.549	-8.6434e+05	2466.9	-0.079544	-0.02684	1.0067
3.082	-39.637	-8.6433e+05	2466.9	-0.079934	-0.026547	1.0072
3.084	-39.688	-8.6432e+05	2466.9	-0.080325	-0.026254	1.0077
3.086	-39.703	-8.6431e+05	2466.8	-0.080715	-0.025962	1.0082
3.088	-39.715	-8.643e+05	2466.8	-0.081106	-0.025669	1.0087
3.09	-39.635	-8.6429e+05	2466.7	-0.081496	-0.025376	1.0092
3.092	-39.56	-8.6429e+05	2466.6	-0.080422	-0.026938	1.0075
3.094	-39.558	-8.6428e+05	2466.6	-0.079349	-0.028499	1.0059
3.096	-39.607	-8.6428e+05	2466.5	-0.078275	-0.030061	1.0042
3.098	-39.661	-8.6427e+05	2466.5	-0.077202	-0.031622	1.0025
3.1	-39.678	-8.6426e+05	2466.4	-0.076128	-0.033184	1.0009
3.102	-39.721	-8.6426e+05	2466.4	-0.076128	-0.032891	1.001
3.104	-39.76	-8.6426e+05	2466.3	-0.076128	-0.032598	1.0011
3.106	-39.702	-8.6425e+05	2466.3	-0.076128	-0.032306	1.0012
3.108	-39.679	-8.6424e+05	2466.2	-0.076128	-0.032013	1.0013
3.11	-39.669	-8.6423e+05	2466.2	-0.076128	-0.03172	1.0014
3.112	-39.586	-8.6421e+05	2466.2	-0.076909	-0.031037	1.0018
3.114	-39.593	-8.6421e+05	2466.2	-0.07769	-0.030354	1.0022
3.116	-39.637	-8.6421e+05	2466.2	-0.07847	-0.02967	1.0025
3.118	-39.674	-8.642e+05	2466.2	-0.079251	-0.028987	1.0029
3.12	-39.747	-8.642e+05	2466.2	-0.080032	-0.028304	1.0033
3.122	-39.737	-8.6419e+05	2466.1	-0.079446	-0.02928	1.0026
3.124	-39.7	-8.6417e+05	2466.1	-0.078861	-0.030256	1.002
3.126	-39.647	-8.6417e+05	2465.9	-0.078275	-0.031232	1.0013
3.128	-39.599	-8.6417e+05	2465.8	-0.07769	-0.032208	1.0006
3.13	-39.632	-8.6417e+05	2465.6	-0.077104	-0.033184	0.99991
3.132	-39.687	-8.6416e+05	2465.5	-0.077104	-0.032598	1.0014
3.134	-39.697	-8.6416e+05	2465.4	-0.077104	-0.032013	1.0028
3.136	-39.758	-8.6416e+05	2465.2	-0.077104	-0.031427	1.0043
3.138	-39.796	-8.6415e+05	2465	-0.077104	-0.030842	1.0058
3.14	-39.768	-8.6415e+05	2464.8	-0.077104	-0.030256	1.0072
3.142	-39.719	-8.6415e+05	2464.7	-0.07847	-0.029475	1.0056
3.144	-39.664	-8.6415e+05	2464.6	-0.079837	-0.028694	1.0039
3.146	-39.631	-8.6413e+05	2464.5	-0.081203	-0.027914	1.0023
3.148	-39.638	-8.6412e+05	2464.4	-0.08257	-0.027133	1.0006
3.15	-39.665	-8.6412e+05	2464.4	-0.083936	-0.026352	0.99894
3.152	-39.714	-8.6411e+05	2464.3	-0.08335	-0.025962	0.99933
3.154	-39.757	-8.6411e+05	2464.1	-0.082765	-0.025571	0.99972
3.156	-39.755	-8.6411e+05	2464	-0.082179	-0.025181	1.0001
3.158	-39.763	-8.6411e+05	2463.9	-0.081594	-0.02479	1.0005
3.16	-39.773	-8.641e+05	2463.7	-0.081008	-0.0244	1.0009
3.162	-39.721	-8.641e+05	2463.5	-0.081301	-0.025376	1.0022
3.164	-39.721	-8.6409e+05	2463.4	-0.081594	-0.026352	1.0034
3.166	-39.746	-8.6409e+05	2463.2	-0.081886	-0.027328	1.0047
3.168	-39.763	-8.6408e+05	2462.9	-0.082179	-0.028304	1.006
3.17	-39.819	-8.6408e+05	2462.7	-0.082472	-0.02928	1.0072
3.172	-39.819	-8.6407e+05	2462.5	-0.082374	-0.028597	1.0072
3.174	-39.75	-8.6407e+05	2462.2	-0.082277	-0.027914	1.0072
3.176	-39.731	-8.6407e+05	2461.9	-0.082179	-0.02723	1.0072
3.178	-39.688	-8.6407e+05	2461.5	-0.082082	-0.026547	1.0072
3.18	-39.701	-8.6407e+05	2461.2	-0.081984	-0.025864	1.0072
3.182	-39.793	-8.6406e+05	2460.8	-0.082667	-0.026059	1.0058
3.184	-39.804	-8.6405e+05	2460.4	-0.08335	-0.026254	1.0043
3.186	-39.85	-8.6404e+05	2460	-0.084034	-0.02645	1.0028
3.188	-39.856	-8.6403e+05	2459.7	-0.084717	-0.026645	1.0014
3.19	-39.78	-8.6404e+05	2459.4	-0.0854	-0.02684	0.99991
3.192	-39.781	-8.6404e+05	2459.2	-0.083936	-0.028109	0.99952
3.194	-39.753	-8.6404e+05	2458.9	-0.082472	-0.029378	0.99913
3.196	-39.723	-8.6404e+05	2458.7	-0.081008	-0.030646	0.99874
3.198	-39.807	-8.6403e+05	2458.4	-0.079544	-0.031915	0.99835
3.2	-39.817	-8.6402e+05	2458.2	-0.07808	-0.033184	0.99796
3.202	-39.867	-8.6402e+05	2458	-0.077494	-0.033282	0.99874
3.204	-39.927	-8.6402e+05	2457.8	-0.076909	-0.033379	0.99952
3.206	-39.856	-8.6402e+05	2457.6	-0.076323	-0.033477	1.0003
3.208	-39.789	-8.6402e+05	2457.4	-0.075738	-0.033574	1.0011
3.21	-39.744	-8.6402e+05	2457.2	-0.075152	-0.033672	1.0019
3.212	-39.717	-8.6402e+05	2457	-0.076323	-0.032794	1.0017
3.214	-39.744	-8.6402e+05	2456.8	-0.077494	-0.031915	1.0015
3.216	-39.794	-8.6402e+05	2456.6	-0.078666	-0.031037	1.0013
3.218	-39.864	-8.6402e+05	2456.4	-0.079837	-0.030158	1.0011
3.22	-39.931	-8.6402e+05	2456.2	-0.081008	-0.02928	1.0009
3.222	-39.909	-8.6402e+05	2456	-0.08052	-0.029378	1.0023
3.224	-39.836	-8.6402e+05	2455.7	-0.080032	-0.029475	1.0036
3.226	-39.774	-8.6402e+05	2455.5	-0.079544	-0.029573	1.005
3.228	-39.747	-8.6402e+05	2455.2	-0.079056	-0.02967	1.0064
3.23	-39.756	-8.6402e+05	2455	-0.078568	-0.029768	1.0077
3.232	-39.765	-8.6402e+05	2454.8	-0.078568	-0.028987	1.007
3.234	-39.807	-8.6402e+05	2454.6	-0.078568	-0.028206	1.0064
3.236	-39.903	-8.6402e+05	2454.5	-0.078568	-0.027426	1.0057
3.238	-39.951	-8.6402e+05	2454.3	-0.078568	-0.026645	1.005
3.24	-39.921	-8.6402e+05	2454.1	-0.078568	-0.025864	1.0043
3.242	-39.877	-8.6402e+05	2454.1	-0.078568	-0.026547	1.0045
3.244	-39.826	-8.6401e+05	2454	-0.078568	-0.02723	1.0047
3.246	-39.787	-8.6401e+05	2453.9	-0.078568	-0.027914	1.0049
3.248	-39.833	-8.6401e+05	2453.9	-0.078568	-0.028597	1.0051
3.25	-39.861	-8.6401e+05	2453.8	-0.078568	-0.02928	1.0053
3.252	-39.882	-8.6401e+05	2453.9	-0.078568	-0.029182	1.0056
3.254	-39.917	-8.6401e+05	2453.9	-0.078568	-0.029085	1.0059
3.256	-39.877	-8.6401e+05	2453.9	-0.078568	-0.028987	1.0062
3.258	-39.838	-8.6401e+05	2454	-0.078568	-0.02889	1.0065
3.26	-39.839	-8.6401e+05	2454.1	-0.078568	-0.028792	1.0067
3.262	-39.826	-8.6401e+05	2454.1	-0.078275	-0.028694	1.0065
3.264	-39.844	-8.6401e+05	2454.1	-0.077982	-0.028597	1.0064
3.266	-39.906	-8.6401e+05	2454.1	-0.07769	-0.028499	1.0062
3.268	-39.948	-8.6402e+05	2454.1	-0.077397	-0.028402	1.006
3.27	-39.992	-8.6402e+05	2454.2	-0.077104	-0.028304	1.0058
3.272	-39.994	-8.6402e+05	2454.2	-0.07808	-0.027718	1.0057
3.274	-39.918	-8.6402e+05	2454.2	-0.079056	-0.027133	1.0056
3.276	-39.855	-8.6401e+05	2454.2	-0.080032	-0.026547	1.0055
3.278	-39.789	-8.6401e+05	2454.2	-0.081008	-0.025962	1.0054
3.28	-39.848	-8.6401e+05	2454.3	-0.081984	-0.025376	1.0053
3.282	-39.885	-8.6401e+05	2454.3	-0.081008	-0.026547	1.0052
3.284	-39.871	-8.6401e+05	2454.4	-0.080032	-0.027718	1.0051
3.286	-39.953	-8.6401e+05	2454.4	-0.079056	-0.02889	1.005
3.288	-40.007	-8.6401e+05	2454.4	-0.07808	-0.030061	1.0049
3.29	-39.952	-8.6401e+05	2454.4	-0.077104	-0.031232	1.0048
3.292	-39.95	-8.6401e+05	2454.5	-0.076811	-0.031915	1.0043
3.294	-39.939	-8.6401e+05	2454.5	-0.076518	-0.032598	1.0038
3.296	-39.894	-8.6401e+05	2454.5	-0.076226	-0.033282	1.0033
3.298	-39.896	-8.6401e+05	2454.5	-0.075933	-0.033965	1.0028
3.3	-39.943	-8.6401e+05	2454.5	-0.07564	-0.034648	1.0024
3.302	-40.002	-8.6401e+05	2454.5	-0.076616	-0.033184	1.0029
3.304	-40.029	-8.6401e+05	2454.4	-0.077592	-0.03172	1.0035
3.306	-39.983	-8.6401e+05	2454.4	-0.078568	-0.030256	1.0041
3.308	-39.942	-8.6401e+05	2454.3	-0.079544	-0.028792	1.0047
3.31	-39.904	-8.6402e+05	2454.3	-0.08052	-0.027328	1.0053
3.312	-39.86	-8.6402e+05	2454.2	-0.080618	-0.027523	1.0054
3.314	-39.857	-8.6402e+05	2454	-0.080715	-0.027718	1.0055
3.316	-39.877	-8.6402e+05	2453.9	-0.080813	-0.027914	1.0056
3.318	-39.917	-8.6402e+05	2453.7	-0.08091	-0.028109	1.0057
3.32	-39.991	-8.6402e+05	2453.6	-0.081008	-0.028304	1.0058
3.322	-40.01	-8.6402e+05	2453.5	-0.080813	-0.028206	1.0056
3.324	-39.95	-8.6402e+05	2453.3	-0.080618	-0.028109	1.0054
3.326	-39.887	-8.6402e+05	2453.2	-0.080422	-0.028011	1.0052
3.328	-39.844	-8.6402e+05	2453.1	-0.080227	-0.027914	1.005
3.33	-39.874	-8.6402e+05	2453	-0.080032	-0.027816	1.0048
3.332	-39.94	-8.6402e+05	2452.9	-0.080227	-0.027718	1.0056
3.334	-39.989	-8.6402e+05	2452.8	-0.080422	-0.027621	1.0064
3.336	-40.061	-8.6403e+05	2452.7	-0.080618	-0.027523	1.0071
3.338	-40.108	-8.6403e+05	2452.6	-0.080813	-0.027426	1.0079
3.34	-40.091	-8.6403e+05	2452.5	-0.081008	-0.027328	1.0087
3.342	-40.032	-8.6403e+05	2452.4	-0.080813	-0.02684	1.0071
3.344	-39.965	-8.6403e+05	2452.3	-0.080618	-0.026352	1.0056
3.346	-39.909	-8.6403e+05	2452.2	-0.080422	-0.025864	1.004
3.348	-39.905	-8.6403e+05	2452.1	-0.080227	-0.025376	1.0024
3.35	-39.97	-8.6402e+05	2452	-0.080032	-0.024888	1.0009
3.352	-40.038	-8.6402e+05	2451.9	-0.081106	-0.024107	1.0006
3.354	-40.091	-8.6402e+05	2451.8	-0.082179	-0.023326	1.0003
3.356	-40.05	-8.6403e+05	2451.7	-0.083253	-0.022546	1
3.358	-39.982	-8.6403e+05	2451.5	-0.084326	-0.021765	0.99972
3.36	-39.924	-8.6403e+05	2451.3	-0.0854	-0.020984	0.99942
3.362	-39.867	-8.6403e+05	2451.2	-0.084814	-0.020886	0.99952
3.364	-39.94	-8.6402e+05	2451.1	-0.084229	-0.020789	0.99962
3.366	-40.038	-8.6403e+05	2450.9	-0.083643	-0.020691	0.99972
3.368	-40.067	-8.6404e+05	2450.7	-0.083058	-0.020594	0.99981
3.37	-40.102	-8.6404e+05	2450.5	-0.082472	-0.020496	0.99991
3.372	-40.1	-8.6404e+05	2450.4	-0.08296	-0.021472	1.0008
3.374	-40.049	-8.6404e+05	2450.2	-0.083448	-0.022448	1.0017
3.376	-40.037	-8.6404e+05	2450	-0.083936	-0.023424	1.0025
3.378	-39.994	-8.6404e+05	2449.8	-0.084424	-0.0244	1.0034
3.38	-39.995	-8.6404e+05	2449.6	-0.084912	-0.025376	1.0043
3.382	-40.044	-8.6404e+05	2449.4	-0.084034	-0.025474	1.0044
3.384	-40.089	-8.6404e+05	2449.2	-0.083155	-0.025571	1.0045
3.386	-40.136	-8.6405e+05	2449.1	-0.082277	-0.025669	1.0046
3.388	-40.14	-8.6405e+05	2449	-0.081398	-0.025766	1.0047
3.39	-40.123	-8.6405e+05	2448.9	-0.08052	-0.025864	1.0048
3.392	-40.094	-8.6405e+05	2448.8	-0.079934	-0.027035	1.0044
3.394	-40.006	-8.6406e+05	2448.6	-0.079349	-0.028206	1.004
3.396	-39.928	-8.6406e+05	2448.5	-0.078763	-0.029378	1.0036
3.398	-39.954	-8.6406e+05	2448.3	-0.078178	-0.030549	1.0032
3.4	-40.028	-8.6405e+05	2448.2	-0.077592	-0.03172	1.0028
3.402	-40.127	-8.6406e+05	2448	-0.078275	-0.030061	1.0027
3.404	-40.184	-8.6406e+05	2447.9	-0.078958	-0.028402	1.0026
3.406	-40.131	-8.6406e+05	2447.7	-0.079642	-0.026742	1.0025
3.408	-40.056	-8.6406e+05	2447.5	-0.080325	-0.025083	1.0024
3.41	-39.994	-8.6407e+05	2447.3	-0.081008	-0.023424	1.0024
3.412	-39.934	-8.6407e+05	2447.1	-0.080032	-0.024986	1.0027
3.414	-39.948	-8.6407e+05	2446.8	-0.079056	-0.026547	1.0031
3.416	-40.06	-8.6407e+05	2446.6	-0.07808	-0.028109	1.0035
3.418	-40.16	-8.6407e+05	2446.4	-0.077104	-0.02967	1.0039
3.42	-40.19	-8.6407e+05	2446.2	-0.076128	-0.031232	1.0043
3.422	-40.13	-8.6408e+05	2446.1	-0.077006	-0.029866	1.0039
3.424	-40.036	-8.6408e+05	2445.9	-0.077885	-0.028499	1.0035
3.426	-40.02	-8.6409e+05	2445.8	-0.078763	-0.027133	1.0031
3.428	-40.01	-8.6409e+05	2445.6	-0.079642	-0.025766	1.0027
3.43	-39.994	-8.6409e+05	2445.4	-0.08052	-0.0244	1.0024
3.432	-40.039	-8.6408e+05	2445.2	-0.080813	-0.025083	1.0033
3.434	-40.095	-8.6409e+05	2445	-0.081106	-0.025766	1.0043
3.436	-40.128	-8.6409e+05	2444.9	-0.081398	-0.02645	1.0053
3.438	-40.15	-8.641e+05	2444.7	-0.081691	-0.027133	1.0063
3.44	-40.142	-8.6411e+05	2444.6	-0.081984	-0.027816	1.0072
3.442	-40.112	-8.6411e+05	2444.4	-0.081496	-0.027328	1.007
3.444	-40.091	-8.6411e+05	2444.3	-0.081008	-0.02684	1.0068
3.446	-40.008	-8.6411e+05	2444.1	-0.08052	-0.026352	1.0066
3.448	-40.063	-8.6412e+05	2444	-0.080032	-0.025864	1.0065
3.45	-40.097	-8.6412e+05	2443.9	-0.079544	-0.025376	1.0063
3.452	-40.113	-8.6412e+05	2443.7	-0.079739	-0.025474	1.0059
3.454	-40.146	-8.6412e+05	2443.5	-0.079934	-0.025571	1.0055
3.456	-40.151	-8.6412e+05	2443.3	-0.08013	-0.025669	1.0051
3.458	-40.128	-8.6412e+05	2443	-0.080325	-0.025766	1.0047
3.46	-40.071	-8.6412e+05	2442.8	-0.08052	-0.025864	1.0043
3.462	-40.043	-8.6412e+05	2442.6	-0.080422	-0.025669	1.0047
3.464	-40.081	-8.6413e+05	2442.3	-0.080325	-0.025474	1.0051
3.466	-40.123	-8.6414e+05	2442.1	-0.080227	-0.025278	1.0055
3.468	-40.167	-8.6414e+05	2441.9	-0.08013	-0.025083	1.0059
3.47	-40.208	-8.6414e+05	2441.8	-0.080032	-0.024888	1.0063
3.472	-40.206	-8.6414e+05	2441.6	-0.080422	-0.025181	1.0057
3.474	-40.188	-8.6415e+05	2441.5	-0.080813	-0.025474	1.0051
3.476	-40.183	-8.6415e+05	2441.3	-0.081203	-0.025766	1.0045
3.478	-40.149	-8.6415e+05	2441.2	-0.081594	-0.026059	1.0039
3.48	-40.177	-8.6414e+05	2441	-0.081984	-0.026352	1.0033
3.482	-40.258	-8.6415e+05	2440.9	-0.082374	-0.025571	1.0027
3.484	-40.325	-8.6416e+05	2440.7	-0.082765	-0.02479	1.0022
3.486	-40.412	-8.6416e+05	2440.6	-0.083155	-0.02401	1.0016
3.488	-40.473	-8.6416e+05	2440.4	-0.083546	-0.023229	1.001
3.49	-40.464	-8.6416e+05	2440.2	-0.083936	-0.022448	1.0004
3.492	-40.461	-8.6417e+05	2440.1	-0.083838	-0.023619	1.0011
3.494	-40.454	-8.6417e+05	2439.9	-0.083741	-0.02479	1.0018
3.496	-40.443	-8.6417e+05	2439.8	-0.083643	-0.025962	1.0024
3.498	-40.483	-8.6418e+05	2439.6	-0.083546	-0.027133	1.0031
3.5	-40.482	-8.6419e+05	2439.5	-0.083448	-0.028304	1.0038
3.502	-40.469	-8.6419e+05	2439.3	-0.082374	-0.028597	1.0042
3.504	-40.473	-8.6419e+05	2439.1	-0.081301	-0.02889	1.0046
3.506	-40.383	-8.642e+05	2439	-0.080227	-0.029182	1.005
3.508	-40.307	-8.642e+05	2438.9	-0.079154	-0.029475	1.0054
3.51	-40.276	-8.642e+05	2438.8	-0.07808	-0.029768	1.0058
3.512	-40.214	-8.642e+05	2438.6	-0.077494	-0.030061	1.0054
3.514	-40.136	-8.6421e+05	2438.4	-0.076909	-0.030354	1.005
3.516	-40.131	-8.6421e+05	2438.3	-0.076323	-0.030646	1.0046
3.518	-40.15	-8.6422e+05	2438.1	-0.075738	-0.030939	1.0042
3.52	-40.243	-8.6422e+05	2438	-0.075152	-0.031232	1.0038
3.522	-40.256	-8.6422e+05	2437.9	-0.076128	-0.031037	1.004
3.524	-40.168	-8.6423e+05	2437.8	-0.077104	-0.030842	1.0042
3.526	-40.111	-8.6423e+05	2437.7	-0.07808	-0.030646	1.0044
3.528	-40.037	-8.6423e+05	2437.7	-0.079056	-0.030451	1.0046
3.53	-40.019	-8.6424e+05	2437.7	-0.080032	-0.030256	1.0048
3.532	-40.121	-8.6425e+05	2437.6	-0.079934	-0.029963	1.0045
3.534	-40.112	-8.6425e+05	2437.6	-0.079837	-0.02967	1.0042
3.536	-40.173	-8.6425e+05	2437.5	-0.079739	-0.029378	1.0039
3.538	-40.273	-8.6425e+05	2437.4	-0.079642	-0.029085	1.0036
3.54	-40.27	-8.6425e+05	2437.3	-0.079544	-0.028792	1.0033
3.542	-40.212	-8.6426e+05	2437.3	-0.079349	-0.028206	1.003
3.544	-40.129	-8.6427e+05	2437.2	-0.079154	-0.027621	1.0027
3.546	-40.086	-8.6427e+05	2437.1	-0.078958	-0.027035	1.0024
3.548	-40.164	-8.6427e+05	2437	-0.078763	-0.02645	1.0022
3.55	-40.222	-8.6427e+05	2436.9	-0.078568	-0.025864	1.0019
3.552	-40.285	-8.6428e+05	2436.8	-0.079154	-0.026157	1.0031
3.554	-40.309	-8.6428e+05	2436.8	-0.079739	-0.02645	1.0044
3.556	-40.283	-8.6428e+05	2436.7	-0.080325	-0.026742	1.0057
3.558	-40.262	-8.6428e+05	2436.5	-0.08091	-0.027035	1.0069
3.56	-40.221	-8.6428e+05	2436.4	-0.081496	-0.027328	1.0082
3.562	-40.169	-8.6428e+05	2436.2	-0.081398	-0.027621	1.007
3.564	-40.17	-8.6429e+05	2436	-0.081301	-0.027914	1.0059
3.566	-40.231	-8.643e+05	2435.9	-0.081203	-0.028206	1.0047
3.568	-40.304	-8.643e+05	2435.8	-0.081106	-0.028499	1.0035
3.57	-40.354	-8.643e+05	2435.7	-0.081008	-0.028792	1.0024
3.572	-40.322	-8.643e+05	2435.6	-0.081008	-0.028597	1.003
3.574	-40.243	-8.6431e+05	2435.5	-0.081008	-0.028402	1.0037
3.576	-40.19	-8.6431e+05	2435.4	-0.081008	-0.028206	1.0044
3.578	-40.165	-8.6431e+05	2435.4	-0.081008	-0.028011	1.0051
3.58	-40.175	-8.6432e+05	2435.3	-0.081008	-0.027816	1.0058
3.582	-40.204	-8.6433e+05	2435.2	-0.08052	-0.02889	1.0043
3.584	-40.251	-8.6433e+05	2435.1	-0.080032	-0.029963	1.0028
3.586	-40.343	-8.6433e+05	2435	-0.079544	-0.031037	1.0014
3.588	-40.424	-8.6434e+05	2434.9	-0.079056	-0.03211	0.99991
3.59	-40.408	-8.6434e+05	2434.8	-0.078568	-0.033184	0.99845
3.592	-40.383	-8.6434e+05	2434.6	-0.07808	-0.032989	0.99923
3.594	-40.312	-8.6435e+05	2434.4	-0.077592	-0.032794	1
3.596	-40.259	-8.6435e+05	2434.2	-0.077104	-0.032598	1.0008
3.598	-40.299	-8.6436e+05	2434	-0.076616	-0.032403	1.0016
3.6	-40.317	-8.6436e+05	2433.9	-0.076128	-0.032208	1.0024
3.602	-40.329	-8.6437e+05	2433.7	-0.076128	-0.032696	1.0024
3.604	-40.364	-8.6438e+05	2433.6	-0.076128	-0.033184	1.0024
3.606	-40.316	-8.6438e+05	2433.5	-0.076128	-0.033672	1.0024
3.608	-40.299	-8.6438e+05	2433.3	-0.076128	-0.03416	1.0024
3.61	-40.272	-8.6438e+05	2433.1	-0.076128	-0.034648	1.0024
3.612	-40.236	-8.6438e+05	2432.9	-0.076616	-0.033574	1.0028
3.614	-40.356	-8.6438e+05	2432.7	-0.077104	-0.032501	1.0033
3.616	-40.407	-8.6439e+05	2432.5	-0.077592	-0.031427	1.0038
3.618	-40.41	-8.644e+05	2432.3	-0.07808	-0.030354	1.0043
3.62	-40.455	-8.6441e+05	2432.1	-0.078568	-0.02928	1.0048
3.622	-40.408	-8.6441e+05	2431.9	-0.078666	-0.029085	1.0047
3.624	-40.373	-8.6441e+05	2431.7	-0.078763	-0.02889	1.0046
3.626	-40.352	-8.6441e+05	2431.5	-0.078861	-0.028694	1.0045
3.628	-40.292	-8.6442e+05	2431.4	-0.078958	-0.028499	1.0044
3.63	-40.318	-8.6442e+05	2431.2	-0.079056	-0.028304	1.0043
3.632	-40.342	-8.6443e+05	2431.2	-0.079837	-0.027816	1.0045
3.634	-40.355	-8.6443e+05	2431.2	-0.080618	-0.027328	1.0047
3.636	-40.443	-8.6443e+05	2431.4	-0.081398	-0.02684	1.0049
3.638	-40.468	-8.6443e+05	2432	-0.082179	-0.026352	1.0051
3.64	-40.401	-8.6443e+05	2432.5	-0.08296	-0.025864	1.0053
3.642	-40.368	-8.6444e+05	2433.8	-0.082765	-0.025766	1.0054
3.644	-40.335	-8.6445e+05	2435.2	-0.08257	-0.025669	1.0055
3.646	-40.354	-8.6446e+05	2436.7	-0.082374	-0.025571	1.0056
3.648	-40.405	-8.6446e+05	2438.5	-0.082179	-0.025474	1.0057
3.65	-40.416	-8.6446e+05	2440.3	-0.081984	-0.025376	1.0058
3.652	-40.437	-8.6446e+05	2442	-0.082765	-0.025181	1.0043
3.654	-40.469	-8.6447e+05	2443.7	-0.083546	-0.024986	1.0028
3.656	-40.451	-8.6447e+05	2445.4	-0.084326	-0.02479	1.0014
3.658	-40.406	-8.6448e+05	2447	-0.085107	-0.024595	0.99991
3.66	-40.369	-8.6448e+05	2448.6	-0.085888	-0.0244	0.99845
3.662	-40.332	-8.6449e+05	2450	-0.085205	-0.024302	0.99942
3.664	-40.365	-8.645e+05	2451.4	-0.084522	-0.024205	1.0004
3.666	-40.484	-8.6449e+05	2452.7	-0.083838	-0.024107	1.0014
3.668	-40.582	-8.6449e+05	2453.8	-0.083155	-0.02401	1.0024
3.67	-40.602	-8.6449e+05	2454.9	-0.082472	-0.023912	1.0033
3.672	-40.526	-8.6448e+05	2455.8	-0.082862	-0.02401	1.0033
3.674	-40.473	-8.6448e+05	2456.7	-0.083253	-0.024107	1.0033
3.676	-40.487	-8.6448e+05	2457.6	-0.083643	-0.024205	1.0033
3.678	-40.501	-8.6449e+05	2458.4	-0.084034	-0.024302	1.0033
3.68	-40.469	-8.6449e+05	2459.1	-0.084424	-0.0244	1.0033
3.682	-40.52	-8.6449e+05	2459.8	-0.083058	-0.025376	1.0033
3.684	-40.566	-8.645e+05	2460.4	-0.081691	-0.026352	1.0033
3.686	-40.56	-8.6449e+05	2461	-0.080325	-0.027328	1.0033
3.688	-40.612	-8.6449e+05	2461.5	-0.078958	-0.028304	1.0033
3.69	-40.56	-8.6449e+05	2462	-0.077592	-0.02928	1.0033
3.692	-40.517	-8.6449e+05	2462.5	-0.077885	-0.029963	1.0022
3.694	-40.512	-8.6448e+05	2462.9	-0.078178	-0.030646	1.001
3.696	-40.514	-8.6448e+05	2463.3	-0.07847	-0.03133	0.99981
3.698	-40.554	-8.6447e+05	2463.7	-0.078763	-0.032013	0.99864
3.7	-40.567	-8.6447e+05	2464.1	-0.079056	-0.032696	0.99747
3.702	-40.618	-8.6446e+05	2464.3	-0.078373	-0.032794	0.99825
3.704	-40.645	-8.6446e+05	2464.6	-0.07769	-0.032891	0.99903
3.706	-40.632	-8.6445e+05	2464.8	-0.077006	-0.032989	0.99981
3.708	-40.596	-8.6445e+05	2465.1	-0.076323	-0.033086	1.0006
3.71	-40.578	-8.6444e+05	2465.3	-0.07564	-0.033184	1.0014
3.712	-40.506	-8.6443e+05	2465.5	-0.076128	-0.032501	1.0022
3.714	-40.524	-8.6443e+05	2465.7	-0.076616	-0.031818	1.0029
3.716	-40.59	-8.6443e+05	2465.9	-0.077104	-0.031134	1.0037
3.718	-40.634	-8.6442e+05	2466	-0.077592	-0.030451	1.0045
3.72	-40.669	-8.6441e+05	2466.2	-0.07808	-0.029768	1.0053
3.722	-40.648	-8.644e+05	2466.2	-0.078178	-0.029378	1.0049
3.724	-40.602	-8.6439e+05	2466.2	-0.078275	-0.028987	1.0045
3.726	-40.555	-8.6438e+05	2466.2	-0.078373	-0.028597	1.0041
3.728	-40.497	-8.6438e+05	2466.1	-0.07847	-0.028206	1.0037
3.73	-40.509	-8.6437e+05	2466.1	-0.078568	-0.027816	1.0033
3.732	-40.552	-8.6436e+05	2466.1	-0.079349	-0.027816	1.0028
3.734	-40.565	-8.6436e+05	2466.1	-0.08013	-0.027816	1.0024
3.736	-40.608	-8.6436e+05	2466.1	-0.08091	-0.027816	1.0019
3.738	-40.634	-8.6435e+05	2466	-0.081691	-0.027816	1.0014
3.74	-40.577	-8.6434e+05	2465.9	-0.082472	-0.027816	1.0009
3.742	-40.53	-8.6433e+05	2465.8	-0.08296	-0.027035	1.0012
3.744	-40.522	-8.6432e+05	2465.6	-0.083448	-0.026254	1.0015
3.746	-40.536	-8.6431e+05	2465.5	-0.083936	-0.025474	1.0018
3.748	-40.584	-8.643e+05	2465.4	-0.084424	-0.024693	1.0021
3.75	-40.617	-8.6429e+05	2465.2	-0.084912	-0.023912	1.0024
3.752	-40.645	-8.6428e+05	2465	-0.084912	-0.024205	1.0021
3.754	-40.675	-8.6427e+05	2464.8	-0.084912	-0.024498	1.0018
3.756	-40.636	-8.6426e+05	2464.7	-0.084912	-0.02479	1.0015
3.758	-40.547	-8.6425e+05	2464.5	-0.084912	-0.025083	1.0012
3.76	-40.473	-8.6425e+05	2464.4	-0.084912	-0.025376	1.0009
3.762	-40.424	-8.6424e+05	2464.1	-0.084131	-0.025278	1.0021
3.764	-40.501	-8.6422e+05	2463.9	-0.08335	-0.025181	1.0032
3.766	-40.59	-8.6421e+05	2463.6	-0.08257	-0.025083	1.0044
3.768	-40.604	-8.642e+05	2463.4	-0.081789	-0.024986	1.0056
3.77	-40.629	-8.6419e+05	2463.2	-0.081008	-0.024888	1.0067
3.772	-40.675	-8.6419e+05	2463	-0.081496	-0.024302	1.0054
3.774	-40.612	-8.6418e+05	2462.8	-0.081984	-0.023717	1.004
3.776	-40.536	-8.6417e+05	2462.6	-0.082472	-0.023131	1.0026
3.778	-40.457	-8.6417e+05	2462.4	-0.08296	-0.022546	1.0013
3.78	-40.455	-8.6416e+05	2462.2	-0.083448	-0.02196	0.99991
3.782	-40.579	-8.6415e+05	2462.1	-0.08335	-0.022741	1.0003
3.784	-40.585	-8.6414e+05	2461.9	-0.083253	-0.023522	1.0007
3.786	-40.609	-8.6413e+05	2461.8	-0.083155	-0.024302	1.0011
3.788	-40.648	-8.6412e+05	2461.6	-0.083058	-0.025083	1.0015
3.79	-40.613	-8.6412e+05	2461.5	-0.08296	-0.025864	1.0019
3.792	-40.623	-8.6411e+05	2461.4	-0.083643	-0.026742	1.0016
3.794	-40.53	-8.641e+05	2461.4	-0.084326	-0.027621	1.0013
3.796	-40.486	-8.6408e+05	2461.3	-0.08501	-0.028499	1.001
3.798	-40.521	-8.6408e+05	2461.2	-0.085693	-0.029378	1.0007
3.8	-40.597	-8.6407e+05	2461	-0.086376	-0.030256	1.0004
3.802	-40.636	-8.6408e+05	2460.9	-0.085107	-0.030256	1.0014
3.804	-40.669	-8.6408e+05	2460.8	-0.083838	-0.030256	1.0024
3.806	-40.652	-8.6407e+05	2460.7	-0.08257	-0.030256	1.0033
3.808	-40.587	-8.6406e+05	2460.5	-0.081301	-0.030256	1.0043
3.81	-40.518	-8.6406e+05	2460.3	-0.080032	-0.030256	1.0053
3.812	-40.467	-8.6406e+05	2460.2	-0.079349	-0.030842	1.0046
3.814	-40.498	-8.6405e+05	2460.1	-0.078666	-0.031427	1.0039
3.816	-40.552	-8.6405e+05	2459.9	-0.077982	-0.032013	1.0032
3.818	-40.623	-8.6404e+05	2459.8	-0.077299	-0.032598	1.0025
3.82	-40.693	-8.6404e+05	2459.7	-0.076616	-0.033184	1.0019
3.822	-40.679	-8.6403e+05	2459.6	-0.077787	-0.032013	1.0022
3.824	-40.627	-8.6403e+05	2459.5	-0.078958	-0.030842	1.0024
3.826	-40.563	-8.6402e+05	2459.4	-0.08013	-0.02967	1.0027
3.828	-40.487	-8.6401e+05	2459.3	-0.081301	-0.028499	1.003
3.83	-40.484	-8.64e+05	2459.2	-0.082472	-0.027328	1.0033
3.832	-40.533	-8.64e+05	2459.1	-0.082667	-0.027035	1.0037
3.834	-40.577	-8.6399e+05	2458.9	-0.082862	-0.026742	1.0041
3.836	-40.659	-8.6398e+05	2458.8	-0.083058	-0.02645	1.0045
3.838	-40.709	-8.6398e+05	2458.7	-0.083253	-0.026157	1.0049
3.84	-40.67	-8.6398e+05	2458.6	-0.083448	-0.025864	1.0053
3.842	-40.66	-8.6397e+05	2458.5	-0.082765	-0.025864	1.0052
3.844	-40.621	-8.6397e+05	2458.4	-0.082082	-0.025864	1.0051
3.846	-40.564	-8.6396e+05	2458.3	-0.081398	-0.025864	1.005
3.848	-40.61	-8.6395e+05	2458.1	-0.080715	-0.025864	1.0049
3.85	-40.671	-8.6395e+05	2458	-0.080032	-0.025864	1.0048
3.852	-40.702	-8.6394e+05	2457.8	-0.080618	-0.025766	1.0047
3.854	-40.733	-8.6394e+05	2457.7	-0.081203	-0.025669	1.0046
3.856	-40.688	-8.6393e+05	2457.5	-0.081789	-0.025571	1.0045
3.858	-40.621	-8.6393e+05	2457.3	-0.082374	-0.025474	1.0044
3.86	-40.592	-8.6392e+05	2457.2	-0.08296	-0.025376	1.0043
3.862	-40.542	-8.6392e+05	2457	-0.083838	-0.025376	1.0038
3.864	-40.564	-8.6392e+05	2456.8	-0.084717	-0.025376	1.0033
3.866	-40.618	-8.6392e+05	2456.6	-0.085595	-0.025376	1.0028
3.868	-40.695	-8.6392e+05	2456.4	-0.086474	-0.025376	1.0024
3.87	-40.814	-8.6391e+05	2456.2	-0.087352	-0.025376	1.0019
3.872	-40.796	-8.6391e+05	2456	-0.086083	-0.025766	1.0027
3.874	-40.747	-8.639e+05	2455.7	-0.084814	-0.026157	1.0036
3.876	-40.677	-8.639e+05	2455.5	-0.083546	-0.026547	1.0045
3.878	-40.62	-8.6389e+05	2455.3	-0.082277	-0.026938	1.0054
3.88	-40.608	-8.6389e+05	2455.1	-0.081008	-0.027328	1.0063
3.882	-40.665	-8.6388e+05	2454.8	-0.080325	-0.027914	1.0062
3.884	-40.677	-8.6388e+05	2454.5	-0.079642	-0.028499	1.0061
3.886	-40.75	-8.6388e+05	2454.2	-0.078958	-0.029085	1.006
3.888	-40.777	-8.6388e+05	2453.9	-0.078275	-0.02967	1.0059
3.89	-40.725	-8.6387e+05	2453.6	-0.077592	-0.030256	1.0058
3.892	-40.683	-8.6386e+05	2453.3	-0.078373	-0.030158	1.005
3.894	-40.595	-8.6386e+05	2452.9	-0.079154	-0.030061	1.0042
3.896	-40.565	-8.6386e+05	2452.6	-0.079934	-0.029963	1.0034
3.898	-40.608	-8.6386e+05	2452.2	-0.080715	-0.029866	1.0026
3.9	-40.669	-8.6386e+05	2451.8	-0.081496	-0.029768	1.0019
3.902	-40.756	-8.6386e+05	2451.4	-0.08052	-0.030158	1.002
3.904	-40.813	-8.6386e+05	2451.1	-0.079544	-0.030549	1.0021
3.906	-40.785	-8.6386e+05	2450.8	-0.078568	-0.030939	1.0022
3.908	-40.716	-8.6385e+05	2450.5	-0.077592	-0.03133	1.0023
3.91	-40.631	-8.6386e+05	2450.2	-0.076616	-0.03172	1.0024
3.912	-40.584	-8.6387e+05	2450	-0.076714	-0.031622	1.0028
3.914	-40.605	-8.6387e+05	2449.7	-0.076811	-0.031525	1.0033
3.916	-40.666	-8.6386e+05	2449.5	-0.076909	-0.031427	1.0038
3.918	-40.731	-8.6386e+05	2449.3	-0.077006	-0.03133	1.0043
3.92	-40.759	-8.6385e+05	2449.1	-0.077104	-0.031232	1.0048
3.922	-40.749	-8.6384e+05	2448.8	-0.077885	-0.030744	1.0051
3.924	-40.737	-8.6384e+05	2448.6	-0.078666	-0.030256	1.0054
3.926	-40.718	-8.6383e+05	2448.3	-0.079446	-0.029768	1.0057
3.928	-40.656	-8.6383e+05	2448.1	-0.080227	-0.02928	1.006
3.93	-40.621	-8.6383e+05	2447.8	-0.081008	-0.028792	1.0063
3.932	-40.682	-8.6383e+05	2447.6	-0.081594	-0.028011	1.0065
3.934	-40.751	-8.6383e+05	2447.4	-0.082179	-0.02723	1.0066
3.936	-40.768	-8.6384e+05	2447.2	-0.082765	-0.02645	1.0068
3.938	-40.783	-8.6384e+05	2447.1	-0.08335	-0.025669	1.007
3.94	-40.773	-8.6383e+05	2446.9	-0.083936	-0.024888	1.0072
3.942	-40.764	-8.6383e+05	2446.8	-0.083838	-0.025962	1.0067
3.944	-40.711	-8.6383e+05	2446.7	-0.083741	-0.027035	1.0063
3.946	-40.662	-8.6384e+05	2446.6	-0.083643	-0.028109	1.0058
3.948	-40.7	-8.6384e+05	2446.5	-0.083546	-0.029182	1.0053
3.95	-40.774	-8.6384e+05	2446.4	-0.083448	-0.030256	1.0048
3.952	-40.789	-8.6384e+05	2446.3	-0.083155	-0.029768	1.0046
3.954	-40.815	-8.6383e+05	2446.2	-0.082862	-0.02928	1.0044
3.956	-40.788	-8.6383e+05	2446.1	-0.08257	-0.028792	1.0042
3.958	-40.726	-8.6383e+05	2446.1	-0.082277	-0.028304	1.004
3.96	-40.65	-8.6384e+05	2446	-0.081984	-0.027816	1.0038
3.962	-40.576	-8.6384e+05	2446	-0.082277	-0.02723	1.0035
3.964	-40.669	-8.6384e+05	2446	-0.08257	-0.026645	1.0032
3.966	-40.766	-8.6384e+05	2446	-0.082862	-0.026059	1.0029
3.968	-40.795	-8.6384e+05	2446	-0.083155	-0.025474	1.0026
3.97	-40.862	-8.6384e+05	2446.1	-0.083448	-0.024888	1.0024
3.972	-40.841	-8.6384e+05	2446.1	-0.082374	-0.026254	1.0024
3.974	-40.757	-8.6384e+05	2446.1	-0.081301	-0.027621	1.0025
3.976	-40.741	-8.6384e+05	2446.1	-0.080227	-0.028987	1.0026
3.978	-40.694	-8.6383e+05	2446.1	-0.079154	-0.030354	1.0027
3.98	-40.697	-8.6383e+05	2446.1	-0.07808	-0.03172	1.0028
3.982	-40.757	-8.6383e+05	2446.1	-0.077885	-0.031622	1.0032
3.984	-40.789	-8.6383e+05	2446.1	-0.07769	-0.031525	1.0036
3.986	-40.85	-8.6384e+05	2446.1	-0.077494	-0.031427	1.004
3.988	-40.889	-8.6384e+05	2446.1	-0.077299	-0.03133	1.0044
3.99	-40.864	-8.6384e+05	2446.1	-0.077104	-0.031232	1.0048
3.992	-40.779	-8.6385e+05	2446	-0.077006	-0.031818	1.0046
3.994	-40.696	-8.6385e+05	2446	-0.076909	-0.032403	1.0044
3.996	-40.674	-8.6385e+05	2445.9	-0.076811	-0.032989	1.0042
3.998	-40.71	-8.6385e+05	2445.8	-0.076714	-0.033574	1.004
4	-40.751	-8.6384e+05	2445.8	-0.076616	-0.03416	1.0038
4.002	-40.787	-8.6385e+05	2445.7	-0.076909	-0.032696	1.0035
4.004	-40.829	-8.6386e+05	2445.6	-0.077202	-0.031232	1.0032
4.006	-40.827	-8.6386e+05	2445.5	-0.077494	-0.029768	1.0029
4.008	-40.779	-8.6386e+05	2445.4	-0.077787	-0.028304	1.0026
4.01	-40.755	-8.6386e+05	2445.3	-0.07808	-0.02684	1.0024
4.012	-40.746	-8.6386e+05	2445.2	-0.07847	-0.027328	1.0034
4.014	-40.753	-8.6386e+05	2445	-0.078861	-0.027816	1.0045
4.016	-40.807	-8.6385e+05	2444.9	-0.079251	-0.028304	1.0056
4.018	-40.849	-8.6385e+05	2444.8	-0.079642	-0.028792	1.0066
4.02	-40.893	-8.6384e+05	2444.7	-0.080032	-0.02928	1.0077
4.022	-40.887	-8.6384e+05	2444.5	-0.080715	-0.028499	1.0073
4.024	-40.837	-8.6385e+05	2444.4	-0.081398	-0.027718	1.0069
4.026	-40.766	-8.6384e+05	2444.2	-0.082082	-0.026938	1.0065
4.028	-40.709	-8.6384e+05	2444.2	-0.082765	-0.026157	1.0062
4.03	-40.706	-8.6384e+05	2444.1	-0.083448	-0.025376	1.0058
4.032	-40.773	-8.6383e+05	2443.9	-0.083058	-0.024888	1.0051
4.034	-40.785	-8.6384e+05	2443.8	-0.082667	-0.0244	1.0044
4.036	-40.804	-8.6384e+05	2443.7	-0.082277	-0.023912	1.0037
4.038	-40.889	-8.6385e+05	2443.5	-0.081886	-0.023424	1.003
4.04	-40.894	-8.6385e+05	2443.4	-0.081496	-0.022936	1.0024
4.042	-40.897	-8.6386e+05	2443.2	-0.083253	-0.023912	1.0019
4.044	-40.86	-8.6386e+05	2443.1	-0.08501	-0.024888	1.0014
4.046	-40.752	-8.6386e+05	2443	-0.086766	-0.025864	1.0009
4.048	-40.786	-8.6385e+05	2442.9	-0.088523	-0.02684	1.0004
4.05	-40.867	-8.6385e+05	2442.8	-0.09028	-0.027816	0.99991
4.052	-40.893	-8.6386e+05	2442.7	-0.088816	-0.027426	1.0011
4.054	-40.941	-8.6386e+05	2442.7	-0.087352	-0.027035	1.0023
4.056	-40.894	-8.6386e+05	2442.6	-0.085888	-0.026645	1.0034
4.058	-40.852	-8.6386e+05	2442.5	-0.084424	-0.026254	1.0046
