t	ekg	optical	pressure	accel_x	accel_y	accel_z
0	-51.312	-8.6629e+05	2878.6	-0.02928	0.085888	0.99845
0.002	-51.434	-8.6628e+05	2878.2	-0.029573	0.087157	0.99864
0.004	-51.494	-8.6628e+05	2877.9	-0.029866	0.088426	0.99884
0.006	-51.442	-8.6627e+05	2877.5	-0.030158	0.089694	0.99903
0.008	-51.326	-8.6627e+05	2877	-0.030451	0.090963	0.99923
0.01	-51.202	-8.6626e+05	2876.6	-0.030744	0.092232	0.99942
0.012	-51.13	-8.6626e+05	2876.1	-0.030646	0.091549	0.99933
0.014	-51.165	-8.6625e+05	2875.6	-0.030549	0.090866	0.99923
0.016	-51.237	-8.6623e+05	2875.1	-0.030451	0.090182	0.99913
0.018	-51.298	-8.6622e+05	2874.5	-0.030354	0.089499	0.99903
0.02	-51.393	-8.6621e+05	2873.9	-0.030256	0.088816	0.99894
0.022	-51.423	-8.6621e+05	2873.2	-0.030354	0.089011	0.99923
0.024	-51.356	-8.6621e+05	2872.6	-0.030451	0.089206	0.99952
0.026	-51.287	-8.662e+05	2871.9	-0.030549	0.089402	0.99981
0.028	-51.192	-8.6618e+05	2871.1	-0.030646	0.089597	1.0001
0.03	-51.153	-8.6617e+05	2870.4	-0.030744	0.089792	1.0004
0.032	-51.247	-8.6616e+05	2869.7	-0.029866	0.089597	1.0008
0.034	-51.325	-8.6616e+05	2869	-0.028987	0.089402	1.0012
0.036	-51.378	-8.6615e+05	2868.3	-0.028109	0.089206	1.0016
0.038	-51.394	-8.6615e+05	2867.5	-0.02723	0.089011	1.002
0.04	-51.339	-8.6615e+05	2866.8	-0.026352	0.088816	1.0024
0.042	-51.293	-8.6613e+05	2866.1	-0.027328	0.08989	1.0026
0.044	-51.181	-8.6611e+05	2865.3	-0.028304	0.090963	1.0029
0.046	-51.132	-8.6611e+05	2864.6	-0.02928	0.092037	1.0032
0.048	-51.18	-8.6611e+05	2863.8	-0.030256	0.09311	1.0035
0.05	-51.21	-8.6611e+05	2863.1	-0.031232	0.094184	1.0038
0.052	-51.321	-8.661e+05	2862.3	-0.030158	0.093598	1.0039
0.054	-51.408	-8.661e+05	2861.5	-0.029085	0.093013	1.004
0.056	-51.367	-8.661e+05	2860.7	-0.028011	0.092427	1.0041
0.058	-51.303	-8.6609e+05	2859.8	-0.026938	0.091842	1.0042
0.06	-51.203	-8.6609e+05	2859	-0.025864	0.091256	1.0043
0.062	-51.134	-8.6607e+05	2858	-0.026547	0.091354	1.0033
0.064	-51.201	-8.6606e+05	2857	-0.02723	0.091451	1.0024
0.066	-51.288	-8.6605e+05	2856	-0.027914	0.091549	1.0014
0.068	-51.357	-8.6605e+05	2855	-0.028597	0.091646	1.0004
0.07	-51.379	-8.6605e+05	2854	-0.02928	0.091744	0.99942
0.072	-51.335	-8.6604e+05	2852.9	-0.030061	0.092232	1.0008
0.074	-51.28	-8.6603e+05	2851.8	-0.030842	0.09272	1.0022
0.076	-51.252	-8.6603e+05	2850.8	-0.031622	0.093208	1.0035
0.078	-51.227	-8.6602e+05	2849.7	-0.032403	0.093696	1.0049
0.08	-51.226	-8.6602e+05	2848.6	-0.033184	0.094184	1.0063
0.082	-51.26	-8.6601e+05	2847.5	-0.034453	0.094574	1.0073
0.084	-51.309	-8.6601e+05	2846.3	-0.035722	0.094965	1.0084
0.086	-51.375	-8.6601e+05	2845.1	-0.03699	0.095355	1.0095
0.088	-51.394	-8.66e+05	2844	-0.038259	0.095746	1.0106
0.09	-51.329	-8.66e+05	2842.8	-0.039528	0.096136	1.0116
0.092	-51.278	-8.6599e+05	2841.6	-0.037478	0.094574	1.0102
0.094	-51.257	-8.6598e+05	2840.4	-0.035429	0.093013	1.0087
0.096	-51.241	-8.6598e+05	2839.3	-0.033379	0.091451	1.0072
0.098	-51.269	-8.6597e+05	2838.1	-0.03133	0.08989	1.0058
0.1	-51.301	-8.6596e+05	2837	-0.02928	0.088328	1.0043
0.102	-51.393	-8.6595e+05	2835.9	-0.030061	0.088718	1.0028
0.104	-51.476	-8.6595e+05	2834.7	-0.030842	0.089109	1.0014
0.106	-51.424	-8.6595e+05	2833.6	-0.031622	0.089499	0.99991
0.108	-51.373	-8.6594e+05	2832.4	-0.032403	0.08989	0.99845
0.11	-51.321	-8.6594e+05	2831.3	-0.033184	0.09028	0.99698
0.112	-51.238	-8.6594e+05	2830.2	-0.032891	0.09028	0.99718
0.114	-51.263	-8.6593e+05	2829.1	-0.032598	0.09028	0.99737
0.116	-51.296	-8.6592e+05	2828	-0.032306	0.09028	0.99757
0.118	-51.346	-8.6592e+05	2826.9	-0.032013	0.09028	0.99776
0.12	-51.444	-8.6591e+05	2825.8	-0.03172	0.09028	0.99796
0.122	-51.471	-8.6591e+05	2824.7	-0.031525	0.091061	0.99855
0.124	-51.384	-8.6591e+05	2823.7	-0.03133	0.091842	0.99913
0.126	-51.377	-8.6591e+05	2822.6	-0.031134	0.092622	0.99972
0.128	-51.267	-8.6591e+05	2821.5	-0.030939	0.093403	1.0003
0.13	-51.281	-8.6591e+05	2820.3	-0.030744	0.094184	1.0009
0.132	-51.319	-8.6591e+05	2819.2	-0.032208	0.093598	0.99991
0.134	-51.34	-8.659e+05	2818.1	-0.033672	0.093013	0.99894
0.136	-51.46	-8.659e+05	2816.9	-0.035136	0.092427	0.99796
0.138	-51.501	-8.6589e+05	2815.6	-0.0366	0.091842	0.99698
0.14	-51.422	-8.6589e+05	2814.3	-0.038064	0.091256	0.99601
0.142	-51.352	-8.6589e+05	2813.1	-0.037966	0.091061	0.99572
0.144	-51.249	-8.6588e+05	2811.9	-0.037869	0.090866	0.99542
0.146	-51.239	-8.6588e+05	2810.7	-0.037771	0.09067	0.99513
0.148	-51.328	-8.6587e+05	2809.6	-0.037674	0.090475	0.99484
0.15	-51.405	-8.6587e+05	2808.4	-0.037576	0.09028	0.99454
0.152	-51.493	-8.6587e+05	2807.1	-0.036893	0.090573	0.99503
0.154	-51.555	-8.6587e+05	2805.8	-0.03621	0.090866	0.99552
0.156	-51.513	-8.6587e+05	2804.4	-0.035526	0.091158	0.99601
0.158	-51.432	-8.6586e+05	2803.1	-0.034843	0.091451	0.9965
0.16	-51.32	-8.6586e+05	2801.8	-0.03416	0.091744	0.99698
0.162	-51.264	-8.6586e+05	2800.4	-0.033672	0.090866	0.9965
0.164	-51.306	-8.6586e+05	2799.1	-0.033184	0.089987	0.99601
0.166	-51.392	-8.6586e+05	2797.7	-0.032696	0.089109	0.99552
0.168	-51.473	-8.6585e+05	2796.4	-0.032208	0.08823	0.99503
0.17	-51.517	-8.6586e+05	2795	-0.03172	0.087352	0.99454
0.172	-51.523	-8.6587e+05	2793.8	-0.031915	0.088328	0.99523
0.174	-51.494	-8.6587e+05	2792.5	-0.03211	0.089304	0.99591
0.176	-51.423	-8.6586e+05	2791.3	-0.032306	0.09028	0.99659
0.178	-51.338	-8.6586e+05	2790.1	-0.032501	0.091256	0.99728
0.18	-51.31	-8.6585e+05	2789	-0.032696	0.092232	0.99796
0.182	-51.34	-8.6585e+05	2787.9	-0.031915	0.091061	0.99855
0.184	-51.376	-8.6584e+05	2786.8	-0.031134	0.08989	0.99913
0.186	-51.459	-8.6584e+05	2785.8	-0.030354	0.088718	0.99972
0.188	-51.519	-8.6584e+05	2784.8	-0.029573	0.087547	1.0003
0.19	-51.516	-8.6584e+05	2783.8	-0.028792	0.086376	1.0009
0.192	-51.501	-8.6584e+05	2782.9	-0.02889	0.08579	1.0009
0.194	-51.445	-8.6584e+05	2782	-0.028987	0.085205	1.0009
0.196	-51.367	-8.6584e+05	2781.2	-0.029085	0.084619	1.0009
0.198	-51.416	-8.6584e+05	2780.4	-0.029182	0.084034	1.0009
0.2	-51.465	-8.6585e+05	2779.6	-0.02928	0.083448	1.0009
0.202	-51.521	-8.6584e+05	2779	-0.029963	0.0854	1.0007
0.204	-51.586	-8.6584e+05	2778.4	-0.030646	0.087352	1.0005
0.206	-51.534	-8.6584e+05	2777.9	-0.03133	0.089304	1.0003
0.208	-51.459	-8.6585e+05	2777.3	-0.032013	0.091256	1.0001
0.21	-51.381	-8.6585e+05	2776.8	-0.032696	0.093208	0.99991
0.212	-51.291	-8.6586e+05	2776.4	-0.032501	0.093208	1.0004
0.214	-51.38	-8.6586e+05	2776	-0.032306	0.093208	1.0009
0.216	-51.475	-8.6586e+05	2775.6	-0.03211	0.093208	1.0014
0.218	-51.558	-8.6586e+05	2775.3	-0.031915	0.093208	1.0019
0.22	-51.636	-8.6586e+05	2774.9	-0.03172	0.093208	1.0024
0.222	-51.563	-8.6586e+05	2774.6	-0.032501	0.093208	1.0027
0.224	-51.488	-8.6585e+05	2774.3	-0.033282	0.093208	1.0031
0.226	-51.388	-8.6585e+05	2774.1	-0.034062	0.093208	1.0035
0.228	-51.292	-8.6585e+05	2774	-0.034843	0.093208	1.0039
0.23	-51.353	-8.6585e+05	2773.9	-0.035624	0.093208	1.0043
0.232	-51.444	-8.6585e+05	2774	-0.034062	0.092622	1.0041
0.234	-51.51	-8.6585e+05	2774.1	-0.032501	0.092037	1.0039
0.236	-51.59	-8.6585e+05	2774.2	-0.030939	0.091451	1.0037
0.238	-51.564	-8.6585e+05	2774.3	-0.029378	0.090866	1.0035
0.24	-51.506	-8.6585e+05	2774.5	-0.027816	0.09028	1.0033
0.242	-51.43	-8.6585e+05	2774.6	-0.030061	0.09067	1.0016
0.244	-51.323	-8.6586e+05	2774.7	-0.032306	0.091061	0.99981
0.246	-51.335	-8.6586e+05	2774.7	-0.03455	0.091451	0.99806
0.248	-51.445	-8.6586e+05	2774.8	-0.036795	0.091842	0.9963
0.25	-51.541	-8.6585e+05	2774.9	-0.03904	0.092232	0.99454
0.252	-51.624	-8.6585e+05	2775.1	-0.039626	0.091744	0.99454
0.254	-51.625	-8.6585e+05	2775.2	-0.040211	0.091256	0.99454
0.256	-51.535	-8.6586e+05	2775.3	-0.040797	0.090768	0.99454
0.258	-51.474	-8.6586e+05	2775.5	-0.041382	0.09028	0.99454
0.26	-51.426	-8.6586e+05	2775.6	-0.041968	0.089792	0.99454
0.262	-51.38	-8.6586e+05	2775.7	-0.04148	0.090182	0.99503
0.264	-51.425	-8.6585e+05	2775.8	-0.040992	0.090573	0.99552
0.266	-51.504	-8.6585e+05	2775.9	-0.040504	0.090963	0.99601
0.268	-51.55	-8.6585e+05	2775.9	-0.040016	0.091354	0.9965
0.27	-51.628	-8.6586e+05	2776	-0.039528	0.091744	0.99698
0.272	-51.673	-8.6586e+05	2776	-0.038162	0.091744	0.99747
0.274	-51.561	-8.6586e+05	2776.1	-0.036795	0.091744	0.99796
0.276	-51.457	-8.6586e+05	2776.1	-0.035429	0.091744	0.99845
0.278	-51.381	-8.6586e+05	2776.1	-0.034062	0.091744	0.99894
0.28	-51.427	-8.6586e+05	2776.1	-0.032696	0.091744	0.99942
0.282	-51.54	-8.6585e+05	2776.1	-0.032696	0.091646	0.99972
0.284	-51.563	-8.6585e+05	2776.1	-0.032696	0.091549	1
0.286	-51.645	-8.6586e+05	2776.1	-0.032696	0.091451	1.0003
0.288	-51.677	-8.6587e+05	2775.9	-0.032696	0.091354	1.0006
0.29	-51.591	-8.6586e+05	2775.8	-0.032696	0.091256	1.0009
0.292	-51.527	-8.6586e+05	2775.7	-0.033282	0.091256	0.99952
0.294	-51.455	-8.6585e+05	2775.6	-0.033867	0.091256	0.99816
0.296	-51.426	-8.6585e+05	2775.5	-0.034453	0.091256	0.99679
0.298	-51.491	-8.6586e+05	2775.4	-0.035038	0.091256	0.99542
0.3	-51.522	-8.6586e+05	2775.2	-0.035624	0.091256	0.99406
0.302	-51.585	-8.6586e+05	2775	-0.036698	0.090378	0.99503
0.304	-51.665	-8.6586e+05	2774.8	-0.037771	0.089499	0.99601
0.306	-51.608	-8.6587e+05	2774.6	-0.038845	0.088621	0.99698
0.308	-51.63	-8.6587e+05	2774.4	-0.039918	0.087742	0.99796
0.31	-51.513	-8.6587e+05	2774.2	-0.040992	0.086864	0.99894
0.312	-51.414	-8.6587e+05	2774	-0.04109	0.086766	0.99894
0.314	-51.439	-8.6587e+05	2773.8	-0.041187	0.086669	0.99894
0.316	-51.521	-8.6586e+05	2773.5	-0.041285	0.086571	0.99894
0.318	-51.573	-8.6586e+05	2773.3	-0.041382	0.086474	0.99894
0.32	-51.632	-8.6586e+05	2773.1	-0.04148	0.086376	0.99894
0.322	-51.671	-8.6587e+05	2772.8	-0.040894	0.086669	0.99894
0.324	-51.64	-8.6587e+05	2772.5	-0.040309	0.086962	0.99894
0.326	-51.547	-8.6587e+05	2772.2	-0.039723	0.087254	0.99894
0.328	-51.485	-8.6587e+05	2771.8	-0.039138	0.087547	0.99894
0.33	-51.516	-8.6587e+05	2771.5	-0.038552	0.08784	0.99894
0.332	-51.576	-8.6587e+05	2771.2	-0.039626	0.086962	0.99952
0.334	-51.624	-8.6586e+05	2770.8	-0.040699	0.086083	1.0001
0.336	-51.681	-8.6586e+05	2770.4	-0.041773	0.085205	1.0007
0.338	-51.663	-8.6586e+05	2770	-0.042846	0.084326	1.0013
0.34	-51.594	-8.6586e+05	2769.6	-0.04392	0.083448	1.0019
0.342	-51.56	-8.6587e+05	2769.3	-0.042456	0.085205	1.0014
0.344	-51.511	-8.6588e+05	2768.9	-0.040992	0.086962	1.0009
0.346	-51.491	-8.6588e+05	2768.6	-0.039528	0.088718	1.0004
0.348	-51.547	-8.6587e+05	2768.2	-0.038064	0.090475	0.99991
0.35	-51.601	-8.6587e+05	2767.8	-0.0366	0.092232	0.99942
0.352	-51.663	-8.6587e+05	2767.3	-0.036795	0.091549	0.99884
0.354	-51.697	-8.6588e+05	2766.9	-0.03699	0.090866	0.99825
0.356	-51.623	-8.6588e+05	2766.5	-0.037186	0.090182	0.99767
0.358	-51.581	-8.6588e+05	2766	-0.037381	0.089499	0.99708
0.36	-51.548	-8.6588e+05	2765.6	-0.037576	0.088816	0.9965
0.362	-51.46	-8.6588e+05	2765.1	-0.036405	0.089011	0.99689
0.364	-51.528	-8.6589e+05	2764.6	-0.035234	0.089206	0.99728
0.366	-51.618	-8.6589e+05	2764.2	-0.034062	0.089402	0.99767
0.368	-51.664	-8.6589e+05	2763.6	-0.032891	0.089597	0.99806
0.37	-51.755	-8.6589e+05	2763.1	-0.03172	0.089792	0.99845
0.372	-51.751	-8.6589e+05	2762.6	-0.031818	0.090182	0.99913
0.374	-51.693	-8.6589e+05	2762.1	-0.031915	0.090573	0.99981
0.376	-51.642	-8.6589e+05	2761.7	-0.032013	0.090963	1.0005
0.378	-51.563	-8.6589e+05	2761.2	-0.03211	0.091354	1.0012
0.38	-51.587	-8.6589e+05	2760.7	-0.032208	0.091744	1.0019
0.382	-51.567	-8.6589e+05	2760.3	-0.03416	0.091354	1.0012
0.384	-51.678	-8.659e+05	2759.8	-0.036112	0.090963	1.0005
0.386	-51.756	-8.659e+05	2759.3	-0.038064	0.090573	0.99981
0.388	-51.716	-8.659e+05	2758.8	-0.040016	0.090182	0.99913
0.39	-51.618	-8.659e+05	2758.3	-0.041968	0.089792	0.99845
0.392	-51.564	-8.659e+05	2757.8	-0.042261	0.089402	0.99816
0.394	-51.514	-8.659e+05	2757.3	-0.042554	0.089011	0.99786
0.396	-51.506	-8.659e+05	2756.8	-0.042846	0.088621	0.99757
0.398	-51.596	-8.6591e+05	2756.3	-0.043139	0.08823	0.99728
0.4	-51.681	-8.6591e+05	2755.8	-0.043432	0.08784	0.99698
0.402	-51.74	-8.6592e+05	2755.3	-0.043432	0.087645	0.99737
0.404	-51.773	-8.6592e+05	2754.8	-0.043432	0.08745	0.99776
0.406	-51.712	-8.6592e+05	2754.4	-0.043432	0.087254	0.99816
0.408	-51.638	-8.6592e+05	2753.9	-0.043432	0.087059	0.99855
0.41	-51.593	-8.6591e+05	2753.4	-0.043432	0.086864	0.99894
0.412	-51.576	-8.6591e+05	2753	-0.04431	0.087059	0.99864
0.414	-51.597	-8.6591e+05	2752.6	-0.045189	0.087254	0.99835
0.416	-51.615	-8.6592e+05	2752.1	-0.046067	0.08745	0.99806
0.418	-51.693	-8.6592e+05	2751.7	-0.046946	0.087645	0.99776
0.42	-51.804	-8.6592e+05	2751.2	-0.047824	0.08784	0.99747
0.422	-51.787	-8.6593e+05	2750.8	-0.047531	0.087059	0.99689
0.424	-51.699	-8.6593e+05	2750.4	-0.047238	0.086278	0.9963
0.426	-51.641	-8.6593e+05	2750	-0.046946	0.085498	0.99572
0.428	-51.587	-8.6593e+05	2749.6	-0.046653	0.084717	0.99513
0.43	-51.594	-8.6594e+05	2749.2	-0.04636	0.083936	0.99454
0.432	-51.657	-8.6594e+05	2748.8	-0.046555	0.084326	0.99523
0.434	-51.708	-8.6594e+05	2748.3	-0.04675	0.084717	0.99591
0.436	-51.78	-8.6594e+05	2747.9	-0.046946	0.085107	0.99659
0.438	-51.806	-8.6594e+05	2747.4	-0.047141	0.085498	0.99728
0.44	-51.725	-8.6594e+05	2746.9	-0.047336	0.085888	0.99796
0.442	-51.665	-8.6595e+05	2746.6	-0.047043	0.0854	0.99816
0.444	-51.61	-8.6595e+05	2746.2	-0.04675	0.084912	0.99835
0.446	-51.613	-8.6595e+05	2745.8	-0.046458	0.084424	0.99855
0.448	-51.706	-8.6595e+05	2745.4	-0.046165	0.083936	0.99874
0.45	-51.723	-8.6595e+05	2745	-0.045872	0.083448	0.99894
0.452	-51.753	-8.6595e+05	2744.6	-0.044994	0.083253	0.99933
0.454	-51.795	-8.6595e+05	2744.3	-0.044115	0.083058	0.99972
0.456	-51.759	-8.6596e+05	2743.9	-0.043237	0.082862	1.0001
0.458	-51.71	-8.6596e+05	2743.6	-0.042358	0.082667	1.0005
0.46	-51.6	-8.6596e+05	2743.2	-0.04148	0.082472	1.0009
0.462	-51.555	-8.6595e+05	2742.9	-0.04109	0.083155	1.0005
0.464	-51.656	-8.6595e+05	2742.6	-0.040699	0.083838	1.0001
0.466	-51.713	-8.6595e+05	2742.3	-0.040309	0.084522	0.99972
0.468	-51.799	-8.6596e+05	2742	-0.039918	0.085205	0.99933
0.47	-51.938	-8.6596e+05	2741.7	-0.039528	0.085888	0.99894
0.472	-51.961	-8.6597e+05	2741.4	-0.03943	0.085693	0.99942
0.474	-51.876	-8.6597e+05	2741.1	-0.039333	0.085498	0.99991
0.476	-51.793	-8.6597e+05	2740.8	-0.039235	0.085302	1.0004
0.478	-51.758	-8.6598e+05	2740.5	-0.039138	0.085107	1.0009
0.48	-51.81	-8.6599e+05	2740.3	-0.03904	0.084912	1.0014
0.482	-51.894	-8.6599e+05	2740	-0.040797	0.085107	1.0011
0.484	-51.982	-8.6599e+05	2739.8	-0.042554	0.085302	1.0008
0.486	-52.091	-8.6599e+05	2739.6	-0.04431	0.085498	1.0005
0.488	-52.108	-8.6598e+05	2739.3	-0.046067	0.085693	1.0002
0.49	-52.04	-8.6599e+05	2739.1	-0.047824	0.085888	0.99991
0.492	-51.953	-8.6599e+05	2738.9	-0.045579	0.085888	1.0007
0.494	-51.847	-8.6598e+05	2738.6	-0.043334	0.085888	1.0015
0.496	-51.811	-8.6598e+05	2738.5	-0.04109	0.085888	1.0023
0.498	-51.828	-8.6598e+05	2738.4	-0.038845	0.085888	1.003
0.5	-51.813	-8.6599e+05	2738.4	-0.0366	0.085888	1.0038
0.502	-51.83	-8.6599e+05	2738.2	-0.037869	0.085498	1.0031
0.504	-51.824	-8.66e+05	2738.1	-0.039138	0.085107	1.0024
0.506	-51.76	-8.66e+05	2737.9	-0.040406	0.084717	1.0018
0.508	-51.679	-8.66e+05	2737.7	-0.041675	0.084326	1.0011
0.51	-51.609	-8.66e+05	2737.5	-0.042944	0.083936	1.0004
0.512	-51.592	-8.6601e+05	2737.2	-0.042651	0.083936	1.0009
0.514	-51.651	-8.6601e+05	2736.9	-0.042358	0.083936	1.0014
0.516	-51.73	-8.6601e+05	2736.6	-0.042066	0.083936	1.0019
0.518	-51.775	-8.6601e+05	2736.3	-0.041773	0.083936	1.0024
0.52	-51.794	-8.6602e+05	2736.1	-0.04148	0.083936	1.0028
0.522	-51.755	-8.6602e+05	2735.9	-0.042944	0.085205	1.0019
0.524	-51.697	-8.6602e+05	2735.6	-0.044408	0.086474	1.0009
0.526	-51.649	-8.6602e+05	2735.4	-0.045872	0.087742	0.99991
0.528	-51.642	-8.6602e+05	2735.1	-0.047336	0.089011	0.99894
0.53	-51.665	-8.6603e+05	2734.9	-0.0488	0.09028	0.99796
0.532	-51.738	-8.6603e+05	2734.6	-0.049386	0.091354	0.99894
0.534	-51.771	-8.6603e+05	2734.4	-0.049971	0.092427	0.99991
0.536	-51.803	-8.6604e+05	2734.1	-0.050557	0.093501	1.0009
0.538	-51.855	-8.6604e+05	2733.7	-0.051142	0.094574	1.0019
0.54	-51.837	-8.6604e+05	2733.3	-0.051728	0.095648	1.0028
0.542	-51.823	-8.6604e+05	2732.9	-0.050557	0.093794	1.0019
0.544	-51.763	-8.6604e+05	2732.5	-0.049386	0.091939	1.0009
0.546	-51.732	-8.6605e+05	2732.1	-0.048214	0.090085	0.99991
0.548	-51.786	-8.6606e+05	2731.8	-0.047043	0.08823	0.99894
0.55	-51.814	-8.6606e+05	2731.4	-0.045872	0.086376	0.99796
0.552	-51.853	-8.6607e+05	2731.2	-0.044018	0.087059	0.99825
0.554	-51.985	-8.6606e+05	2731	-0.042163	0.087742	0.99855
0.556	-51.86	-8.6606e+05	2730.8	-0.040309	0.088426	0.99884
0.558	-51.795	-8.6607e+05	2730.5	-0.038454	0.089109	0.99913
0.56	-51.752	-8.6607e+05	2730.3	-0.0366	0.089792	0.99942
0.562	-51.718	-8.6608e+05	2730.1	-0.039626	0.090475	0.99894
0.564	-51.755	-8.6608e+05	2729.9	-0.042651	0.091158	0.99845
0.566	-51.804	-8.6608e+05	2729.7	-0.045677	0.091842	0.99796
0.568	-51.871	-8.6608e+05	2729.5	-0.048702	0.092525	0.99747
0.57	-51.947	-8.6608e+05	2729.2	-0.051728	0.093208	0.99698
0.572	-51.903	-8.6607e+05	2728.9	-0.050459	0.091451	0.99718
0.574	-51.856	-8.6608e+05	2728.6	-0.04919	0.089694	0.99737
0.576	-51.788	-8.6609e+05	2728.3	-0.047922	0.087938	0.99757
0.578	-51.714	-8.6609e+05	2727.9	-0.046653	0.086181	0.99776
0.58	-51.718	-8.661e+05	2727.6	-0.045384	0.084424	0.99796
0.582	-51.766	-8.661e+05	2727.4	-0.04636	0.085498	0.99776
0.584	-51.853	-8.6611e+05	2727.1	-0.047336	0.086571	0.99757
0.586	-51.928	-8.6611e+05	2726.9	-0.048312	0.087645	0.99737
0.588	-51.933	-8.6611e+05	2726.7	-0.049288	0.088718	0.99718
0.59	-51.9	-8.6611e+05	2726.5	-0.050264	0.089792	0.99698
0.592	-51.845	-8.6611e+05	2726.3	-0.049678	0.089109	0.99718
0.594	-51.779	-8.6611e+05	2726.1	-0.049093	0.088426	0.99737
0.596	-51.777	-8.6612e+05	2725.9	-0.048507	0.087742	0.99757
0.598	-51.841	-8.6612e+05	2725.7	-0.047922	0.087059	0.99776
0.6	-51.907	-8.6613e+05	2725.4	-0.047336	0.086376	0.99796
0.602	-51.951	-8.6613e+05	2725.2	-0.045872	0.08579	0.99923
0.604	-51.966	-8.6613e+05	2724.9	-0.044408	0.085205	1.0005
0.606	-51.963	-8.6613e+05	2724.8	-0.042944	0.084619	1.0018
0.608	-51.904	-8.6613e+05	2724.6	-0.04148	0.084034	1.003
0.61	-51.817	-8.6613e+05	2724.5	-0.040016	0.083448	1.0043
0.612	-51.784	-8.6613e+05	2724.3	-0.041578	0.083643	1.0033
0.614	-51.832	-8.6614e+05	2724.2	-0.043139	0.083838	1.0024
0.616	-51.906	-8.6614e+05	2724.1	-0.044701	0.084034	1.0014
0.618	-51.968	-8.6614e+05	2724	-0.046262	0.084229	1.0004
0.62	-52.022	-8.6615e+05	2723.9	-0.047824	0.084424	0.99942
0.622	-51.996	-8.6615e+05	2723.9	-0.046458	0.084814	0.99981
0.624	-51.911	-8.6616e+05	2723.9	-0.045091	0.085205	1.0002
0.626	-51.868	-8.6617e+05	2724.2	-0.043725	0.085595	1.0006
0.628	-51.773	-8.6618e+05	2724.6	-0.042358	0.085986	1.001
0.63	-51.83	-8.6617e+05	2725.1	-0.040992	0.086376	1.0014
0.632	-51.928	-8.6617e+05	2726.5	-0.042846	0.086571	1.0001
0.634	-51.941	-8.6617e+05	2727.9	-0.044701	0.086766	0.99884
0.636	-51.999	-8.6618e+05	2729.8	-0.046555	0.086962	0.99757
0.638	-52.001	-8.6617e+05	2732.4	-0.04841	0.087157	0.9963
0.64	-51.937	-8.6617e+05	2735	-0.050264	0.087352	0.99503
0.642	-51.956	-8.6619e+05	2738.7	-0.051338	0.087254	0.99542
0.644	-51.897	-8.662e+05	2742.4	-0.052411	0.087157	0.99581
0.646	-51.881	-8.6619e+05	2746.5	-0.053485	0.087059	0.9962
0.648	-51.943	-8.6618e+05	2751.2	-0.054558	0.086962	0.99659
0.65	-51.975	-8.6619e+05	2755.9	-0.055632	0.086864	0.99698
0.652	-52.06	-8.662e+05	2760.3	-0.056022	0.086474	0.99757
0.654	-52.104	-8.6621e+05	2764.8	-0.056413	0.086083	0.99816
0.656	-52.063	-8.6622e+05	2769.2	-0.056803	0.085693	0.99874
0.658	-52.004	-8.6621e+05	2773.3	-0.057194	0.085302	0.99933
0.66	-51.949	-8.662e+05	2777.5	-0.057584	0.084912	0.99991
0.662	-51.907	-8.662e+05	2781.5	-0.057486	0.084229	0.99942
0.664	-51.928	-8.662e+05	2785.6	-0.057389	0.083546	0.99894
0.666	-51.987	-8.662e+05	2789.8	-0.057291	0.082862	0.99845
0.668	-52.072	-8.662e+05	2794.2	-0.057194	0.082179	0.99796
0.67	-52.138	-8.662e+05	2798.6	-0.057096	0.081496	0.99747
0.672	-52.092	-8.6621e+05	2803.2	-0.055925	0.08257	0.99669
0.674	-52.017	-8.6622e+05	2807.7	-0.054754	0.083643	0.99591
0.676	-51.95	-8.6622e+05	2812.1	-0.053582	0.084717	0.99513
0.678	-51.909	-8.6621e+05	2816.2	-0.052411	0.08579	0.99435
0.68	-51.961	-8.6621e+05	2820.3	-0.05124	0.086864	0.99357
0.682	-52.041	-8.662e+05	2823.6	-0.051338	0.087254	0.99396
0.684	-52.124	-8.662e+05	2826.9	-0.051435	0.087645	0.99435
0.686	-52.231	-8.662e+05	2829.6	-0.051533	0.088035	0.99474
0.688	-52.246	-8.662e+05	2831.9	-0.05163	0.088426	0.99513
0.69	-52.139	-8.6619e+05	2834.1	-0.051728	0.088816	0.99552
0.692	-52.033	-8.6619e+05	2835.5	-0.052118	0.088523	0.99513
0.694	-51.965	-8.6619e+05	2836.9	-0.052509	0.08823	0.99474
0.696	-51.931	-8.662e+05	2838	-0.052899	0.087938	0.99435
0.698	-52.009	-8.6619e+05	2838.9	-0.05329	0.087645	0.99396
0.7	-52.104	-8.6619e+05	2839.8	-0.05368	0.087352	0.99357
0.702	-52.156	-8.6618e+05	2840.4	-0.052802	0.086766	0.99474
0.704	-52.185	-8.6617e+05	2840.9	-0.051923	0.086181	0.99591
0.706	-52.124	-8.6617e+05	2841.4	-0.051045	0.085595	0.99708
0.708	-52.134	-8.6617e+05	2841.7	-0.050166	0.08501	0.99825
0.71	-52.036	-8.6617e+05	2842	-0.049288	0.084424	0.99942
0.712	-51.939	-8.6616e+05	2842.2	-0.049971	0.0854	0.99864
0.714	-52.054	-8.6616e+05	2842.4	-0.050654	0.086376	0.99786
0.716	-52.105	-8.6615e+05	2842.5	-0.051338	0.087352	0.99708
0.718	-52.125	-8.6615e+05	2842.6	-0.052021	0.088328	0.9963
0.72	-52.18	-8.6614e+05	2842.7	-0.052704	0.089304	0.99552
0.722	-52.101	-8.6614e+05	2842.7	-0.053094	0.088523	0.9963
0.724	-52.042	-8.6614e+05	2842.8	-0.053485	0.087742	0.99708
0.726	-51.995	-8.6613e+05	2842.7	-0.053875	0.086962	0.99786
0.728	-51.967	-8.6613e+05	2842.7	-0.054266	0.086181	0.99864
0.73	-52.01	-8.6612e+05	2842.6	-0.054656	0.0854	0.99942
0.732	-52.036	-8.6612e+05	2842.5	-0.054851	0.084717	0.99962
0.734	-52.113	-8.661e+05	2842.4	-0.055046	0.084034	0.99981
0.736	-52.172	-8.6609e+05	2842.2	-0.055242	0.08335	1
0.738	-52.116	-8.6609e+05	2842.1	-0.055437	0.082667	1.0002
0.74	-52.106	-8.6609e+05	2841.9	-0.055632	0.081984	1.0004
0.742	-52.084	-8.6608e+05	2841.6	-0.05573	0.08257	0.99923
0.744	-51.987	-8.6608e+05	2841.3	-0.055827	0.083155	0.99806
0.746	-51.97	-8.6607e+05	2840.9	-0.055925	0.083741	0.99689
0.748	-52.018	-8.6606e+05	2840.5	-0.056022	0.084326	0.99572
0.75	-52.056	-8.6606e+05	2840	-0.05612	0.084912	0.99454
0.752	-52.15	-8.6605e+05	2839.6	-0.055925	0.085498	0.99523
0.754	-52.175	-8.6604e+05	2839.1	-0.05573	0.086083	0.99591
0.756	-52.118	-8.6604e+05	2838.6	-0.055534	0.086669	0.99659
0.758	-52.07	-8.6603e+05	2838.2	-0.055339	0.087254	0.99728
0.76	-52.004	-8.6603e+05	2837.7	-0.055144	0.08784	0.99796
0.762	-51.947	-8.6602e+05	2837.2	-0.054363	0.087157	0.99855
0.764	-51.978	-8.6602e+05	2836.7	-0.053582	0.086474	0.99913
0.766	-52.055	-8.66e+05	2836.1	-0.052802	0.08579	0.99972
0.768	-52.104	-8.6599e+05	2835.5	-0.052021	0.085107	1.0003
0.77	-52.13	-8.6599e+05	2834.9	-0.05124	0.084424	1.0009
0.772	-52.103	-8.6599e+05	2834.3	-0.051435	0.08501	1.0005
0.774	-52.03	-8.6598e+05	2833.7	-0.05163	0.085595	1.0001
0.776	-51.993	-8.6597e+05	2833.1	-0.051826	0.086181	0.99972
0.778	-51.963	-8.6597e+05	2832.5	-0.052021	0.086766	0.99933
0.78	-51.992	-8.6597e+05	2831.8	-0.052216	0.087352	0.99894
0.782	-52.056	-8.6596e+05	2831.2	-0.051923	0.086864	0.99952
0.784	-52.113	-8.6596e+05	2830.5	-0.05163	0.086376	1.0001
0.786	-52.16	-8.6595e+05	2829.8	-0.051338	0.085888	1.0007
0.788	-52.187	-8.6595e+05	2829.2	-0.051045	0.0854	1.0013
0.79	-52.125	-8.6594e+05	2828.5	-0.050752	0.084912	1.0019
0.792	-52.071	-8.6594e+05	2827.8	-0.05163	0.085205	1.001
0.794	-51.998	-8.6593e+05	2827.1	-0.052509	0.085498	1.0001
0.796	-51.977	-8.6592e+05	2826.4	-0.053387	0.08579	0.99923
0.798	-52.036	-8.6591e+05	2825.7	-0.054266	0.086083	0.99835
0.8	-52.053	-8.659e+05	2825	-0.055144	0.086376	0.99747
0.802	-52.103	-8.659e+05	2824.3	-0.054461	0.086766	0.99776
0.804	-52.171	-8.6589e+05	2823.6	-0.053778	0.087157	0.99806
0.806	-52.1	-8.6589e+05	2822.9	-0.053094	0.087547	0.99835
0.808	-52.082	-8.6589e+05	2822.2	-0.052411	0.087938	0.99864
0.81	-52.038	-8.6589e+05	2821.5	-0.051728	0.088328	0.99894
0.812	-51.936	-8.6588e+05	2820.7	-0.052021	0.089109	0.99903
0.814	-52.058	-8.6588e+05	2820	-0.052314	0.08989	0.99913
0.816	-52.133	-8.6587e+05	2819.3	-0.052606	0.09067	0.99923
0.818	-52.198	-8.6587e+05	2818.6	-0.052899	0.091451	0.99933
0.82	-52.243	-8.6586e+05	2817.9	-0.053192	0.092232	0.99942
0.822	-52.228	-8.6586e+05	2817.2	-0.05407	0.090573	0.99952
0.824	-52.159	-8.6586e+05	2816.4	-0.054949	0.088914	0.99962
0.826	-52.07	-8.6585e+05	2815.6	-0.055827	0.087254	0.99972
0.828	-51.978	-8.6584e+05	2814.8	-0.056706	0.085595	0.99981
0.83	-52.018	-8.6584e+05	2814	-0.057584	0.083936	0.99991
0.832	-52.101	-8.6583e+05	2813.2	-0.057096	0.084522	0.99923
0.834	-52.189	-8.6583e+05	2812.4	-0.056608	0.085107	0.99855
0.836	-52.276	-8.6583e+05	2811.5	-0.05612	0.085693	0.99786
0.838	-52.248	-8.6583e+05	2810.7	-0.055632	0.086278	0.99718
0.84	-52.159	-8.6583e+05	2809.8	-0.055144	0.086864	0.9965
0.842	-52.087	-8.6582e+05	2808.9	-0.05368	0.086864	0.99737
0.844	-51.977	-8.6581e+05	2808	-0.052216	0.086864	0.99825
0.846	-51.953	-8.6581e+05	2807.2	-0.050752	0.086864	0.99913
0.848	-52.028	-8.658e+05	2806.3	-0.049288	0.086864	1
0.85	-52.122	-8.658e+05	2805.4	-0.047824	0.086864	1.0009
0.852	-52.226	-8.658e+05	2804.5	-0.049483	0.086474	1.0004
0.854	-52.279	-8.658e+05	2803.6	-0.051142	0.086083	0.99991
0.856	-52.228	-8.658e+05	2802.6	-0.052802	0.085693	0.99942
0.858	-52.132	-8.6579e+05	2801.7	-0.054461	0.085302	0.99894
0.86	-52.057	-8.6579e+05	2800.8	-0.05612	0.084912	0.99845
0.862	-52.005	-8.6579e+05	2799.8	-0.053387	0.08296	0.99874
0.864	-52.054	-8.6579e+05	2798.8	-0.050654	0.081008	0.99903
0.866	-52.174	-8.6578e+05	2797.9	-0.047922	0.079056	0.99933
0.868	-52.239	-8.6577e+05	2796.9	-0.045189	0.077104	0.99962
0.87	-52.259	-8.6577e+05	2795.9	-0.042456	0.075152	0.99991
0.872	-52.206	-8.6577e+05	2794.8	-0.043725	0.075542	0.99903
0.874	-52.191	-8.6577e+05	2793.8	-0.044994	0.075933	0.99816
0.876	-52.16	-8.6577e+05	2792.7	-0.046262	0.076323	0.99728
0.878	-52.08	-8.6577e+05	2791.5	-0.047531	0.076714	0.9964
0.88	-52.068	-8.6577e+05	2790.3	-0.0488	0.077104	0.99552
0.882	-52.156	-8.6577e+05	2789.2	-0.04841	0.077104	0.99591
0.884	-52.239	-8.6576e+05	2788	-0.048019	0.077104	0.9963
0.886	-52.329	-8.6576e+05	2786.8	-0.047629	0.077104	0.99669
0.888	-52.315	-8.6577e+05	2785.7	-0.047238	0.077104	0.99708
0.89	-52.228	-8.6577e+05	2784.5	-0.046848	0.077104	0.99747
0.892	-52.212	-8.6577e+05	2783.4	-0.046848	0.077104	0.99806
0.894	-52.132	-8.6576e+05	2782.2	-0.046848	0.077104	0.99864
0.896	-52.078	-8.6575e+05	2781.2	-0.046848	0.077104	0.99923
0.898	-52.157	-8.6575e+05	2780.1	-0.046848	0.077104	0.99981
0.9	-52.202	-8.6575e+05	2779.1	-0.046848	0.077104	1.0004
0.902	-52.263	-8.6576e+05	2778.1	-0.046946	0.078373	1.0007
0.904	-52.329	-8.6576e+05	2777.1	-0.047043	0.079642	1.001
0.906	-52.296	-8.6575e+05	2776.2	-0.047141	0.08091	1.0013
0.908	-52.196	-8.6575e+05	2775.3	-0.047238	0.082179	1.0016
0.91	-52.103	-8.6575e+05	2774.5	-0.047336	0.083448	1.0019
0.912	-52.072	-8.6574e+05	2773.7	-0.049288	0.08296	1.0016
0.914	-52.107	-8.6574e+05	2772.9	-0.05124	0.082472	1.0013
0.916	-52.201	-8.6574e+05	2772.2	-0.053192	0.081984	1.001
0.918	-52.292	-8.6574e+05	2771.6	-0.055144	0.081496	1.0007
0.92	-52.342	-8.6574e+05	2770.9	-0.057096	0.081008	1.0004
0.922	-52.3	-8.6574e+05	2770.3	-0.057389	0.082277	0.99972
0.924	-52.247	-8.6574e+05	2769.8	-0.057682	0.083546	0.99903
0.926	-52.195	-8.6574e+05	2769.3	-0.057974	0.084814	0.99835
0.928	-52.119	-8.6574e+05	2768.9	-0.058267	0.086083	0.99767
0.93	-52.116	-8.6574e+05	2768.4	-0.05856	0.087352	0.99698
0.932	-52.18	-8.6574e+05	2768.1	-0.057486	0.087059	0.99767
0.934	-52.211	-8.6574e+05	2767.7	-0.056413	0.086766	0.99835
0.936	-52.264	-8.6574e+05	2767.4	-0.055339	0.086474	0.99903
0.938	-52.29	-8.6574e+05	2767.2	-0.054266	0.086181	0.99972
0.94	-52.223	-8.6574e+05	2767.1	-0.053192	0.085888	1.0004
0.942	-52.145	-8.6574e+05	2767	-0.054168	0.08501	1.0006
0.944	-52.081	-8.6574e+05	2766.9	-0.055144	0.084131	1.0008
0.946	-52.102	-8.6574e+05	2766.9	-0.05612	0.083253	1.001
0.948	-52.173	-8.6574e+05	2766.9	-0.057096	0.082374	1.0012
0.95	-52.213	-8.6574e+05	2767	-0.058072	0.081496	1.0014
0.952	-52.308	-8.6574e+05	2767.1	-0.057584	0.081886	1.0013
0.954	-52.343	-8.6574e+05	2767.3	-0.057096	0.082277	1.0012
0.956	-52.28	-8.6574e+05	2767.4	-0.056608	0.082667	1.0011
0.958	-52.214	-8.6574e+05	2767.6	-0.05612	0.083058	1.001
0.96	-52.118	-8.6574e+05	2767.8	-0.055632	0.083448	1.0009
0.962	-52.087	-8.6574e+05	2768	-0.055437	0.084326	1.0001
0.964	-52.123	-8.6574e+05	2768.2	-0.055242	0.085205	0.99933
0.966	-52.181	-8.6574e+05	2768.4	-0.055046	0.086083	0.99855
0.968	-52.268	-8.6573e+05	2768.7	-0.054851	0.086962	0.99776
0.97	-52.349	-8.6574e+05	2768.9	-0.054656	0.08784	0.99698
0.972	-52.312	-8.6575e+05	2769.2	-0.054558	0.086962	0.99796
0.974	-52.238	-8.6575e+05	2769.5	-0.054461	0.086083	0.99894
0.976	-52.156	-8.6574e+05	2769.7	-0.054363	0.085205	0.99991
0.978	-52.043	-8.6574e+05	2770.1	-0.054266	0.084326	1.0009
0.98	-52.089	-8.6574e+05	2770.4	-0.054168	0.083448	1.0019
0.982	-52.156	-8.6574e+05	2770.6	-0.05573	0.083936	1.0006
0.984	-52.222	-8.6574e+05	2770.9	-0.057291	0.084424	0.99933
0.986	-52.311	-8.6574e+05	2771.1	-0.058853	0.084912	0.99806
0.988	-52.283	-8.6574e+05	2771.4	-0.060414	0.0854	0.99679
0.99	-52.211	-8.6574e+05	2771.6	-0.061976	0.085888	0.99552
0.992	-52.187	-8.6574e+05	2771.8	-0.062562	0.086864	0.99572
0.994	-52.114	-8.6575e+05	2772	-0.063147	0.08784	0.99591
0.996	-52.135	-8.6575e+05	2772.1	-0.063733	0.088816	0.99611
0.998	-52.21	-8.6575e+05	2772.2	-0.064318	0.089792	0.9963
1	-52.239	-8.6574e+05	2772.3	-0.064904	0.090768	0.9965
1.002	-52.335	-8.6574e+05	2772.4	-0.064416	0.090573	0.99581
1.004	-52.397	-8.6574e+05	2772.5	-0.063928	0.090378	0.99513
1.006	-52.367	-8.6574e+05	2772.6	-0.06344	0.090182	0.99445
1.008	-52.314	-8.6575e+05	2772.6	-0.062952	0.089987	0.99376
1.01	-52.246	-8.6575e+05	2772.7	-0.062464	0.089792	0.99308
1.012	-52.231	-8.6575e+05	2772.7	-0.062464	0.088718	0.99318
1.014	-52.292	-8.6576e+05	2772.6	-0.062464	0.087645	0.99328
1.016	-52.382	-8.6576e+05	2772.6	-0.062464	0.086571	0.99337
1.018	-52.492	-8.6576e+05	2772.6	-0.062464	0.085498	0.99347
1.02	-52.556	-8.6576e+05	2772.6	-0.062464	0.084424	0.99357
1.022	-52.542	-8.6576e+05	2772.6	-0.062464	0.084717	0.99454
1.024	-52.531	-8.6576e+05	2772.5	-0.062464	0.08501	0.99552
1.026	-52.502	-8.6575e+05	2772.5	-0.062464	0.085302	0.9965
1.028	-52.446	-8.6575e+05	2772.4	-0.062464	0.085595	0.99747
1.03	-52.445	-8.6575e+05	2772.4	-0.062464	0.085888	0.99845
1.032	-52.441	-8.6576e+05	2772.3	-0.063733	0.086669	0.99816
1.034	-52.394	-8.6576e+05	2772.3	-0.065002	0.08745	0.99786
1.036	-52.375	-8.6576e+05	2772.2	-0.06627	0.08823	0.99757
1.038	-52.376	-8.6576e+05	2772.1	-0.067539	0.089011	0.99728
1.04	-52.304	-8.6576e+05	2772	-0.068808	0.089792	0.99698
1.042	-52.21	-8.6577e+05	2771.9	-0.067344	0.08784	0.99737
1.044	-52.161	-8.6578e+05	2771.8	-0.06588	0.085888	0.99776
1.046	-52.095	-8.6578e+05	2771.7	-0.064416	0.083936	0.99816
1.048	-52.13	-8.6578e+05	2771.6	-0.062952	0.081984	0.99855
1.05	-52.227	-8.6577e+05	2771.5	-0.061488	0.080032	0.99894
1.052	-52.352	-8.6577e+05	2771.3	-0.05895	0.080032	0.99972
1.054	-52.376	-8.6577e+05	2771.2	-0.056413	0.080032	1.0005
1.056	-52.268	-8.6578e+05	2771	-0.053875	0.080032	1.0013
1.058	-52.199	-8.6577e+05	2770.7	-0.051338	0.080032	1.0021
1.06	-52.147	-8.6577e+05	2770.5	-0.0488	0.080032	1.0028
1.062	-52.085	-8.6577e+05	2770.3	-0.04919	0.081008	1.0022
1.064	-52.178	-8.6578e+05	2770	-0.049581	0.081984	1.0015
1.066	-52.291	-8.6578e+05	2769.7	-0.049971	0.08296	1.0008
1.068	-52.396	-8.6579e+05	2769.4	-0.050362	0.083936	1.0001
1.07	-52.481	-8.6578e+05	2769.1	-0.050752	0.084912	0.99942
1.072	-52.426	-8.6578e+05	2768.7	-0.05163	0.084717	0.99952
1.074	-52.366	-8.6577e+05	2768.3	-0.052509	0.084522	0.99962
1.076	-52.291	-8.6577e+05	2767.8	-0.053387	0.084326	0.99972
1.078	-52.202	-8.6578e+05	2767.3	-0.054266	0.084131	0.99981
1.08	-52.206	-8.6578e+05	2766.8	-0.055144	0.083936	0.99991
1.082	-52.248	-8.6579e+05	2766.3	-0.054266	0.083155	1.0004
1.084	-52.304	-8.6579e+05	2765.9	-0.053387	0.082374	1.0009
1.086	-52.433	-8.658e+05	2765.4	-0.052509	0.081594	1.0014
1.088	-52.483	-8.6581e+05	2765	-0.05163	0.080813	1.0019
1.09	-52.401	-8.6581e+05	2764.6	-0.050752	0.080032	1.0024
1.092	-52.254	-8.6581e+05	2764.1	-0.050166	0.080422	1.0023
1.094	-52.168	-8.658e+05	2763.7	-0.049581	0.080813	1.0022
1.096	-52.226	-8.6579e+05	2763.2	-0.048995	0.081203	1.0021
1.098	-52.33	-8.658e+05	2762.8	-0.04841	0.081594	1.002
1.1	-52.362	-8.658e+05	2762.3	-0.047824	0.081984	1.0019
1.102	-52.423	-8.6581e+05	2761.7	-0.048995	0.083058	1.0019
1.104	-52.458	-8.6582e+05	2761.2	-0.050166	0.084131	1.0019
1.106	-52.403	-8.6581e+05	2760.6	-0.051338	0.085205	1.0019
1.108	-52.347	-8.6581e+05	2760	-0.052509	0.086278	1.0019
1.11	-52.274	-8.6581e+05	2759.4	-0.05368	0.087352	1.0019
1.112	-52.226	-8.6582e+05	2758.8	-0.052899	0.087059	1.0021
1.114	-52.278	-8.6582e+05	2758.2	-0.052118	0.086766	1.0023
1.116	-52.361	-8.6582e+05	2757.6	-0.051338	0.086474	1.0024
1.118	-52.463	-8.6582e+05	2757	-0.050557	0.086181	1.0026
1.12	-52.544	-8.6582e+05	2756.4	-0.049776	0.085888	1.0028
1.122	-52.482	-8.6582e+05	2755.8	-0.050069	0.085595	1.0034
1.124	-52.387	-8.6582e+05	2755.2	-0.050362	0.085302	1.004
1.126	-52.316	-8.6582e+05	2754.7	-0.050654	0.08501	1.0046
1.128	-52.25	-8.6583e+05	2754.1	-0.050947	0.084717	1.0052
1.13	-52.234	-8.6583e+05	2753.6	-0.05124	0.084424	1.0058
1.132	-52.3	-8.6583e+05	2753	-0.051826	0.084717	1.0047
1.134	-52.357	-8.6583e+05	2752.5	-0.052411	0.08501	1.0036
1.136	-52.462	-8.6584e+05	2752	-0.052997	0.085302	1.0025
1.138	-52.5	-8.6584e+05	2751.4	-0.053582	0.085595	1.0015
1.14	-52.432	-8.6584e+05	2750.9	-0.054168	0.085888	1.0004
1.142	-52.319	-8.6584e+05	2750.3	-0.05368	0.0854	0.99972
1.144	-52.224	-8.6585e+05	2749.7	-0.053192	0.084912	0.99903
1.146	-52.231	-8.6585e+05	2749.1	-0.052704	0.084424	0.99835
1.148	-52.357	-8.6584e+05	2748.5	-0.052216	0.083936	0.99767
1.15	-52.457	-8.6585e+05	2747.8	-0.051728	0.083448	0.99698
1.152	-52.524	-8.6585e+05	2747.2	-0.052314	0.08335	0.99747
1.154	-52.565	-8.6586e+05	2746.6	-0.052899	0.083253	0.99796
1.156	-52.472	-8.6587e+05	2746	-0.053485	0.083155	0.99845
1.158	-52.406	-8.6586e+05	2745.5	-0.05407	0.083058	0.99894
1.16	-52.371	-8.6586e+05	2745.1	-0.054656	0.08296	0.99942
1.162	-52.291	-8.6586e+05	2744.8	-0.053778	0.084034	0.99894
1.164	-52.331	-8.6587e+05	2744.6	-0.052899	0.085107	0.99845
1.166	-52.419	-8.6587e+05	2744.7	-0.052021	0.086181	0.99796
1.168	-52.505	-8.6587e+05	2745.1	-0.051142	0.087254	0.99747
1.17	-52.573	-8.6588e+05	2745.5	-0.050264	0.088328	0.99698
1.172	-52.526	-8.6589e+05	2746.9	-0.050654	0.088328	0.99737
1.174	-52.492	-8.6589e+05	2748.3	-0.051045	0.088328	0.99776
1.176	-52.42	-8.6588e+05	2750.1	-0.051435	0.088328	0.99816
1.178	-52.317	-8.6588e+05	2752.4	-0.051826	0.088328	0.99855
1.18	-52.323	-8.6588e+05	2754.7	-0.052216	0.088328	0.99894
1.182	-52.393	-8.6589e+05	2757.8	-0.052216	0.088718	0.99903
1.184	-52.489	-8.6589e+05	2760.8	-0.052216	0.089109	0.99913
1.186	-52.592	-8.6589e+05	2764.3	-0.052216	0.089499	0.99923
1.188	-52.617	-8.6588e+05	2768	-0.052216	0.08989	0.99933
1.19	-52.549	-8.6589e+05	2771.8	-0.052216	0.09028	0.99942
1.192	-52.447	-8.6589e+05	2776.1	-0.050166	0.089109	1.0002
1.194	-52.356	-8.659e+05	2780.3	-0.048117	0.087938	1.001
1.196	-52.354	-8.6591e+05	2784.8	-0.046067	0.086766	1.0018
1.198	-52.431	-8.659e+05	2789.4	-0.044018	0.085595	1.0025
1.2	-52.49	-8.6589e+05	2794	-0.041968	0.084424	1.0033
1.202	-52.555	-8.6589e+05	2798.5	-0.041773	0.084229	1.004
1.204	-52.588	-8.6589e+05	2803	-0.041578	0.084034	1.0047
1.206	-52.533	-8.6589e+05	2807.2	-0.041382	0.083838	1.0054
1.208	-52.496	-8.6589e+05	2811.2	-0.041187	0.083643	1.0061
1.21	-52.458	-8.6589e+05	2815.1	-0.040992	0.083448	1.0067
1.212	-52.39	-8.6589e+05	2817.9	-0.041675	0.084034	1.0051
1.214	-52.422	-8.659e+05	2820.8	-0.042358	0.084619	1.0034
1.216	-52.501	-8.659e+05	2823.2	-0.043042	0.085205	1.0018
1.218	-52.576	-8.659e+05	2825.2	-0.043725	0.08579	1.0001
1.22	-52.683	-8.6589e+05	2827.1	-0.044408	0.086376	0.99845
1.222	-52.658	-8.6589e+05	2828.4	-0.046458	0.085986	0.99816
1.224	-52.538	-8.6588e+05	2829.8	-0.048507	0.085595	0.99786
1.226	-52.487	-8.6588e+05	2830.9	-0.050557	0.085205	0.99757
1.228	-52.387	-8.6588e+05	2831.8	-0.052606	0.084814	0.99728
1.23	-52.423	-8.6587e+05	2832.7	-0.054656	0.084424	0.99698
1.232	-52.547	-8.6586e+05	2833.4	-0.053875	0.084814	0.99669
1.234	-52.626	-8.6586e+05	2834	-0.053094	0.085205	0.9964
1.236	-52.656	-8.6585e+05	2834.6	-0.052314	0.085595	0.99611
1.238	-52.617	-8.6585e+05	2835.1	-0.051533	0.085986	0.99581
1.24	-52.559	-8.6585e+05	2835.6	-0.050752	0.086376	0.99552
1.242	-52.478	-8.6584e+05	2835.9	-0.05085	0.085986	0.99659
1.244	-52.402	-8.6583e+05	2836.2	-0.050947	0.085595	0.99767
1.246	-52.403	-8.6583e+05	2836.4	-0.051045	0.085205	0.99874
1.248	-52.49	-8.6584e+05	2836.6	-0.051142	0.084814	0.99981
1.25	-52.529	-8.6583e+05	2836.7	-0.05124	0.084424	1.0009
1.252	-52.625	-8.6583e+05	2836.6	-0.050947	0.084131	1.0009
1.254	-52.661	-8.6581e+05	2836.5	-0.050654	0.083838	1.0009
1.256	-52.59	-8.658e+05	2836.3	-0.050362	0.083546	1.0009
1.258	-52.514	-8.6579e+05	2836.1	-0.050069	0.083253	1.0009
1.26	-52.414	-8.6579e+05	2835.8	-0.049776	0.08296	1.0009
1.262	-52.36	-8.6578e+05	2835.5	-0.050166	0.08296	1.002
1.264	-52.398	-8.6578e+05	2835.2	-0.050557	0.08296	1.003
1.266	-52.462	-8.6577e+05	2834.8	-0.050947	0.08296	1.0041
1.268	-52.547	-8.6576e+05	2834.3	-0.051338	0.08296	1.0052
1.27	-52.609	-8.6575e+05	2833.9	-0.051728	0.08296	1.0063
1.272	-52.566	-8.6575e+05	2833.4	-0.050362	0.082082	1.0059
1.274	-52.509	-8.6574e+05	2832.8	-0.048995	0.081203	1.0055
1.276	-52.462	-8.6573e+05	2832.2	-0.047629	0.080325	1.0051
1.278	-52.396	-8.6572e+05	2831.6	-0.046262	0.079446	1.0047
1.28	-52.422	-8.6571e+05	2831	-0.044896	0.078568	1.0043
1.282	-52.503	-8.6571e+05	2830.2	-0.045286	0.078373	1.0039
1.284	-52.533	-8.657e+05	2829.5	-0.045677	0.078178	1.0035
1.286	-52.578	-8.6569e+05	2828.8	-0.046067	0.077982	1.0031
1.288	-52.607	-8.6569e+05	2828.1	-0.046458	0.077787	1.0027
1.29	-52.569	-8.6568e+05	2827.4	-0.046848	0.077592	1.0024
1.292	-52.531	-8.6568e+05	2826.7	-0.04597	0.07769	1.0025
1.294	-52.45	-8.6568e+05	2826	-0.045091	0.077787	1.0027
1.296	-52.385	-8.6567e+05	2825.4	-0.044213	0.077885	1.0029
1.298	-52.404	-8.6567e+05	2824.7	-0.043334	0.077982	1.0031
1.3	-52.473	-8.6566e+05	2824	-0.042456	0.07808	1.0033
1.302	-52.566	-8.6565e+05	2823.3	-0.043822	0.077982	1.0022
1.304	-52.628	-8.6565e+05	2822.5	-0.045189	0.077885	1.001
1.306	-52.592	-8.6564e+05	2821.8	-0.046555	0.077787	0.99981
1.308	-52.539	-8.6564e+05	2821	-0.047922	0.07769	0.99864
1.31	-52.427	-8.6563e+05	2820.3	-0.049288	0.077592	0.99747
1.312	-52.315	-8.6561e+05	2819.5	-0.048214	0.078178	0.99884
1.314	-52.372	-8.6561e+05	2818.8	-0.047141	0.078763	1.0002
1.316	-52.448	-8.6561e+05	2818	-0.046067	0.079349	1.0016
1.318	-52.572	-8.6559e+05	2817.3	-0.044994	0.079934	1.0029
1.32	-52.643	-8.6558e+05	2816.5	-0.04392	0.08052	1.0043
1.322	-52.566	-8.6558e+05	2815.8	-0.043627	0.080715	1.0049
1.324	-52.505	-8.6557e+05	2815.1	-0.043334	0.08091	1.0055
1.326	-52.45	-8.6557e+05	2814.4	-0.043042	0.081106	1.0061
1.328	-52.364	-8.6556e+05	2813.8	-0.042749	0.081301	1.0066
1.33	-52.392	-8.6556e+05	2813.1	-0.042456	0.081496	1.0072
1.332	-52.474	-8.6556e+05	2812.5	-0.043139	0.081106	1.0072
1.334	-52.52	-8.6555e+05	2811.8	-0.043822	0.080715	1.0072
1.336	-52.596	-8.6554e+05	2811.1	-0.044506	0.080325	1.0072
1.338	-52.595	-8.6554e+05	2810.4	-0.045189	0.079934	1.0072
1.34	-52.533	-8.6555e+05	2809.8	-0.045872	0.079544	1.0072
1.342	-52.454	-8.6554e+05	2809.1	-0.045384	0.080325	1.0068
1.344	-52.404	-8.6554e+05	2808.5	-0.044896	0.081106	1.0065
1.346	-52.414	-8.6552e+05	2807.9	-0.044408	0.081886	1.0061
1.348	-52.48	-8.6551e+05	2807.2	-0.04392	0.082667	1.0057
1.35	-52.535	-8.6551e+05	2806.6	-0.043432	0.083448	1.0053
1.352	-52.641	-8.6551e+05	2806	-0.042846	0.084131	1.0052
1.354	-52.678	-8.655e+05	2805.4	-0.042261	0.084814	1.0051
1.356	-52.613	-8.6549e+05	2804.8	-0.041675	0.085498	1.005
1.358	-52.548	-8.6549e+05	2804.2	-0.04109	0.086181	1.0049
1.36	-52.461	-8.6549e+05	2803.6	-0.040504	0.086864	1.0048
1.362	-52.403	-8.6549e+05	2803	-0.041382	0.086669	1.0041
1.364	-52.466	-8.655e+05	2802.4	-0.042261	0.086474	1.0034
1.366	-52.526	-8.6549e+05	2801.8	-0.043139	0.086278	1.0027
1.368	-52.543	-8.6549e+05	2801.2	-0.044018	0.086083	1.0021
1.37	-52.584	-8.6548e+05	2800.6	-0.044896	0.085888	1.0014
1.372	-52.56	-8.6546e+05	2800	-0.04597	0.087254	1.0011
1.374	-52.475	-8.6545e+05	2799.5	-0.047043	0.088621	1.0008
1.376	-52.383	-8.6544e+05	2798.8	-0.048117	0.089987	1.0005
1.378	-52.349	-8.6544e+05	2798	-0.04919	0.091354	1.0002
1.38	-52.441	-8.6544e+05	2797.3	-0.050264	0.09272	0.99991
1.382	-52.566	-8.6544e+05	2796.4	-0.050166	0.09233	0.99972
1.384	-52.605	-8.6544e+05	2795.5	-0.050069	0.091939	0.99952
1.386	-52.669	-8.6544e+05	2794.6	-0.049971	0.091549	0.99933
1.388	-52.652	-8.6544e+05	2793.7	-0.049874	0.091158	0.99913
1.39	-52.587	-8.6543e+05	2792.8	-0.049776	0.090768	0.99894
1.392	-52.503	-8.6543e+05	2791.8	-0.049386	0.08989	0.99923
1.394	-52.427	-8.6543e+05	2790.7	-0.048995	0.089011	0.99952
1.396	-52.391	-8.6543e+05	2789.7	-0.048605	0.088133	0.99981
1.398	-52.479	-8.6542e+05	2788.7	-0.048214	0.087254	1.0001
1.4	-52.544	-8.6541e+05	2787.6	-0.047824	0.086376	1.0004
1.402	-52.619	-8.6541e+05	2786.6	-0.046262	0.084814	1.0011
1.404	-52.686	-8.6542e+05	2785.6	-0.044701	0.083253	1.0018
1.406	-52.633	-8.6542e+05	2784.6	-0.043139	0.081691	1.0024
1.408	-52.589	-8.6542e+05	2783.7	-0.041578	0.08013	1.0031
1.41	-52.466	-8.6542e+05	2782.7	-0.040016	0.078568	1.0038
1.412	-52.404	-8.6541e+05	2781.7	-0.039918	0.07847	1.0039
1.414	-52.482	-8.6541e+05	2780.7	-0.039821	0.078373	1.004
1.416	-52.55	-8.6541e+05	2779.7	-0.039723	0.078275	1.0041
1.418	-52.649	-8.654e+05	2778.7	-0.039626	0.078178	1.0042
1.42	-52.702	-8.654e+05	2777.7	-0.039528	0.07808	1.0043
1.422	-52.628	-8.654e+05	2776.7	-0.040699	0.07769	1.0035
1.424	-52.584	-8.6539e+05	2775.8	-0.04187	0.077299	1.0027
1.426	-52.535	-8.6539e+05	2774.8	-0.043042	0.076909	1.002
1.428	-52.461	-8.6539e+05	2773.9	-0.044213	0.076518	1.0012
1.43	-52.49	-8.6539e+05	2773.1	-0.045384	0.076128	1.0004
1.432	-52.542	-8.6539e+05	2772.2	-0.046946	0.07808	1
1.434	-52.603	-8.6538e+05	2771.4	-0.048507	0.080032	0.99962
1.436	-52.634	-8.6538e+05	2770.6	-0.050069	0.081984	0.99923
1.438	-52.602	-8.6538e+05	2769.9	-0.05163	0.083936	0.99884
1.44	-52.576	-8.6538e+05	2769.1	-0.053192	0.085888	0.99845
1.442	-52.579	-8.6539e+05	2768.4	-0.053192	0.086181	0.99786
1.444	-52.523	-8.6539e+05	2767.7	-0.053192	0.086474	0.99728
1.446	-52.496	-8.6539e+05	2767.1	-0.053192	0.086766	0.99669
1.448	-52.549	-8.6539e+05	2766.5	-0.053192	0.087059	0.99611
1.45	-52.584	-8.6539e+05	2765.9	-0.053192	0.087352	0.99552
1.452	-52.615	-8.6539e+05	2765.3	-0.052509	0.08745	0.99503
1.454	-52.649	-8.6539e+05	2764.8	-0.051826	0.087547	0.99454
1.456	-52.64	-8.6539e+05	2764.2	-0.051142	0.087645	0.99406
1.458	-52.597	-8.6539e+05	2763.6	-0.050459	0.087742	0.99357
1.46	-52.513	-8.6539e+05	2763.1	-0.049776	0.08784	0.99308
1.462	-52.449	-8.6538e+05	2762.6	-0.050362	0.088035	0.99376
1.464	-52.49	-8.6537e+05	2762.2	-0.050947	0.08823	0.99445
1.466	-52.585	-8.6538e+05	2761.9	-0.051533	0.088426	0.99513
1.468	-52.665	-8.6539e+05	2761.6	-0.052118	0.088621	0.99581
1.47	-52.687	-8.6539e+05	2761.4	-0.052704	0.088816	0.9965
1.472	-52.715	-8.6539e+05	2761.3	-0.051728	0.088816	0.99747
1.474	-52.66	-8.6539e+05	2761.3	-0.050752	0.088816	0.99845
1.476	-52.544	-8.6539e+05	2761.3	-0.049776	0.088816	0.99942
1.478	-52.465	-8.6539e+05	2761.3	-0.0488	0.088816	1.0004
1.48	-52.519	-8.654e+05	2761.4	-0.047824	0.088816	1.0014
1.482	-52.605	-8.654e+05	2761.7	-0.046165	0.08823	1.0019
1.484	-52.637	-8.654e+05	2761.9	-0.044506	0.087645	1.0024
1.486	-52.715	-8.6539e+05	2762.2	-0.042846	0.087059	1.0028
1.488	-52.738	-8.6539e+05	2762.6	-0.041187	0.086474	1.0033
1.49	-52.657	-8.6539e+05	2762.9	-0.039528	0.085888	1.0038
1.492	-52.603	-8.654e+05	2763.4	-0.040309	0.085693	1.0037
1.494	-52.515	-8.6539e+05	2763.9	-0.04109	0.085498	1.0036
1.496	-52.486	-8.6539e+05	2764.3	-0.04187	0.085302	1.0035
1.498	-52.551	-8.6539e+05	2764.9	-0.042651	0.085107	1.0034
1.5	-52.61	-8.6539e+05	2765.4	-0.043432	0.084912	1.0033
1.502	-52.722	-8.654e+05	2765.9	-0.043334	0.084814	1.0033
1.504	-52.753	-8.6541e+05	2766.5	-0.043237	0.084717	1.0033
1.506	-52.688	-8.6541e+05	2767.1	-0.043139	0.084619	1.0033
1.508	-52.641	-8.654e+05	2767.6	-0.043042	0.084522	1.0033
1.51	-52.567	-8.6539e+05	2768.2	-0.042944	0.084424	1.0033
1.512	-52.531	-8.6539e+05	2768.6	-0.042944	0.084034	1.0031
1.514	-52.565	-8.6539e+05	2769.1	-0.042944	0.083643	1.0029
1.516	-52.603	-8.6539e+05	2769.6	-0.042944	0.083253	1.0027
1.518	-52.674	-8.6539e+05	2770	-0.042944	0.082862	1.0025
1.52	-52.732	-8.654e+05	2770.4	-0.042944	0.082472	1.0024
1.522	-52.712	-8.654e+05	2770.8	-0.042358	0.082374	1.0029
1.524	-52.664	-8.6541e+05	2771.2	-0.041773	0.082277	1.0035
1.526	-52.607	-8.654e+05	2771.6	-0.041187	0.082179	1.0041
1.528	-52.55	-8.654e+05	2771.9	-0.040602	0.082082	1.0047
1.53	-52.557	-8.654e+05	2772.3	-0.040016	0.081984	1.0053
1.532	-52.631	-8.6539e+05	2772.6	-0.040114	0.08257	1.0046
1.534	-52.713	-8.654e+05	2772.8	-0.040211	0.083155	1.0039
1.536	-52.745	-8.654e+05	2773.1	-0.040309	0.083741	1.0032
1.538	-52.703	-8.654e+05	2773.3	-0.040406	0.084326	1.0025
1.54	-52.65	-8.654e+05	2773.6	-0.040504	0.084912	1.0019
1.542	-52.624	-8.654e+05	2773.8	-0.041773	0.084034	1.0017
1.544	-52.584	-8.654e+05	2774	-0.043042	0.083155	1.0015
1.546	-52.59	-8.654e+05	2774.1	-0.04431	0.082277	1.0013
1.548	-52.662	-8.654e+05	2774.2	-0.045579	0.081398	1.0011
1.55	-52.698	-8.654e+05	2774.3	-0.046848	0.08052	1.0009
1.552	-52.737	-8.654e+05	2774.3	-0.04841	0.081886	0.99962
1.554	-52.749	-8.654e+05	2774.4	-0.049971	0.083253	0.99835
1.556	-52.696	-8.654e+05	2774.4	-0.051533	0.084619	0.99708
1.558	-52.634	-8.654e+05	2774.3	-0.053094	0.085986	0.99581
1.56	-52.554	-8.6539e+05	2774.3	-0.054656	0.087352	0.99454
1.562	-52.532	-8.654e+05	2774.1	-0.054363	0.08745	0.99474
1.564	-52.615	-8.654e+05	2774	-0.05407	0.087547	0.99493
1.566	-52.653	-8.654e+05	2773.8	-0.053778	0.087645	0.99513
1.568	-52.733	-8.654e+05	2773.6	-0.053485	0.087742	0.99532
1.57	-52.828	-8.654e+05	2773.4	-0.053192	0.08784	0.99552
1.572	-52.767	-8.654e+05	2773.1	-0.053387	0.087547	0.99572
1.574	-52.667	-8.654e+05	2772.8	-0.053582	0.087254	0.99591
1.576	-52.63	-8.654e+05	2772.5	-0.053778	0.086962	0.99611
1.578	-52.561	-8.654e+05	2772.3	-0.053973	0.086669	0.9963
1.58	-52.589	-8.6541e+05	2772	-0.054168	0.086376	0.9965
1.582	-52.68	-8.654e+05	2771.7	-0.054851	0.085986	0.99679
1.584	-52.719	-8.654e+05	2771.5	-0.055534	0.085595	0.99708
1.586	-52.787	-8.654e+05	2771.2	-0.056218	0.085205	0.99737
1.588	-52.793	-8.6541e+05	2770.8	-0.056901	0.084814	0.99767
1.59	-52.736	-8.6541e+05	2770.5	-0.057584	0.084424	0.99796
1.592	-52.683	-8.6541e+05	2770.2	-0.055242	0.084424	0.99855
1.594	-52.596	-8.6542e+05	2769.8	-0.052899	0.084424	0.99913
1.596	-52.591	-8.6543e+05	2769.5	-0.050557	0.084424	0.99972
1.598	-52.632	-8.6542e+05	2769.1	-0.048214	0.084424	1.0003
1.6	-52.7	-8.6542e+05	2768.8	-0.045872	0.084424	1.0009
1.602	-52.786	-8.6542e+05	2768.4	-0.044896	0.084424	1.0008
1.604	-52.8	-8.6541e+05	2768	-0.04392	0.084424	1.0007
1.606	-52.751	-8.6542e+05	2767.6	-0.042944	0.084424	1.0006
1.608	-52.663	-8.6542e+05	2767.2	-0.041968	0.084424	1.0005
1.61	-52.575	-8.6542e+05	2766.7	-0.040992	0.084424	1.0004
1.612	-52.563	-8.6542e+05	2766.4	-0.040894	0.084034	1.0008
1.614	-52.632	-8.6541e+05	2766	-0.040797	0.083643	1.0012
1.616	-52.691	-8.6541e+05	2765.6	-0.040699	0.083253	1.0016
1.618	-52.746	-8.6542e+05	2765.1	-0.040602	0.082862	1.002
1.62	-52.788	-8.6542e+05	2764.6	-0.040504	0.082472	1.0024
1.622	-52.755	-8.6543e+05	2764.1	-0.041968	0.083546	1.001
1.624	-52.674	-8.6543e+05	2763.6	-0.043432	0.084619	0.99962
1.626	-52.574	-8.6543e+05	2763.1	-0.044896	0.085693	0.99825
1.628	-52.508	-8.6543e+05	2762.6	-0.04636	0.086766	0.99689
1.63	-52.541	-8.6544e+05	2762.1	-0.047824	0.08784	0.99552
1.632	-52.615	-8.6544e+05	2761.6	-0.048117	0.088426	0.99601
1.634	-52.725	-8.6544e+05	2761	-0.04841	0.089011	0.9965
1.636	-52.875	-8.6545e+05	2760.5	-0.048702	0.089597	0.99698
1.638	-52.907	-8.6545e+05	2760	-0.048995	0.090182	0.99747
1.64	-52.826	-8.6544e+05	2759.4	-0.049288	0.090768	0.99796
1.642	-52.719	-8.6544e+05	2758.8	-0.049483	0.089694	0.99835
1.644	-52.594	-8.6543e+05	2758.2	-0.049678	0.088621	0.99874
1.646	-52.57	-8.6544e+05	2758	-0.049874	0.087547	0.99913
1.648	-52.678	-8.6544e+05	2758	-0.050069	0.086474	0.99952
1.65	-52.722	-8.6544e+05	2758	-0.050264	0.0854	0.99991
1.652	-52.789	-8.6544e+05	2757.8	-0.049386	0.085693	0.99991
1.654	-52.826	-8.6545e+05	2757.6	-0.048507	0.085986	0.99991
1.656	-52.789	-8.6545e+05	2757.5	-0.047629	0.086278	0.99991
1.658	-52.723	-8.6545e+05	2757.3	-0.04675	0.086571	0.99991
1.66	-52.662	-8.6545e+05	2757.2	-0.045872	0.086864	0.99991
1.662	-52.581	-8.6545e+05	2756.9	-0.044994	0.086864	0.99981
1.664	-52.632	-8.6545e+05	2756.7	-0.044115	0.086864	0.99972
1.666	-52.691	-8.6545e+05	2756.5	-0.043237	0.086864	0.99962
1.668	-52.724	-8.6545e+05	2756.4	-0.042358	0.086864	0.99952
1.67	-52.812	-8.6545e+05	2756.2	-0.04148	0.086864	0.99942
1.672	-52.795	-8.6545e+05	2756	-0.041968	0.085595	0.99942
1.674	-52.722	-8.6545e+05	2755.9	-0.042456	0.084326	0.99942
1.676	-52.661	-8.6545e+05	2755.7	-0.042944	0.083058	0.99942
1.678	-52.597	-8.6546e+05	2755.5	-0.043432	0.081789	0.99942
1.68	-52.616	-8.6546e+05	2755.3	-0.04392	0.08052	0.99942
1.682	-52.68	-8.6547e+05	2755.2	-0.04392	0.081789	0.99913
1.684	-52.732	-8.6547e+05	2755	-0.04392	0.083058	0.99884
1.686	-52.808	-8.6547e+05	2754.9	-0.04392	0.084326	0.99855
1.688	-52.81	-8.6547e+05	2754.8	-0.04392	0.085595	0.99825
1.69	-52.776	-8.6547e+05	2754.8	-0.04392	0.086864	0.99796
1.692	-52.716	-8.6547e+05	2754.7	-0.042944	0.086278	0.99913
1.694	-52.66	-8.6547e+05	2754.6	-0.041968	0.085693	1.0003
1.696	-52.635	-8.6548e+05	2754.5	-0.040992	0.085107	1.0015
1.698	-52.649	-8.6548e+05	2754.4	-0.040016	0.084522	1.0026
1.7	-52.689	-8.6548e+05	2754.3	-0.03904	0.083936	1.0038
1.702	-52.766	-8.6547e+05	2754.2	-0.03943	0.084326	1.0034
1.704	-52.81	-8.6547e+05	2754.2	-0.039821	0.084717	1.003
1.706	-52.775	-8.6548e+05	2754.1	-0.040211	0.085107	1.0026
1.708	-52.72	-8.6548e+05	2754.1	-0.040602	0.085498	1.0023
1.71	-52.663	-8.6549e+05	2754	-0.040992	0.085888	1.0019
1.712	-52.637	-8.6549e+05	2754	-0.040602	0.085986	1.0008
1.714	-52.673	-8.6549e+05	2753.9	-0.040211	0.086083	0.99972
1.716	-52.707	-8.6549e+05	2753.8	-0.039821	0.086181	0.99864
1.718	-52.755	-8.6549e+05	2753.7	-0.03943	0.086278	0.99757
1.72	-52.828	-8.6549e+05	2753.6	-0.03904	0.086376	0.9965
1.722	-52.797	-8.655e+05	2753.4	-0.039626	0.0854	0.99737
1.724	-52.76	-8.655e+05	2753.3	-0.040211	0.084424	0.99825
1.726	-52.707	-8.655e+05	2753.1	-0.040797	0.083448	0.99913
1.728	-52.595	-8.655e+05	2753	-0.041382	0.082472	1
1.73	-52.589	-8.655e+05	2752.8	-0.041968	0.081496	1.0009
1.732	-52.638	-8.6551e+05	2752.6	-0.041675	0.081984	1.0004
1.734	-52.702	-8.6551e+05	2752.5	-0.041382	0.082472	0.99991
1.736	-52.791	-8.6551e+05	2752.3	-0.04109	0.08296	0.99942
1.738	-52.836	-8.6551e+05	2752.1	-0.040797	0.083448	0.99894
1.74	-52.778	-8.6551e+05	2751.9	-0.040504	0.083936	0.99845
1.742	-52.742	-8.6551e+05	2751.6	-0.040114	0.084424	0.99757
1.744	-52.669	-8.6551e+05	2751.4	-0.039723	0.084912	0.99669
1.746	-52.6	-8.6552e+05	2751.2	-0.039333	0.0854	0.99581
1.748	-52.679	-8.6552e+05	2750.9	-0.038942	0.085888	0.99493
1.75	-52.716	-8.6552e+05	2750.7	-0.038552	0.086376	0.99406
1.752	-52.835	-8.6552e+05	2750.4	-0.038259	0.085498	0.99601
1.754	-52.9	-8.6552e+05	2750.1	-0.037966	0.084619	0.99796
1.756	-52.853	-8.6552e+05	2749.8	-0.037674	0.083741	0.99991
1.758	-52.762	-8.6552e+05	2749.5	-0.037381	0.082862	1.0019
1.76	-52.61	-8.6553e+05	2749.1	-0.037088	0.081984	1.0038
1.762	-52.572	-8.6553e+05	2748.8	-0.037186	0.08335	1.0024
1.764	-52.657	-8.6553e+05	2748.5	-0.037283	0.084717	1.0011
1.766	-52.728	-8.6554e+05	2748.3	-0.037381	0.086083	0.99972
1.768	-52.795	-8.6554e+05	2748	-0.037478	0.08745	0.99835
1.77	-52.854	-8.6554e+05	2747.7	-0.037576	0.088816	0.99698
1.772	-52.845	-8.6554e+05	2747.5	-0.037283	0.088523	0.99757
1.774	-52.81	-8.6554e+05	2747.3	-0.03699	0.08823	0.99816
1.776	-52.73	-8.6554e+05	2747.1	-0.036698	0.087938	0.99874
1.778	-52.634	-8.6554e+05	2747	-0.036405	0.087645	0.99933
1.78	-52.651	-8.6553e+05	2746.8	-0.036112	0.087352	0.99991
1.782	-52.728	-8.6554e+05	2746.6	-0.036795	0.087938	0.99903
1.784	-52.811	-8.6556e+05	2746.4	-0.037478	0.088523	0.99816
1.786	-52.888	-8.6556e+05	2746.2	-0.038162	0.089109	0.99728
1.788	-52.841	-8.6556e+05	2746	-0.038845	0.089694	0.9964
1.79	-52.725	-8.6556e+05	2745.7	-0.039528	0.09028	0.99552
1.792	-52.644	-8.6556e+05	2745.6	-0.038357	0.090573	0.99669
1.794	-52.57	-8.6557e+05	2745.6	-0.037186	0.090866	0.99786
1.796	-52.575	-8.6558e+05	2745.5	-0.036014	0.091158	0.99903
1.798	-52.664	-8.6558e+05	2745.5	-0.034843	0.091451	1.0002
1.8	-52.73	-8.6558e+05	2745.5	-0.033672	0.091744	1.0014
1.802	-52.803	-8.6557e+05	2745.5	-0.033965	0.092232	1.0012
1.804	-52.856	-8.6557e+05	2745.4	-0.034258	0.09272	1.001
1.806	-52.832	-8.6557e+05	2745.3	-0.03455	0.093208	1.0008
1.808	-52.742	-8.6558e+05	2745.1	-0.034843	0.093696	1.0006
1.81	-52.644	-8.6558e+05	2744.9	-0.035136	0.094184	1.0004
1.812	-52.567	-8.6559e+05	2744.8	-0.035136	0.09311	0.99991
1.814	-52.634	-8.6559e+05	2744.7	-0.035136	0.092037	0.99942
1.816	-52.752	-8.6559e+05	2744.6	-0.035136	0.090963	0.99894
1.818	-52.816	-8.6559e+05	2744.5	-0.035136	0.08989	0.99845
1.82	-52.843	-8.6559e+05	2744.4	-0.035136	0.088816	0.99796
1.822	-52.769	-8.656e+05	2744.4	-0.035136	0.089011	0.99728
1.824	-52.74	-8.6561e+05	2744.4	-0.035136	0.089206	0.99659
1.826	-52.697	-8.656e+05	2744.4	-0.035136	0.089402	0.99591
1.828	-52.543	-8.656e+05	2744.2	-0.035136	0.089597	0.99523
1.83	-52.586	-8.656e+05	2744.1	-0.035136	0.089792	0.99454
1.832	-52.756	-8.656e+05	2744	-0.036112	0.089694	0.99445
1.834	-52.815	-8.6561e+05	2743.9	-0.037088	0.089597	0.99435
1.836	-52.902	-8.6561e+05	2743.8	-0.038064	0.089499	0.99425
1.838	-52.903	-8.6562e+05	2743.8	-0.03904	0.089402	0.99415
1.84	-52.823	-8.6562e+05	2743.8	-0.040016	0.089304	0.99406
1.842	-52.752	-8.6562e+05	2743.8	-0.039235	0.089792	0.99435
1.844	-52.619	-8.6562e+05	2743.8	-0.038454	0.09028	0.99464
1.846	-52.626	-8.6562e+05	2743.7	-0.037674	0.090768	0.99493
1.848	-52.719	-8.6562e+05	2743.6	-0.036893	0.091256	0.99523
1.85	-52.74	-8.6563e+05	2743.6	-0.036112	0.091744	0.99552
1.852	-52.821	-8.6563e+05	2743.5	-0.035917	0.091939	0.9965
1.854	-52.862	-8.6564e+05	2743.5	-0.035722	0.092134	0.99747
1.856	-52.79	-8.6565e+05	2743.5	-0.035526	0.09233	0.99845
1.858	-52.727	-8.6565e+05	2743.5	-0.035331	0.092525	0.99942
1.86	-52.667	-8.6565e+05	2743.6	-0.035136	0.09272	1.0004
1.862	-52.681	-8.6565e+05	2743.7	-0.034843	0.091939	0.99981
1.864	-52.779	-8.6565e+05	2743.8	-0.03455	0.091158	0.99923
1.866	-52.846	-8.6566e+05	2743.9	-0.034258	0.090378	0.99864
1.868	-52.898	-8.6566e+05	2744.1	-0.033965	0.089597	0.99806
1.87	-52.978	-8.6566e+05	2744.2	-0.033672	0.088816	0.99747
1.872	-53.003	-8.6566e+05	2744.3	-0.03172	0.08989	0.99913
1.874	-52.956	-8.6566e+05	2744.3	-0.029768	0.090963	1.0008
1.876	-52.887	-8.6566e+05	2744.4	-0.027816	0.092037	1.0024
1.878	-52.841	-8.6567e+05	2744.5	-0.025864	0.09311	1.0041
1.88	-52.896	-8.6567e+05	2744.6	-0.023912	0.094184	1.0058
1.882	-53.012	-8.6568e+05	2744.8	-0.025864	0.094672	1.0075
1.884	-53.098	-8.6569e+05	2745	-0.027816	0.09516	1.0093
1.886	-53.157	-8.6569e+05	2745.3	-0.029768	0.095648	1.011
1.888	-53.134	-8.6569e+05	2745.8	-0.03172	0.096136	1.0128
1.89	-53.013	-8.6569e+05	2746.2	-0.033672	0.096624	1.0146
1.892	-52.899	-8.6569e+05	2746.2	-0.032013	0.095355	1.0131
1.894	-52.802	-8.6569e+05	2746.3	-0.030354	0.094086	1.0116
1.896	-52.755	-8.6568e+05	2746.4	-0.028694	0.092818	1.0102
1.898	-52.757	-8.6568e+05	2746.4	-0.027035	0.091549	1.0087
1.9	-52.783	-8.6568e+05	2746.5	-0.025376	0.09028	1.0072
1.902	-52.829	-8.6569e+05	2746.7	-0.026547	0.090475	1.0066
1.904	-52.846	-8.657e+05	2746.9	-0.027718	0.09067	1.0061
1.906	-52.752	-8.657e+05	2747	-0.02889	0.090866	1.0055
1.908	-52.742	-8.657e+05	2747.1	-0.030061	0.091061	1.0049
1.91	-52.676	-8.657e+05	2747.1	-0.031232	0.091256	1.0043
1.912	-52.579	-8.6569e+05	2747.3	-0.030939	0.090768	1.0034
1.914	-52.673	-8.657e+05	2747.4	-0.030646	0.09028	1.0025
1.916	-52.731	-8.6571e+05	2747.5	-0.030354	0.089792	1.0017
1.918	-52.783	-8.6571e+05	2747.7	-0.030061	0.089304	1.0008
1.92	-52.867	-8.6572e+05	2747.8	-0.029768	0.088816	0.99991
1.922	-52.851	-8.6572e+05	2747.9	-0.031134	0.08989	0.99942
1.924	-52.784	-8.6572e+05	2748.1	-0.032501	0.090963	0.99894
1.926	-52.718	-8.6573e+05	2748.2	-0.033867	0.092037	0.99845
1.928	-52.648	-8.6573e+05	2748.2	-0.035234	0.09311	0.99796
1.93	-52.702	-8.6573e+05	2748.1	-0.0366	0.094184	0.99747
1.932	-52.757	-8.6573e+05	2748.2	-0.035429	0.094086	0.99796
1.934	-52.79	-8.6573e+05	2748.3	-0.034258	0.093989	0.99845
1.936	-52.878	-8.6574e+05	2748.5	-0.033086	0.093891	0.99894
1.938	-52.905	-8.6574e+05	2748.7	-0.031915	0.093794	0.99942
1.94	-52.853	-8.6575e+05	2748.8	-0.030744	0.093696	0.99991
1.942	-52.765	-8.6574e+05	2748.9	-0.031037	0.093598	0.99972
1.944	-52.672	-8.6574e+05	2748.9	-0.03133	0.093501	0.99952
1.946	-52.682	-8.6574e+05	2748.9	-0.031622	0.093403	0.99933
1.948	-52.764	-8.6575e+05	2748.8	-0.031915	0.093306	0.99913
1.95	-52.825	-8.6575e+05	2748.8	-0.032208	0.093208	0.99894
1.952	-52.897	-8.6575e+05	2748.9	-0.031427	0.093208	0.99952
1.954	-52.909	-8.6575e+05	2749	-0.030646	0.093208	1.0001
1.956	-52.837	-8.6576e+05	2749.1	-0.029866	0.093208	1.0007
1.958	-52.77	-8.6576e+05	2749.1	-0.029085	0.093208	1.0013
1.96	-52.708	-8.6576e+05	2749.2	-0.028304	0.093208	1.0019
1.962	-52.665	-8.6577e+05	2749.1	-0.02928	0.094086	1.0015
1.964	-52.696	-8.6577e+05	2749.1	-0.030256	0.094965	1.0011
1.966	-52.767	-8.6577e+05	2749	-0.031232	0.095843	1.0007
1.968	-52.839	-8.6577e+05	2748.9	-0.032208	0.096722	1.0003
1.97	-52.881	-8.6578e+05	2748.9	-0.033184	0.0976	0.99991
1.972	-52.849	-8.6578e+05	2748.8	-0.03211	0.097014	1.0006
1.974	-52.785	-8.6578e+05	2748.7	-0.031037	0.096429	1.0013
1.976	-52.729	-8.6578e+05	2748.7	-0.029963	0.095843	1.002
1.978	-52.676	-8.6578e+05	2748.5	-0.02889	0.095258	1.0026
1.98	-52.695	-8.6579e+05	2748.4	-0.027816	0.094672	1.0033
1.982	-52.745	-8.6579e+05	2748.4	-0.026352	0.094867	1.0027
1.984	-52.833	-8.658e+05	2748.3	-0.024888	0.095062	1.0022
1.986	-52.932	-8.658e+05	2748.3	-0.023424	0.095258	1.0016
1.988	-52.909	-8.6581e+05	2748.2	-0.02196	0.095453	1.001
1.99	-52.857	-8.6582e+05	2748.2	-0.020496	0.095648	1.0004
1.992	-52.815	-8.6583e+05	2748.1	-0.020106	0.096038	1.0011
1.994	-52.69	-8.6583e+05	2747.9	-0.019715	0.096429	1.0018
1.996	-52.665	-8.6582e+05	2747.8	-0.019325	0.096819	1.0024
1.998	-52.739	-8.6583e+05	2747.8	-0.018934	0.09721	1.0031
2	-52.778	-8.6584e+05	2747.7	-0.018544	0.0976	1.0038
2.002	-52.924	-8.6584e+05	2747.6	-0.018544	0.097112	1.0033
2.004	-52.968	-8.6583e+05	2747.5	-0.018544	0.096624	1.0028
2.006	-52.879	-8.6584e+05	2747.4	-0.018544	0.096136	1.0024
2.008	-52.81	-8.6584e+05	2747.3	-0.018544	0.095648	1.0019
2.01	-52.732	-8.6585e+05	2747.3	-0.018544	0.09516	1.0014
2.012	-52.721	-8.6585e+05	2747.6	-0.017958	0.095648	1.0016
2.014	-52.813	-8.6584e+05	2747.9	-0.017373	0.096136	1.0018
2.016	-52.845	-8.6584e+05	2748.6	-0.016787	0.096624	1.002
2.018	-52.929	-8.6585e+05	2749.7	-0.016202	0.097112	1.0022
2.02	-53.016	-8.6585e+05	2750.8	-0.015616	0.0976	1.0024
2.022	-52.929	-8.6586e+05	2752.9	-0.016104	0.096624	1.0001
2.024	-52.866	-8.6587e+05	2755	-0.016592	0.095648	0.99786
2.026	-52.784	-8.6587e+05	2757.7	-0.01708	0.094672	0.99562
2.028	-52.714	-8.6587e+05	2761	-0.017568	0.093696	0.99337
2.03	-52.772	-8.6588e+05	2764.4	-0.018056	0.09272	0.99113
2.032	-52.849	-8.6588e+05	2769.1	-0.019618	0.092037	0.99132
2.034	-52.906	-8.6588e+05	2773.9	-0.021179	0.091354	0.99152
2.036	-52.986	-8.6588e+05	2779.2	-0.022741	0.09067	0.99171
2.038	-52.998	-8.6588e+05	2785.1	-0.024302	0.089987	0.99191
2.04	-52.938	-8.6588e+05	2791	-0.025864	0.089304	0.9921
2.042	-52.847	-8.6588e+05	2796.9	-0.02645	0.089109	0.99288
2.044	-52.756	-8.6589e+05	2802.8	-0.027035	0.088914	0.99367
2.046	-52.744	-8.6589e+05	2807.9	-0.027621	0.088718	0.99445
2.048	-52.813	-8.6589e+05	2812.3	-0.028206	0.088523	0.99523
2.05	-52.898	-8.6589e+05	2816.7	-0.028792	0.088328	0.99601
2.052	-52.992	-8.6589e+05	2820.9	-0.028109	0.087547	0.99591
2.054	-53.036	-8.6588e+05	2825.1	-0.027426	0.086766	0.99581
2.056	-52.991	-8.6588e+05	2829.7	-0.026742	0.085986	0.99572
2.058	-52.936	-8.6588e+05	2834.7	-0.026059	0.085205	0.99562
2.06	-52.858	-8.6587e+05	2839.7	-0.025376	0.084424	0.99552
2.062	-52.81	-8.6587e+05	2844.6	-0.023814	0.08501	0.99445
2.064	-52.874	-8.6587e+05	2849.4	-0.022253	0.085595	0.99337
2.066	-52.921	-8.6587e+05	2853.9	-0.020691	0.086181	0.9923
2.068	-53.002	-8.6586e+05	2858	-0.01913	0.086766	0.99123
2.07	-53.059	-8.6586e+05	2862.1	-0.017568	0.087352	0.99015
2.072	-53.024	-8.6586e+05	2864.9	-0.018349	0.088523	0.99084
2.074	-52.995	-8.6586e+05	2867.6	-0.01913	0.089694	0.99152
2.076	-52.935	-8.6586e+05	2869.7	-0.01991	0.090866	0.9922
2.078	-52.82	-8.6585e+05	2871.2	-0.020691	0.092037	0.99288
2.08	-52.833	-8.6585e+05	2872.6	-0.021472	0.093208	0.99357
2.082	-52.918	-8.6585e+05	2873.4	-0.020594	0.093696	0.9962
2.084	-52.953	-8.6584e+05	2874.2	-0.019715	0.094184	0.99884
2.086	-53.043	-8.6583e+05	2874.6	-0.018837	0.094672	1.0015
2.088	-53.056	-8.6583e+05	2874.8	-0.017958	0.09516	1.0041
2.09	-52.994	-8.6583e+05	2874.9	-0.01708	0.095648	1.0067
2.092	-52.899	-8.6583e+05	2874.7	-0.016787	0.095062	1.0058
2.094	-52.829	-8.6582e+05	2874.5	-0.016494	0.094477	1.0048
2.096	-52.842	-8.658e+05	2874.1	-0.016202	0.093891	1.0038
2.098	-52.94	-8.658e+05	2873.7	-0.015909	0.093306	1.0028
2.1	-53.019	-8.658e+05	2873.2	-0.015616	0.09272	1.0019
2.102	-53.084	-8.6579e+05	2872.5	-0.014347	0.093208	1.0023
2.104	-53.071	-8.6578e+05	2871.7	-0.013078	0.093696	1.0026
2.106	-52.994	-8.6577e+05	2871	-0.01181	0.094184	1.003
2.108	-52.942	-8.6576e+05	2870.3	-0.010541	0.094672	1.0034
2.11	-52.862	-8.6576e+05	2869.7	-0.009272	0.09516	1.0038
2.112	-52.845	-8.6576e+05	2868.7	-0.010541	0.095453	1.005
2.114	-52.895	-8.6574e+05	2867.8	-0.01181	0.095746	1.0062
2.116	-52.942	-8.6573e+05	2866.8	-0.013078	0.096038	1.0073
2.118	-53.019	-8.6572e+05	2865.9	-0.014347	0.096331	1.0085
2.12	-53.08	-8.6571e+05	2864.9	-0.015616	0.096624	1.0097
2.122	-53.045	-8.657e+05	2863.8	-0.015714	0.0976	1.0102
2.124	-52.977	-8.6569e+05	2862.6	-0.015811	0.098576	1.0106
2.126	-52.898	-8.6568e+05	2861.4	-0.015909	0.099552	1.0111
2.128	-52.835	-8.6568e+05	2860.2	-0.016006	0.10053	1.0116
2.13	-52.867	-8.6567e+05	2859	-0.016104	0.1015	1.0121
2.132	-52.957	-8.6567e+05	2857.7	-0.015226	0.10043	1.0119
2.134	-53.065	-8.6566e+05	2856.4	-0.014347	0.099357	1.0117
2.136	-53.143	-8.6566e+05	2855.1	-0.013469	0.098283	1.0115
2.138	-53.1	-8.6564e+05	2853.8	-0.01259	0.09721	1.0113
2.14	-52.998	-8.6562e+05	2852.4	-0.011712	0.096136	1.0111
2.142	-52.902	-8.6562e+05	2851.1	-0.011907	0.096722	1.0106
2.144	-52.817	-8.6562e+05	2849.7	-0.012102	0.097307	1.0102
2.146	-52.804	-8.6561e+05	2848.4	-0.012298	0.097893	1.0097
2.148	-52.899	-8.656e+05	2847.1	-0.012493	0.098478	1.0092
2.15	-52.991	-8.6559e+05	2845.7	-0.012688	0.099064	1.0087
2.152	-53.056	-8.6559e+05	2844.4	-0.010638	0.099454	1.0071
2.154	-53.073	-8.6558e+05	2843.1	-0.0085888	0.099845	1.0056
2.156	-53.004	-8.6558e+05	2841.8	-0.0065392	0.10024	1.004
2.158	-52.938	-8.6557e+05	2840.5	-0.0044896	0.10063	1.0024
2.16	-52.862	-8.6556e+05	2839.3	-0.00244	0.10102	1.0009
2.162	-52.818	-8.6555e+05	2838	-0.0018544	0.10121	1.0013
2.164	-52.883	-8.6553e+05	2836.8	-0.0012688	0.10141	1.0017
2.166	-52.943	-8.6554e+05	2835.6	-0.0006832	0.1016	1.0021
2.168	-52.996	-8.6554e+05	2834.4	-9.76e-05	0.1018	1.0024
2.17	-53.034	-8.6553e+05	2833.3	0.000488	0.10199	1.0028
2.172	-52.969	-8.6552e+05	2832.7	0.0001952	0.10199	1.0037
2.174	-52.903	-8.655e+05	2832.2	-9.76e-05	0.10199	1.0046
2.176	-52.894	-8.6549e+05	2831.8	-0.0003904	0.10199	1.0055
2.178	-52.821	-8.6549e+05	2831.7	-0.0006832	0.10199	1.0064
2.18	-52.863	-8.6549e+05	2831.6	-0.000976	0.10199	1.0072
2.182	-52.921	-8.6548e+05	2830.4	-0.0017568	0.10375	1.0076
2.184	-52.961	-8.6547e+05	2829.3	-0.0025376	0.10551	1.008
2.186	-53.033	-8.6546e+05	2828.4	-0.0033184	0.10726	1.0084
2.188	-53.031	-8.6545e+05	2827.7	-0.0040992	0.10902	1.0088
2.19	-53.004	-8.6545e+05	2827	-0.00488	0.11078	1.0092
2.192	-52.932	-8.6544e+05	2826.4	-0.0060512	0.1098	1.0083
2.194	-52.85	-8.6544e+05	2825.7	-0.0072224	0.10882	1.0074
2.196	-52.836	-8.6543e+05	2825.1	-0.0083936	0.10785	1.0065
2.198	-52.915	-8.6541e+05	2824.6	-0.0095648	0.10687	1.0057
2.2	-52.953	-8.654e+05	2824	-0.010736	0.1059	1.0048
2.202	-53	-8.6539e+05	2823.5	-0.0076128	0.10463	1.0046
2.204	-53	-8.6538e+05	2822.9	-0.0044896	0.10336	1.0044
2.206	-52.958	-8.6538e+05	2822.2	-0.0013664	0.10209	1.0042
2.208	-52.923	-8.6538e+05	2821.5	0.0017568	0.10082	1.004
2.21	-52.853	-8.6537e+05	2820.7	0.00488	0.099552	1.0038
2.212	-52.803	-8.6537e+05	2820.1	0.0035136	0.10014	1.0032
2.214	-52.854	-8.6536e+05	2819.5	0.0021472	0.10072	1.0026
2.216	-52.951	-8.6535e+05	2818.8	0.0007808	0.10131	1.0021
2.218	-53.043	-8.6535e+05	2818.3	-0.0005856	0.10189	1.0015
2.22	-53.098	-8.6535e+05	2817.7	-0.001952	0.10248	1.0009
2.222	-53.061	-8.6535e+05	2817.1	-0.0020496	0.10258	1.0008
2.224	-52.996	-8.6534e+05	2816.5	-0.0021472	0.10268	1.0007
2.226	-52.931	-8.6533e+05	2815.9	-0.0022448	0.10277	1.0006
2.228	-52.859	-8.6532e+05	2815.1	-0.0023424	0.10287	1.0005
2.23	-52.891	-8.6531e+05	2814.3	-0.00244	0.10297	1.0004
2.232	-52.964	-8.6531e+05	2813.7	-0.003416	0.10394	1.0002
2.234	-53.036	-8.653e+05	2813.1	-0.004392	0.10492	1
2.236	-53.121	-8.653e+05	2812.3	-0.005368	0.1059	0.99981
2.238	-53.102	-8.653e+05	2811.5	-0.006344	0.10687	0.99962
2.24	-53	-8.653e+05	2810.6	-0.00732	0.10785	0.99942
2.242	-52.932	-8.6529e+05	2809.9	-0.0076128	0.10648	0.99845
2.244	-52.861	-8.6529e+05	2809.2	-0.0079056	0.10512	0.99747
2.246	-52.877	-8.6528e+05	2808.4	-0.0081984	0.10375	0.9965
2.248	-52.963	-8.6527e+05	2807.4	-0.0084912	0.10238	0.99552
2.25	-53.032	-8.6527e+05	2806.5	-0.008784	0.10102	0.99454
2.252	-53.125	-8.6526e+05	2805.7	-0.0093696	0.10004	0.99532
2.254	-53.148	-8.6526e+05	2804.9	-0.0099552	0.099064	0.99611
2.256	-53.071	-8.6525e+05	2803.9	-0.010541	0.098088	0.99689
2.258	-53.02	-8.6525e+05	2802.9	-0.011126	0.097112	0.99767
2.26	-52.934	-8.6525e+05	2801.9	-0.011712	0.096136	0.99845
2.262	-52.885	-8.6524e+05	2800.7	-0.0098576	0.096526	0.99913
2.264	-52.944	-8.6523e+05	2799.6	-0.0080032	0.096917	0.99981
2.266	-52.988	-8.6523e+05	2798.5	-0.0061488	0.097307	1.0005
2.268	-53.075	-8.6523e+05	2797.5	-0.0042944	0.097698	1.0012
2.27	-53.157	-8.6523e+05	2796.4	-0.00244	0.098088	1.0019
2.272	-53.091	-8.6523e+05	2795.2	-0.0036112	0.097307	1.0013
2.274	-53.009	-8.6522e+05	2794	-0.0047824	0.096526	1.0007
2.276	-52.932	-8.6522e+05	2792.8	-0.0059536	0.095746	1.0001
2.278	-52.876	-8.6522e+05	2791.7	-0.0071248	0.094965	0.99952
2.28	-52.93	-8.6522e+05	2790.7	-0.008296	0.094184	0.99894
2.282	-53.007	-8.6522e+05	2789.5	-0.0060512	0.093501	0.99942
2.284	-53.082	-8.6521e+05	2788.4	-0.0038064	0.092818	0.99991
2.286	-53.124	-8.6521e+05	2787.4	-0.0015616	0.092134	1.0004
2.288	-53.088	-8.6521e+05	2786.4	0.0006832	0.091451	1.0009
2.29	-53.034	-8.652e+05	2785.5	0.002928	0.090768	1.0014
2.292	-52.953	-8.6519e+05	2784.5	0.0025376	0.091744	1.0021
2.294	-52.861	-8.6518e+05	2783.6	0.0021472	0.09272	1.0027
2.296	-52.856	-8.6518e+05	2782.7	0.0017568	0.093696	1.0034
2.298	-52.916	-8.6518e+05	2782	0.0013664	0.094672	1.0041
2.3	-53.026	-8.6518e+05	2781.2	0.000976	0.095648	1.0048
2.302	-53.163	-8.6518e+05	2780.5	0.0018544	0.095355	1.0041
2.304	-53.182	-8.6518e+05	2779.8	0.0027328	0.095062	1.0034
2.306	-53.11	-8.6517e+05	2779.2	0.0036112	0.09477	1.0027
2.308	-53.062	-8.6517e+05	2778.6	0.0044896	0.094477	1.0021
2.31	-52.994	-8.6517e+05	2778	0.005368	0.094184	1.0014
2.312	-52.936	-8.6517e+05	2777.5	0.00488	0.094282	1.0024
2.314	-52.961	-8.6517e+05	2777	0.004392	0.094379	1.0035
2.316	-53.026	-8.6517e+05	2776.6	0.003904	0.094477	1.0046
2.318	-53.114	-8.6517e+05	2776.2	0.003416	0.094574	1.0057
2.32	-53.188	-8.6517e+05	2775.9	0.002928	0.094672	1.0067
2.322	-53.174	-8.6517e+05	2775.6	0.0018544	0.096136	1.0068
2.324	-53.103	-8.6517e+05	2775.3	0.0007808	0.0976	1.0069
2.326	-53	-8.6516e+05	2775.1	-0.0002928	0.099064	1.007
2.328	-52.901	-8.6516e+05	2774.9	-0.0013664	0.10053	1.0071
2.33	-52.94	-8.6516e+05	2774.8	-0.00244	0.10199	1.0072
2.332	-53.015	-8.6516e+05	2774.7	-0.000976	0.10141	1.0067
2.334	-53.071	-8.6516e+05	2774.6	0.000488	0.10082	1.0063
2.336	-53.156	-8.6516e+05	2774.5	0.001952	0.10024	1.0058
2.338	-53.121	-8.6516e+05	2774.5	0.003416	0.09965	1.0053
2.34	-53.044	-8.6515e+05	2774.4	0.00488	0.099064	1.0048
2.342	-52.998	-8.6515e+05	2774.5	0.0047824	0.099747	1.0045
2.344	-52.908	-8.6515e+05	2774.5	0.0046848	0.10043	1.0042
2.346	-52.897	-8.6514e+05	2774.6	0.0045872	0.10111	1.0039
2.348	-53.001	-8.6514e+05	2774.8	0.0044896	0.1018	1.0036
2.35	-53.042	-8.6515e+05	2774.9	0.004392	0.10248	1.0033
2.352	-53.138	-8.6515e+05	2774.9	0.0041968	0.10258	1.0029
2.354	-53.191	-8.6515e+05	2774.9	0.0040016	0.10268	1.0025
2.356	-53.123	-8.6515e+05	2775	0.0038064	0.10277	1.0022
2.358	-53.062	-8.6515e+05	2775.2	0.0036112	0.10287	1.0018
2.36	-52.955	-8.6514e+05	2775.4	0.003416	0.10297	1.0014
2.362	-52.912	-8.6514e+05	2775.4	0.0038064	0.10297	1.0015
2.364	-52.972	-8.6514e+05	2775.5	0.0041968	0.10297	1.0016
2.366	-53.024	-8.6514e+05	2775.6	0.0045872	0.10297	1.0017
2.368	-53.111	-8.6514e+05	2775.7	0.0049776	0.10297	1.0018
2.37	-53.166	-8.6514e+05	2775.7	0.005368	0.10297	1.0019
2.372	-53.121	-8.6513e+05	2775.8	0.0046848	0.10297	1.0018
2.374	-53.07	-8.6513e+05	2775.9	0.0040016	0.10297	1.0017
2.376	-53.009	-8.6513e+05	2776	0.0033184	0.10297	1.0016
2.378	-52.95	-8.6513e+05	2776.1	0.0026352	0.10297	1.0015
2.38	-52.965	-8.6513e+05	2776.1	0.001952	0.10297	1.0014
2.382	-53.014	-8.6512e+05	2776.1	0.001952	0.10219	1.0021
2.384	-53.085	-8.6512e+05	2776.1	0.001952	0.10141	1.0027
2.386	-53.166	-8.6512e+05	2776	0.001952	0.10063	1.0034
2.388	-53.164	-8.6511e+05	2776	0.001952	0.099845	1.0041
2.39	-53.098	-8.6511e+05	2775.9	0.001952	0.099064	1.0048
2.392	-53.03	-8.6511e+05	2775.8	0.0028304	0.098771	1.0046
2.394	-52.975	-8.651e+05	2775.7	0.0037088	0.098478	1.0044
2.396	-52.981	-8.651e+05	2775.5	0.0045872	0.098186	1.0042
2.398	-53.024	-8.651e+05	2775.3	0.0054656	0.097893	1.004
2.4	-53.069	-8.651e+05	2775.2	0.006344	0.0976	1.0038
2.402	-53.152	-8.651e+05	2775	0.0060512	0.097307	1.004
2.404	-53.194	-8.651e+05	2774.8	0.0057584	0.097014	1.0042
2.406	-53.129	-8.6509e+05	2774.5	0.0054656	0.096722	1.0044
2.408	-53.054	-8.6509e+05	2774.2	0.0051728	0.096429	1.0046
2.41	-52.973	-8.6509e+05	2773.9	0.00488	0.096136	1.0048
2.412	-52.948	-8.6509e+05	2773.6	0.0050752	0.096331	1.0048
2.414	-53.031	-8.6509e+05	2773.3	0.0052704	0.096526	1.0048
2.416	-53.094	-8.6509e+05	2772.9	0.0054656	0.096722	1.0048
2.418	-53.151	-8.6509e+05	2772.6	0.0056608	0.096917	1.0048
2.42	-53.237	-8.6509e+05	2772.2	0.005856	0.097112	1.0048
2.422	-53.165	-8.6509e+05	2771.9	0.0051728	0.096526	1.0042
2.424	-53.103	-8.6509e+05	2771.6	0.0044896	0.095941	1.0036
2.426	-53.029	-8.6509e+05	2771.2	0.0038064	0.095355	1.003
2.428	-52.952	-8.6509e+05	2770.9	0.0031232	0.09477	1.0024
2.43	-53.022	-8.6509e+05	2770.6	0.00244	0.094184	1.0019
2.432	-53.086	-8.6509e+05	2770.2	0.0038064	0.09477	1.0026
2.434	-53.144	-8.6508e+05	2769.8	0.0051728	0.095355	1.0034
2.436	-53.235	-8.6507e+05	2769.4	0.0065392	0.095941	1.0042
2.438	-53.198	-8.6507e+05	2769	0.0079056	0.096526	1.005
2.44	-53.126	-8.6507e+05	2768.6	0.009272	0.097112	1.0058
2.442	-53.057	-8.6507e+05	2768.2	0.0077104	0.09721	1.0055
2.444	-52.974	-8.6507e+05	2767.8	0.0061488	0.097307	1.0052
2.446	-52.981	-8.6507e+05	2767.4	0.0045872	0.097405	1.0049
2.448	-53.016	-8.6507e+05	2766.9	0.0030256	0.097502	1.0046
2.45	-53.061	-8.6507e+05	2766.5	0.001464	0.0976	1.0043
2.452	-53.162	-8.6507e+05	2766.1	0.0021472	0.096526	1.004
2.454	-53.189	-8.6507e+05	2765.6	0.0028304	0.095453	1.0037
2.456	-53.149	-8.6506e+05	2765.2	0.0035136	0.094379	1.0034
2.458	-53.087	-8.6506e+05	2764.7	0.0041968	0.093306	1.0031
2.46	-52.995	-8.6506e+05	2764.2	0.00488	0.092232	1.0028
2.462	-52.973	-8.6506e+05	2763.7	0.0049776	0.093013	1.0028
2.464	-53.034	-8.6506e+05	2763.1	0.0050752	0.093794	1.0028
2.466	-53.113	-8.6506e+05	2762.6	0.0051728	0.094574	1.0028
2.468	-53.2	-8.6505e+05	2762.1	0.0052704	0.095355	1.0028
2.47	-53.237	-8.6506e+05	2761.7	0.005368	0.096136	1.0028
2.472	-53.183	-8.6506e+05	2761.1	0.0049776	0.09516	1.0021
2.474	-53.104	-8.6506e+05	2760.6	0.0045872	0.094184	1.0013
2.476	-53.038	-8.6506e+05	2760	0.0041968	0.093208	1.0005
2.478	-52.986	-8.6507e+05	2759.5	0.0038064	0.092232	0.99972
2.48	-52.995	-8.6507e+05	2759	0.003416	0.091256	0.99894
2.482	-53.049	-8.6507e+05	2758.4	0.0031232	0.092134	1
2.484	-53.127	-8.6507e+05	2757.8	0.0028304	0.093013	1.0011
2.486	-53.252	-8.6506e+05	2757.3	0.0025376	0.093891	1.0022
2.488	-53.26	-8.6506e+05	2756.7	0.0022448	0.09477	1.0032
2.49	-53.155	-8.6506e+05	2756.2	0.001952	0.095648	1.0043
2.492	-53.078	-8.6506e+05	2755.6	0.0031232	0.095746	1.005
2.494	-52.994	-8.6506e+05	2755	0.0042944	0.095843	1.0057
2.496	-52.985	-8.6506e+05	2754.5	0.0054656	0.095941	1.0064
2.498	-53.106	-8.6506e+05	2753.9	0.0066368	0.096038	1.007
2.5	-53.244	-8.6506e+05	2753.4	0.007808	0.096136	1.0077
2.502	-53.345	-8.6505e+05	2752.8	0.0064416	0.096234	1.0062
2.504	-53.337	-8.6505e+05	2752.3	0.0050752	0.096331	1.0046
2.506	-53.218	-8.6505e+05	2751.7	0.0037088	0.096429	1.003
2.508	-53.138	-8.6506e+05	2751.2	0.0023424	0.096526	1.0015
2.51	-53.048	-8.6505e+05	2750.7	0.000976	0.096624	0.99991
2.512	-52.981	-8.6505e+05	2750.2	0.0025376	0.097795	1
2.514	-53.076	-8.6505e+05	2749.7	0.0040992	0.098966	1.0001
2.516	-53.129	-8.6505e+05	2749.2	0.0056608	0.10014	1.0002
2.518	-53.181	-8.6506e+05	2748.6	0.0072224	0.10131	1.0003
2.52	-53.266	-8.6506e+05	2748.1	0.008784	0.10248	1.0004
2.522	-53.222	-8.6506e+05	2747.5	0.0075152	0.1015	1.0004
2.524	-53.176	-8.6506e+05	2747	0.0062464	0.10053	1.0004
2.526	-53.078	-8.6506e+05	2746.5	0.0049776	0.099552	1.0004
2.528	-52.97	-8.6507e+05	2746	0.0037088	0.098576	1.0004
2.53	-53.003	-8.6507e+05	2745.5	0.00244	0.0976	1.0004
2.532	-53.064	-8.6507e+05	2745.1	0.0037088	0.098088	1.0009
2.534	-53.167	-8.6507e+05	2744.6	0.0049776	0.098576	1.0014
2.536	-53.284	-8.6507e+05	2744.2	0.0062464	0.099064	1.0019
2.538	-53.278	-8.6507e+05	2743.7	0.0075152	0.099552	1.0024
2.54	-53.201	-8.6506e+05	2743.3	0.008784	0.10004	1.0028
2.542	-53.125	-8.6506e+05	2742.9	0.01015	0.10024	1.0029
2.544	-53.053	-8.6505e+05	2742.5	0.011517	0.10043	1.003
2.546	-53.059	-8.6506e+05	2742.1	0.012883	0.10063	1.0031
2.548	-53.113	-8.6506e+05	2741.8	0.01425	0.10082	1.0032
2.55	-53.168	-8.6507e+05	2741.5	0.015616	0.10102	1.0033
2.552	-53.244	-8.6507e+05	2741.2	0.015128	0.10102	1.0031
2.554	-53.253	-8.6507e+05	2740.9	0.01464	0.10102	1.0029
2.556	-53.186	-8.6507e+05	2740.6	0.014152	0.10102	1.0027
2.558	-53.135	-8.6507e+05	2740.3	0.013664	0.10102	1.0025
2.56	-53.08	-8.6507e+05	2740	0.013176	0.10102	1.0024
2.562	-53.042	-8.6507e+05	2739.7	0.012395	0.10082	1.0025
2.564	-53.079	-8.6506e+05	2739.5	0.011614	0.10063	1.0027
2.566	-53.138	-8.6506e+05	2739.3	0.010834	0.10043	1.0029
2.568	-53.211	-8.6506e+05	2739	0.010053	0.10024	1.0031
2.57	-53.276	-8.6506e+05	2738.8	0.009272	0.10004	1.0033
2.572	-53.246	-8.6506e+05	2738.6	0.0085888	0.099552	1.0037
2.574	-53.158	-8.6506e+05	2738.4	0.0079056	0.099064	1.0041
2.576	-53.07	-8.6506e+05	2738.1	0.0072224	0.098576	1.0045
2.578	-53.009	-8.6507e+05	2737.8	0.0065392	0.098088	1.0049
2.58	-53.073	-8.6507e+05	2737.5	0.005856	0.0976	1.0053
2.582	-53.163	-8.6508e+05	2737.2	0.005368	0.097893	1.0042
2.584	-53.22	-8.6509e+05	2736.9	0.00488	0.098186	1.0031
2.586	-53.321	-8.6508e+05	2736.6	0.004392	0.098478	1.0021
2.588	-53.329	-8.6507e+05	2736.4	0.003904	0.098771	1.001
2.59	-53.278	-8.6507e+05	2736.2	0.003416	0.099064	0.99991
2.592	-53.264	-8.6507e+05	2735.9	0.0037088	0.098186	1.0007
2.594	-53.178	-8.6507e+05	2735.6	0.0040016	0.097307	1.0015
2.596	-53.211	-8.6507e+05	2735.3	0.0042944	0.096429	1.0023
2.598	-53.327	-8.6507e+05	2734.9	0.0045872	0.09555	1.003
2.6	-53.413	-8.6507e+05	2734.4	0.00488	0.094672	1.0038
2.602	-53.549	-8.6508e+05	2734	0.003904	0.09477	1.0038
2.604	-53.607	-8.6508e+05	2733.5	0.002928	0.094867	1.0038
2.606	-53.524	-8.6508e+05	2733.1	0.001952	0.094965	1.0038
2.608	-53.45	-8.6508e+05	2732.7	0.000976	0.095062	1.0038
2.61	-53.286	-8.6508e+05	2732.4	0	0.09516	1.0038
2.612	-53.223	-8.6509e+05	2732	0.0008784	0.095941	1.0037
2.614	-53.292	-8.6508e+05	2731.6	0.0017568	0.096722	1.0036
2.616	-53.33	-8.6508e+05	2731.2	0.0026352	0.097502	1.0035
2.618	-53.362	-8.6508e+05	2730.8	0.0035136	0.098283	1.0034
2.62	-53.323	-8.6509e+05	2730.4	0.004392	0.099064	1.0033
2.622	-53.237	-8.6509e+05	2730	0.001464	0.099747	1.0018
2.624	-53.18	-8.6509e+05	2729.6	-0.001464	0.10043	1.0002
2.626	-53.095	-8.6509e+05	2729.2	-0.004392	0.10111	0.99864
2.628	-53.019	-8.651e+05	2728.8	-0.00732	0.1018	0.99708
2.63	-53.041	-8.651e+05	2728.4	-0.010248	0.10248	0.99552
2.632	-53.114	-8.651e+05	2728	-0.010834	0.10228	0.99591
2.634	-53.185	-8.651e+05	2727.7	-0.011419	0.10209	0.9963
2.636	-53.216	-8.651e+05	2727.3	-0.012005	0.10189	0.99669
2.638	-53.179	-8.651e+05	2727	-0.01259	0.1017	0.99708
2.64	-53.122	-8.651e+05	2726.7	-0.013176	0.1015	0.99747
2.642	-53.07	-8.6511e+05	2726.4	-0.011712	0.10228	0.99776
2.644	-53.015	-8.6512e+05	2726.1	-0.010248	0.10307	0.99806
2.646	-53.021	-8.6512e+05	2725.7	-0.008784	0.10385	0.99835
2.648	-53.095	-8.6512e+05	2725.4	-0.00732	0.10463	0.99864
2.65	-53.179	-8.6512e+05	2725.1	-0.005856	0.10541	0.99894
2.652	-53.26	-8.6511e+05	2724.8	-0.005856	0.10472	0.99972
2.654	-53.284	-8.6512e+05	2724.5	-0.005856	0.10404	1.0005
2.656	-53.226	-8.6512e+05	2724.3	-0.005856	0.10336	1.0013
2.658	-53.158	-8.6512e+05	2724.1	-0.005856	0.10268	1.0021
2.66	-53.071	-8.6512e+05	2723.9	-0.005856	0.10199	1.0028
2.662	-53.018	-8.6512e+05	2723.7	-0.0054656	0.10316	1.0016
2.664	-53.075	-8.6512e+05	2723.5	-0.0050752	0.10433	1.0003
2.666	-53.152	-8.6512e+05	2723.3	-0.0046848	0.10551	0.99903
2.668	-53.239	-8.6511e+05	2723	-0.0042944	0.10668	0.99776
2.67	-53.32	-8.6512e+05	2722.7	-0.003904	0.10785	0.9965
2.672	-53.27	-8.6513e+05	2722.6	-0.0041968	0.10736	0.99698
2.674	-53.196	-8.6514e+05	2722.4	-0.0044896	0.10687	0.99747
2.676	-53.121	-8.6514e+05	2722.2	-0.0047824	0.10638	0.99796
2.678	-53.035	-8.6514e+05	2722	-0.0050752	0.1059	0.99845
2.68	-53.098	-8.6513e+05	2721.8	-0.005368	0.10541	0.99894
2.682	-53.178	-8.6514e+05	2721.6	-0.0059536	0.10433	0.99894
2.684	-53.24	-8.6514e+05	2721.4	-0.0065392	0.10326	0.99894
2.686	-53.323	-8.6514e+05	2721.1	-0.0071248	0.10219	0.99894
2.688	-53.271	-8.6514e+05	2720.9	-0.0077104	0.10111	0.99894
2.69	-53.182	-8.6515e+05	2720.6	-0.008296	0.10004	0.99894
2.692	-53.101	-8.6516e+05	2720.4	-0.0079056	0.10102	0.99864
2.694	-52.994	-8.6516e+05	2720.2	-0.0075152	0.10199	0.99835
2.696	-53.048	-8.6516e+05	2720	-0.0071248	0.10297	0.99806
2.698	-53.156	-8.6516e+05	2719.7	-0.0067344	0.10394	0.99776
2.7	-53.227	-8.6516e+05	2719.5	-0.006344	0.10492	0.99747
2.702	-53.354	-8.6516e+05	2719.3	-0.0064416	0.10404	0.99747
2.704	-53.368	-8.6516e+05	2719	-0.0065392	0.10316	0.99747
2.706	-53.286	-8.6516e+05	2718.8	-0.0066368	0.10228	0.99747
2.708	-53.203	-8.6516e+05	2718.6	-0.0067344	0.10141	0.99747
2.71	-53.104	-8.6516e+05	2718.4	-0.006832	0.10053	0.99747
2.712	-53.07	-8.6517e+05	2718.2	-0.0075152	0.10092	0.99767
2.714	-53.139	-8.6517e+05	2717.9	-0.0081984	0.10131	0.99786
2.716	-53.204	-8.6517e+05	2717.7	-0.0088816	0.1017	0.99806
2.718	-53.279	-8.6518e+05	2717.5	-0.0095648	0.10209	0.99825
2.72	-53.313	-8.6518e+05	2717.3	-0.010248	0.10248	0.99845
2.722	-53.273	-8.6519e+05	2717.1	-0.0076128	0.10063	0.99913
2.724	-53.218	-8.6519e+05	2716.9	-0.0049776	0.098771	0.99981
2.726	-53.145	-8.6519e+05	2716.7	-0.0023424	0.096917	1.0005
2.728	-53.101	-8.6518e+05	2716.5	0.0002928	0.095062	1.0012
2.73	-53.16	-8.6518e+05	2716.3	0.002928	0.093208	1.0019
2.732	-53.24	-8.6519e+05	2716.3	0.0027328	0.093696	1.002
2.734	-53.305	-8.652e+05	2716.2	0.0025376	0.094184	1.0021
2.736	-53.37	-8.652e+05	2716.4	0.0023424	0.094672	1.0022
2.738	-53.346	-8.652e+05	2716.7	0.0021472	0.09516	1.0023
2.74	-53.261	-8.652e+05	2717.1	0.001952	0.095648	1.0024
2.742	-53.188	-8.6521e+05	2718.2	0.0015616	0.09555	1.0022
2.744	-53.117	-8.6521e+05	2719.3	0.0011712	0.095453	1.002
2.746	-53.117	-8.6521e+05	2721	0.0007808	0.095355	1.0018
2.748	-53.19	-8.6521e+05	2723.3	0.0003904	0.095258	1.0016
2.75	-53.243	-8.6521e+05	2725.6	0	0.09516	1.0014
2.752	-53.325	-8.6521e+05	2729	0.0005856	0.095941	1.0017
2.754	-53.36	-8.6522e+05	2732.4	0.0011712	0.096722	1.002
2.756	-53.3	-8.6522e+05	2736.3	0.0017568	0.097502	1.0023
2.758	-53.259	-8.6522e+05	2740.4	0.0023424	0.098283	1.0025
2.76	-53.22	-8.6521e+05	2744.6	0.002928	0.099064	1.0028
2.762	-53.164	-8.6522e+05	2749.4	0.0026352	0.099162	1.0032
2.764	-53.213	-8.6523e+05	2754.1	0.0023424	0.099259	1.0036
2.766	-53.286	-8.6523e+05	2759	0.0020496	0.099357	1.004
2.768	-53.367	-8.6522e+05	2764.2	0.0017568	0.099454	1.0044
2.77	-53.428	-8.6522e+05	2769.4	0.001464	0.099552	1.0048
2.772	-53.362	-8.6523e+05	2774.8	0.001464	0.099162	1.0049
2.774	-53.299	-8.6523e+05	2780.3	0.001464	0.098771	1.005
2.776	-53.213	-8.6523e+05	2785.7	0.001464	0.098381	1.0051
2.778	-53.121	-8.6522e+05	2791	0.001464	0.09799	1.0052
2.78	-53.212	-8.6522e+05	2796.3	0.001464	0.0976	1.0053
2.782	-53.309	-8.6521e+05	2800.9	0.0026352	0.098088	1.0052
2.784	-53.351	-8.6521e+05	2805.4	0.0038064	0.098576	1.0051
2.786	-53.434	-8.6521e+05	2809.3	0.0049776	0.099064	1.005
2.788	-53.442	-8.6521e+05	2812.5	0.0061488	0.099552	1.0049
2.79	-53.406	-8.6521e+05	2815.8	0.00732	0.10004	1.0048
2.792	-53.342	-8.652e+05	2817.8	0.0069296	0.099845	1.0045
2.794	-53.238	-8.652e+05	2819.9	0.0065392	0.09965	1.0042
2.796	-53.216	-8.652e+05	2821.6	0.0061488	0.099454	1.0039
2.798	-53.272	-8.6518e+05	2822.9	0.0057584	0.099259	1.0036
2.8	-53.347	-8.6517e+05	2824.2	0.005368	0.099064	1.0033
2.802	-53.442	-8.6517e+05	2825	0.0055632	0.098576	1.004
2.804	-53.472	-8.6516e+05	2825.9	0.0057584	0.098088	1.0047
2.806	-53.433	-8.6516e+05	2826.5	0.0059536	0.0976	1.0054
2.808	-53.364	-8.6515e+05	2827	0.0061488	0.097112	1.0061
2.81	-53.264	-8.6514e+05	2827.6	0.006344	0.096624	1.0067
2.812	-53.234	-8.6513e+05	2827.9	0.0066368	0.09721	1.0062
2.814	-53.305	-8.6513e+05	2828.2	0.0069296	0.097795	1.0056
2.816	-53.381	-8.6513e+05	2828.4	0.0072224	0.098381	1.005
2.818	-53.451	-8.6512e+05	2828.6	0.0075152	0.098966	1.0044
2.82	-53.479	-8.6511e+05	2828.7	0.007808	0.099552	1.0038
2.822	-53.419	-8.6511e+05	2828.8	0.0064416	0.098869	1.0045
2.824	-53.348	-8.651e+05	2828.9	0.0050752	0.098186	1.0052
2.826	-53.281	-8.6509e+05	2828.9	0.0037088	0.097502	1.0059
2.828	-53.223	-8.6508e+05	2828.8	0.0023424	0.096819	1.0065
2.83	-53.236	-8.6508e+05	2828.8	0.000976	0.096136	1.0072
2.832	-53.305	-8.6507e+05	2828.7	0.0021472	0.096624	1.0068
2.834	-53.398	-8.6505e+05	2828.5	0.0033184	0.097112	1.0065
2.836	-53.503	-8.6503e+05	2828.4	0.0044896	0.0976	1.0061
2.838	-53.482	-8.6503e+05	2828.2	0.0056608	0.098088	1.0057
2.84	-53.389	-8.6503e+05	2828	0.006832	0.098576	1.0053
2.842	-53.304	-8.6503e+05	2827.7	0.0057584	0.0976	1.0041
2.844	-53.195	-8.6502e+05	2827.4	0.0046848	0.096624	1.0029
2.846	-53.188	-8.6501e+05	2827	0.0036112	0.095648	1.0018
2.848	-53.3	-8.65e+05	2826.6	0.0025376	0.094672	1.0006
2.85	-53.355	-8.6499e+05	2826.3	0.001464	0.093696	0.99942
2.852	-53.431	-8.6498e+05	2825.9	0.0018544	0.093794	1.0004
2.854	-53.429	-8.6497e+05	2825.5	0.0022448	0.093891	1.0014
2.856	-53.34	-8.6495e+05	2825.1	0.0026352	0.093989	1.0024
2.858	-53.298	-8.6494e+05	2824.8	0.0030256	0.094086	1.0033
2.86	-53.185	-8.6492e+05	2824.4	0.003416	0.094184	1.0043
2.862	-53.097	-8.6492e+05	2824	0.0033184	0.094672	1.0043
2.864	-53.152	-8.6492e+05	2823.6	0.0032208	0.09516	1.0043
2.866	-53.22	-8.6491e+05	2823.2	0.0031232	0.095648	1.0043
2.868	-53.355	-8.649e+05	2822.8	0.0030256	0.096136	1.0043
2.87	-53.441	-8.6488e+05	2822.4	0.002928	0.096624	1.0043
2.872	-53.371	-8.6486e+05	2822	0.0033184	0.096429	1.0042
2.874	-53.319	-8.6486e+05	2821.6	0.0037088	0.096234	1.0041
2.876	-53.217	-8.6485e+05	2821.2	0.0040992	0.096038	1.004
2.878	-53.12	-8.6484e+05	2820.8	0.0044896	0.095843	1.0039
2.88	-53.173	-8.6484e+05	2820.5	0.00488	0.095648	1.0038
2.882	-53.233	-8.6483e+05	2820.1	0.0041968	0.095453	1.0042
2.884	-53.31	-8.6483e+05	2819.7	0.0035136	0.095258	1.0046
2.886	-53.415	-8.6482e+05	2819.3	0.0028304	0.095062	1.005
2.888	-53.419	-8.648e+05	2818.9	0.0021472	0.094867	1.0054
2.89	-53.338	-8.648e+05	2818.6	0.001464	0.094672	1.0058
2.892	-53.241	-8.6479e+05	2818.2	0.0022448	0.094965	1.0059
2.894	-53.159	-8.6477e+05	2817.8	0.0030256	0.095258	1.006
2.896	-53.172	-8.6476e+05	2817.5	0.0038064	0.09555	1.0061
2.898	-53.237	-8.6475e+05	2817.1	0.0045872	0.095843	1.0062
2.9	-53.293	-8.6474e+05	2816.8	0.005368	0.096136	1.0063
2.902	-53.377	-8.6473e+05	2816.4	0.0031232	0.097014	1.0064
2.904	-53.408	-8.6472e+05	2816.1	0.0008784	0.097893	1.0065
2.906	-53.334	-8.6471e+05	2815.7	-0.0013664	0.098771	1.0065
2.908	-53.258	-8.647e+05	2815.3	-0.0036112	0.09965	1.0066
2.91	-53.183	-8.647e+05	2814.9	-0.005856	0.10053	1.0067
2.912	-53.149	-8.6469e+05	2814.5	-0.0036112	0.10004	1.0065
2.914	-53.216	-8.6468e+05	2814.2	-0.0013664	0.099552	1.0064
2.916	-53.273	-8.6466e+05	2813.8	0.0008784	0.099064	1.0062
2.918	-53.347	-8.6466e+05	2813.4	0.0031232	0.098576	1.006
2.92	-53.41	-8.6465e+05	2813	0.005368	0.098088	1.0058
2.922	-53.352	-8.6464e+05	2812.6	0.0046848	0.098283	1.0057
2.924	-53.282	-8.6463e+05	2812.2	0.0040016	0.098478	1.0056
2.926	-53.221	-8.6463e+05	2811.8	0.0033184	0.098674	1.0055
2.928	-53.141	-8.6463e+05	2811.4	0.0026352	0.098869	1.0054
2.93	-53.203	-8.6462e+05	2811	0.001952	0.099064	1.0053
2.932	-53.292	-8.6461e+05	2810.6	0.0025376	0.098283	1.0059
2.934	-53.367	-8.646e+05	2810.2	0.0031232	0.097502	1.0065
2.936	-53.457	-8.646e+05	2809.7	0.0037088	0.096722	1.007
2.938	-53.405	-8.6459e+05	2809.3	0.0042944	0.095941	1.0076
2.94	-53.32	-8.6459e+05	2808.8	0.00488	0.09516	1.0082
2.942	-53.239	-8.6458e+05	2808.3	0.0036112	0.096136	1.008
2.944	-53.174	-8.6457e+05	2807.8	0.0023424	0.097112	1.0078
2.946	-53.217	-8.6455e+05	2807.3	0.0010736	0.098088	1.0076
2.948	-53.295	-8.6454e+05	2806.8	-0.0001952	0.099064	1.0074
2.95	-53.321	-8.6454e+05	2806.3	-0.001464	0.10004	1.0072
2.952	-53.403	-8.6454e+05	2805.7	-0.0006832	0.09965	1.0075
2.954	-53.405	-8.6454e+05	2805.2	9.76e-05	0.099259	1.0078
2.956	-53.38	-8.6453e+05	2804.7	0.0008784	0.098869	1.0081
2.958	-53.352	-8.6453e+05	2804.1	0.0016592	0.098478	1.0084
2.96	-53.247	-8.6452e+05	2803.5	0.00244	0.098088	1.0087
2.962	-53.214	-8.6451e+05	2802.9	0.0016592	0.098381	1.0081
2.964	-53.276	-8.645e+05	2802.3	0.0008784	0.098674	1.0075
2.966	-53.328	-8.645e+05	2801.7	9.76e-05	0.098966	1.0069
2.968	-53.411	-8.645e+05	2801	-0.0006832	0.099259	1.0064
2.97	-53.448	-8.6449e+05	2800.3	-0.001464	0.099552	1.0058
2.972	-53.386	-8.6449e+05	2799.6	-0.0006832	0.099454	1.0056
2.974	-53.328	-8.6448e+05	2798.8	9.76e-05	0.099357	1.0054
2.976	-53.268	-8.6447e+05	2798.1	0.0008784	0.099259	1.0052
2.978	-53.221	-8.6446e+05	2797.4	0.0016592	0.099162	1.005
2.98	-53.266	-8.6445e+05	2796.7	0.00244	0.099064	1.0048
2.982	-53.348	-8.6445e+05	2795.8	0.0010736	0.10033	1.0038
2.984	-53.426	-8.6445e+05	2794.9	-0.0002928	0.1016	1.0028
2.986	-53.488	-8.6444e+05	2794	-0.0016592	0.10287	1.0019
2.988	-53.46	-8.6443e+05	2793.1	-0.0030256	0.10414	1.0009
2.99	-53.375	-8.6442e+05	2792.2	-0.004392	0.10541	0.99991
2.992	-53.299	-8.6442e+05	2791.2	-0.005856	0.10355	0.99972
2.994	-53.223	-8.6442e+05	2790.3	-0.00732	0.1017	0.99952
2.996	-53.23	-8.6442e+05	2789.4	-0.008784	0.099845	0.99933
2.998	-53.338	-8.6441e+05	2788.4	-0.010248	0.09799	0.99913
3	-53.421	-8.6441e+05	2787.5	-0.011712	0.096136	0.99894
3.002	-53.488	-8.644e+05	2786.5	-0.011419	0.096819	0.99884
3.004	-53.498	-8.644e+05	2785.5	-0.011126	0.097502	0.99874
3.006	-53.437	-8.644e+05	2784.6	-0.010834	0.098186	0.99864
3.008	-53.371	-8.644e+05	2783.6	-0.010541	0.098869	0.99855
3.01	-53.288	-8.6439e+05	2782.7	-0.010248	0.099552	0.99845
3.012	-53.258	-8.6438e+05	2781.7	-0.009272	0.09965	0.99894
3.014	-53.352	-8.6438e+05	2780.8	-0.008296	0.099747	0.99942
3.016	-53.384	-8.6438e+05	2779.9	-0.00732	0.099845	0.99991
3.018	-53.408	-8.6438e+05	2779	-0.006344	0.099942	1.0004
3.02	-53.499	-8.6438e+05	2778.1	-0.005368	0.10004	1.0009
3.022	-53.457	-8.6437e+05	2777.3	-0.0052704	0.099845	1.0014
3.024	-53.402	-8.6437e+05	2776.6	-0.0051728	0.09965	1.0019
3.026	-53.326	-8.6437e+05	2775.8	-0.0050752	0.099454	1.0024
3.028	-53.227	-8.6436e+05	2775.1	-0.0049776	0.099259	1.0028
3.03	-53.259	-8.6436e+05	2774.4	-0.00488	0.099064	1.0033
3.032	-53.349	-8.6435e+05	2773.9	-0.0056608	0.10004	1.002
3.034	-53.441	-8.6436e+05	2773.3	-0.0064416	0.10102	1.0006
3.036	-53.515	-8.6436e+05	2772.8	-0.0072224	0.10199	0.99923
3.038	-53.466	-8.6435e+05	2772.3	-0.0080032	0.10297	0.99786
3.04	-53.426	-8.6435e+05	2771.7	-0.008784	0.10394	0.9965
3.042	-53.35	-8.6435e+05	2771.3	-0.0077104	0.10297	0.99816
3.044	-53.244	-8.6434e+05	2770.9	-0.0066368	0.10199	0.99981
3.046	-53.256	-8.6434e+05	2770.5	-0.0055632	0.10102	1.0015
3.048	-53.328	-8.6434e+05	2770.2	-0.0044896	0.10004	1.0031
3.05	-53.401	-8.6434e+05	2769.9	-0.003416	0.099064	1.0048
3.052	-53.465	-8.6434e+05	2769.9	-0.003416	0.099552	1.0038
3.054	-53.455	-8.6434e+05	2769.8	-0.003416	0.10004	1.0028
3.056	-53.393	-8.6433e+05	2769.7	-0.003416	0.10053	1.0019
3.058	-53.347	-8.6433e+05	2769.7	-0.003416	0.10102	1.0009
3.06	-53.28	-8.6432e+05	2769.7	-0.003416	0.1015	0.99991
3.062	-53.243	-8.6432e+05	2769.8	-0.0027328	0.10092	1.001
3.064	-53.286	-8.6431e+05	2769.9	-0.0020496	0.10033	1.0021
3.066	-53.37	-8.6431e+05	2770	-0.0013664	0.099747	1.0031
3.068	-53.478	-8.6431e+05	2770.1	-0.0006832	0.099162	1.0042
3.07	-53.531	-8.6431e+05	2770.2	0	0.098576	1.0053
3.072	-53.473	-8.6431e+05	2770.5	-0.001464	0.09965	1.0036
3.074	-53.375	-8.6431e+05	2770.7	-0.002928	0.10072	1.002
3.076	-53.271	-8.6431e+05	2771	-0.004392	0.1018	1.0003
3.078	-53.22	-8.6432e+05	2771.4	-0.005856	0.10287	0.99864
3.08	-53.29	-8.6432e+05	2771.7	-0.00732	0.10394	0.99698
3.082	-53.373	-8.6431e+05	2772	-0.0081984	0.10248	0.99708
3.084	-53.438	-8.6431e+05	2772.3	-0.0090768	0.10102	0.99718
3.086	-53.523	-8.643e+05	2772.6	-0.0099552	0.099552	0.99728
3.088	-53.523	-8.643e+05	2772.9	-0.010834	0.098088	0.99737
3.09	-53.437	-8.6429e+05	2773.1	-0.011712	0.096624	0.99747
3.092	-53.353	-8.6429e+05	2773.4	-0.011126	0.098186	0.99747
3.094	-53.274	-8.6429e+05	2773.8	-0.010541	0.099747	0.99747
3.096	-53.282	-8.6429e+05	2774.1	-0.0099552	0.10131	0.99747
3.098	-53.358	-8.6429e+05	2774.4	-0.0093696	0.10287	0.99747
3.1	-53.432	-8.6429e+05	2774.6	-0.008784	0.10443	0.99747
3.102	-53.529	-8.6429e+05	2774.9	-0.00732	0.10355	0.99825
3.104	-53.523	-8.6429e+05	2775.1	-0.005856	0.10268	0.99903
3.106	-53.431	-8.6429e+05	2775.2	-0.004392	0.1018	0.99981
3.108	-53.403	-8.6428e+05	2775.3	-0.002928	0.10092	1.0006
3.11	-53.32	-8.6428e+05	2775.4	-0.001464	0.10004	1.0014
3.112	-53.238	-8.6428e+05	2775.5	-0.0027328	0.10024	1.001
3.114	-53.325	-8.6428e+05	2775.6	-0.0040016	0.10043	1.0006
3.116	-53.359	-8.6428e+05	2775.7	-0.0052704	0.10063	1.0002
3.118	-53.429	-8.6428e+05	2775.8	-0.0065392	0.10082	0.99981
3.12	-53.485	-8.6427e+05	2775.8	-0.007808	0.10102	0.99942
3.122	-53.429	-8.6427e+05	2775.7	-0.0081008	0.1017	0.99962
3.124	-53.392	-8.6427e+05	2775.6	-0.0083936	0.10238	0.99981
3.126	-53.314	-8.6427e+05	2775.5	-0.0086864	0.10307	1
3.128	-53.231	-8.6426e+05	2775.4	-0.0089792	0.10375	1.0002
3.13	-53.279	-8.6426e+05	2775.3	-0.009272	0.10443	1.0004
3.132	-53.349	-8.6426e+05	2775.1	-0.0080032	0.10453	1.0005
3.134	-53.42	-8.6426e+05	2774.9	-0.0067344	0.10463	1.0006
3.136	-53.494	-8.6426e+05	2774.8	-0.0054656	0.10472	1.0007
3.138	-53.463	-8.6426e+05	2774.6	-0.0041968	0.10482	1.0008
3.14	-53.409	-8.6425e+05	2774.4	-0.002928	0.10492	1.0009
3.142	-53.334	-8.6425e+05	2774.2	-0.0040016	0.10472	1.0001
3.144	-53.25	-8.6425e+05	2774	-0.0050752	0.10453	0.99933
3.146	-53.257	-8.6425e+05	2773.7	-0.0061488	0.10433	0.99855
3.148	-53.327	-8.6425e+05	2773.4	-0.0072224	0.10414	0.99776
3.15	-53.409	-8.6426e+05	2773.1	-0.008296	0.10394	0.99698
3.152	-53.49	-8.6426e+05	2772.7	-0.008296	0.10404	0.99747
3.154	-53.5	-8.6425e+05	2772.3	-0.008296	0.10414	0.99796
3.156	-53.437	-8.6425e+05	2771.9	-0.008296	0.10424	0.99845
3.158	-53.358	-8.6425e+05	2771.6	-0.008296	0.10433	0.99894
3.16	-53.267	-8.6425e+05	2771.2	-0.008296	0.10443	0.99942
3.162	-53.241	-8.6425e+05	2770.8	-0.0083936	0.10424	0.99903
3.164	-53.323	-8.6425e+05	2770.5	-0.0084912	0.10404	0.99864
3.166	-53.382	-8.6425e+05	2770.1	-0.0085888	0.10385	0.99825
3.168	-53.439	-8.6425e+05	2769.7	-0.0086864	0.10365	0.99786
3.17	-53.49	-8.6425e+05	2769.2	-0.008784	0.10346	0.99747
3.172	-53.417	-8.6425e+05	2768.8	-0.0086864	0.10355	0.99835
3.174	-53.374	-8.6424e+05	2768.3	-0.0085888	0.10365	0.99923
3.176	-53.307	-8.6423e+05	2767.8	-0.0084912	0.10375	1.0001
3.178	-53.201	-8.6423e+05	2767.4	-0.0083936	0.10385	1.001
3.18	-53.232	-8.6423e+05	2766.9	-0.008296	0.10394	1.0019
3.182	-53.318	-8.6423e+05	2766.5	-0.0074176	0.10355	1.0019
3.184	-53.377	-8.6423e+05	2766.1	-0.0065392	0.10316	1.0019
3.186	-53.486	-8.6423e+05	2765.6	-0.0056608	0.10277	1.0019
3.188	-53.457	-8.6423e+05	2765.2	-0.0047824	0.10238	1.0019
3.19	-53.385	-8.6422e+05	2764.7	-0.003904	0.10199	1.0019
3.192	-53.33	-8.6421e+05	2764.2	-0.0052704	0.1015	1.002
3.194	-53.265	-8.6422e+05	2763.8	-0.0066368	0.10102	1.0021
3.196	-53.315	-8.6423e+05	2763.2	-0.0080032	0.10053	1.0022
3.198	-53.384	-8.6423e+05	2762.7	-0.0093696	0.10004	1.0023
3.2	-53.402	-8.6422e+05	2762.2	-0.010736	0.099552	1.0024
3.202	-53.513	-8.6422e+05	2761.7	-0.0099552	0.099747	1.0024
3.204	-53.501	-8.6423e+05	2761.2	-0.0091744	0.099942	1.0024
3.206	-53.421	-8.6422e+05	2760.8	-0.0083936	0.10014	1.0024
3.208	-53.401	-8.6422e+05	2760.3	-0.0076128	0.10033	1.0024
3.21	-53.29	-8.6422e+05	2759.9	-0.006832	0.10053	1.0024
3.212	-53.23	-8.6422e+05	2759.3	-0.0067344	0.10033	1.0024
3.214	-53.272	-8.6422e+05	2758.8	-0.0066368	0.10014	1.0025
3.216	-53.333	-8.6422e+05	2758.3	-0.0065392	0.099942	1.0026
3.218	-53.435	-8.6422e+05	2757.7	-0.0064416	0.099747	1.0027
3.22	-53.47	-8.6422e+05	2757.1	-0.006344	0.099552	1.0028
3.222	-53.394	-8.6422e+05	2756.6	-0.006344	0.10033	1.0016
3.224	-53.324	-8.6422e+05	2756.1	-0.006344	0.10111	1.0003
3.226	-53.238	-8.6422e+05	2755.7	-0.006344	0.10189	0.99903
3.228	-53.182	-8.6422e+05	2755.2	-0.006344	0.10268	0.99776
3.23	-53.218	-8.6421e+05	2754.8	-0.006344	0.10346	0.9965
3.232	-53.292	-8.642e+05	2754.3	-0.0065392	0.10238	0.99776
3.234	-53.381	-8.6421e+05	2753.8	-0.0067344	0.10131	0.99903
3.236	-53.472	-8.6422e+05	2753.3	-0.0069296	0.10024	1.0003
3.238	-53.474	-8.6423e+05	2752.8	-0.0071248	0.099162	1.0016
3.24	-53.404	-8.6423e+05	2752.3	-0.00732	0.098088	1.0028
3.242	-53.297	-8.6423e+05	2751.8	-0.006832	0.098576	1.0026
3.244	-53.19	-8.6423e+05	2751.3	-0.006344	0.099064	1.0024
3.246	-53.214	-8.6422e+05	2750.8	-0.005856	0.099552	1.0023
3.248	-53.311	-8.6422e+05	2750.4	-0.005368	0.10004	1.0021
3.25	-53.367	-8.6422e+05	2749.9	-0.00488	0.10053	1.0019
3.252	-53.43	-8.6422e+05	2749.5	-0.0057584	0.10024	1.0013
3.254	-53.421	-8.6422e+05	2749.1	-0.0066368	0.099942	1.0007
3.256	-53.32	-8.6421e+05	2748.7	-0.0075152	0.09965	1.0001
3.258	-53.24	-8.6422e+05	2748.3	-0.0083936	0.099357	0.99952
3.26	-53.175	-8.6422e+05	2747.9	-0.009272	0.099064	0.99894
3.262	-53.159	-8.6422e+05	2747.5	-0.0094672	0.099845	0.99874
3.264	-53.224	-8.6423e+05	2747	-0.0096624	0.10063	0.99855
3.266	-53.305	-8.6422e+05	2746.6	-0.0098576	0.10141	0.99835
3.268	-53.378	-8.6422e+05	2746.2	-0.010053	0.10219	0.99816
3.27	-53.427	-8.6423e+05	2745.8	-0.010248	0.10297	0.99796
3.272	-53.389	-8.6423e+05	2745.5	-0.0096624	0.10209	0.99855
3.274	-53.334	-8.6423e+05	2745.1	-0.0090768	0.10121	0.99913
3.276	-53.245	-8.6423e+05	2744.7	-0.0084912	0.10033	0.99972
3.278	-53.177	-8.6423e+05	2744.4	-0.0079056	0.099454	1.0003
3.28	-53.237	-8.6424e+05	2744.1	-0.00732	0.098576	1.0009
3.282	-53.3	-8.6423e+05	2743.7	-0.0079056	0.099259	1
3.284	-53.383	-8.6423e+05	2743.3	-0.0084912	0.099942	0.99913
3.286	-53.529	-8.6423e+05	2743	-0.0090768	0.10063	0.99825
3.288	-53.482	-8.6423e+05	2742.6	-0.0096624	0.10131	0.99737
3.29	-53.376	-8.6423e+05	2742.3	-0.010248	0.10199	0.9965
3.292	-53.307	-8.6423e+05	2741.9	-0.0094672	0.10277	0.99708
3.294	-53.233	-8.6423e+05	2741.6	-0.0086864	0.10355	0.99767
3.296	-53.306	-8.6424e+05	2741.2	-0.0079056	0.10433	0.99825
3.298	-53.397	-8.6424e+05	2740.9	-0.0071248	0.10512	0.99884
3.3	-53.453	-8.6424e+05	2740.5	-0.006344	0.1059	0.99942
3.302	-53.576	-8.6424e+05	2740.2	-0.0080032	0.10433	0.99942
3.304	-53.615	-8.6424e+05	2739.8	-0.0096624	0.10277	0.99942
3.306	-53.598	-8.6424e+05	2739.4	-0.011322	0.10121	0.99942
3.308	-53.557	-8.6425e+05	2739.1	-0.012981	0.09965	0.99942
3.31	-53.458	-8.6424e+05	2738.8	-0.01464	0.098088	0.99942
3.312	-53.45	-8.6424e+05	2738.4	-0.01259	0.099259	0.99972
3.314	-53.509	-8.6424e+05	2738.1	-0.010541	0.10043	1
3.316	-53.516	-8.6424e+05	2737.7	-0.0084912	0.1016	1.0003
3.318	-53.576	-8.6424e+05	2737.4	-0.0064416	0.10277	1.0006
3.32	-53.643	-8.6424e+05	2737.1	-0.004392	0.10394	1.0009
3.322	-53.589	-8.6424e+05	2736.8	-0.0055632	0.10326	1.0007
3.324	-53.499	-8.6425e+05	2736.4	-0.0067344	0.10258	1.0005
3.326	-53.381	-8.6425e+05	2736.1	-0.0079056	0.10189	1.0003
3.328	-53.258	-8.6426e+05	2735.7	-0.0090768	0.10121	1.0001
3.33	-53.246	-8.6426e+05	2735.4	-0.010248	0.10053	0.99991
3.332	-53.275	-8.6426e+05	2735.1	-0.0090768	0.1018	1.0003
3.334	-53.311	-8.6426e+05	2734.8	-0.0079056	0.10307	1.0007
3.336	-53.369	-8.6427e+05	2734.5	-0.0067344	0.10433	1.0011
3.338	-53.337	-8.6427e+05	2734.2	-0.0055632	0.1056	1.0015
3.34	-53.248	-8.6426e+05	2733.9	-0.004392	0.10687	1.0019
3.342	-53.168	-8.6427e+05	2733.6	-0.006344	0.1057	1.0011
3.344	-53.074	-8.6428e+05	2733.4	-0.008296	0.10453	1.0003
3.346	-53.042	-8.6428e+05	2733.1	-0.010248	0.10336	0.99952
3.348	-53.114	-8.6428e+05	2732.9	-0.0122	0.10219	0.99874
3.35	-53.199	-8.6427e+05	2732.6	-0.014152	0.10102	0.99796
3.352	-53.342	-8.6427e+05	2732.4	-0.012102	0.10189	0.99903
3.354	-53.386	-8.6428e+05	2732.2	-0.010053	0.10277	1.0001
3.356	-53.364	-8.6428e+05	2732	-0.0080032	0.10365	1.0012
3.358	-53.314	-8.6428e+05	2731.7	-0.0059536	0.10453	1.0023
3.36	-53.207	-8.6428e+05	2731.5	-0.003904	0.10541	1.0033
3.362	-53.171	-8.6428e+05	2731.2	-0.0050752	0.10433	1.0033
3.364	-53.232	-8.6429e+05	2730.9	-0.0062464	0.10326	1.0033
3.366	-53.247	-8.6428e+05	2730.7	-0.0074176	0.10219	1.0033
3.368	-53.366	-8.6428e+05	2730.5	-0.0085888	0.10111	1.0033
3.37	-53.436	-8.6429e+05	2730.3	-0.00976	0.10004	1.0033
3.372	-53.375	-8.6429e+05	2730.2	-0.010053	0.099552	1.0026
3.374	-53.309	-8.6429e+05	2730	-0.010346	0.099064	1.002
3.376	-53.186	-8.6429e+05	2729.8	-0.010638	0.098576	1.0013
3.378	-53.104	-8.6429e+05	2729.5	-0.010931	0.098088	1.0006
3.38	-53.171	-8.643e+05	2729.3	-0.011224	0.0976	0.99991
3.382	-53.265	-8.643e+05	2729.1	-0.011224	0.097502	0.99981
3.384	-53.359	-8.643e+05	2728.8	-0.011224	0.097405	0.99972
3.386	-53.43	-8.643e+05	2728.6	-0.011224	0.097307	0.99962
3.388	-53.388	-8.643e+05	2728.4	-0.011224	0.09721	0.99952
3.39	-53.33	-8.6431e+05	2728.2	-0.011224	0.097112	0.99942
3.392	-53.262	-8.6431e+05	2727.9	-0.010736	0.09721	1.0004
3.394	-53.173	-8.6432e+05	2727.6	-0.010248	0.097307	1.0014
3.396	-53.199	-8.6432e+05	2727.3	-0.00976	0.097405	1.0024
3.398	-53.274	-8.6432e+05	2727	-0.009272	0.097502	1.0033
3.4	-53.342	-8.6431e+05	2726.8	-0.008784	0.0976	1.0043
3.402	-53.412	-8.6431e+05	2726.5	-0.0084912	0.097795	1.0043
3.404	-53.405	-8.6432e+05	2726.2	-0.0081984	0.09799	1.0043
3.406	-53.334	-8.6432e+05	2725.9	-0.0079056	0.098186	1.0043
3.408	-53.256	-8.6432e+05	2725.5	-0.0076128	0.098381	1.0043
3.41	-53.16	-8.6433e+05	2725.2	-0.00732	0.098576	1.0043
3.412	-53.137	-8.6434e+05	2724.9	-0.00732	0.098966	1.0047
3.414	-53.224	-8.6434e+05	2724.6	-0.00732	0.099357	1.0051
3.416	-53.302	-8.6434e+05	2724.2	-0.00732	0.099747	1.0055
3.418	-53.398	-8.6435e+05	2723.8	-0.00732	0.10014	1.0059
3.42	-53.488	-8.6435e+05	2723.4	-0.00732	0.10053	1.0063
3.422	-53.424	-8.6434e+05	2723.1	-0.0074176	0.10092	1.0051
3.424	-53.328	-8.6434e+05	2722.8	-0.0075152	0.10131	1.0039
3.426	-53.256	-8.6434e+05	2722.5	-0.0076128	0.1017	1.0027
3.428	-53.181	-8.6435e+05	2722.1	-0.0077104	0.10209	1.0016
3.43	-53.2	-8.6435e+05	2721.7	-0.007808	0.10248	1.0004
3.432	-53.268	-8.6436e+05	2721.4	-0.0085888	0.10209	1.0007
3.434	-53.335	-8.6436e+05	2721	-0.0093696	0.1017	1.001
3.436	-53.461	-8.6436e+05	2720.7	-0.01015	0.10131	1.0013
3.438	-53.421	-8.6436e+05	2720.4	-0.010931	0.10092	1.0016
3.44	-53.339	-8.6437e+05	2720	-0.011712	0.10053	1.0019
3.442	-53.283	-8.6437e+05	2720	-0.011712	0.099552	1.0019
3.444	-53.184	-8.6437e+05	2719.9	-0.011712	0.098576	1.0019
3.446	-53.211	-8.6437e+05	2720.2	-0.011712	0.0976	1.0019
3.448	-53.315	-8.6437e+05	2720.7	-0.011712	0.096624	1.0019
3.45	-53.375	-8.6437e+05	2721.3	-0.011712	0.095648	1.0019
3.452	-53.459	-8.6438e+05	2722.7	-0.010541	0.096038	1.0023
3.454	-53.469	-8.6438e+05	2724.1	-0.0093696	0.096429	1.0026
3.456	-53.365	-8.6438e+05	2726.2	-0.0081984	0.096819	1.003
3.458	-53.293	-8.6439e+05	2729	-0.0070272	0.09721	1.0034
3.46	-53.204	-8.644e+05	2731.7	-0.005856	0.0976	1.0038
3.462	-53.211	-8.6439e+05	2735.4	-0.0065392	0.097795	1.0043
3.464	-53.288	-8.6439e+05	2739.1	-0.0072224	0.09799	1.0048
3.466	-53.372	-8.644e+05	2743.2	-0.0079056	0.098186	1.0053
3.468	-53.473	-8.6441e+05	2747.6	-0.0085888	0.098381	1.0058
3.47	-53.484	-8.6441e+05	2752.1	-0.009272	0.098576	1.0063
3.472	-53.431	-8.644e+05	2757	-0.0091744	0.099162	1.006
3.474	-53.364	-8.644e+05	2761.9	-0.0090768	0.099747	1.0057
3.476	-53.253	-8.644e+05	2767	-0.0089792	0.10033	1.0054
3.478	-53.229	-8.644e+05	2772.4	-0.0088816	0.10092	1.0051
3.48	-53.267	-8.6441e+05	2777.8	-0.008784	0.1015	1.0048
3.482	-53.348	-8.6441e+05	2783.3	-0.0091744	0.10014	1.0052
3.484	-53.452	-8.6441e+05	2788.7	-0.0095648	0.098771	1.0056
3.486	-53.52	-8.6441e+05	2794	-0.0099552	0.097405	1.006
3.488	-53.485	-8.6441e+05	2799	-0.010346	0.096038	1.0064
3.49	-53.413	-8.644e+05	2804.1	-0.010736	0.094672	1.0067
3.492	-53.344	-8.644e+05	2808.1	-0.011029	0.095843	1.0055
3.494	-53.279	-8.644e+05	2812.1	-0.011322	0.097014	1.0042
3.496	-53.296	-8.6439e+05	2815.4	-0.011614	0.098186	1.0029
3.498	-53.368	-8.6439e+05	2818.1	-0.011907	0.099357	1.0017
3.5	-53.452	-8.6438e+05	2820.7	-0.0122	0.10053	1.0004
3.502	-53.548	-8.6438e+05	2822.3	-0.012102	0.099454	1.0012
3.504	-53.551	-8.6438e+05	2823.9	-0.012005	0.098381	1.002
3.506	-53.464	-8.6437e+05	2825.3	-0.011907	0.097307	1.0027
3.508	-53.393	-8.6437e+05	2826.4	-0.01181	0.096234	1.0035
3.51	-53.322	-8.6436e+05	2827.4	-0.011712	0.09516	1.0043
3.512	-53.302	-8.6436e+05	2828.1	-0.01181	0.094574	1.005
3.514	-53.381	-8.6435e+05	2828.8	-0.011907	0.093989	1.0057
3.516	-53.45	-8.6434e+05	2829.4	-0.012005	0.093403	1.0064
3.518	-53.515	-8.6433e+05	2829.8	-0.012102	0.092818	1.007
3.52	-53.56	-8.6433e+05	2830.2	-0.0122	0.092232	1.0077
3.522	-53.5	-8.6433e+05	2830.4	-0.011907	0.092134	1.0072
3.524	-53.434	-8.6432e+05	2830.7	-0.011614	0.092037	1.0067
3.526	-53.354	-8.6431e+05	2830.8	-0.011322	0.091939	1.0063
3.528	-53.272	-8.6431e+05	2830.8	-0.011029	0.091842	1.0058
3.53	-53.347	-8.6431e+05	2830.7	-0.010736	0.091744	1.0053
3.532	-53.434	-8.6431e+05	2830.7	-0.011712	0.092037	1.0056
3.534	-53.467	-8.6429e+05	2830.7	-0.012688	0.09233	1.0059
3.536	-53.508	-8.6428e+05	2830.6	-0.013664	0.092622	1.0062
3.538	-53.54	-8.6427e+05	2830.6	-0.01464	0.092915	1.0065
3.54	-53.48	-8.6426e+05	2830.5	-0.015616	0.093208	1.0067
3.542	-53.377	-8.6424e+05	2830.2	-0.014542	0.09272	1.0064
3.544	-53.309	-8.6422e+05	2829.9	-0.013469	0.092232	1.006
3.546	-53.347	-8.6422e+05	2829.5	-0.012395	0.091744	1.0056
3.548	-53.435	-8.6422e+05	2829.1	-0.011322	0.091256	1.0052
3.55	-53.481	-8.642e+05	2828.7	-0.010248	0.090768	1.0048
3.552	-53.525	-8.6418e+05	2828.2	-0.011322	0.091744	1.0044
3.554	-53.464	-8.6418e+05	2827.6	-0.012395	0.09272	1.004
3.556	-53.4	-8.6417e+05	2827.1	-0.013469	0.093696	1.0036
3.558	-53.362	-8.6416e+05	2826.6	-0.014542	0.094672	1.0032
3.56	-53.272	-8.6415e+05	2826.1	-0.015616	0.095648	1.0028
3.562	-53.263	-8.6414e+05	2825.6	-0.015323	0.094184	1.0023
3.564	-53.293	-8.6413e+05	2825	-0.01503	0.09272	1.0017
3.566	-53.341	-8.6411e+05	2824.4	-0.014738	0.091256	1.0011
3.568	-53.434	-8.6409e+05	2823.8	-0.014445	0.089792	1.0005
3.57	-53.482	-8.6408e+05	2823.1	-0.014152	0.088328	0.99991
3.572	-53.459	-8.6408e+05	2822.4	-0.014347	0.090085	1.0003
3.574	-53.396	-8.6408e+05	2821.8	-0.014542	0.091842	1.0007
3.576	-53.292	-8.6407e+05	2821.2	-0.014738	0.093598	1.0011
3.578	-53.227	-8.6405e+05	2820.6	-0.014933	0.095355	1.0015
3.58	-53.267	-8.6403e+05	2820	-0.015128	0.097112	1.0019
3.582	-53.333	-8.6403e+05	2819.5	-0.014542	0.096624	1.003
3.584	-53.388	-8.6403e+05	2819	-0.013957	0.096136	1.0042
3.586	-53.398	-8.6401e+05	2818.4	-0.013371	0.095648	1.0054
3.588	-53.337	-8.64e+05	2817.8	-0.012786	0.09516	1.0065
3.59	-53.324	-8.6399e+05	2817.2	-0.0122	0.094672	1.0077
3.592	-53.328	-8.6397e+05	2816.6	-0.012883	0.095355	1.0076
3.594	-53.281	-8.6397e+05	2816	-0.013566	0.096038	1.0075
3.596	-53.289	-8.6396e+05	2815.4	-0.01425	0.096722	1.0074
3.598	-53.318	-8.6395e+05	2814.9	-0.014933	0.097405	1.0073
3.6	-53.372	-8.6394e+05	2814.4	-0.015616	0.098088	1.0072
3.602	-53.437	-8.6393e+05	2813.9	-0.015323	0.097502	1.0072
3.604	-53.451	-8.6391e+05	2813.4	-0.01503	0.096917	1.0072
3.606	-53.375	-8.6391e+05	2813	-0.014738	0.096331	1.0072
3.608	-53.322	-8.6391e+05	2812.5	-0.014445	0.095746	1.0072
3.61	-53.241	-8.639e+05	2812	-0.014152	0.09516	1.0072
3.612	-53.227	-8.6389e+05	2811.5	-0.014445	0.095258	1.0069
3.614	-53.304	-8.6389e+05	2810.9	-0.014738	0.095355	1.0066
3.616	-53.37	-8.6388e+05	2810.4	-0.01503	0.095453	1.0064
3.618	-53.426	-8.6387e+05	2809.8	-0.015323	0.09555	1.0061
3.62	-53.449	-8.6386e+05	2809.3	-0.015616	0.095648	1.0058
3.622	-53.345	-8.6385e+05	2808.9	-0.016006	0.096429	1.0055
3.624	-53.282	-8.6384e+05	2808.5	-0.016397	0.09721	1.0052
3.626	-53.202	-8.6383e+05	2808	-0.016787	0.09799	1.0049
3.628	-53.186	-8.6383e+05	2807.5	-0.017178	0.098771	1.0046
3.63	-53.318	-8.6382e+05	2807	-0.017568	0.099552	1.0043
3.632	-53.403	-8.6382e+05	2806.5	-0.01747	0.098088	1.0031
3.634	-53.421	-8.638e+05	2806	-0.017373	0.096624	1.002
3.636	-53.467	-8.6379e+05	2805.5	-0.017275	0.09516	1.0008
3.638	-53.425	-8.6379e+05	2805	-0.017178	0.093696	0.99962
3.64	-53.358	-8.6379e+05	2804.6	-0.01708	0.092232	0.99845
3.642	-53.271	-8.6379e+05	2804.1	-0.01708	0.09272	1.0004
3.644	-53.216	-8.6379e+05	2803.7	-0.01708	0.093208	1.0024
3.646	-53.235	-8.6377e+05	2803.2	-0.01708	0.093696	1.0043
3.648	-53.291	-8.6376e+05	2802.8	-0.01708	0.094184	1.0063
3.65	-53.392	-8.6375e+05	2802.4	-0.01708	0.094672	1.0082
3.652	-53.481	-8.6375e+05	2802.1	-0.017568	0.095062	1.0082
3.654	-53.502	-8.6375e+05	2801.9	-0.018056	0.095453	1.0082
3.656	-53.463	-8.6375e+05	2801.5	-0.018544	0.095843	1.0082
3.658	-53.385	-8.6373e+05	2801.2	-0.019032	0.096234	1.0082
3.66	-53.278	-8.6372e+05	2800.9	-0.01952	0.096624	1.0082
3.662	-53.256	-8.6371e+05	2800.5	-0.020106	0.096917	1.0088
3.664	-53.315	-8.637e+05	2800.1	-0.020691	0.09721	1.0094
3.666	-53.388	-8.637e+05	2799.7	-0.021277	0.097502	1.01
3.668	-53.477	-8.637e+05	2799.3	-0.021862	0.097795	1.0106
3.67	-53.501	-8.6369e+05	2798.9	-0.022448	0.098088	1.0111
3.672	-53.439	-8.6368e+05	2798.4	-0.022058	0.098283	1.0109
3.674	-53.386	-8.6367e+05	2798	-0.021667	0.098478	1.0107
3.676	-53.328	-8.6366e+05	2797.4	-0.021277	0.098674	1.0106
3.678	-53.265	-8.6366e+05	2796.9	-0.020886	0.098869	1.0104
3.68	-53.298	-8.6366e+05	2796.3	-0.020496	0.099064	1.0102
3.682	-53.357	-8.6366e+05	2795.7	-0.020203	0.099454	1.009
3.684	-53.417	-8.6365e+05	2795.1	-0.01991	0.099845	1.0078
3.686	-53.496	-8.6365e+05	2794.5	-0.019618	0.10024	1.0066
3.688	-53.45	-8.6365e+05	2793.8	-0.019325	0.10063	1.0055
3.69	-53.38	-8.6364e+05	2793.1	-0.019032	0.10102	1.0043
3.692	-53.349	-8.6364e+05	2792.4	-0.018934	0.10053	1.0044
3.694	-53.284	-8.6362e+05	2791.6	-0.018837	0.10004	1.0045
3.696	-53.329	-8.6361e+05	2790.9	-0.018739	0.099552	1.0046
3.698	-53.376	-8.636e+05	2790	-0.018642	0.099064	1.0047
3.7	-53.409	-8.636e+05	2789.2	-0.018544	0.098576	1.0048
3.702	-53.509	-8.636e+05	2788.3	-0.019325	0.098966	1.004
3.704	-53.502	-8.636e+05	2787.4	-0.020106	0.099357	1.0032
3.706	-53.442	-8.6359e+05	2786.4	-0.020886	0.099747	1.0024
3.708	-53.375	-8.6358e+05	2785.4	-0.021667	0.10014	1.0017
3.71	-53.258	-8.6358e+05	2784.4	-0.022448	0.10053	1.0009
3.712	-53.247	-8.6358e+05	2783.3	-0.022643	0.099942	1.0011
3.714	-53.282	-8.6358e+05	2782.2	-0.022838	0.099357	1.0013
3.716	-53.351	-8.6358e+05	2781.2	-0.023034	0.098771	1.0015
3.718	-53.462	-8.6356e+05	2780	-0.023229	0.098186	1.0017
3.72	-53.53	-8.6355e+05	2778.9	-0.023424	0.0976	1.0019
3.722	-53.479	-8.6355e+05	2777.9	-0.023229	0.0976	1.0022
3.724	-53.414	-8.6355e+05	2776.8	-0.023034	0.0976	1.0024
3.726	-53.303	-8.6356e+05	2775.7	-0.022838	0.0976	1.0027
3.728	-53.246	-8.6356e+05	2774.7	-0.022643	0.0976	1.003
3.73	-53.291	-8.6355e+05	2773.7	-0.022448	0.0976	1.0033
3.732	-53.344	-8.6355e+05	2772.8	-0.022155	0.098186	1.0028
3.734	-53.414	-8.6354e+05	2771.9	-0.021862	0.098771	1.0024
3.736	-53.476	-8.6354e+05	2771	-0.02157	0.099357	1.0019
3.738	-53.43	-8.6354e+05	2770.2	-0.021277	0.099942	1.0014
3.74	-53.368	-8.6354e+05	2769.4	-0.020984	0.10053	1.0009
3.742	-53.29	-8.6353e+05	2768.7	-0.021082	0.099552	1.0014
3.744	-53.235	-8.6352e+05	2768	-0.021179	0.098576	1.0019
3.746	-53.298	-8.6352e+05	2767.4	-0.021277	0.0976	1.0024
3.748	-53.369	-8.6352e+05	2766.9	-0.021374	0.096624	1.0028
3.75	-53.435	-8.6352e+05	2766.4	-0.021472	0.095648	1.0033
3.752	-53.492	-8.6352e+05	2766	-0.02235	0.095941	1.0035
3.754	-53.453	-8.6352e+05	2765.5	-0.023229	0.096234	1.0037
3.756	-53.381	-8.6352e+05	2765.2	-0.024107	0.096526	1.0039
3.758	-53.315	-8.6352e+05	2764.9	-0.024986	0.096819	1.0041
3.76	-53.217	-8.6352e+05	2764.7	-0.025864	0.097112	1.0043
3.762	-53.202	-8.6352e+05	2764.4	-0.025962	0.096722	1.0039
3.764	-53.338	-8.6352e+05	2764.2	-0.026059	0.096331	1.0035
3.766	-53.45	-8.6352e+05	2764.1	-0.026157	0.095941	1.0031
3.768	-53.501	-8.6352e+05	2764.1	-0.026254	0.09555	1.0027
3.77	-53.52	-8.6352e+05	2764	-0.026352	0.09516	1.0024
3.772	-53.448	-8.6352e+05	2764	-0.027621	0.095648	1.0021
3.774	-53.388	-8.6352e+05	2764	-0.02889	0.096136	1.0018
3.776	-53.303	-8.6351e+05	2764.1	-0.030158	0.096624	1.0015
3.778	-53.197	-8.6351e+05	2764.2	-0.031427	0.097112	1.0012
3.78	-53.258	-8.6351e+05	2764.3	-0.032696	0.0976	1.0009
3.782	-53.394	-8.6351e+05	2764.5	-0.032794	0.0976	1.0016
3.784	-53.467	-8.6351e+05	2764.6	-0.032891	0.0976	1.0023
3.786	-53.523	-8.6351e+05	2764.9	-0.032989	0.0976	1.0029
3.788	-53.464	-8.6351e+05	2765.2	-0.033086	0.0976	1.0036
3.79	-53.374	-8.6351e+05	2765.5	-0.033184	0.0976	1.0043
3.792	-53.259	-8.6351e+05	2765.8	-0.032989	0.097014	1.0041
3.794	-53.215	-8.6352e+05	2766.1	-0.032794	0.096429	1.0039
3.796	-53.265	-8.6352e+05	2766.3	-0.032598	0.095843	1.0037
3.798	-53.366	-8.6351e+05	2766.5	-0.032403	0.095258	1.0035
3.8	-53.412	-8.6351e+05	2766.7	-0.032208	0.094672	1.0033
3.802	-53.482	-8.6351e+05	2766.9	-0.032598	0.095062	1.0027
3.804	-53.452	-8.6351e+05	2767	-0.032989	0.095453	1.0022
3.806	-53.4	-8.6351e+05	2767.2	-0.033379	0.095843	1.0016
3.808	-53.361	-8.6351e+05	2767.4	-0.03377	0.096234	1.001
3.81	-53.238	-8.6351e+05	2767.6	-0.03416	0.096624	1.0004
3.812	-53.209	-8.635e+05	2767.7	-0.034746	0.095843	0.99972
3.814	-53.305	-8.635e+05	2767.8	-0.035331	0.095062	0.99903
3.816	-53.385	-8.635e+05	2767.8	-0.035917	0.094282	0.99835
3.818	-53.449	-8.6351e+05	2767.8	-0.036502	0.093501	0.99767
3.82	-53.46	-8.6351e+05	2767.9	-0.037088	0.09272	0.99698
3.822	-53.404	-8.6351e+05	2767.8	-0.03621	0.093598	0.99894
3.824	-53.32	-8.6351e+05	2767.8	-0.035331	0.094477	1.0009
3.826	-53.238	-8.6351e+05	2767.8	-0.034453	0.095355	1.0028
3.828	-53.194	-8.6351e+05	2767.8	-0.033574	0.096234	1.0048
3.83	-53.22	-8.6351e+05	2767.8	-0.032696	0.097112	1.0067
3.832	-53.302	-8.635e+05	2767.7	-0.031915	0.095746	1.0051
3.834	-53.441	-8.635e+05	2767.6	-0.031134	0.094379	1.0034
3.836	-53.531	-8.6351e+05	2767.4	-0.030354	0.093013	1.0018
3.838	-53.49	-8.6351e+05	2767.2	-0.029573	0.091646	1.0001
3.84	-53.408	-8.6351e+05	2767	-0.028792	0.09028	0.99845
3.842	-53.319	-8.6351e+05	2766.9	-0.029963	0.090768	0.99864
3.844	-53.23	-8.6351e+05	2766.8	-0.031134	0.091256	0.99884
3.846	-53.236	-8.6351e+05	2766.7	-0.032306	0.091744	0.99903
3.848	-53.335	-8.6351e+05	2766.5	-0.033477	0.092232	0.99923
3.85	-53.45	-8.6351e+05	2766.4	-0.034648	0.09272	0.99942
3.852	-53.518	-8.6351e+05	2766.2	-0.03416	0.092818	0.99991
3.854	-53.51	-8.6351e+05	2766	-0.033672	0.092915	1.0004
3.856	-53.442	-8.6351e+05	2765.8	-0.033184	0.093013	1.0009
3.858	-53.376	-8.6351e+05	2765.6	-0.032696	0.09311	1.0014
3.86	-53.261	-8.6351e+05	2765.4	-0.032208	0.093208	1.0019
3.862	-53.229	-8.6351e+05	2765.1	-0.032891	0.093013	1.0017
3.864	-53.293	-8.6351e+05	2764.8	-0.033574	0.092818	1.0015
3.866	-53.326	-8.6351e+05	2764.6	-0.034258	0.092622	1.0013
3.868	-53.401	-8.635e+05	2764.3	-0.034941	0.092427	1.0011
3.87	-53.457	-8.6351e+05	2764	-0.035624	0.092232	1.0009
3.872	-53.388	-8.6351e+05	2763.7	-0.035917	0.093208	1.0008
3.874	-53.369	-8.6351e+05	2763.4	-0.03621	0.094184	1.0007
3.876	-53.269	-8.6351e+05	2763.1	-0.036502	0.09516	1.0006
3.878	-53.203	-8.635e+05	2762.7	-0.036795	0.096136	1.0005
3.88	-53.246	-8.635e+05	2762.4	-0.037088	0.097112	1.0004
3.882	-53.315	-8.6351e+05	2762	-0.037674	0.096624	1.0004
3.884	-53.391	-8.6352e+05	2761.6	-0.038259	0.096136	1.0004
3.886	-53.474	-8.6351e+05	2761.2	-0.038845	0.095648	1.0004
3.888	-53.422	-8.6351e+05	2760.8	-0.03943	0.09516	1.0004
3.89	-53.339	-8.6351e+05	2760.3	-0.040016	0.094672	1.0004
3.892	-53.228	-8.6351e+05	2759.9	-0.038454	0.094574	1.0007
3.894	-53.152	-8.6351e+05	2759.4	-0.036893	0.094477	1.001
3.896	-53.208	-8.6351e+05	2758.9	-0.035331	0.094379	1.0013
3.898	-53.296	-8.6351e+05	2758.4	-0.03377	0.094282	1.0016
3.9	-53.346	-8.6351e+05	2758	-0.032208	0.094184	1.0019
3.902	-53.368	-8.6351e+05	2757.5	-0.031915	0.093794	1.0018
3.904	-53.355	-8.635e+05	2757	-0.031622	0.093403	1.0017
3.906	-53.292	-8.6351e+05	2756.5	-0.03133	0.093013	1.0016
3.908	-53.274	-8.6352e+05	2755.9	-0.031037	0.092622	1.0015
3.91	-53.251	-8.6352e+05	2755.4	-0.030744	0.092232	1.0014
3.912	-53.216	-8.6352e+05	2754.8	-0.030842	0.093013	1.0024
3.914	-53.254	-8.6351e+05	2754.1	-0.030939	0.093794	1.0033
3.916	-53.333	-8.6351e+05	2753.5	-0.031037	0.094574	1.0043
3.918	-53.412	-8.6351e+05	2753	-0.031134	0.095355	1.0053
3.92	-53.424	-8.6352e+05	2752.4	-0.031232	0.096136	1.0063
3.922	-53.372	-8.6352e+05	2751.9	-0.031915	0.095941	1.0055
3.924	-53.309	-8.6351e+05	2751.3	-0.032598	0.095746	1.0047
3.926	-53.201	-8.6351e+05	2750.8	-0.033282	0.09555	1.0039
3.928	-53.132	-8.6352e+05	2750.3	-0.033965	0.095355	1.0031
3.93	-53.198	-8.6352e+05	2749.7	-0.034648	0.09516	1.0024
3.932	-53.28	-8.6352e+05	2749.2	-0.03416	0.095062	1.0029
3.934	-53.348	-8.6352e+05	2748.7	-0.033672	0.094965	1.0035
3.936	-53.424	-8.6353e+05	2748.2	-0.033184	0.094867	1.0041
3.938	-53.424	-8.6352e+05	2747.7	-0.032696	0.09477	1.0047
3.94	-53.408	-8.6351e+05	2747.2	-0.032208	0.094672	1.0053
3.942	-53.387	-8.6351e+05	2746.8	-0.032891	0.094574	1.0057
3.944	-53.327	-8.6351e+05	2746.4	-0.033574	0.094477	1.0061
3.946	-53.33	-8.6352e+05	2746	-0.034258	0.094379	1.0065
3.948	-53.438	-8.6352e+05	2745.5	-0.034941	0.094282	1.0068
3.95	-53.505	-8.6353e+05	2745.1	-0.035624	0.094184	1.0072
3.952	-53.573	-8.6354e+05	2744.7	-0.035136	0.094672	1.0068
3.954	-53.607	-8.6354e+05	2744.4	-0.034648	0.09516	1.0065
3.956	-53.579	-8.6355e+05	2744	-0.03416	0.095648	1.0061
3.958	-53.498	-8.6354e+05	2743.7	-0.033672	0.096136	1.0057
3.96	-53.409	-8.6354e+05	2743.5	-0.033184	0.096624	1.0053
3.962	-53.402	-8.6354e+05	2743.2	-0.033477	0.096038	1.0047
3.964	-53.505	-8.6353e+05	2742.9	-0.03377	0.095453	1.0041
3.966	-53.478	-8.6354e+05	2742.6	-0.034062	0.094867	1.0035
3.968	-53.595	-8.6354e+05	2742.3	-0.034355	0.094282	1.0029
3.97	-53.632	-8.6354e+05	2742	-0.034648	0.093696	1.0024
3.972	-53.519	-8.6354e+05	2741.7	-0.03621	0.093208	1.0019
3.974	-53.388	-8.6355e+05	2741.4	-0.037771	0.09272	1.0014
3.976	-53.188	-8.6356e+05	2741.1	-0.039333	0.092232	1.0009
3.978	-53.09	-8.6356e+05	2740.8	-0.040894	0.091744	1.0004
3.98	-53.198	-8.6355e+05	2740.5	-0.042456	0.091256	0.99991
3.982	-53.267	-8.6356e+05	2740.2	-0.043334	0.089987	0.99903
3.984	-53.351	-8.6357e+05	2739.9	-0.044213	0.088718	0.99816
3.986	-53.408	-8.6356e+05	2739.5	-0.045091	0.08745	0.99728
3.988	-53.348	-8.6356e+05	2739.2	-0.04597	0.086181	0.9964
3.99	-53.284	-8.6356e+05	2738.9	-0.046848	0.084912	0.99552
3.992	-53.213	-8.6357e+05	2738.6	-0.04675	0.085302	0.99464
3.994	-53.167	-8.6358e+05	2738.3	-0.046653	0.085693	0.99376
3.996	-53.199	-8.6358e+05	2738	-0.046555	0.086083	0.99288
3.998	-53.287	-8.6358e+05	2737.6	-0.046458	0.086474	0.99201
4	-53.392	-8.6358e+05	2737.3	-0.04636	0.086864	0.99113
4.002	-53.455	-8.6358e+05	2736.9	-0.046653	0.087059	0.99191
4.004	-53.441	-8.6358e+05	2736.6	-0.046946	0.087254	0.99269
4.006	-53.389	-8.6358e+05	2736.3	-0.047238	0.08745	0.99347
4.008	-53.277	-8.6359e+05	2735.9	-0.047531	0.087645	0.99425
4.01	-53.161	-8.636e+05	2735.6	-0.047824	0.08784	0.99503
4.012	-53.196	-8.636e+05	2735.1	-0.047629	0.087742	0.99581
4.014	-53.296	-8.636e+05	2734.6	-0.047434	0.087645	0.99659
4.016	-53.356	-8.6359e+05	2734	-0.047238	0.087547	0.99737
4.018	-53.44	-8.636e+05	2733.5	-0.047043	0.08745	0.99816
4.02	-53.469	-8.636e+05	2733	-0.046848	0.087352	0.99894
4.022	-53.373	-8.636e+05	2732.5	-0.046067	0.088035	0.99864
4.024	-53.253	-8.636e+05	2732	-0.045286	0.088718	0.99835
4.026	-53.184	-8.6361e+05	2731.6	-0.044506	0.089402	0.99806
4.028	-53.166	-8.6361e+05	2731.2	-0.043725	0.090085	0.99776
4.03	-53.257	-8.6361e+05	2730.9	-0.042944	0.090768	0.99747
4.032	-53.302	-8.6361e+05	2730.4	-0.043237	0.089987	0.99835
4.034	-53.358	-8.6362e+05	2730	-0.04353	0.089206	0.99923
4.036	-53.451	-8.6363e+05	2729.5	-0.043822	0.088426	1.0001
4.038	-53.349	-8.6363e+05	2729	-0.044115	0.087645	1.001
4.04	-53.323	-8.6363e+05	2728.6	-0.044408	0.086864	1.0019
4.042	-53.274	-8.6363e+05	2728	-0.043139	0.088523	1.0028
4.044	-53.18	-8.6363e+05	2727.5	-0.04187	0.090182	1.0038
4.046	-53.204	-8.6363e+05	2727.1	-0.040602	0.091842	1.0048
4.048	-53.306	-8.6363e+05	2726.6	-0.039333	0.093501	1.0058
4.05	-53.391	-8.6363e+05	2726.1	-0.038064	0.09516	1.0067
4.052	-53.513	-8.6364e+05	2725.8	-0.038357	0.09555	1.0069
4.054	-53.46	-8.6364e+05	2725.4	-0.03865	0.095941	1.0071
4.056	-53.398	-8.6364e+05	2725.1	-0.038942	0.096331	1.0073
4.058	-53.348	-8.6364e+05	2724.8	-0.039235	0.096722	1.0075
4.06	-53.224	-8.6365e+05	2724.4	-0.039528	0.097112	1.0077
4.062	-53.215	-8.6366e+05	2724.2	-0.038942	0.096429	1.0068
4.064	-53.316	-8.6366e+05	2723.9	-0.038357	0.095746	1.006
4.066	-53.362	-8.6367e+05	2723.6	-0.037771	0.095062	1.0051
4.068	-53.421	-8.6367e+05	2723.3	-0.037186	0.094379	1.0042
4.07	-53.479	-8.6367e+05	2722.9	-0.0366	0.093696	1.0033
4.072	-53.407	-8.6367e+05	2722.5	-0.035819	0.093891	1.0039
4.074	-53.325	-8.6367e+05	2722.1	-0.035038	0.094086	1.0045
4.076	-53.234	-8.6368e+05	2721.7	-0.034258	0.094282	1.0051
4.078	-53.208	-8.6368e+05	2721.2	-0.033477	0.094477	1.0057
4.08	-53.313	-8.6368e+05	2720.8	-0.032696	0.094672	1.0063
4.082	-53.358	-8.6368e+05	2720.3	-0.033574	0.094379	1.0053
4.084	-53.424	-8.6368e+05	2719.7	-0.034453	0.094086	1.0043
4.086	-53.487	-8.6369e+05	2719.4	-0.035331	0.093794	1.0033
4.088	-53.459	-8.6369e+05	2719.2	-0.03621	0.093501	1.0024
4.09	-53.396	-8.6369e+05	2719	-0.037088	0.093208	1.0014
4.092	-53.289	-8.637e+05	2718.9	-0.038357	0.091256	1.0007
4.094	-53.203	-8.6371e+05	2718.7	-0.039626	0.089304	1
4.096	-53.236	-8.6371e+05	2718.8	-0.040894	0.087352	0.99933
4.098	-53.304	-8.6371e+05	2719.1	-0.042163	0.0854	0.99864
4.1	-53.387	-8.6371e+05	2719.4	-0.043432	0.083448	0.99796
4.102	-53.497	-8.6371e+05	2720.6	-0.043139	0.084619	0.99708
4.104	-53.513	-8.6372e+05	2721.8	-0.042846	0.08579	0.9962
4.106	-53.44	-8.6372e+05	2723.4	-0.042554	0.086962	0.99532
4.108	-53.364	-8.6373e+05	2725.6	-0.042261	0.088133	0.99445
4.11	-53.302	-8.6373e+05	2727.7	-0.041968	0.089304	0.99357
4.112	-53.309	-8.6373e+05	2730.8	-0.043334	0.089402	0.99357
