t	ekg	optical	pressure	accel_x	accel_y	accel_z
0	5.7634	-3.1705e+05	3041.4	-0.30881	0.083936	0.95482
0.002	5.918	-3.1705e+05	3041.2	-0.30861	0.083936	0.95492
0.004	6.1514	-3.1705e+05	3041	-0.30842	0.083936	0.95502
0.006	6.223	-3.1705e+05	3040.8	-0.30822	0.083936	0.95511
0.008	6.1275	-3.1705e+05	3040.6	-0.30803	0.083936	0.95521
0.01	6.0142	-3.1705e+05	3040.4	-0.30783	0.083936	0.95531
0.012	5.765	-3.1705e+05	3040.2	-0.30764	0.083936	0.95541
0.014	5.6327	-3.1705e+05	3039.9	-0.30744	0.083936	0.9555
0.016	5.7111	-3.1705e+05	3039.7	-0.30783	0.083448	0.95589
0.018	5.8377	-3.1705e+05	3039.5	-0.30822	0.08296	0.95628
0.02	6.0966	-3.1706e+05	3039.3	-0.30861	0.082472	0.95668
0.022	6.2457	-3.1706e+05	3039	-0.309	0.081984	0.95707
0.024	6.1612	-3.1706e+05	3038.8	-0.30939	0.081496	0.95746
0.026	6.064	-3.1706e+05	3038.6	-0.3089	0.082179	0.95736
0.028	5.8714	-3.1706e+05	3038.4	-0.30842	0.082862	0.95726
0.03	5.688	-3.1706e+05	3038.1	-0.30793	0.083546	0.95716
0.032	5.7028	-3.1706e+05	3037.8	-0.30744	0.084229	0.95707
0.034	5.7894	-3.1706e+05	3037.5	-0.30695	0.084912	0.95697
0.036	5.9884	-3.1706e+05	3037.2	-0.30685	0.083838	0.95726
0.038	6.194	-3.1707e+05	3036.9	-0.30676	0.082765	0.95755
0.04	6.1862	-3.1707e+05	3036.6	-0.30666	0.081691	0.95785
0.042	6.099	-3.1707e+05	3036.3	-0.30656	0.080618	0.95814
0.044	5.9344	-3.1708e+05	3036	-0.30646	0.079544	0.95843
0.046	5.7302	-3.1708e+05	3035.7	-0.305	0.079349	0.95863
0.048	5.6787	-3.1708e+05	3035.4	-0.30354	0.079154	0.95882
0.05	5.7527	-3.1708e+05	3035	-0.30207	0.078958	0.95902
0.052	5.9057	-3.1708e+05	3034.7	-0.30061	0.078763	0.95921
0.054	6.1339	-3.1709e+05	3034.3	-0.29914	0.078568	0.95941
0.056	6.2431	-3.1709e+05	3034	-0.29895	0.07847	0.95941
0.058	6.1668	-3.1709e+05	3033.6	-0.29875	0.078373	0.95941
0.06	6.0062	-3.1709e+05	3033.3	-0.29856	0.078275	0.95941
0.062	5.8063	-3.1709e+05	3032.9	-0.29836	0.078178	0.95941
0.064	5.6942	-3.1709e+05	3032.6	-0.29817	0.07808	0.95941
0.066	5.7354	-3.1709e+05	3032.2	-0.29827	0.07808	0.95931
0.068	5.8472	-3.171e+05	3031.9	-0.29836	0.07808	0.95921
0.07	6.0404	-3.171e+05	3031.5	-0.29846	0.07808	0.95912
0.072	6.2155	-3.171e+05	3031.1	-0.29856	0.07808	0.95902
0.074	6.2085	-3.171e+05	3030.8	-0.29866	0.07808	0.95892
0.076	6.092	-3.171e+05	3030.4	-0.29778	0.077982	0.95921
0.078	5.8947	-3.171e+05	3030.1	-0.2969	0.077885	0.95951
0.08	5.7014	-3.1711e+05	3029.7	-0.29602	0.077787	0.9598
0.082	5.709	-3.1711e+05	3029.4	-0.29514	0.07769	0.96009
0.084	5.8278	-3.1712e+05	3029	-0.29426	0.077592	0.96038
0.086	6.0134	-3.1712e+05	3028.6	-0.29465	0.077299	0.95951
0.088	6.2385	-3.1712e+05	3028.2	-0.29504	0.077006	0.95863
0.09	6.2475	-3.1712e+05	3027.9	-0.29544	0.076714	0.95775
0.092	6.137	-3.1713e+05	3027.5	-0.29583	0.076421	0.95687
0.094	6.0037	-3.1713e+05	3027.1	-0.29622	0.076128	0.95599
0.096	5.7596	-3.1713e+05	3026.8	-0.2968	0.076323	0.95687
0.098	5.7034	-3.1713e+05	3026.4	-0.29739	0.076518	0.95775
0.1	5.8286	-3.1713e+05	3026.1	-0.29797	0.076714	0.95863
0.102	5.9618	-3.1714e+05	3025.7	-0.29856	0.076909	0.95951
0.104	6.2074	-3.1714e+05	3025.3	-0.29914	0.077104	0.96038
0.106	6.2803	-3.1714e+05	3024.9	-0.29768	0.07769	0.9598
0.108	6.1901	-3.1715e+05	3024.6	-0.29622	0.078275	0.95921
0.11	6.0746	-3.1715e+05	3024.2	-0.29475	0.078861	0.95863
0.112	5.8356	-3.1714e+05	3023.9	-0.29329	0.079446	0.95804
0.114	5.7254	-3.1715e+05	3023.5	-0.29182	0.080032	0.95746
0.116	5.7917	-3.1716e+05	3023.2	-0.29075	0.079056	0.95833
0.118	5.8992	-3.1716e+05	3022.9	-0.28968	0.07808	0.95921
0.12	6.1218	-3.1716e+05	3022.5	-0.2886	0.077104	0.96009
0.122	6.249	-3.1716e+05	3022.1	-0.28753	0.076128	0.96097
0.124	6.1837	-3.1717e+05	3021.7	-0.28646	0.075152	0.96185
0.126	6.0732	-3.1717e+05	3021.4	-0.28568	0.075347	0.96175
0.128	5.8668	-3.1717e+05	3021	-0.28489	0.075542	0.96165
0.13	5.6952	-3.1718e+05	3020.7	-0.28411	0.075738	0.96156
0.132	5.7011	-3.1718e+05	3020.3	-0.28333	0.075933	0.96146
0.134	5.7954	-3.1719e+05	3020	-0.28255	0.076128	0.96136
0.136	5.9931	-3.1719e+05	3019.7	-0.28167	0.076226	0.96195
0.138	6.1853	-3.1719e+05	3019.3	-0.2808	0.076323	0.96253
0.14	6.1955	-3.1719e+05	3019	-0.27992	0.076421	0.96312
0.142	6.0932	-3.1719e+05	3018.7	-0.27904	0.076518	0.9637
0.144	5.9254	-3.1719e+05	3018.3	-0.27816	0.076616	0.96429
0.146	5.7303	-3.172e+05	3018	-0.27796	0.077006	0.96448
0.148	5.672	-3.172e+05	3017.7	-0.27777	0.077397	0.96468
0.15	5.7526	-3.1721e+05	3017.4	-0.27757	0.077787	0.96487
0.152	5.8964	-3.1721e+05	3017	-0.27738	0.078178	0.96507
0.154	6.0925	-3.1721e+05	3016.7	-0.27718	0.078568	0.96526
0.156	6.1908	-3.1721e+05	3016.4	-0.27679	0.078275	0.96556
0.158	6.1241	-3.1722e+05	3016	-0.2764	0.077982	0.96585
0.16	5.991	-3.1723e+05	3015.7	-0.27601	0.07769	0.96614
0.162	5.786	-3.1723e+05	3015.5	-0.27562	0.077397	0.96644
0.164	5.6514	-3.1724e+05	3015.2	-0.27523	0.077104	0.96673
0.166	5.7058	-3.1723e+05	3014.9	-0.27748	0.07603	0.96741
0.168	5.8225	-3.1723e+05	3014.6	-0.27972	0.074957	0.96809
0.17	6.0264	-3.1723e+05	3014.3	-0.28197	0.073883	0.96878
0.172	6.2017	-3.1723e+05	3014	-0.28421	0.07281	0.96946
0.174	6.1441	-3.1724e+05	3013.8	-0.28646	0.071736	0.97014
0.176	6.0576	-3.1724e+05	3013.5	-0.28509	0.072614	0.96956
0.178	5.8757	-3.1725e+05	3013.3	-0.28372	0.073493	0.96897
0.18	5.6377	-3.1726e+05	3013	-0.28236	0.074371	0.96839
0.182	5.6747	-3.1726e+05	3012.8	-0.28099	0.07525	0.9678
0.184	5.8027	-3.1725e+05	3012.5	-0.27962	0.076128	0.96722
0.186	5.9477	-3.1726e+05	3012.3	-0.27923	0.076714	0.96614
0.188	6.1922	-3.1726e+05	3012.1	-0.27884	0.077299	0.96507
0.19	6.158	-3.1727e+05	3011.9	-0.27845	0.077885	0.964
0.192	6.087	-3.1727e+05	3011.6	-0.27806	0.07847	0.96292
0.194	5.9398	-3.1727e+05	3011.4	-0.27767	0.079056	0.96185
0.196	5.6636	-3.1728e+05	3011.2	-0.27796	0.078763	0.96175
0.198	5.6445	-3.1728e+05	3011	-0.27826	0.07847	0.96165
0.2	5.7474	-3.1728e+05	3010.9	-0.27855	0.078178	0.96156
0.202	5.8916	-3.1728e+05	3010.7	-0.27884	0.077885	0.96146
0.204	6.1313	-3.1729e+05	3010.5	-0.27914	0.077592	0.96136
0.206	6.1828	-3.1729e+05	3010.4	-0.27953	0.077397	0.96175
0.208	6.1109	-3.1729e+05	3010.2	-0.27992	0.077202	0.96214
0.21	6.0027	-3.173e+05	3010.1	-0.28031	0.077006	0.96253
0.212	5.779	-3.173e+05	3010	-0.2807	0.076811	0.96292
0.214	5.6599	-3.173e+05	3009.9	-0.28109	0.076616	0.96331
0.216	5.7243	-3.173e+05	3009.8	-0.28158	0.075835	0.96312
0.218	5.8591	-3.1731e+05	3009.7	-0.28206	0.075054	0.96292
0.22	6.0929	-3.1733e+05	3009.6	-0.28255	0.074274	0.96273
0.222	6.2504	-3.1732e+05	3009.5	-0.28304	0.073493	0.96253
0.224	6.2241	-3.1732e+05	3009.3	-0.28353	0.072712	0.96234
0.226	6.1351	-3.1732e+05	3009.3	-0.28294	0.073786	0.96214
0.228	5.9772	-3.1732e+05	3009.2	-0.28236	0.074859	0.96195
0.23	5.8231	-3.1734e+05	3009.1	-0.28177	0.075933	0.96175
0.232	5.8215	-3.1735e+05	3009	-0.28119	0.077006	0.96156
0.234	5.9093	-3.1735e+05	3008.9	-0.2806	0.07808	0.96136
0.236	6.0492	-3.1735e+05	3008.8	-0.28099	0.077006	0.96175
0.238	6.1947	-3.1735e+05	3008.8	-0.28138	0.075933	0.96214
0.24	6.1744	-3.1735e+05	3008.7	-0.28177	0.074859	0.96253
0.242	6.0201	-3.1735e+05	3008.7	-0.28216	0.073786	0.96292
0.244	5.7862	-3.1736e+05	3008.6	-0.28255	0.072712	0.96331
0.246	5.482	-3.1736e+05	3008.5	-0.28333	0.072907	0.96351
0.248	5.3336	-3.1737e+05	3008.4	-0.28411	0.073102	0.9637
0.25	5.3669	-3.1736e+05	3008.3	-0.28489	0.073298	0.9639
0.252	5.4983	-3.1736e+05	3008.2	-0.28568	0.073493	0.96409
0.254	5.737	-3.1737e+05	3008.1	-0.28646	0.073688	0.96429
0.256	5.8575	-3.1738e+05	3008.1	-0.28636	0.073298	0.96439
0.258	5.7863	-3.1738e+05	3008	-0.28626	0.072907	0.96448
0.26	5.697	-3.1739e+05	3007.9	-0.28616	0.072517	0.96458
0.262	5.4953	-3.1739e+05	3007.8	-0.28607	0.072126	0.96468
0.264	5.3425	-3.1739e+05	3007.6	-0.28597	0.071736	0.96478
0.266	5.4421	-3.174e+05	3007.5	-0.28626	0.071931	0.96487
0.268	5.5933	-3.174e+05	3007.4	-0.28655	0.072126	0.96497
0.27	5.8224	-3.1741e+05	3007.3	-0.28685	0.072322	0.96507
0.272	6.02	-3.1741e+05	3007.1	-0.28714	0.072517	0.96517
0.274	5.994	-3.1741e+05	3007	-0.28743	0.072712	0.96526
0.276	5.948	-3.1741e+05	3006.8	-0.28919	0.074078	0.9638
0.278	5.7591	-3.1742e+05	3006.7	-0.29095	0.075445	0.96234
0.28	5.5443	-3.1742e+05	3006.5	-0.2927	0.076811	0.96087
0.282	5.5847	-3.1742e+05	3006.3	-0.29446	0.078178	0.95941
0.284	5.6946	-3.1742e+05	3006.1	-0.29622	0.079544	0.95794
0.286	5.9169	-3.1742e+05	3005.9	-0.29592	0.079349	0.95882
0.288	6.1615	-3.1742e+05	3005.8	-0.29563	0.079154	0.9597
0.29	6.1578	-3.1743e+05	3005.6	-0.29534	0.078958	0.96058
0.292	6.0663	-3.1744e+05	3005.4	-0.29504	0.078763	0.96146
0.294	5.9003	-3.1744e+05	3005.2	-0.29475	0.078568	0.96234
0.296	5.6988	-3.1744e+05	3005	-0.29602	0.078373	0.96146
0.298	5.6569	-3.1745e+05	3004.8	-0.29729	0.078178	0.96058
0.3	5.7265	-3.1746e+05	3004.6	-0.29856	0.077982	0.9597
0.302	5.8858	-3.1746e+05	3004.4	-0.29983	0.077787	0.95882
0.304	6.12	-3.1746e+05	3004.2	-0.3011	0.077592	0.95794
0.306	6.207	-3.1746e+05	3004	-0.30168	0.077299	0.95843
0.308	6.1403	-3.1746e+05	3003.7	-0.30227	0.077006	0.95892
0.31	6.0125	-3.1747e+05	3003.5	-0.30285	0.076714	0.95941
0.312	5.8089	-3.1748e+05	3003.3	-0.30344	0.076421	0.9599
0.314	5.6805	-3.1748e+05	3003.1	-0.30402	0.076128	0.96038
0.316	5.7225	-3.1747e+05	3002.9	-0.30305	0.075542	0.96038
0.318	5.854	-3.1748e+05	3002.7	-0.30207	0.074957	0.96038
0.32	6.0614	-3.1749e+05	3002.5	-0.3011	0.074371	0.96038
0.322	6.2167	-3.175e+05	3002.3	-0.30012	0.073786	0.96038
0.324	6.1806	-3.175e+05	3002.1	-0.29914	0.0732	0.96038
0.326	6.0631	-3.1751e+05	3001.9	-0.29963	0.073493	0.9599
0.328	5.891	-3.1752e+05	3001.7	-0.30012	0.073786	0.95941
0.33	5.7091	-3.1752e+05	3001.4	-0.30061	0.074078	0.95892
0.332	5.7046	-3.1752e+05	3001.2	-0.3011	0.074371	0.95843
0.334	5.8067	-3.1752e+05	3001	-0.30158	0.074664	0.95794
0.336	5.9682	-3.1753e+05	3000.7	-0.30168	0.074371	0.95872
0.338	6.1811	-3.1753e+05	3000.4	-0.30178	0.074078	0.95951
0.34	6.2103	-3.1753e+05	3000.1	-0.30188	0.073786	0.96029
0.342	6.103	-3.1753e+05	2999.8	-0.30197	0.073493	0.96107
0.344	5.9624	-3.1754e+05	2999.6	-0.30207	0.0732	0.96185
0.346	5.7501	-3.1754e+05	2999.3	-0.30061	0.074664	0.96185
0.348	5.6938	-3.1755e+05	2999	-0.29914	0.076128	0.96185
0.35	5.7867	-3.1756e+05	2998.8	-0.29768	0.077592	0.96185
0.352	5.8991	-3.1757e+05	2998.5	-0.29622	0.079056	0.96185
0.354	6.1558	-3.1757e+05	2998.2	-0.29475	0.08052	0.96185
0.356	6.253	-3.1757e+05	2998	-0.29524	0.079837	0.96156
0.358	6.1523	-3.1758e+05	2997.8	-0.29573	0.079154	0.96126
0.36	6.0507	-3.1759e+05	2997.7	-0.29622	0.07847	0.96097
0.362	5.8176	-3.1759e+05	2997.5	-0.2967	0.077787	0.96068
0.364	5.6751	-3.176e+05	2997.4	-0.29719	0.077104	0.96038
0.366	5.7369	-3.1759e+05	2997.5	-0.29778	0.076909	0.9597
0.368	5.8444	-3.1759e+05	2997.6	-0.29836	0.076714	0.95902
0.37	6.0691	-3.1759e+05	2997.8	-0.29895	0.076518	0.95833
0.372	6.2299	-3.1759e+05	2998.2	-0.29953	0.076323	0.95765
0.374	6.1925	-3.176e+05	2998.7	-0.30012	0.076128	0.95697
0.376	6.0968	-3.1761e+05	2999.8	-0.30032	0.075542	0.95755
0.378	5.8861	-3.1762e+05	3001	-0.30051	0.074957	0.95814
0.38	5.7012	-3.1763e+05	3002.5	-0.30071	0.074371	0.95872
0.382	5.7044	-3.1762e+05	3004.6	-0.3009	0.073786	0.95931
0.384	5.808	-3.1762e+05	3006.6	-0.3011	0.0732	0.9599
0.386	6.0097	-3.1762e+05	3009.7	-0.30168	0.073688	0.95912
0.388	6.2082	-3.1763e+05	3012.8	-0.30227	0.074176	0.95833
0.39	6.2307	-3.1763e+05	3016.5	-0.30285	0.074664	0.95755
0.392	6.1633	-3.1764e+05	3020.8	-0.30344	0.075152	0.95677
0.394	6.0124	-3.1764e+05	3025.1	-0.30402	0.07564	0.95599
0.396	5.8092	-3.1764e+05	3030.3	-0.30305	0.07525	0.95707
0.398	5.7455	-3.1765e+05	3035.6	-0.30207	0.074859	0.95814
0.4	5.82	-3.1765e+05	3041.1	-0.3011	0.074469	0.95921
0.402	5.9742	-3.1765e+05	3047	-0.30012	0.074078	0.96029
0.404	6.1993	-3.1766e+05	3052.9	-0.29914	0.073688	0.96136
0.406	6.3113	-3.1767e+05	3059.2	-0.29797	0.073883	0.96243
0.408	6.2347	-3.1767e+05	3065.5	-0.2968	0.074078	0.96351
0.41	6.0839	-3.1768e+05	3071.3	-0.29563	0.074274	0.96458
0.412	5.898	-3.1768e+05	3076.7	-0.29446	0.074469	0.96565
0.414	5.8042	-3.1768e+05	3082.1	-0.29329	0.074664	0.96673
0.416	5.8498	-3.1768e+05	3084.9	-0.29368	0.074566	0.96741
0.418	5.9232	-3.1767e+05	3087.6	-0.29407	0.074469	0.96809
0.42	6.1089	-3.1767e+05	3089.9	-0.29446	0.074371	0.96878
0.422	6.3171	-3.1767e+05	3091.6	-0.29485	0.074274	0.96946
0.424	6.2903	-3.1767e+05	3093.3	-0.29524	0.074176	0.97014
0.426	6.1712	-3.1766e+05	3094.5	-0.29446	0.074762	0.96897
0.428	6.0007	-3.1766e+05	3095.7	-0.29368	0.075347	0.9678
0.43	5.8226	-3.1765e+05	3096.9	-0.2929	0.075933	0.96663
0.432	5.8705	-3.1765e+05	3098.1	-0.29212	0.076518	0.96546
0.434	5.9629	-3.1765e+05	3099.2	-0.29134	0.077104	0.96429
0.436	6.0946	-3.1764e+05	3100.4	-0.29212	0.075933	0.96536
0.438	6.3337	-3.1764e+05	3101.6	-0.2929	0.074762	0.96644
0.44	6.3542	-3.1765e+05	3102.8	-0.29368	0.07359	0.96751
0.442	6.2507	-3.1764e+05	3104.1	-0.29446	0.072419	0.96858
0.444	6.1285	-3.1764e+05	3105.5	-0.29524	0.071248	0.96966
0.446	5.8852	-3.1764e+05	3106.9	-0.29524	0.071834	0.96927
0.448	5.8234	-3.1763e+05	3108.3	-0.29524	0.072419	0.96888
0.45	5.9191	-3.1763e+05	3109.8	-0.29524	0.073005	0.96848
0.452	6.0499	-3.1763e+05	3111.3	-0.29524	0.07359	0.96809
0.454	6.291	-3.1762e+05	3112.9	-0.29524	0.074176	0.9677
0.456	6.3649	-3.1762e+05	3114.5	-0.29407	0.073981	0.9678
0.458	6.3041	-3.1761e+05	3116.1	-0.2929	0.073786	0.9679
0.46	6.216	-3.1761e+05	3117.7	-0.29173	0.07359	0.968
0.462	5.9869	-3.1761e+05	3119.4	-0.29056	0.073395	0.96809
0.464	5.8545	-3.1762e+05	3121	-0.28938	0.0732	0.96819
0.466	5.8912	-3.1761e+05	3122.6	-0.28948	0.073883	0.9679
0.468	5.9979	-3.176e+05	3124.2	-0.28958	0.074566	0.96761
0.47	6.2146	-3.176e+05	3125.8	-0.28968	0.07525	0.96731
0.472	6.363	-3.176e+05	3127.3	-0.28977	0.075933	0.96702
0.474	6.3277	-3.176e+05	3128.9	-0.28987	0.076616	0.96673
0.476	6.2184	-3.176e+05	3130.2	-0.28821	0.075445	0.96565
0.478	6.0297	-3.1759e+05	3131.6	-0.28655	0.074274	0.96458
0.48	5.8672	-3.1758e+05	3132.8	-0.28489	0.073102	0.96351
0.482	5.8684	-3.1758e+05	3134	-0.28324	0.071931	0.96243
0.484	5.9624	-3.1758e+05	3135.1	-0.28158	0.07076	0.96136
0.486	6.1441	-3.1757e+05	3136	-0.28343	0.071834	0.96136
0.488	6.3283	-3.1756e+05	3136.9	-0.28528	0.072907	0.96136
0.49	6.3203	-3.1757e+05	3137.6	-0.28714	0.073981	0.96136
0.492	6.1865	-3.1757e+05	3138.2	-0.28899	0.075054	0.96136
0.494	6.0184	-3.1757e+05	3138.7	-0.29085	0.076128	0.96136
0.496	5.826	-3.1757e+05	3139.1	-0.29036	0.075347	0.96136
0.498	5.7705	-3.1756e+05	3139.5	-0.28987	0.074566	0.96136
0.5	5.8568	-3.1755e+05	3139.8	-0.28938	0.073786	0.96136
0.502	5.975	-3.1755e+05	3139.9	-0.2889	0.073005	0.96136
0.504	6.1728	-3.1754e+05	3140	-0.28841	0.072224	0.96136
0.506	6.2952	-3.1754e+05	3139.9	-0.28753	0.072419	0.96146
0.508	6.212	-3.1754e+05	3139.8	-0.28665	0.072614	0.96156
0.51	6.0802	-3.1754e+05	3139.6	-0.28577	0.07281	0.96165
0.512	5.8867	-3.1753e+05	3139.4	-0.28489	0.073005	0.96175
0.514	5.7427	-3.1752e+05	3139.2	-0.28402	0.0732	0.96185
0.516	5.7861	-3.1752e+05	3138.7	-0.2848	0.07359	0.96156
0.518	5.8884	-3.1751e+05	3138.3	-0.28558	0.073981	0.96126
0.52	6.0882	-3.1751e+05	3137.8	-0.28636	0.074371	0.96097
0.522	6.2734	-3.175e+05	3137.2	-0.28714	0.074762	0.96068
0.524	6.2047	-3.1749e+05	3136.6	-0.28792	0.075152	0.96038
0.526	6.09	-3.1749e+05	3135.9	-0.28899	0.075835	0.9598
0.528	5.9039	-3.1748e+05	3135.3	-0.29007	0.076518	0.95921
0.53	5.6646	-3.1748e+05	3134.6	-0.29114	0.077202	0.95863
0.532	5.7113	-3.1748e+05	3133.8	-0.29221	0.077885	0.95804
0.534	5.8197	-3.1747e+05	3133	-0.29329	0.078568	0.95746
0.536	5.9669	-3.1745e+05	3132.2	-0.293	0.079154	0.95658
0.538	6.2042	-3.1745e+05	3131.3	-0.2927	0.079739	0.9557
0.54	6.2131	-3.1745e+05	3130.4	-0.29241	0.080325	0.95482
0.542	6.1203	-3.1745e+05	3129.4	-0.29212	0.08091	0.95394
0.544	5.9733	-3.1744e+05	3128.5	-0.29182	0.081496	0.95306
0.546	5.7362	-3.1744e+05	3127.5	-0.29182	0.081398	0.95316
0.548	5.6826	-3.1743e+05	3126.6	-0.29182	0.081301	0.95326
0.55	5.7545	-3.1743e+05	3125.6	-0.29182	0.081203	0.95336
0.552	5.8696	-3.1742e+05	3124.6	-0.29182	0.081106	0.95345
0.554	6.0958	-3.1742e+05	3123.5	-0.29182	0.081008	0.95355
0.556	6.2127	-3.1742e+05	3122.5	-0.29173	0.08013	0.95424
0.558	6.1541	-3.1741e+05	3121.4	-0.29163	0.079251	0.95492
0.56	6.0238	-3.1741e+05	3120.3	-0.29153	0.078373	0.9556
0.562	5.8137	-3.1741e+05	3119.2	-0.29143	0.077494	0.95628
0.564	5.6887	-3.1741e+05	3118.1	-0.29134	0.076616	0.95697
0.566	5.718	-3.1741e+05	3117	-0.29221	0.076226	0.95775
0.568	5.8209	-3.174e+05	3115.9	-0.29309	0.075835	0.95853
0.57	6.0192	-3.174e+05	3114.7	-0.29397	0.075445	0.95931
0.572	6.1865	-3.1739e+05	3113.6	-0.29485	0.075054	0.96009
0.574	6.1852	-3.1739e+05	3112.4	-0.29573	0.074664	0.96087
0.576	6.0842	-3.1738e+05	3111.2	-0.29475	0.074566	0.96136
0.578	5.8886	-3.1738e+05	3110.1	-0.29378	0.074469	0.96185
0.58	5.679	-3.1738e+05	3108.9	-0.2928	0.074371	0.96234
0.582	5.6575	-3.1738e+05	3107.7	-0.29182	0.074274	0.96282
0.584	5.7805	-3.1738e+05	3106.5	-0.29085	0.074176	0.96331
0.586	5.968	-3.1738e+05	3105.3	-0.29065	0.073981	0.9638
0.588	6.175	-3.1738e+05	3104.1	-0.29046	0.073786	0.96429
0.59	6.2112	-3.1737e+05	3102.8	-0.29026	0.07359	0.96478
0.592	6.0996	-3.1737e+05	3101.5	-0.29007	0.073395	0.96526
0.594	5.9488	-3.1736e+05	3100.2	-0.28987	0.0732	0.96575
0.596	5.7327	-3.1735e+05	3098.7	-0.28997	0.0732	0.96614
0.598	5.6517	-3.1735e+05	3097.3	-0.29007	0.0732	0.96653
0.6	5.7495	-3.1736e+05	3095.8	-0.29016	0.0732	0.96692
0.602	5.8942	-3.1736e+05	3094.2	-0.29026	0.0732	0.96731
0.604	6.1114	-3.1736e+05	3092.5	-0.29036	0.0732	0.9677
0.606	6.2323	-3.1735e+05	3090.8	-0.29212	0.072614	0.96819
0.608	6.1409	-3.1735e+05	3089	-0.29387	0.072029	0.96868
0.61	6.0371	-3.1734e+05	3087.2	-0.29563	0.071443	0.96917
0.612	5.8126	-3.1734e+05	3085.3	-0.29739	0.070858	0.96966
0.614	5.6343	-3.1734e+05	3083.4	-0.29914	0.070272	0.97014
0.616	5.704	-3.1734e+05	3081.3	-0.29875	0.070272	0.96985
0.618	5.8222	-3.1734e+05	3079.2	-0.29836	0.070272	0.96956
0.62	6.026	-3.1734e+05	3077.1	-0.29797	0.070272	0.96927
0.622	6.2222	-3.1734e+05	3074.9	-0.29758	0.070272	0.96897
0.624	6.1696	-3.1735e+05	3072.8	-0.29719	0.070272	0.96868
0.626	6.0877	-3.1735e+05	3070.6	-0.2967	0.070858	0.96858
0.628	5.9035	-3.1735e+05	3068.4	-0.29622	0.071443	0.96848
0.63	5.6801	-3.1735e+05	3066.2	-0.29573	0.072029	0.96839
0.632	5.6826	-3.1734e+05	3064	-0.29524	0.072614	0.96829
0.634	5.7653	-3.1734e+05	3061.8	-0.29475	0.0732	0.96819
0.636	5.9353	-3.1734e+05	3059.7	-0.29348	0.072126	0.96731
0.638	6.159	-3.1734e+05	3057.6	-0.29221	0.071053	0.96644
0.64	6.1889	-3.1734e+05	3055.6	-0.29095	0.069979	0.96556
0.642	6.1098	-3.1734e+05	3053.7	-0.28968	0.068906	0.96468
0.644	5.9699	-3.1734e+05	3051.8	-0.28841	0.067832	0.9638
0.646	5.7465	-3.1735e+05	3050.1	-0.2888	0.068613	0.96448
0.648	5.6537	-3.1735e+05	3048.4	-0.28919	0.069394	0.96517
0.65	5.7263	-3.1735e+05	3046.8	-0.28958	0.070174	0.96585
0.652	5.8805	-3.1735e+05	3045.4	-0.28997	0.070955	0.96653
0.654	6.0971	-3.1734e+05	3044	-0.29036	0.071736	0.96722
0.656	6.1995	-3.1734e+05	3042.8	-0.29114	0.07281	0.96614
0.658	6.1384	-3.1734e+05	3041.7	-0.29192	0.073883	0.96507
0.66	6.0367	-3.1734e+05	3040.7	-0.2927	0.074957	0.964
0.662	5.8573	-3.1735e+05	3039.8	-0.29348	0.07603	0.96292
0.664	5.6859	-3.1735e+05	3039	-0.29426	0.077104	0.96185
0.666	5.699	-3.1735e+05	3038.3	-0.29446	0.076323	0.96263
0.668	5.8278	-3.1736e+05	3037.7	-0.29465	0.075542	0.96341
0.67	6.0286	-3.1736e+05	3037.2	-0.29485	0.074762	0.96419
0.672	6.201	-3.1736e+05	3036.8	-0.29504	0.073981	0.96497
0.674	6.1744	-3.1736e+05	3036.4	-0.29524	0.0732	0.96575
0.676	6.0667	-3.1735e+05	3036.1	-0.29622	0.073298	0.964
0.678	5.9088	-3.1736e+05	3035.8	-0.29719	0.073395	0.96224
0.68	5.6947	-3.1737e+05	3035.6	-0.29817	0.073493	0.96048
0.682	5.6708	-3.1737e+05	3035.5	-0.29914	0.07359	0.95872
0.684	5.7687	-3.1737e+05	3035.3	-0.30012	0.073688	0.95697
0.686	5.92	-3.1737e+05	3035.2	-0.29963	0.073688	0.95765
0.688	6.1551	-3.1737e+05	3035.1	-0.29914	0.073688	0.95833
0.69	6.2007	-3.1737e+05	3035	-0.29866	0.073688	0.95902
0.692	6.0961	-3.1737e+05	3034.9	-0.29817	0.073688	0.9597
0.694	5.9685	-3.1737e+05	3034.9	-0.29768	0.073688	0.96038
0.696	5.7326	-3.1737e+05	3034.8	-0.29768	0.073493	0.96029
0.698	5.6766	-3.1738e+05	3034.6	-0.29768	0.073298	0.96019
0.7	5.734	-3.1739e+05	3034.5	-0.29768	0.073102	0.96009
0.702	5.826	-3.1739e+05	3034.5	-0.29768	0.072907	0.95999
0.704	6.0953	-3.1739e+05	3034.4	-0.29768	0.072712	0.9599
0.706	6.2229	-3.1739e+05	3034.2	-0.29817	0.072322	0.95999
0.708	6.1381	-3.1739e+05	3034.1	-0.29866	0.071931	0.96009
0.71	6.0428	-3.174e+05	3034	-0.29914	0.071541	0.96019
0.712	5.7936	-3.174e+05	3033.9	-0.29963	0.07115	0.96029
0.714	5.6341	-3.174e+05	3033.8	-0.30012	0.07076	0.96038
0.716	5.724	-3.174e+05	3033.6	-0.3008	0.070565	0.9597
0.718	5.8489	-3.174e+05	3033.5	-0.30149	0.07037	0.95902
0.72	6.0227	-3.174e+05	3033.4	-0.30217	0.070174	0.95833
0.722	6.1634	-3.174e+05	3033.3	-0.30285	0.069979	0.95765
0.724	6.1353	-3.1741e+05	3033.2	-0.30354	0.069784	0.95697
0.726	6.0514	-3.1741e+05	3033.1	-0.30266	0.069784	0.95775
0.728	5.8762	-3.1742e+05	3033	-0.30178	0.069784	0.95853
0.73	5.6885	-3.1742e+05	3032.9	-0.3009	0.069784	0.95931
0.732	5.6888	-3.1743e+05	3032.8	-0.30002	0.069784	0.96009
0.734	5.7756	-3.1743e+05	3032.7	-0.29914	0.069784	0.96087
0.736	5.9377	-3.1743e+05	3032.5	-0.29836	0.070272	0.96165
0.738	6.1467	-3.1743e+05	3032.4	-0.29758	0.07076	0.96243
0.74	6.1944	-3.1743e+05	3032.2	-0.2968	0.071248	0.96321
0.742	6.0991	-3.1743e+05	3032.1	-0.29602	0.071736	0.964
0.744	5.9449	-3.1744e+05	3032.1	-0.29524	0.072224	0.96478
0.746	5.7391	-3.1744e+05	3031.9	-0.29553	0.072322	0.96448
0.748	5.6469	-3.1744e+05	3031.8	-0.29583	0.072419	0.96419
0.75	5.7228	-3.1744e+05	3031.6	-0.29612	0.072517	0.9639
0.752	5.8684	-3.1744e+05	3031.4	-0.29641	0.072614	0.9636
0.754	6.0841	-3.1744e+05	3031.2	-0.2967	0.072712	0.96331
0.756	6.2193	-3.1745e+05	3031.1	-0.29719	0.072419	0.96263
0.758	6.1535	-3.1745e+05	3031	-0.29768	0.072126	0.96195
0.76	6.0168	-3.1746e+05	3030.8	-0.29817	0.071834	0.96126
0.762	5.8155	-3.1746e+05	3030.5	-0.29866	0.071541	0.96058
0.764	5.6533	-3.1747e+05	3030.3	-0.29914	0.071248	0.9599
0.766	5.6992	-3.1747e+05	3030	-0.30022	0.07115	0.96009
0.768	5.8153	-3.1747e+05	3029.8	-0.30129	0.071053	0.96029
0.77	5.9965	-3.1747e+05	3029.6	-0.30236	0.070955	0.96048
0.772	6.1975	-3.1747e+05	3029.3	-0.30344	0.070858	0.96068
0.774	6.1657	-3.1747e+05	3029.1	-0.30451	0.07076	0.96087
0.776	6.0573	-3.1747e+05	3028.9	-0.3049	0.070662	0.96068
0.778	5.9119	-3.1748e+05	3028.6	-0.30529	0.070565	0.96048
0.78	5.6872	-3.1748e+05	3028.4	-0.30568	0.070467	0.96029
0.782	5.704	-3.1748e+05	3028.1	-0.30607	0.07037	0.96009
0.784	5.7831	-3.1748e+05	3027.8	-0.30646	0.070272	0.9599
0.786	5.9299	-3.1748e+05	3027.7	-0.30783	0.072419	0.96214
0.788	6.1991	-3.1748e+05	3027.5	-0.3092	0.074566	0.96439
0.79	6.2192	-3.1749e+05	3027.8	-0.31056	0.076714	0.96663
0.792	6.1278	-3.1749e+05	3028.5	-0.31193	0.078861	0.96888
0.794	6.0371	-3.175e+05	3029.2	-0.3133	0.081008	0.97112
0.796	5.7881	-3.175e+05	3028.6	-0.30783	0.080227	0.96858
0.798	5.6803	-3.175e+05	3027.9	-0.30236	0.079446	0.96604
0.8	5.7466	-3.1751e+05	3027.3	-0.2969	0.078666	0.96351
0.802	5.883	-3.1751e+05	3026.6	-0.29143	0.077885	0.96097
0.804	6.1398	-3.1751e+05	3025.9	-0.28597	0.077104	0.95843
0.806	6.2495	-3.1751e+05	3025.8	-0.29104	0.076226	0.95921
0.808	6.1795	-3.1752e+05	3025.7	-0.29612	0.075347	0.95999
0.81	6.0705	-3.1752e+05	3025.6	-0.30119	0.074469	0.96077
0.812	5.8583	-3.1751e+05	3025.6	-0.30627	0.07359	0.96156
0.814	5.7175	-3.1752e+05	3025.5	-0.31134	0.072712	0.96234
0.816	5.7336	-3.1753e+05	3025.2	-0.30617	0.071541	0.96009
0.818	5.8359	-3.1754e+05	3024.9	-0.301	0.07037	0.95785
0.82	6.0582	-3.1755e+05	3024.5	-0.29583	0.069198	0.9556
0.822	6.2174	-3.1755e+05	3024	-0.29065	0.068027	0.95336
0.824	6.1904	-3.1755e+05	3023.6	-0.28548	0.066856	0.95111
0.826	6.0852	-3.1755e+05	3023.1	-0.29143	0.068418	0.95248
0.828	5.9	-3.1756e+05	3022.7	-0.29739	0.069979	0.95384
0.83	5.7016	-3.1756e+05	3022.2	-0.30334	0.071541	0.95521
0.832	5.6744	-3.1756e+05	3021.8	-0.30929	0.073102	0.95658
0.834	5.7741	-3.1756e+05	3021.4	-0.31525	0.074664	0.95794
0.836	5.9336	-3.1757e+05	3021.1	-0.31271	0.073786	0.95804
0.838	6.129	-3.1757e+05	3020.9	-0.31017	0.072907	0.95814
0.84	6.1744	-3.1757e+05	3020.7	-0.30764	0.072029	0.95824
0.842	6.0822	-3.1757e+05	3020.4	-0.3051	0.07115	0.95833
0.844	5.9521	-3.1758e+05	3020.2	-0.30256	0.070272	0.95843
0.846	5.7403	-3.1759e+05	3019.9	-0.30324	0.070565	0.95804
0.848	5.6251	-3.176e+05	3019.6	-0.30393	0.070858	0.95765
0.85	5.7162	-3.176e+05	3019.2	-0.30461	0.07115	0.95726
0.852	5.8286	-3.176e+05	3018.8	-0.30529	0.071443	0.95687
0.854	6.0422	-3.1761e+05	3018.4	-0.30598	0.071736	0.95648
0.856	6.208	-3.1762e+05	3018	-0.30402	0.071736	0.95716
0.858	6.1319	-3.1762e+05	3017.6	-0.30207	0.071736	0.95785
0.86	6.0037	-3.1762e+05	3017.3	-0.30012	0.071736	0.95853
0.862	5.8125	-3.1762e+05	3017	-0.29817	0.071736	0.95921
0.864	5.6606	-3.1763e+05	3016.7	-0.29622	0.071736	0.9599
0.866	5.7228	-3.1763e+05	3016.3	-0.29739	0.070565	0.95843
0.868	5.8026	-3.1764e+05	3016	-0.29856	0.069394	0.95697
0.87	5.9808	-3.1764e+05	3015.7	-0.29973	0.068222	0.9555
0.872	6.1997	-3.1764e+05	3015.4	-0.3009	0.067051	0.95404
0.874	6.1326	-3.1764e+05	3015.1	-0.30207	0.06588	0.95258
0.876	6.0301	-3.1765e+05	3014.7	-0.30168	0.06627	0.95287
0.878	5.8665	-3.1766e+05	3014.3	-0.30129	0.066661	0.95316
0.88	5.6412	-3.1766e+05	3013.9	-0.3009	0.067051	0.95345
0.882	5.6288	-3.1766e+05	3013.6	-0.30051	0.067442	0.95375
0.884	5.7297	-3.1767e+05	3013.4	-0.30012	0.067832	0.95404
0.886	5.8998	-3.1767e+05	3013.1	-0.30051	0.067539	0.95384
0.888	6.1317	-3.1767e+05	3012.8	-0.3009	0.067246	0.95365
0.89	6.1699	-3.1768e+05	3012.4	-0.30129	0.066954	0.95345
0.892	6.0905	-3.1768e+05	3012.1	-0.30168	0.066661	0.95326
0.894	5.9521	-3.1768e+05	3011.7	-0.30207	0.066368	0.95306
0.896	5.7455	-3.1769e+05	3011.3	-0.30256	0.06793	0.95492
0.898	5.6408	-3.1769e+05	3010.9	-0.30305	0.069491	0.95677
0.9	5.7021	-3.1769e+05	3010.6	-0.30354	0.071053	0.95863
0.902	5.8417	-3.177e+05	3010.2	-0.30402	0.072614	0.96048
0.904	6.0623	-3.1771e+05	3009.9	-0.30451	0.074176	0.96234
0.906	6.1679	-3.1771e+05	3009.7	-0.30305	0.073981	0.96253
0.908	6.1201	-3.1772e+05	3009.4	-0.30158	0.073786	0.96273
0.91	6.001	-3.1772e+05	3009.2	-0.30012	0.07359	0.96292
0.912	5.7973	-3.1772e+05	3009	-0.29866	0.073395	0.96312
0.914	5.6472	-3.1772e+05	3008.8	-0.29719	0.0732	0.96331
0.916	5.6632	-3.1773e+05	3008.5	-0.29748	0.0732	0.9636
0.918	5.7717	-3.1773e+05	3008.2	-0.29778	0.0732	0.9639
0.92	5.9715	-3.1773e+05	3007.9	-0.29807	0.0732	0.96419
0.922	6.1776	-3.1774e+05	3007.6	-0.29836	0.0732	0.96448
0.924	6.2051	-3.1775e+05	3007.4	-0.29866	0.0732	0.96478
0.926	6.1178	-3.1776e+05	3007.2	-0.29944	0.072029	0.9637
0.928	5.97	-3.1776e+05	3007	-0.30022	0.070858	0.96263
0.93	5.7788	-3.1776e+05	3006.7	-0.301	0.069686	0.96156
0.932	5.7518	-3.1776e+05	3006.5	-0.30178	0.068515	0.96048
0.934	5.857	-3.1777e+05	3006.2	-0.30256	0.067344	0.95941
0.936	6.0022	-3.1777e+05	3006	-0.3008	0.06832	0.96048
0.938	6.1834	-3.1777e+05	3005.7	-0.29905	0.069296	0.96156
0.94	6.2166	-3.1777e+05	3005.4	-0.29729	0.070272	0.96263
0.942	6.0657	-3.1778e+05	3005.2	-0.29553	0.071248	0.9637
0.944	5.8914	-3.1779e+05	3004.9	-0.29378	0.072224	0.96478
0.946	5.5937	-3.178e+05	3004.7	-0.29417	0.072419	0.96448
0.948	5.4322	-3.1781e+05	3004.5	-0.29456	0.072614	0.96419
0.95	5.4508	-3.1781e+05	3004.3	-0.29495	0.07281	0.9639
0.952	5.4536	-3.1781e+05	3004	-0.29534	0.073005	0.9636
0.954	5.6438	-3.1781e+05	3003.8	-0.29573	0.0732	0.96331
0.956	5.813	-3.1782e+05	3003.5	-0.29631	0.0732	0.96341
0.958	5.7639	-3.1783e+05	3003.3	-0.2969	0.0732	0.96351
0.96	5.7275	-3.1785e+05	3003	-0.29748	0.0732	0.9636
0.962	5.5124	-3.1785e+05	3002.8	-0.29807	0.0732	0.9637
0.964	5.3454	-3.1784e+05	3002.5	-0.29866	0.0732	0.9638
0.966	5.4115	-3.1784e+05	3002.2	-0.29836	0.073005	0.96341
0.968	5.5438	-3.1784e+05	3001.9	-0.29807	0.07281	0.96302
0.97	5.7301	-3.1786e+05	3001.7	-0.29778	0.072614	0.96263
0.972	5.9318	-3.1787e+05	3001.4	-0.29748	0.072419	0.96224
0.974	5.956	-3.1787e+05	3001.2	-0.29719	0.072224	0.96185
0.976	5.9044	-3.1787e+05	3000.9	-0.29895	0.071248	0.9598
0.978	5.7373	-3.1788e+05	3000.7	-0.30071	0.070272	0.95775
0.98	5.5336	-3.1788e+05	3000.5	-0.30246	0.069296	0.9557
0.982	5.5348	-3.1788e+05	3000.2	-0.30422	0.06832	0.95365
0.984	5.6384	-3.1788e+05	2999.9	-0.30598	0.067344	0.9516
0.986	5.8165	-3.1789e+05	2999.5	-0.3048	0.067246	0.95131
0.988	6.0494	-3.179e+05	2999.2	-0.30363	0.067149	0.95101
0.99	6.1212	-3.1791e+05	2998.9	-0.30246	0.067051	0.95072
0.992	6.0794	-3.1791e+05	2998.6	-0.30129	0.066954	0.95043
0.994	5.969	-3.1792e+05	2998.3	-0.30012	0.066856	0.95014
0.996	5.7485	-3.1793e+05	2998.1	-0.29983	0.067539	0.95062
0.998	5.6269	-3.1793e+05	2997.8	-0.29953	0.068222	0.95111
1	5.6923	-3.1793e+05	2997.5	-0.29924	0.068906	0.9516
1.002	5.8402	-3.1794e+05	2997.3	-0.29895	0.069589	0.95209
1.004	6.0493	-3.1794e+05	2997	-0.29866	0.070272	0.95258
1.006	6.1847	-3.1795e+05	2996.7	-0.29875	0.069589	0.95189
1.008	6.1341	-3.1796e+05	2996.4	-0.29885	0.068906	0.95121
1.01	5.9935	-3.1796e+05	2996	-0.29895	0.068222	0.95053
1.012	5.7783	-3.1796e+05	2995.7	-0.29905	0.067539	0.94984
1.014	5.6074	-3.1797e+05	2995.3	-0.29914	0.066856	0.94916
1.016	5.6869	-3.1798e+05	2995.1	-0.29973	0.067246	0.94975
1.018	5.8172	-3.1799e+05	2994.8	-0.30032	0.067637	0.95033
1.02	5.9832	-3.1799e+05	2994.6	-0.3009	0.068027	0.95092
1.022	6.1875	-3.18e+05	2994.3	-0.30149	0.068418	0.9515
1.024	6.1725	-3.18e+05	2994	-0.30207	0.068808	0.95209
1.026	6.063	-3.1801e+05	2993.8	-0.3011	0.069003	0.9515
1.028	5.9032	-3.1801e+05	2993.6	-0.30012	0.069198	0.95092
1.03	5.6754	-3.1801e+05	2993.4	-0.29914	0.069394	0.95033
1.032	5.6368	-3.1802e+05	2993.1	-0.29817	0.069589	0.94975
1.034	5.7667	-3.1802e+05	2992.8	-0.29719	0.069784	0.94916
1.036	5.9208	-3.1802e+05	2992.5	-0.29875	0.070174	0.94965
1.038	6.1888	-3.1804e+05	2992.3	-0.30032	0.070565	0.95014
1.04	6.2895	-3.1805e+05	2992	-0.30188	0.070955	0.95062
1.042	6.1601	-3.1805e+05	2991.8	-0.30344	0.071346	0.95111
1.044	5.9833	-3.1805e+05	2991.7	-0.305	0.071736	0.9516
1.046	5.6838	-3.1804e+05	2991.7	-0.30393	0.072517	0.95345
1.048	5.6006	-3.1804e+05	2991.8	-0.30285	0.073298	0.95531
1.05	5.7168	-3.1805e+05	2991.9	-0.30178	0.074078	0.95716
1.052	5.8182	-3.1805e+05	2992.1	-0.30071	0.074859	0.95902
1.054	6.0811	-3.1806e+05	2992.2	-0.29963	0.07564	0.96087
1.056	6.2116	-3.1807e+05	2991.6	-0.30158	0.075347	0.96087
1.058	6.1584	-3.1808e+05	2990.9	-0.30354	0.075054	0.96087
1.06	6.0524	-3.1809e+05	2990.5	-0.30549	0.074762	0.96087
1.062	5.837	-3.181e+05	2990.2	-0.30744	0.074469	0.96087
1.064	5.6824	-3.181e+05	2989.9	-0.30939	0.074176	0.96087
1.066	5.6948	-3.1811e+05	2989.8	-0.31017	0.07359	0.96068
1.068	5.7969	-3.1812e+05	2989.8	-0.31095	0.073005	0.96048
1.07	6.0083	-3.1812e+05	2989.8	-0.31173	0.072419	0.96029
1.072	6.199	-3.1812e+05	2989.9	-0.31252	0.071834	0.96009
1.074	6.2015	-3.1813e+05	2989.9	-0.3133	0.071248	0.9599
1.076	6.0849	-3.1814e+05	2990.2	-0.31144	0.072224	0.95794
1.078	5.9126	-3.1814e+05	2990.6	-0.30959	0.0732	0.95599
1.08	5.748	-3.1815e+05	2991.2	-0.30773	0.074176	0.95404
1.082	5.7083	-3.1816e+05	2992.1	-0.30588	0.075152	0.95209
1.084	5.7783	-3.1816e+05	2993	-0.30402	0.076128	0.95014
1.086	5.9425	-3.1817e+05	2994.8	-0.30607	0.076421	0.94945
1.088	6.1595	-3.1818e+05	2996.6	-0.30812	0.076714	0.94877
1.09	6.2229	-3.1819e+05	2999	-0.31017	0.077006	0.94809
1.092	6.1297	-3.1819e+05	3002	-0.31222	0.077299	0.9474
1.094	6.0109	-3.182e+05	3004.9	-0.31427	0.077592	0.94672
1.096	5.8245	-3.182e+05	3009.2	-0.31271	0.077299	0.9475
1.098	5.7027	-3.1821e+05	3013.5	-0.31115	0.077006	0.94828
1.1	5.7636	-3.1822e+05	3018.3	-0.30959	0.076714	0.94906
1.102	5.8863	-3.1823e+05	3023.5	-0.30803	0.076421	0.94984
1.104	6.0827	-3.1824e+05	3028.7	-0.30646	0.076128	0.95062
1.106	6.2329	-3.1824e+05	3034.4	-0.3089	0.073786	0.95121
1.108	6.1694	-3.1824e+05	3040.2	-0.31134	0.071443	0.9518
1.11	6.0828	-3.1825e+05	3046	-0.31378	0.069101	0.95238
1.112	5.8967	-3.1825e+05	3051.9	-0.31622	0.066758	0.95297
1.114	5.7101	-3.1825e+05	3057.8	-0.31866	0.064416	0.95355
1.116	5.7678	-3.1825e+05	3063.6	-0.31915	0.06344	0.95492
1.118	5.8681	-3.1825e+05	3069.5	-0.31964	0.062464	0.95628
1.12	6.0485	-3.1825e+05	3074.1	-0.32013	0.061488	0.95765
1.122	6.3124	-3.1826e+05	3077.3	-0.32062	0.060512	0.95902
1.124	6.3114	-3.1827e+05	3080.4	-0.3211	0.059536	0.96038
1.126	6.1751	-3.1827e+05	3082.3	-0.31993	0.060414	0.96116
1.128	6.0309	-3.1827e+05	3084.1	-0.31876	0.061293	0.96195
1.13	5.7838	-3.1827e+05	3085.7	-0.31759	0.062171	0.96273
1.132	5.739	-3.1827e+05	3087	-0.31642	0.06305	0.96351
1.134	5.8501	-3.1827e+05	3088.3	-0.31525	0.063928	0.96429
1.136	6.0143	-3.1827e+05	3089.9	-0.31388	0.065197	0.96497
1.138	6.2906	-3.1827e+05	3091.5	-0.31252	0.066466	0.96565
1.14	6.373	-3.1827e+05	3093.1	-0.31115	0.067734	0.96634
1.142	6.2722	-3.1828e+05	3094.8	-0.30978	0.069003	0.96702
1.144	6.1223	-3.1828e+05	3096.4	-0.30842	0.070272	0.9677
1.146	5.9117	-3.1828e+05	3097.4	-0.30978	0.069394	0.96644
1.148	5.822	-3.1828e+05	3098.3	-0.31115	0.068515	0.96517
1.15	5.8809	-3.1828e+05	3099.4	-0.31252	0.067637	0.9639
1.152	6.01	-3.1828e+05	3100.7	-0.31388	0.066758	0.96263
1.154	6.2171	-3.1828e+05	3102	-0.31525	0.06588	0.96136
1.156	6.3305	-3.1828e+05	3103.7	-0.31496	0.064806	0.96175
1.158	6.2884	-3.1828e+05	3105.5	-0.31466	0.063733	0.96214
1.16	6.194	-3.1828e+05	3107.3	-0.31437	0.062659	0.96253
1.162	6.0155	-3.1828e+05	3109.1	-0.31408	0.061586	0.96292
1.164	5.8527	-3.1828e+05	3111	-0.31378	0.060512	0.96331
1.166	5.8362	-3.1829e+05	3112.6	-0.31203	0.060219	0.96243
1.168	5.9131	-3.1829e+05	3114.3	-0.31027	0.059926	0.96156
1.17	6.1075	-3.1829e+05	3115.8	-0.30851	0.059634	0.96068
1.172	6.3138	-3.183e+05	3117.3	-0.30676	0.059341	0.9598
1.174	6.3265	-3.1829e+05	3118.8	-0.305	0.059048	0.95892
1.176	6.2314	-3.1829e+05	3120.1	-0.30705	0.060024	0.95746
1.178	6.0683	-3.1828e+05	3121.4	-0.3091	0.061	0.95599
1.18	5.8385	-3.1828e+05	3122.6	-0.31115	0.061976	0.95453
1.182	5.793	-3.1828e+05	3123.7	-0.3132	0.062952	0.95306
1.184	5.9083	-3.1828e+05	3124.9	-0.31525	0.063928	0.9516
1.186	6.0151	-3.1827e+05	3125.8	-0.31437	0.06549	0.95287
1.188	6.2016	-3.1827e+05	3126.6	-0.31349	0.067051	0.95414
1.19	6.305	-3.1827e+05	3127.4	-0.31261	0.068613	0.95541
1.192	6.198	-3.1827e+05	3128.1	-0.31173	0.070174	0.95668
1.194	6.0769	-3.1827e+05	3128.8	-0.31086	0.071736	0.95794
1.196	5.8631	-3.1827e+05	3129.2	-0.31125	0.071346	0.95736
1.198	5.6975	-3.1828e+05	3129.5	-0.31164	0.070955	0.95677
1.2	5.783	-3.1828e+05	3129.7	-0.31203	0.070565	0.95619
1.202	5.938	-3.1828e+05	3129.6	-0.31242	0.070174	0.9556
1.204	6.1405	-3.1828e+05	3129.5	-0.31281	0.069784	0.95502
1.206	6.2565	-3.1827e+05	3129.3	-0.31252	0.070858	0.95521
1.208	6.1827	-3.1826e+05	3129.1	-0.31222	0.071931	0.95541
1.21	6.0981	-3.1827e+05	3128.7	-0.31193	0.073005	0.9556
1.212	5.8802	-3.1827e+05	3128.3	-0.31164	0.074078	0.9558
1.214	5.686	-3.1827e+05	3127.9	-0.31134	0.075152	0.95599
1.216	5.7359	-3.1827e+05	3127.3	-0.31095	0.074371	0.95609
1.218	5.7971	-3.1827e+05	3126.8	-0.31056	0.07359	0.95619
1.22	5.9743	-3.1827e+05	3126.1	-0.31017	0.07281	0.95628
1.222	6.21	-3.1827e+05	3125.4	-0.30978	0.072029	0.95638
1.224	6.1853	-3.1827e+05	3124.7	-0.30939	0.071248	0.95648
1.226	6.0849	-3.1827e+05	3123.9	-0.309	0.071541	0.95628
1.228	5.9171	-3.1826e+05	3123	-0.30861	0.071834	0.95609
1.23	5.7201	-3.1826e+05	3122.1	-0.30822	0.072126	0.95589
1.232	5.687	-3.1826e+05	3121.2	-0.30783	0.072419	0.9557
1.234	5.7428	-3.1826e+05	3120.3	-0.30744	0.072712	0.9555
1.236	5.8774	-3.1827e+05	3119.4	-0.30783	0.073395	0.95511
1.238	6.1013	-3.1826e+05	3118.4	-0.30822	0.074078	0.95472
1.24	6.1755	-3.1825e+05	3117.4	-0.30861	0.074762	0.95433
1.242	6.1019	-3.1825e+05	3116.4	-0.309	0.075445	0.95394
1.244	5.9531	-3.1825e+05	3115.4	-0.30939	0.076128	0.95355
1.246	5.7544	-3.1825e+05	3114.3	-0.30773	0.073981	0.95287
1.248	5.6662	-3.1825e+05	3113.2	-0.30607	0.071834	0.95219
1.25	5.7122	-3.1825e+05	3112.2	-0.30441	0.069686	0.9515
1.252	5.818	-3.1825e+05	3111.1	-0.30276	0.067539	0.95082
1.254	6.0152	-3.1825e+05	3110	-0.3011	0.065392	0.95014
1.256	6.1432	-3.1825e+05	3108.9	-0.30129	0.064904	0.95043
1.258	6.0892	-3.1824e+05	3107.8	-0.30149	0.064416	0.95072
1.26	5.9908	-3.1824e+05	3106.6	-0.30168	0.063928	0.95101
1.262	5.8415	-3.1825e+05	3105.4	-0.30188	0.06344	0.95131
1.264	5.6795	-3.1825e+05	3104.2	-0.30207	0.062952	0.9516
1.266	5.6803	-3.1825e+05	3103.1	-0.30295	0.062659	0.95238
1.268	5.8006	-3.1824e+05	3101.9	-0.30383	0.062366	0.95316
1.27	5.9829	-3.1824e+05	3100.7	-0.30471	0.062074	0.95394
1.272	6.1607	-3.1824e+05	3099.5	-0.30559	0.061781	0.95472
1.274	6.1449	-3.1824e+05	3098.3	-0.30646	0.061488	0.9555
1.276	6.0229	-3.1824e+05	3097	-0.30676	0.062757	0.95492
1.278	5.896	-3.1824e+05	3095.8	-0.30705	0.064026	0.95433
1.28	5.7316	-3.1824e+05	3094.5	-0.30734	0.065294	0.95375
1.282	5.6792	-3.1824e+05	3093.2	-0.30764	0.066563	0.95316
1.284	5.751	-3.1824e+05	3091.9	-0.30793	0.067832	0.95258
1.286	5.8523	-3.1824e+05	3090.6	-0.30822	0.068125	0.95355
1.288	6.0583	-3.1825e+05	3089.3	-0.30851	0.068418	0.95453
1.29	6.1275	-3.1825e+05	3087.9	-0.30881	0.06871	0.9555
1.292	6.0447	-3.1824e+05	3086.4	-0.3091	0.069003	0.95648
1.294	5.9454	-3.1825e+05	3085	-0.30939	0.069296	0.95746
1.296	5.7401	-3.1825e+05	3083.3	-0.30822	0.06871	0.95794
1.298	5.6574	-3.1825e+05	3081.7	-0.30705	0.068125	0.95843
1.3	5.6844	-3.1826e+05	3080	-0.30588	0.067539	0.95892
1.302	5.767	-3.1825e+05	3078.3	-0.30471	0.066954	0.95941
1.304	6.0246	-3.1825e+05	3076.5	-0.30354	0.066368	0.9599
1.306	6.159	-3.1826e+05	3074.6	-0.30402	0.066466	0.9597
1.308	6.0953	-3.1827e+05	3072.7	-0.30451	0.066563	0.95951
1.31	5.9982	-3.1827e+05	3070.7	-0.305	0.066661	0.95931
1.312	5.8018	-3.1827e+05	3068.7	-0.30549	0.066758	0.95912
1.314	5.6268	-3.1827e+05	3066.6	-0.30598	0.066856	0.95892
1.316	5.6538	-3.1827e+05	3064.4	-0.30676	0.066954	0.95912
1.318	5.7519	-3.1827e+05	3062.3	-0.30754	0.067051	0.95931
1.32	5.9613	-3.1827e+05	3060	-0.30832	0.067149	0.95951
1.322	6.1452	-3.1828e+05	3057.7	-0.3091	0.067246	0.9597
1.324	6.1377	-3.1828e+05	3055.4	-0.30988	0.067344	0.9599
1.326	6.0379	-3.1828e+05	3053.1	-0.31076	0.066563	0.95931
1.328	5.8634	-3.1827e+05	3050.8	-0.31164	0.065782	0.95872
1.33	5.6732	-3.1829e+05	3048.5	-0.31252	0.065002	0.95814
1.332	5.6546	-3.183e+05	3046.3	-0.31339	0.064221	0.95755
1.334	5.7381	-3.183e+05	3044.1	-0.31427	0.06344	0.95697
1.336	5.8824	-3.183e+05	3042	-0.31408	0.063538	0.95755
1.338	6.0872	-3.1831e+05	3039.9	-0.31388	0.063635	0.95814
1.34	6.1638	-3.1831e+05	3037.9	-0.31369	0.063733	0.95872
1.342	6.0833	-3.183e+05	3036	-0.31349	0.06383	0.95931
1.344	5.9409	-3.183e+05	3034.2	-0.3133	0.063928	0.9599
1.346	5.7458	-3.1831e+05	3032.6	-0.313	0.06383	0.96019
1.348	5.6431	-3.1831e+05	3031	-0.31271	0.063733	0.96048
1.35	5.7037	-3.1831e+05	3029.5	-0.31242	0.063635	0.96077
1.352	5.8096	-3.1831e+05	3028.1	-0.31212	0.063538	0.96107
1.354	5.9944	-3.1832e+05	3026.8	-0.31183	0.06344	0.96136
1.356	6.1574	-3.1832e+05	3025.8	-0.31261	0.061976	0.96185
1.358	6.1154	-3.1833e+05	3024.7	-0.31339	0.060512	0.96234
1.36	6.0064	-3.1833e+05	3023.8	-0.31417	0.059048	0.96282
1.362	5.84	-3.1834e+05	3023	-0.31496	0.057584	0.96331
1.364	5.6484	-3.1834e+05	3022.2	-0.31574	0.05612	0.9638
1.366	5.6646	-3.1834e+05	3021.7	-0.31505	0.057194	0.96273
1.368	5.788	-3.1834e+05	3021.1	-0.31437	0.058267	0.96165
1.37	5.9532	-3.1834e+05	3020.7	-0.31369	0.059341	0.96058
1.372	6.1667	-3.1835e+05	3020.3	-0.313	0.060414	0.95951
1.374	6.1611	-3.1835e+05	3019.9	-0.31232	0.061488	0.95843
1.376	6.0517	-3.1835e+05	3019.7	-0.31222	0.061488	0.95912
1.378	5.9143	-3.1836e+05	3019.5	-0.31212	0.061488	0.9598
1.38	5.6773	-3.1837e+05	3019.4	-0.31203	0.061488	0.96048
1.382	5.6298	-3.1837e+05	3019.2	-0.31193	0.061488	0.96116
1.384	5.7539	-3.1838e+05	3019.1	-0.31183	0.061488	0.96185
1.386	5.907	-3.1838e+05	3019	-0.31212	0.060707	0.96204
1.388	6.1547	-3.1838e+05	3018.9	-0.31242	0.059926	0.96224
1.39	6.198	-3.1838e+05	3018.7	-0.31271	0.059146	0.96243
1.392	6.0865	-3.1838e+05	3018.6	-0.313	0.058365	0.96263
1.394	5.9811	-3.1839e+05	3018.4	-0.3133	0.057584	0.96282
1.396	5.7398	-3.184e+05	3018.3	-0.31281	0.058365	0.96263
1.398	5.6357	-3.184e+05	3018.2	-0.31232	0.059146	0.96243
1.4	5.7043	-3.184e+05	3018.1	-0.31183	0.059926	0.96224
1.402	5.8167	-3.184e+05	3017.9	-0.31134	0.060707	0.96204
1.404	6.0569	-3.1841e+05	3017.8	-0.31086	0.061488	0.96185
1.406	6.1935	-3.1841e+05	3017.7	-0.31164	0.062074	0.96165
1.408	6.1411	-3.184e+05	3017.6	-0.31242	0.062659	0.96146
1.41	6.0269	-3.1841e+05	3017.4	-0.3132	0.063245	0.96126
1.412	5.8305	-3.1841e+05	3017.3	-0.31398	0.06383	0.96107
1.414	5.6855	-3.1843e+05	3017.2	-0.31476	0.064416	0.96087
1.416	5.69	-3.1845e+05	3017.1	-0.31417	0.064318	0.96087
1.418	5.7712	-3.1845e+05	3017	-0.31359	0.064221	0.96087
1.42	5.9474	-3.1845e+05	3016.9	-0.313	0.064123	0.96087
1.422	6.1224	-3.1845e+05	3016.8	-0.31242	0.064026	0.96087
1.424	6.1307	-3.1845e+05	3016.7	-0.31183	0.063928	0.96087
1.426	6.043	-3.1846e+05	3016.6	-0.31164	0.064806	0.95941
1.428	5.8975	-3.1847e+05	3016.5	-0.31144	0.065685	0.95794
1.43	5.7123	-3.1847e+05	3016.4	-0.31125	0.066563	0.95648
1.432	5.676	-3.1847e+05	3016.4	-0.31105	0.067442	0.95502
1.434	5.793	-3.1847e+05	3016.4	-0.31086	0.06832	0.95355
1.436	5.9661	-3.1847e+05	3016.3	-0.31086	0.068906	0.95355
1.438	6.1993	-3.1847e+05	3016.2	-0.31086	0.069491	0.95355
1.44	6.2967	-3.1847e+05	3016.1	-0.31086	0.070077	0.95355
1.442	6.188	-3.1847e+05	3016	-0.31086	0.070662	0.95355
1.444	6.0383	-3.1847e+05	3015.9	-0.31086	0.071248	0.95355
1.446	5.8079	-3.1847e+05	3015.8	-0.31047	0.072029	0.95345
1.448	5.615	-3.1847e+05	3015.8	-0.31008	0.07281	0.95336
1.45	5.6282	-3.1848e+05	3015.7	-0.30968	0.07359	0.95326
1.452	5.6862	-3.1848e+05	3015.5	-0.30929	0.074371	0.95316
1.454	5.8001	-3.1848e+05	3015.4	-0.3089	0.075152	0.95306
1.456	5.914	-3.1848e+05	3015.2	-0.30832	0.075738	0.95287
1.458	5.8128	-3.1848e+05	3015.1	-0.30773	0.076323	0.95267
1.46	5.6786	-3.1848e+05	3014.9	-0.30715	0.076909	0.95248
1.462	5.5042	-3.1849e+05	3014.7	-0.30656	0.077494	0.95228
1.464	5.3177	-3.185e+05	3014.6	-0.30598	0.07808	0.95209
1.466	5.3753	-3.185e+05	3014.4	-0.30578	0.078275	0.95219
1.468	5.4747	-3.185e+05	3014.2	-0.30559	0.07847	0.95228
1.47	5.6621	-3.185e+05	3014	-0.30539	0.078666	0.95238
1.472	5.9292	-3.185e+05	3013.7	-0.3052	0.078861	0.95248
1.474	5.9353	-3.1851e+05	3013.4	-0.305	0.079056	0.95258
1.476	5.8722	-3.1851e+05	3013.2	-0.30539	0.078861	0.95228
1.478	5.7446	-3.1852e+05	3013	-0.30578	0.078666	0.95199
1.48	5.525	-3.1852e+05	3012.8	-0.30617	0.07847	0.9517
1.482	5.5128	-3.1852e+05	3012.5	-0.30656	0.078275	0.9514
1.484	5.6193	-3.1852e+05	3012.2	-0.30695	0.07808	0.95111
1.486	5.7968	-3.1852e+05	3011.9	-0.30822	0.078275	0.95023
1.488	6.059	-3.1853e+05	3011.6	-0.30949	0.07847	0.94936
1.49	6.1057	-3.1853e+05	3011.3	-0.31076	0.078666	0.94848
1.492	6.0356	-3.1853e+05	3010.9	-0.31203	0.078861	0.9476
1.494	5.9234	-3.1853e+05	3010.5	-0.3133	0.079056	0.94672
1.496	5.7131	-3.1853e+05	3010.2	-0.31271	0.079056	0.94711
1.498	5.6209	-3.1854e+05	3009.9	-0.31212	0.079056	0.9475
1.5	5.6828	-3.1855e+05	3009.6	-0.31154	0.079056	0.94789
1.502	5.806	-3.1854e+05	3009.3	-0.31095	0.079056	0.94828
1.504	6.0222	-3.1854e+05	3009	-0.31037	0.079056	0.94867
1.506	6.1776	-3.1854e+05	3008.7	-0.31008	0.079056	0.94818
1.508	6.1551	-3.1855e+05	3008.4	-0.30978	0.079056	0.9477
1.51	6.0391	-3.1855e+05	3008	-0.30949	0.079056	0.94721
1.512	5.8452	-3.1855e+05	3007.7	-0.3092	0.079056	0.94672
1.514	5.6706	-3.1856e+05	3007.3	-0.3089	0.079056	0.94623
1.516	5.6689	-3.1856e+05	3007	-0.3091	0.079544	0.94633
1.518	5.7796	-3.1856e+05	3006.7	-0.30929	0.080032	0.94643
1.52	5.9636	-3.1856e+05	3006.4	-0.30949	0.08052	0.94652
1.522	6.1674	-3.1856e+05	3006.1	-0.30968	0.081008	0.94662
1.524	6.1905	-3.1856e+05	3005.8	-0.30988	0.081496	0.94672
1.526	6.0891	-3.1856e+05	3005.5	-0.30978	0.08052	0.94682
1.528	5.9493	-3.1856e+05	3005.1	-0.30968	0.079544	0.94692
1.53	5.7421	-3.1857e+05	3004.8	-0.30959	0.078568	0.94701
1.532	5.6746	-3.1858e+05	3004.5	-0.30949	0.077592	0.94711
1.534	5.7776	-3.1858e+05	3004.1	-0.30939	0.076616	0.94721
1.536	5.9157	-3.1858e+05	3003.8	-0.30881	0.077592	0.94789
1.538	6.1205	-3.1858e+05	3003.5	-0.30822	0.078568	0.94857
1.54	6.2066	-3.1858e+05	3003.1	-0.30764	0.079544	0.94926
1.542	6.1203	-3.1859e+05	3002.8	-0.30705	0.08052	0.94994
1.544	6.0059	-3.1859e+05	3002.5	-0.30646	0.081496	0.95062
1.546	5.7956	-3.1859e+05	3002.3	-0.30783	0.080227	0.95238
1.548	5.6594	-3.1859e+05	3002	-0.3092	0.078958	0.95414
1.55	5.739	-3.1859e+05	3001.8	-0.31056	0.07769	0.95589
1.552	5.84	-3.1859e+05	3001.6	-0.31193	0.076421	0.95765
1.554	6.0472	-3.186e+05	3001.4	-0.3133	0.075152	0.95941
1.556	6.2346	-3.186e+05	3001.2	-0.313	0.07603	0.95921
1.558	6.1843	-3.186e+05	3001	-0.31271	0.076909	0.95902
1.56	6.0849	-3.186e+05	3000.9	-0.31242	0.077787	0.95882
1.562	5.8949	-3.186e+05	3000.7	-0.31212	0.078666	0.95863
1.564	5.7179	-3.1861e+05	3000.5	-0.31183	0.079544	0.95843
1.566	5.7349	-3.1862e+05	3000.4	-0.31095	0.078958	0.95902
1.568	5.8131	-3.1863e+05	3000.4	-0.31008	0.078373	0.9596
1.57	5.9843	-3.1863e+05	3000.3	-0.3092	0.077787	0.96019
1.572	6.1945	-3.1863e+05	3000.2	-0.30832	0.077202	0.96077
1.574	6.2082	-3.1863e+05	3000.1	-0.30744	0.076616	0.96136
1.576	6.1313	-3.1863e+05	2999.9	-0.30812	0.076909	0.96077
1.578	5.974	-3.1864e+05	2999.8	-0.30881	0.077202	0.96019
1.58	5.7404	-3.1864e+05	2999.8	-0.30949	0.077494	0.9596
1.582	5.6932	-3.1864e+05	2999.7	-0.31017	0.077787	0.95902
1.584	5.7915	-3.1864e+05	2999.7	-0.31086	0.07808	0.95843
1.586	5.9481	-3.1864e+05	2999.8	-0.31193	0.077006	0.95833
1.588	6.1532	-3.1864e+05	3000	-0.313	0.075933	0.95824
1.59	6.2333	-3.1864e+05	3000.3	-0.31408	0.074859	0.95814
1.592	6.1698	-3.1864e+05	3000.8	-0.31515	0.073786	0.95804
1.594	6.04	-3.1864e+05	3001.3	-0.31622	0.072712	0.95794
1.596	5.8448	-3.1864e+05	3002.4	-0.31359	0.072517	0.95628
1.598	5.7319	-3.1865e+05	3003.5	-0.31095	0.072322	0.95463
1.6	5.7792	-3.1866e+05	3004.9	-0.30832	0.072126	0.95297
1.602	5.8985	-3.1866e+05	3006.7	-0.30568	0.071931	0.95131
1.604	6.1155	-3.1866e+05	3008.5	-0.30305	0.071736	0.94965
1.606	6.3029	-3.1866e+05	3011	-0.30315	0.071443	0.94945
1.608	6.257	-3.1865e+05	3013.6	-0.30324	0.07115	0.94926
1.61	6.1209	-3.1866e+05	3016.5	-0.30334	0.070858	0.94906
1.612	5.9458	-3.1866e+05	3019.9	-0.30344	0.070565	0.94887
1.614	5.7526	-3.1866e+05	3023.2	-0.30354	0.070272	0.94867
1.616	5.7669	-3.1867e+05	3027.3	-0.30402	0.071346	0.95121
1.618	5.8879	-3.1867e+05	3031.3	-0.30451	0.072419	0.95375
1.62	6.0557	-3.1867e+05	3035.6	-0.305	0.073493	0.95628
1.622	6.2823	-3.1867e+05	3040.2	-0.30549	0.074566	0.95882
1.624	6.3164	-3.1867e+05	3044.8	-0.30598	0.07564	0.96136
1.626	6.2244	-3.1867e+05	3049.6	-0.30549	0.073688	0.96116
1.628	6.0854	-3.1867e+05	3054.4	-0.305	0.071736	0.96097
1.63	5.8603	-3.1867e+05	3058.7	-0.30451	0.069784	0.96077
1.632	5.8272	-3.1867e+05	3062.5	-0.30402	0.067832	0.96058
1.634	5.9331	-3.1867e+05	3066.3	-0.30354	0.06588	0.96038
1.636	6.0427	-3.1867e+05	3068.7	-0.30236	0.066563	0.96097
1.638	6.3011	-3.1867e+05	3071.1	-0.30119	0.067246	0.96156
1.64	6.3802	-3.1867e+05	3073.2	-0.30002	0.06793	0.96214
1.642	6.3145	-3.1866e+05	3074.9	-0.29885	0.068613	0.96273
1.644	6.1843	-3.1866e+05	3076.7	-0.29768	0.069296	0.96331
1.646	5.9333	-3.1866e+05	3078	-0.297	0.069979	0.9636
1.648	5.8209	-3.1866e+05	3079.4	-0.29631	0.070662	0.9639
1.65	5.8956	-3.1865e+05	3080.8	-0.29563	0.071346	0.96419
1.652	6.0027	-3.1864e+05	3082.2	-0.29495	0.072029	0.96448
1.654	6.2259	-3.1864e+05	3083.5	-0.29426	0.072712	0.96478
1.656	6.3725	-3.1864e+05	3085	-0.29348	0.072322	0.96536
1.658	6.3382	-3.1864e+05	3086.5	-0.2927	0.071931	0.96595
1.66	6.261	-3.1865e+05	3087.9	-0.29192	0.071541	0.96653
1.662	6.0557	-3.1864e+05	3089.5	-0.29114	0.07115	0.96712
1.664	5.8647	-3.1863e+05	3091	-0.29036	0.07076	0.9677
1.666	5.8714	-3.1862e+05	3092.6	-0.29065	0.07076	0.96751
1.668	5.9714	-3.1862e+05	3094.2	-0.29095	0.07076	0.96731
1.67	6.1566	-3.1862e+05	3095.8	-0.29124	0.07076	0.96712
1.672	6.3583	-3.1861e+05	3097.4	-0.29153	0.07076	0.96692
1.674	6.3741	-3.1861e+05	3099.1	-0.29182	0.07076	0.96673
1.676	6.2727	-3.1861e+05	3100.7	-0.29182	0.071736	0.96722
1.678	6.117	-3.1861e+05	3102.3	-0.29182	0.072712	0.9677
1.68	5.9108	-3.186e+05	3103.9	-0.29182	0.073688	0.96819
1.682	5.8136	-3.186e+05	3105.4	-0.29182	0.074664	0.96868
1.684	5.8733	-3.1859e+05	3106.9	-0.29182	0.07564	0.96917
1.686	6.0528	-3.1859e+05	3108.2	-0.29065	0.074762	0.96848
1.688	6.3027	-3.1858e+05	3109.6	-0.28948	0.073883	0.9678
1.69	6.3907	-3.1858e+05	3110.8	-0.28831	0.073005	0.96712
1.692	6.2687	-3.1857e+05	3111.9	-0.28714	0.072126	0.96644
1.694	6.1152	-3.1857e+05	3113	-0.28597	0.071248	0.96575
1.696	5.9315	-3.1856e+05	3113.9	-0.28782	0.072419	0.96439
1.698	5.8181	-3.1856e+05	3114.8	-0.28968	0.07359	0.96302
1.7	5.8637	-3.1856e+05	3115.6	-0.29153	0.074762	0.96165
1.702	5.9559	-3.1855e+05	3116.1	-0.29339	0.075933	0.96029
1.704	6.1539	-3.1854e+05	3116.7	-0.29524	0.077104	0.95892
1.706	6.3295	-3.1854e+05	3117	-0.29602	0.076518	0.95833
1.708	6.2515	-3.1853e+05	3117.3	-0.2968	0.075933	0.95775
1.71	6.1164	-3.1853e+05	3117.5	-0.29758	0.075347	0.95716
1.712	5.9559	-3.1853e+05	3117.6	-0.29836	0.074762	0.95658
1.714	5.7522	-3.1853e+05	3117.7	-0.29914	0.074176	0.95599
1.716	5.7511	-3.1853e+05	3117.5	-0.29934	0.074176	0.9557
1.718	5.844	-3.1852e+05	3117.4	-0.29953	0.074176	0.95541
1.72	6.0004	-3.1851e+05	3117.1	-0.29973	0.074176	0.95511
1.722	6.243	-3.185e+05	3116.7	-0.29992	0.074176	0.95482
1.724	6.2412	-3.185e+05	3116.4	-0.30012	0.074176	0.95453
1.726	6.1406	-3.1851e+05	3115.9	-0.29924	0.075542	0.95365
1.728	6.0068	-3.1851e+05	3115.4	-0.29836	0.076909	0.95277
1.73	5.7443	-3.1849e+05	3114.8	-0.29748	0.078275	0.95189
1.732	5.6687	-3.1847e+05	3114.2	-0.29661	0.079642	0.95101
1.734	5.7581	-3.1847e+05	3113.5	-0.29573	0.081008	0.95014
1.736	5.9044	-3.1847e+05	3112.8	-0.29426	0.08091	0.94975
1.738	6.1427	-3.1847e+05	3112	-0.2928	0.080813	0.94936
1.74	6.2116	-3.1847e+05	3111.2	-0.29134	0.080715	0.94896
1.742	6.1267	-3.1846e+05	3110.3	-0.28987	0.080618	0.94857
1.744	6.0242	-3.1846e+05	3109.5	-0.28841	0.08052	0.94818
1.746	5.8065	-3.1845e+05	3108.5	-0.29056	0.081008	0.94906
1.748	5.6719	-3.1844e+05	3107.6	-0.2927	0.081496	0.94994
1.75	5.7136	-3.1844e+05	3106.7	-0.29485	0.081984	0.95082
1.752	5.8322	-3.1843e+05	3105.7	-0.297	0.082472	0.9517
1.754	6.0476	-3.1843e+05	3104.7	-0.29914	0.08296	0.95258
1.756	6.1978	-3.1842e+05	3103.6	-0.29836	0.082472	0.95228
1.758	6.1645	-3.1842e+05	3102.6	-0.29758	0.081984	0.95199
1.76	6.0518	-3.1841e+05	3101.5	-0.2968	0.081496	0.9517
1.762	5.867	-3.1842e+05	3100.5	-0.29602	0.081008	0.9514
1.764	5.7121	-3.1842e+05	3099.4	-0.29524	0.08052	0.95111
1.766	5.7127	-3.1841e+05	3098.3	-0.29709	0.079154	0.95228
1.768	5.7861	-3.184e+05	3097.2	-0.29895	0.077787	0.95345
1.77	5.9303	-3.184e+05	3096.1	-0.3008	0.076421	0.95463
1.772	6.1261	-3.184e+05	3094.9	-0.30266	0.075054	0.9558
1.774	6.1796	-3.184e+05	3093.7	-0.30451	0.073688	0.95697
1.776	6.0984	-3.1839e+05	3092.5	-0.30324	0.073786	0.95785
1.778	5.9553	-3.1839e+05	3091.2	-0.30197	0.073883	0.95872
1.78	5.7257	-3.1838e+05	3089.9	-0.30071	0.073981	0.9596
1.782	5.6206	-3.1838e+05	3088.5	-0.29944	0.074078	0.96048
1.784	5.7233	-3.1837e+05	3087.1	-0.29817	0.074176	0.96136
1.786	5.8862	-3.1837e+05	3085.5	-0.29778	0.074371	0.96214
1.788	6.0994	-3.1837e+05	3084	-0.29739	0.074566	0.96292
1.79	6.2067	-3.1837e+05	3082.3	-0.297	0.074762	0.9637
1.792	6.1266	-3.1837e+05	3080.7	-0.29661	0.074957	0.96448
1.794	6.0193	-3.1837e+05	3079	-0.29622	0.075152	0.96526
1.796	5.8183	-3.1837e+05	3077.1	-0.297	0.074469	0.96595
1.798	5.6604	-3.1836e+05	3075.2	-0.29778	0.073786	0.96663
1.8	5.7209	-3.1835e+05	3073.3	-0.29856	0.073102	0.96731
1.802	5.827	-3.1835e+05	3071.3	-0.29934	0.072419	0.968
1.804	6.0205	-3.1835e+05	3069.2	-0.30012	0.071736	0.96868
1.806	6.2285	-3.1835e+05	3067.1	-0.30032	0.071931	0.96888
1.808	6.1907	-3.1836e+05	3065.1	-0.30051	0.072126	0.96907
1.81	6.0741	-3.1835e+05	3062.9	-0.30071	0.072322	0.96927
1.812	5.8809	-3.1835e+05	3060.8	-0.3009	0.072517	0.96946
1.814	5.6776	-3.1834e+05	3058.6	-0.3011	0.072712	0.96966
1.816	5.705	-3.1833e+05	3056.4	-0.29953	0.072614	0.96829
1.818	5.7837	-3.1833e+05	3054.2	-0.29797	0.072517	0.96692
1.82	5.93	-3.1834e+05	3052.1	-0.29641	0.072419	0.96556
1.822	6.1379	-3.1834e+05	3050	-0.29485	0.072322	0.96419
1.824	6.171	-3.1834e+05	3048	-0.29329	0.072224	0.96282
1.826	6.115	-3.1834e+05	3046.1	-0.29368	0.072322	0.96282
1.828	5.9667	-3.1834e+05	3044.2	-0.29407	0.072419	0.96282
1.83	5.7346	-3.1834e+05	3042.4	-0.29446	0.072517	0.96282
1.832	5.6781	-3.1834e+05	3040.7	-0.29485	0.072614	0.96282
1.834	5.7475	-3.1834e+05	3039.1	-0.29524	0.072712	0.96282
1.836	5.8969	-3.1834e+05	3037.7	-0.29573	0.072614	0.96292
1.838	6.1227	-3.1834e+05	3036.3	-0.29622	0.072517	0.96302
1.84	6.1922	-3.1834e+05	3035	-0.2967	0.072419	0.96312
1.842	6.1302	-3.1834e+05	3033.9	-0.29719	0.072322	0.96321
1.844	6.0166	-3.1833e+05	3032.8	-0.29768	0.072224	0.96331
1.846	5.8054	-3.1834e+05	3032	-0.2969	0.072907	0.96331
1.848	5.6668	-3.1834e+05	3031.2	-0.29612	0.07359	0.96331
1.85	5.7153	-3.1834e+05	3030.5	-0.29534	0.074274	0.96331
1.852	5.8459	-3.1833e+05	3030	-0.29456	0.074957	0.96331
1.854	6.043	-3.1833e+05	3029.4	-0.29378	0.07564	0.96331
1.856	6.206	-3.1833e+05	3029.1	-0.29348	0.076128	0.9637
1.858	6.1858	-3.1834e+05	3028.7	-0.29319	0.076616	0.96409
1.86	6.0692	-3.1834e+05	3028.4	-0.2929	0.077104	0.96448
1.862	5.8961	-3.1835e+05	3028.2	-0.2926	0.077592	0.96487
1.864	5.7102	-3.1835e+05	3028	-0.29231	0.07808	0.96526
1.866	5.6955	-3.1835e+05	3027.9	-0.29329	0.077299	0.96556
1.868	5.8047	-3.1835e+05	3027.8	-0.29426	0.076518	0.96585
1.87	5.9717	-3.1835e+05	3027.7	-0.29524	0.075738	0.96614
1.872	6.1725	-3.1834e+05	3027.6	-0.29622	0.074957	0.96644
1.874	6.1982	-3.1835e+05	3027.6	-0.29719	0.074176	0.96673
1.876	6.1017	-3.1836e+05	3027.5	-0.29592	0.074274	0.96683
1.878	5.9749	-3.1835e+05	3027.5	-0.29465	0.074371	0.96692
1.88	5.7444	-3.1835e+05	3027.5	-0.29339	0.074469	0.96702
1.882	5.6477	-3.1835e+05	3027.3	-0.29212	0.074566	0.96712
1.884	5.7335	-3.1835e+05	3027.2	-0.29085	0.074664	0.96722
1.886	5.881	-3.1835e+05	3027.1	-0.29163	0.074664	0.96741
1.888	6.1379	-3.1835e+05	3027	-0.29241	0.074664	0.96761
1.89	6.2427	-3.1835e+05	3026.9	-0.29319	0.074664	0.9678
1.892	6.1453	-3.1834e+05	3026.8	-0.29397	0.074664	0.968
1.894	6.0484	-3.1835e+05	3026.7	-0.29475	0.074664	0.96819
1.896	5.8129	-3.1836e+05	3026.6	-0.29309	0.073981	0.96809
1.898	5.6385	-3.1836e+05	3026.5	-0.29143	0.073298	0.968
1.9	5.7143	-3.1837e+05	3026.4	-0.28977	0.072614	0.9679
1.902	5.8135	-3.1837e+05	3026.2	-0.28812	0.071931	0.9678
1.904	6.0202	-3.1838e+05	3026.1	-0.28646	0.071248	0.9677
1.906	6.1952	-3.1837e+05	3026	-0.28724	0.071541	0.96663
1.908	6.157	-3.1836e+05	3026	-0.28802	0.071834	0.96556
1.91	6.0777	-3.1836e+05	3025.9	-0.2888	0.072126	0.96448
1.912	5.8931	-3.1836e+05	3025.7	-0.28958	0.072419	0.96341
1.914	5.693	-3.1837e+05	3025.6	-0.29036	0.072712	0.96234
1.916	5.6924	-3.1837e+05	3025.5	-0.28958	0.073102	0.96195
1.918	5.7818	-3.1837e+05	3025.4	-0.2888	0.073493	0.96156
1.92	5.9546	-3.1837e+05	3025.4	-0.28802	0.073883	0.96116
1.922	6.1609	-3.1837e+05	3025.3	-0.28724	0.074274	0.96077
1.924	6.1913	-3.1838e+05	3025.3	-0.28646	0.074664	0.96038
1.926	6.1158	-3.1837e+05	3025.2	-0.28753	0.075835	0.95882
1.928	5.9651	-3.1837e+05	3025.1	-0.2886	0.077006	0.95726
1.93	5.7464	-3.1837e+05	3025	-0.28968	0.078178	0.9557
1.932	5.6642	-3.1838e+05	3024.9	-0.29075	0.079349	0.95414
1.934	5.736	-3.1838e+05	3024.9	-0.29182	0.08052	0.95258
1.936	5.882	-3.1838e+05	3024.8	-0.29153	0.08052	0.95209
1.938	6.1044	-3.1838e+05	3024.8	-0.29124	0.08052	0.9516
1.94	6.236	-3.1838e+05	3024.7	-0.29095	0.08052	0.95111
1.942	6.1799	-3.1838e+05	3024.6	-0.29065	0.08052	0.95062
1.944	6.0182	-3.1838e+05	3024.5	-0.29036	0.08052	0.95014
1.946	5.7873	-3.1838e+05	3024.4	-0.29026	0.080618	0.95062
1.948	5.6433	-3.1838e+05	3024.3	-0.29016	0.080715	0.95111
1.95	5.6924	-3.1838e+05	3024.2	-0.29007	0.080813	0.9516
1.952	5.8247	-3.1839e+05	3024.1	-0.28997	0.08091	0.95209
1.954	6.0158	-3.1839e+05	3024	-0.28987	0.081008	0.95258
1.956	6.1953	-3.1838e+05	3023.9	-0.29104	0.081496	0.95297
1.958	6.1751	-3.1839e+05	3023.7	-0.29221	0.081984	0.95336
1.96	6.0664	-3.184e+05	3023.5	-0.29339	0.082472	0.95375
1.962	5.8965	-3.184e+05	3023.4	-0.29456	0.08296	0.95414
1.964	5.6915	-3.184e+05	3023.2	-0.29573	0.083448	0.95453
1.966	5.6883	-3.1839e+05	3023.1	-0.29592	0.083643	0.95433
1.968	5.7859	-3.1839e+05	3022.9	-0.29612	0.083838	0.95414
1.97	5.9533	-3.1839e+05	3022.8	-0.29631	0.084034	0.95394
1.972	6.2349	-3.184e+05	3022.6	-0.29651	0.084229	0.95375
1.974	6.2538	-3.184e+05	3022.4	-0.2967	0.084424	0.95355
1.976	6.0799	-3.184e+05	3022.3	-0.29641	0.085107	0.95355
1.978	5.9266	-3.184e+05	3022.1	-0.29612	0.08579	0.95355
1.98	5.7039	-3.184e+05	3021.9	-0.29583	0.086474	0.95355
1.982	5.6379	-3.184e+05	3021.7	-0.29553	0.087157	0.95355
1.984	5.7358	-3.184e+05	3021.5	-0.29524	0.08784	0.95355
1.986	5.8623	-3.1841e+05	3021.3	-0.2967	0.085986	0.95345
1.988	6.1371	-3.1842e+05	3021.1	-0.29817	0.084131	0.95336
1.99	6.2237	-3.1841e+05	3020.9	-0.29963	0.082277	0.95326
1.992	6.1365	-3.184e+05	3020.8	-0.3011	0.080422	0.95316
1.994	6.0403	-3.1841e+05	3020.6	-0.30256	0.078568	0.95306
1.996	5.8146	-3.1841e+05	3020.4	-0.30266	0.07847	0.95375
1.998	5.6667	-3.1841e+05	3020.3	-0.30276	0.078373	0.95443
2	5.7197	-3.184e+05	3020.1	-0.30285	0.078275	0.95511
2.002	5.8353	-3.184e+05	3019.9	-0.30295	0.078178	0.9558
2.004	6.0421	-3.1841e+05	3019.7	-0.30305	0.07808	0.95648
2.006	6.193	-3.1841e+05	3019.6	-0.30334	0.07808	0.95599
2.008	6.1599	-3.1842e+05	3019.6	-0.30363	0.07808	0.9555
2.01	6.0647	-3.1842e+05	3019.4	-0.30393	0.07808	0.95502
2.012	5.8927	-3.1842e+05	3019.2	-0.30422	0.07808	0.95453
2.014	5.7087	-3.1841e+05	3019.1	-0.30451	0.07808	0.95404
2.016	5.6892	-3.1841e+05	3018.9	-0.3048	0.078275	0.95453
2.018	5.7853	-3.1842e+05	3018.7	-0.3051	0.07847	0.95502
2.02	5.956	-3.1842e+05	3018.6	-0.30539	0.078666	0.9555
2.022	6.143	-3.1843e+05	3018.4	-0.30568	0.078861	0.95599
2.024	6.1876	-3.1844e+05	3018.2	-0.30598	0.079056	0.95648
2.026	6.1234	-3.1843e+05	3018.1	-0.30529	0.078568	0.95619
2.028	5.9975	-3.1842e+05	3017.9	-0.30461	0.07808	0.95589
2.03	5.7905	-3.1843e+05	3017.7	-0.30393	0.077592	0.9556
2.032	5.6841	-3.1844e+05	3017.5	-0.30324	0.077104	0.95531
2.034	5.7522	-3.1844e+05	3017.3	-0.30256	0.076616	0.95502
2.036	5.8888	-3.1844e+05	3017.1	-0.30207	0.076714	0.95628
2.038	6.0962	-3.1845e+05	3017	-0.30158	0.076811	0.95755
2.04	6.229	-3.1846e+05	3016.8	-0.3011	0.076909	0.95882
2.042	6.1611	-3.1846e+05	3016.6	-0.30061	0.077006	0.96009
2.044	6.0429	-3.1846e+05	3016.5	-0.30012	0.077104	0.96136
2.046	5.8538	-3.1846e+05	3016.3	-0.3009	0.077299	0.96107
2.048	5.6824	-3.1845e+05	3016.1	-0.30168	0.077494	0.96077
2.05	5.7363	-3.1845e+05	3016	-0.30246	0.07769	0.96048
2.052	5.8671	-3.1846e+05	3015.8	-0.30324	0.077885	0.96019
2.054	6.0239	-3.1846e+05	3015.7	-0.30402	0.07808	0.9599
2.056	6.1874	-3.1847e+05	3015.5	-0.30441	0.07808	0.95951
2.058	6.1561	-3.1847e+05	3015.3	-0.3048	0.07808	0.95912
2.06	6.066	-3.1847e+05	3015.1	-0.3052	0.07808	0.95872
2.062	5.9198	-3.1847e+05	3014.8	-0.30559	0.07808	0.95833
2.064	5.6612	-3.1847e+05	3014.6	-0.30598	0.07808	0.95794
2.066	5.6801	-3.1847e+05	3014.4	-0.30598	0.078763	0.95755
2.068	5.819	-3.1848e+05	3014.2	-0.30598	0.079446	0.95716
2.07	5.9571	-3.1848e+05	3014	-0.30598	0.08013	0.95677
2.072	6.1942	-3.1848e+05	3013.7	-0.30598	0.080813	0.95638
2.074	6.2115	-3.1848e+05	3013.4	-0.30598	0.081496	0.95599
2.076	6.1219	-3.1848e+05	3013.1	-0.30598	0.08091	0.95628
2.078	6.0144	-3.1848e+05	3012.9	-0.30598	0.080325	0.95658
2.08	5.7777	-3.1848e+05	3012.6	-0.30598	0.079739	0.95687
2.082	5.6889	-3.1849e+05	3012.4	-0.30598	0.079154	0.95716
2.084	5.7533	-3.1849e+05	3012.1	-0.30598	0.078568	0.95746
2.086	5.8803	-3.1849e+05	3011.8	-0.30559	0.07808	0.95775
2.088	6.1103	-3.185e+05	3011.5	-0.3052	0.077592	0.95804
2.09	6.2171	-3.185e+05	3011.3	-0.3048	0.077104	0.95833
2.092	6.1547	-3.185e+05	3011	-0.30441	0.076616	0.95863
2.094	6.0435	-3.1851e+05	3010.7	-0.30402	0.076128	0.95892
2.096	5.8379	-3.1851e+05	3010.5	-0.30217	0.076226	0.95941
2.098	5.6888	-3.1852e+05	3010.2	-0.30032	0.076323	0.9599
2.1	5.7045	-3.1852e+05	3010	-0.29846	0.076421	0.96038
2.102	5.8104	-3.1852e+05	3009.7	-0.29661	0.076518	0.96087
2.104	6.0161	-3.1852e+05	3009.4	-0.29475	0.076616	0.96136
2.106	6.1894	-3.1853e+05	3009.1	-0.29407	0.076811	0.96175
2.108	6.1864	-3.1853e+05	3008.9	-0.29339	0.077006	0.96214
2.11	6.0869	-3.1853e+05	3008.6	-0.2927	0.077202	0.96253
2.112	5.9153	-3.1854e+05	3008.3	-0.29202	0.077397	0.96292
2.114	5.7315	-3.1854e+05	3008.1	-0.29134	0.077592	0.96331
2.116	5.7067	-3.1854e+05	3007.8	-0.29212	0.077494	0.96263
2.118	5.7912	-3.1854e+05	3007.5	-0.2929	0.077397	0.96195
2.12	5.9289	-3.1854e+05	3007.2	-0.29368	0.077299	0.96126
2.122	6.1416	-3.1854e+05	3006.9	-0.29446	0.077202	0.96058
2.124	6.2145	-3.1854e+05	3006.6	-0.29524	0.077104	0.9599
2.126	6.113	-3.1854e+05	3006.4	-0.29456	0.077104	0.96029
2.128	5.9666	-3.1854e+05	3006.1	-0.29387	0.077104	0.96068
2.13	5.7733	-3.1855e+05	3005.9	-0.29319	0.077104	0.96107
2.132	5.6793	-3.1855e+05	3005.6	-0.29251	0.077104	0.96146
2.134	5.7574	-3.1855e+05	3005.3	-0.29182	0.077104	0.96185
2.136	5.8782	-3.1855e+05	3005	-0.29104	0.076909	0.96195
2.138	6.0839	-3.1855e+05	3004.8	-0.29026	0.076714	0.96204
2.14	6.2205	-3.1855e+05	3004.5	-0.28948	0.076518	0.96214
2.142	6.1449	-3.1855e+05	3004.2	-0.2887	0.076323	0.96224
2.144	6.0376	-3.1855e+05	3004	-0.28792	0.076128	0.96234
2.146	5.84	-3.1855e+05	3003.7	-0.28763	0.075054	0.96243
2.148	5.6792	-3.1856e+05	3003.5	-0.28733	0.073981	0.96253
2.15	5.761	-3.1856e+05	3003.3	-0.28704	0.072907	0.96263
2.152	5.8432	-3.1857e+05	3003	-0.28675	0.071834	0.96273
2.154	6.0166	-3.1857e+05	3002.8	-0.28646	0.07076	0.96282
2.156	6.232	-3.1857e+05	3002.5	-0.28743	0.071834	0.96292
2.158	6.2029	-3.1857e+05	3002.3	-0.28841	0.072907	0.96302
2.16	6.0795	-3.1857e+05	3002	-0.28938	0.073981	0.96312
2.162	5.9057	-3.1858e+05	3001.7	-0.29036	0.075054	0.96321
2.164	5.7078	-3.1858e+05	3001.5	-0.29134	0.076128	0.96331
2.166	5.7185	-3.1859e+05	3001.2	-0.29026	0.075445	0.96331
2.168	5.8106	-3.186e+05	3001	-0.28919	0.074762	0.96331
2.17	5.9597	-3.186e+05	3000.8	-0.28812	0.074078	0.96331
2.172	6.1591	-3.186e+05	3000.5	-0.28704	0.073395	0.96331
2.174	6.19	-3.186e+05	3000.3	-0.28597	0.072712	0.96331
2.176	6.1201	-3.186e+05	3000.1	-0.28528	0.073298	0.96321
2.178	5.9843	-3.186e+05	2999.8	-0.2846	0.073883	0.96312
2.18	5.7709	-3.186e+05	2999.6	-0.28392	0.074469	0.96302
2.182	5.7028	-3.186e+05	2999.3	-0.28324	0.075054	0.96292
2.184	5.7682	-3.186e+05	2999.1	-0.28255	0.07564	0.96282
2.186	5.8787	-3.1861e+05	2998.9	-0.28206	0.075933	0.9637
2.188	6.089	-3.1861e+05	2998.7	-0.28158	0.076226	0.96458
2.19	6.2182	-3.1861e+05	2998.4	-0.28109	0.076518	0.96546
2.192	6.1743	-3.1862e+05	2998.2	-0.2806	0.076811	0.96634
2.194	6.058	-3.1862e+05	2997.9	-0.28011	0.077104	0.96722
2.196	5.8573	-3.1863e+05	2997.8	-0.2804	0.076811	0.96634
2.198	5.6986	-3.1862e+05	2997.6	-0.2807	0.076518	0.96546
2.2	5.7325	-3.1862e+05	2997.4	-0.28099	0.076226	0.96458
2.202	5.8531	-3.1863e+05	2997.2	-0.28128	0.075933	0.9637
2.204	6.0291	-3.1864e+05	2997	-0.28158	0.07564	0.96282
2.206	6.2074	-3.1864e+05	2996.7	-0.28148	0.075933	0.96243
2.208	6.2025	-3.1865e+05	2996.5	-0.28138	0.076226	0.96204
2.21	6.0971	-3.1864e+05	2996.3	-0.28128	0.076518	0.96165
2.212	5.9407	-3.1864e+05	2996.1	-0.28119	0.076811	0.96126
2.214	5.7236	-3.1864e+05	2995.9	-0.28109	0.077104	0.96087
2.216	5.7009	-3.1864e+05	2995.7	-0.28158	0.076421	0.96116
2.218	5.812	-3.1864e+05	2995.4	-0.28206	0.075738	0.96146
2.22	5.9562	-3.1864e+05	2995.2	-0.28255	0.075054	0.96175
2.222	6.199	-3.1865e+05	2994.9	-0.28304	0.074371	0.96204
2.224	6.274	-3.1865e+05	2994.7	-0.28353	0.073688	0.96234
2.226	6.1868	-3.1866e+05	2994.5	-0.28421	0.073298	0.9636
2.228	6.0747	-3.1866e+05	2994.2	-0.28489	0.072907	0.96487
2.23	5.8213	-3.1866e+05	2994	-0.28558	0.072517	0.96614
2.232	5.7035	-3.1866e+05	2993.9	-0.28626	0.072126	0.96741
2.234	5.8085	-3.1867e+05	2993.7	-0.28694	0.071736	0.96868
2.236	5.9185	-3.1867e+05	2993.5	-0.28646	0.071834	0.9679
2.238	6.1721	-3.1867e+05	2993.2	-0.28597	0.071931	0.96712
2.24	6.329	-3.1867e+05	2993	-0.28548	0.072029	0.96634
2.242	6.2532	-3.1868e+05	2992.8	-0.28499	0.072126	0.96556
2.244	6.1378	-3.1868e+05	2992.6	-0.2845	0.072224	0.96478
2.246	5.9138	-3.1869e+05	2992.4	-0.28509	0.072517	0.96429
2.248	5.7436	-3.1869e+05	2992.2	-0.28568	0.07281	0.9638
2.25	5.7801	-3.1869e+05	2992	-0.28626	0.073102	0.96331
2.252	5.8669	-3.187e+05	2991.8	-0.28685	0.073395	0.96282
2.254	6.0698	-3.187e+05	2991.7	-0.28743	0.073688	0.96234
2.256	6.2613	-3.187e+05	2991.4	-0.28597	0.073981	0.96282
2.258	6.2467	-3.187e+05	2991.2	-0.2845	0.074274	0.96331
2.26	6.1453	-3.187e+05	2991	-0.28304	0.074566	0.9638
2.262	5.9498	-3.1871e+05	2990.8	-0.28158	0.074859	0.96429
2.264	5.7403	-3.1872e+05	2990.6	-0.28011	0.075152	0.96478
2.266	5.7114	-3.1872e+05	2990.5	-0.28109	0.074859	0.96468
2.268	5.8029	-3.1871e+05	2990.3	-0.28206	0.074566	0.96458
2.27	5.965	-3.1871e+05	2990.1	-0.28304	0.074274	0.96448
2.272	6.1743	-3.1871e+05	2989.9	-0.28402	0.073981	0.96439
2.274	6.2432	-3.1872e+05	2989.7	-0.28499	0.073688	0.96429
2.276	6.1496	-3.1873e+05	2989.5	-0.2845	0.074176	0.96448
2.278	5.997	-3.1873e+05	2989.3	-0.28402	0.074664	0.96468
2.28	5.798	-3.1873e+05	2989.1	-0.28353	0.075152	0.96487
2.282	5.6871	-3.1873e+05	2989	-0.28304	0.07564	0.96507
2.284	5.749	-3.1873e+05	2988.8	-0.28255	0.076128	0.96526
2.286	5.8876	-3.1874e+05	2988.6	-0.28216	0.076128	0.96546
2.288	6.077	-3.1874e+05	2988.5	-0.28177	0.076128	0.96565
2.29	6.194	-3.1875e+05	2988.3	-0.28138	0.076128	0.96585
2.292	6.135	-3.1875e+05	2988.2	-0.28099	0.076128	0.96604
2.294	6.0282	-3.1875e+05	2988	-0.2806	0.076128	0.96624
2.296	5.857	-3.1875e+05	2987.8	-0.28177	0.07564	0.96565
2.298	5.7027	-3.1876e+05	2987.6	-0.28294	0.075152	0.96507
2.3	5.7294	-3.1876e+05	2987.4	-0.28411	0.074664	0.96448
2.302	5.8436	-3.1876e+05	2987.3	-0.28528	0.074176	0.9639
2.304	6.0122	-3.1876e+05	2987.1	-0.28646	0.073688	0.96331
2.306	6.2193	-3.1876e+05	2986.9	-0.28655	0.073493	0.96312
2.308	6.2079	-3.1876e+05	2986.8	-0.28665	0.073298	0.96292
2.31	6.0978	-3.1877e+05	2986.6	-0.28675	0.073102	0.96273
2.312	5.9425	-3.1878e+05	2986.4	-0.28685	0.072907	0.96253
2.314	5.693	-3.1878e+05	2986.3	-0.28694	0.072712	0.96234
2.316	5.6641	-3.1879e+05	2986.2	-0.28636	0.07281	0.96312
2.318	5.7814	-3.1878e+05	2986	-0.28577	0.072907	0.9639
2.32	5.8913	-3.1878e+05	2985.9	-0.28519	0.073005	0.96468
2.322	6.1439	-3.1879e+05	2985.7	-0.2846	0.073102	0.96546
2.324	6.2583	-3.1879e+05	2985.5	-0.28402	0.0732	0.96624
2.326	6.1825	-3.1879e+05	2985.4	-0.28499	0.07359	0.96526
2.328	6.0337	-3.188e+05	2985.2	-0.28597	0.073981	0.96429
2.33	5.762	-3.1881e+05	2985.1	-0.28694	0.074371	0.96331
2.332	5.6719	-3.1882e+05	2984.9	-0.28792	0.074762	0.96234
2.334	5.7499	-3.1882e+05	2984.8	-0.2889	0.075152	0.96136
2.336	5.8676	-3.1882e+05	2984.7	-0.29104	0.075933	0.96068
2.338	6.1093	-3.1883e+05	2984.5	-0.29319	0.076714	0.95999
2.34	6.2394	-3.1884e+05	2984.3	-0.29534	0.077494	0.95931
2.342	6.1834	-3.1884e+05	2984.2	-0.29748	0.078275	0.95863
2.344	6.0734	-3.1884e+05	2984.1	-0.29963	0.079056	0.95794
2.346	5.8522	-3.1884e+05	2983.9	-0.29914	0.07847	0.95843
2.348	5.6948	-3.1884e+05	2983.8	-0.29866	0.077885	0.95892
2.35	5.7349	-3.1884e+05	2983.7	-0.29817	0.077299	0.95941
2.352	5.858	-3.1884e+05	2983.5	-0.29768	0.076714	0.9599
2.354	6.0851	-3.1885e+05	2983.4	-0.29719	0.076128	0.96038
2.356	6.2825	-3.1886e+05	2983.2	-0.29729	0.07769	0.9597
2.358	6.2848	-3.1885e+05	2983.1	-0.29739	0.079251	0.95902
2.36	6.1947	-3.1884e+05	2982.9	-0.29748	0.080813	0.95833
2.362	6.0409	-3.1884e+05	2982.8	-0.29758	0.082374	0.95765
2.364	5.8639	-3.1885e+05	2982.6	-0.29768	0.083936	0.95697
2.366	5.8133	-3.1885e+05	2982.5	-0.29768	0.082179	0.95765
2.368	5.8595	-3.1886e+05	2982.4	-0.29768	0.080422	0.95833
2.37	5.9809	-3.1886e+05	2982.2	-0.29768	0.078666	0.95902
2.372	6.17	-3.1887e+05	2982.1	-0.29768	0.076909	0.9597
2.374	6.2131	-3.1887e+05	2982	-0.29768	0.075152	0.96038
2.376	6.0699	-3.1887e+05	2981.9	-0.29758	0.075347	0.9599
2.378	5.8511	-3.1887e+05	2981.7	-0.29748	0.075542	0.95941
2.38	5.5568	-3.1888e+05	2981.6	-0.29739	0.075738	0.95892
2.382	5.3644	-3.1888e+05	2981.5	-0.29729	0.075933	0.95843
2.384	5.3911	-3.1888e+05	2981.4	-0.29719	0.076128	0.95794
2.386	5.5084	-3.1889e+05	2981.2	-0.29788	0.075933	0.95833
2.388	5.7238	-3.1889e+05	2981.1	-0.29856	0.075738	0.95872
2.39	5.9041	-3.189e+05	2981	-0.29924	0.075542	0.95912
2.392	5.8516	-3.1891e+05	2980.9	-0.29992	0.075347	0.95951
2.394	5.7489	-3.1891e+05	2980.7	-0.30061	0.075152	0.9599
2.396	5.5759	-3.1891e+05	2980.7	-0.29885	0.075347	0.96019
2.398	5.3729	-3.1891e+05	2980.6	-0.29709	0.075542	0.96048
2.4	5.4397	-3.1891e+05	2980.4	-0.29534	0.075738	0.96077
2.402	5.5774	-3.1891e+05	2980.3	-0.29358	0.075933	0.96107
2.404	5.7776	-3.1891e+05	2980.2	-0.29182	0.076128	0.96136
2.406	6.0427	-3.1892e+05	2980	-0.2926	0.076226	0.96156
2.408	6.0397	-3.1892e+05	2979.8	-0.29339	0.076323	0.96175
2.41	5.9635	-3.1892e+05	2979.6	-0.29417	0.076421	0.96195
2.412	5.8508	-3.1893e+05	2979.4	-0.29495	0.076518	0.96214
2.414	5.607	-3.1894e+05	2979.2	-0.29573	0.076616	0.96234
2.416	5.598	-3.1894e+05	2979	-0.29622	0.077006	0.96156
2.418	5.7071	-3.1894e+05	2978.8	-0.2967	0.077397	0.96077
2.42	5.8813	-3.1893e+05	2978.6	-0.29719	0.077787	0.95999
2.422	6.1477	-3.1893e+05	2978.4	-0.29768	0.078178	0.95921
2.424	6.1902	-3.1893e+05	2978.2	-0.29817	0.078568	0.95843
2.426	6.0976	-3.1893e+05	2978	-0.29758	0.079251	0.95843
2.428	5.9732	-3.1894e+05	2977.7	-0.297	0.079934	0.95843
2.43	5.7709	-3.1894e+05	2977.5	-0.29641	0.080618	0.95843
2.432	5.6796	-3.1895e+05	2977.3	-0.29583	0.081301	0.95843
2.434	5.741	-3.1896e+05	2977.1	-0.29524	0.081984	0.95843
2.436	5.8729	-3.1896e+05	2976.9	-0.29622	0.080618	0.95853
2.438	6.0962	-3.1896e+05	2976.7	-0.29719	0.079251	0.95863
2.44	6.2238	-3.1896e+05	2976.6	-0.29817	0.077885	0.95872
2.442	6.1808	-3.1896e+05	2976.5	-0.29914	0.076518	0.95882
2.444	6.0672	-3.1896e+05	2976.3	-0.30012	0.075152	0.95892
2.446	5.8654	-3.1897e+05	2976.2	-0.29846	0.076323	0.95765
2.448	5.7035	-3.1897e+05	2976	-0.2968	0.077494	0.95638
2.45	5.718	-3.1898e+05	2975.8	-0.29514	0.078666	0.95511
2.452	5.8295	-3.1898e+05	2975.6	-0.29348	0.079837	0.95384
2.454	6.0216	-3.1898e+05	2975.4	-0.29182	0.081008	0.95258
2.456	6.2144	-3.1898e+05	2975.2	-0.29241	0.08091	0.95277
2.458	6.2249	-3.1898e+05	2975	-0.293	0.080813	0.95297
2.46	6.1136	-3.1899e+05	2974.8	-0.29358	0.080715	0.95316
2.462	5.9509	-3.1899e+05	2974.6	-0.29417	0.080618	0.95336
2.464	5.7519	-3.19e+05	2974.4	-0.29475	0.08052	0.95355
2.466	5.7085	-3.19e+05	2974.2	-0.29436	0.079934	0.95511
2.468	5.8058	-3.19e+05	2974	-0.29397	0.079349	0.95668
2.47	5.95	-3.1901e+05	2973.7	-0.29358	0.078763	0.95824
2.472	6.1782	-3.1901e+05	2973.4	-0.29319	0.078178	0.9598
2.474	6.2608	-3.1902e+05	2973.2	-0.2928	0.077592	0.96136
2.476	6.1677	-3.1902e+05	2972.9	-0.2929	0.078275	0.96116
2.478	6.0452	-3.1902e+05	2972.6	-0.293	0.078958	0.96097
2.48	5.8295	-3.1901e+05	2972.4	-0.29309	0.079642	0.96077
2.482	5.7233	-3.1902e+05	2972	-0.29319	0.080325	0.96058
2.484	5.7947	-3.1902e+05	2971.7	-0.29329	0.081008	0.96038
2.486	5.8825	-3.1902e+05	2971.4	-0.293	0.081008	0.96116
2.488	6.1141	-3.1902e+05	2971.2	-0.2927	0.081008	0.96195
2.49	6.2863	-3.1903e+05	2970.9	-0.29241	0.081008	0.96273
2.492	6.2143	-3.1903e+05	2970.8	-0.29212	0.081008	0.96351
2.494	6.1291	-3.1904e+05	2970.6	-0.29182	0.081008	0.96429
2.496	5.8793	-3.1905e+05	2970.8	-0.2926	0.081398	0.96243
2.498	5.6854	-3.1905e+05	2970.9	-0.29339	0.081789	0.96058
2.5	5.726	-3.1905e+05	2971.4	-0.29417	0.082179	0.95872
2.502	5.8376	-3.1905e+05	2972.2	-0.29495	0.08257	0.95687
2.504	6.0473	-3.1904e+05	2973	-0.29573	0.08296	0.95502
2.506	6.2505	-3.1905e+05	2974.8	-0.29465	0.083448	0.95394
2.508	6.2326	-3.1906e+05	2976.6	-0.29358	0.083936	0.95287
2.51	6.1411	-3.1906e+05	2979.1	-0.29251	0.084424	0.9518
2.512	5.9713	-3.1907e+05	2982.1	-0.29143	0.084912	0.95072
2.514	5.7539	-3.1907e+05	2985.2	-0.29036	0.0854	0.94965
2.516	5.7422	-3.1907e+05	2989.6	-0.29036	0.084522	0.94926
2.518	5.8467	-3.1906e+05	2994.1	-0.29036	0.083643	0.94887
2.52	5.9966	-3.1905e+05	2999.3	-0.29036	0.082765	0.94848
2.522	6.2023	-3.1906e+05	3005.1	-0.29036	0.081886	0.94809
2.524	6.2651	-3.1907e+05	3010.9	-0.29036	0.081008	0.9477
2.526	6.2022	-3.1907e+05	3017.7	-0.29114	0.08091	0.94906
2.528	6.0726	-3.1907e+05	3024.5	-0.29192	0.080813	0.95043
2.53	5.8573	-3.1907e+05	3031.4	-0.2927	0.080715	0.9518
2.532	5.752	-3.1907e+05	3038.4	-0.29348	0.080618	0.95316
2.534	5.8195	-3.1907e+05	3045.3	-0.29426	0.08052	0.95453
2.536	5.9528	-3.1907e+05	3052.2	-0.29387	0.079251	0.95668
2.538	6.1615	-3.1907e+05	3059	-0.29348	0.077982	0.95882
2.54	6.3113	-3.1907e+05	3065.2	-0.29309	0.076714	0.96097
2.542	6.2762	-3.1906e+05	3070.8	-0.2927	0.075445	0.96312
2.544	6.1626	-3.1906e+05	3076.3	-0.29231	0.074176	0.96526
2.546	5.9717	-3.1906e+05	3078.6	-0.2929	0.075835	0.96585
2.548	5.792	-3.1906e+05	3080.9	-0.29348	0.077494	0.96644
2.55	5.8185	-3.1906e+05	3082.6	-0.29407	0.079154	0.96702
2.552	5.9514	-3.1905e+05	3083.8	-0.29465	0.080813	0.96761
2.554	6.1288	-3.1905e+05	3085	-0.29524	0.082472	0.96819
2.556	6.3301	-3.1905e+05	3085.7	-0.29719	0.081789	0.96634
2.558	6.3344	-3.1905e+05	3086.5	-0.29914	0.081106	0.96448
2.56	6.2309	-3.1905e+05	3087.2	-0.3011	0.080422	0.96263
2.562	6.0781	-3.1904e+05	3088	-0.30305	0.079739	0.96077
2.564	5.8523	-3.1904e+05	3088.7	-0.305	0.079056	0.95892
2.566	5.8185	-3.1904e+05	3089.6	-0.30334	0.078275	0.9596
2.568	5.9321	-3.1903e+05	3090.4	-0.30168	0.077494	0.96029
2.57	6.0667	-3.1903e+05	3091.3	-0.30002	0.076714	0.96097
2.572	6.3086	-3.1903e+05	3092.3	-0.29836	0.075933	0.96165
2.574	6.4073	-3.1901e+05	3093.3	-0.2967	0.075152	0.96234
2.576	6.3067	-3.19e+05	3094.3	-0.29661	0.075835	0.96243
2.578	6.2198	-3.19e+05	3095.3	-0.29651	0.076518	0.96253
2.58	5.927	-3.19e+05	3096.4	-0.29641	0.077202	0.96263
2.582	5.7995	-3.19e+05	3097.4	-0.29631	0.077885	0.96273
2.584	5.8846	-3.19e+05	3098.5	-0.29622	0.078568	0.96282
2.586	5.995	-3.1899e+05	3099.7	-0.29602	0.07847	0.96234
2.588	6.2259	-3.1897e+05	3100.9	-0.29583	0.078373	0.96185
2.59	6.3827	-3.1897e+05	3102.1	-0.29563	0.078275	0.96136
2.592	6.3362	-3.1896e+05	3103.4	-0.29544	0.078178	0.96087
2.594	6.2479	-3.1895e+05	3104.6	-0.29524	0.07808	0.96038
2.596	6.0271	-3.1895e+05	3105.9	-0.29534	0.078275	0.95999
2.598	5.8335	-3.1894e+05	3107.3	-0.29544	0.07847	0.9596
2.6	5.852	-3.1894e+05	3108.7	-0.29553	0.078666	0.95921
2.602	5.9603	-3.1893e+05	3110.1	-0.29563	0.078861	0.95882
2.604	6.1713	-3.1893e+05	3111.5	-0.29573	0.079056	0.95843
2.606	6.3654	-3.1892e+05	3113	-0.29495	0.079642	0.95785
2.608	6.3717	-3.1892e+05	3114.4	-0.29417	0.080227	0.95726
2.61	6.28	-3.1891e+05	3115.9	-0.29339	0.080813	0.95668
2.612	6.1106	-3.189e+05	3117.3	-0.2926	0.081398	0.95609
2.614	5.905	-3.1889e+05	3118.7	-0.29182	0.081984	0.9555
2.616	5.8505	-3.1889e+05	3119.9	-0.29163	0.082277	0.95541
2.618	5.9295	-3.1888e+05	3121.2	-0.29143	0.08257	0.95531
2.62	6.0811	-3.1888e+05	3122.4	-0.29124	0.082862	0.95521
2.622	6.2906	-3.1887e+05	3123.5	-0.29104	0.083155	0.95511
2.624	6.3711	-3.1886e+05	3124.6	-0.29085	0.083448	0.95502
2.626	6.2801	-3.1885e+05	3125.5	-0.29036	0.082765	0.95492
2.628	6.1336	-3.1885e+05	3126.5	-0.28987	0.082082	0.95482
2.63	5.9299	-3.1884e+05	3127.2	-0.28938	0.081398	0.95472
2.632	5.8034	-3.1884e+05	3127.9	-0.2889	0.080715	0.95463
2.634	5.8542	-3.1883e+05	3128.6	-0.28841	0.080032	0.95453
2.636	5.9734	-3.1882e+05	3129	-0.28831	0.08091	0.95589
2.638	6.1688	-3.1881e+05	3129.4	-0.28821	0.081789	0.95726
2.64	6.3277	-3.1881e+05	3129.7	-0.28812	0.082667	0.95863
2.642	6.2703	-3.188e+05	3129.9	-0.28802	0.083546	0.95999
2.644	6.1582	-3.1879e+05	3130	-0.28792	0.084424	0.96136
2.646	5.979	-3.1878e+05	3130	-0.2889	0.084424	0.96097
2.648	5.7878	-3.1877e+05	3129.9	-0.28987	0.084424	0.96058
2.65	5.7968	-3.1877e+05	3129.8	-0.29085	0.084424	0.96019
2.652	5.8914	-3.1876e+05	3129.5	-0.29182	0.084424	0.9598
2.654	6.063	-3.1875e+05	3129.2	-0.2928	0.084424	0.95941
2.656	6.2932	-3.1874e+05	3128.7	-0.2927	0.083838	0.95902
2.658	6.2722	-3.1873e+05	3128.3	-0.2926	0.083253	0.95863
2.66	6.1678	-3.1872e+05	3127.7	-0.29251	0.082667	0.95824
2.662	6.0283	-3.1872e+05	3127.1	-0.29241	0.082082	0.95785
2.664	5.753	-3.1871e+05	3126.4	-0.29231	0.081496	0.95746
2.666	5.7069	-3.187e+05	3125.7	-0.29153	0.081398	0.95707
2.668	5.804	-3.187e+05	3124.9	-0.29075	0.081301	0.95668
2.67	5.9434	-3.1869e+05	3124.1	-0.28997	0.081203	0.95628
2.672	6.2014	-3.1868e+05	3123.2	-0.28919	0.081106	0.95589
2.674	6.2918	-3.1868e+05	3122.3	-0.28841	0.081008	0.9555
2.676	6.1991	-3.1868e+05	3121.3	-0.28851	0.08052	0.95589
2.678	6.042	-3.1867e+05	3120.3	-0.2886	0.080032	0.95628
2.68	5.8166	-3.1867e+05	3119.3	-0.2887	0.079544	0.95668
2.682	5.7315	-3.1865e+05	3118.1	-0.2888	0.079056	0.95707
2.684	5.7887	-3.1864e+05	3117	-0.2889	0.078568	0.95746
2.686	5.8784	-3.1864e+05	3115.9	-0.2887	0.078178	0.95707
2.688	6.0897	-3.1863e+05	3114.8	-0.28851	0.077787	0.95668
2.69	6.2377	-3.1862e+05	3113.6	-0.28831	0.077397	0.95628
2.692	6.1971	-3.1861e+05	3112.5	-0.28812	0.077006	0.95589
2.694	6.0783	-3.186e+05	3111.3	-0.28792	0.076616	0.9555
2.696	5.8661	-3.1859e+05	3110.1	-0.28675	0.076128	0.95726
2.698	5.6884	-3.1859e+05	3108.9	-0.28558	0.07564	0.95902
2.7	5.7161	-3.1859e+05	3107.7	-0.28441	0.075152	0.96077
2.702	5.8599	-3.1858e+05	3106.5	-0.28324	0.074664	0.96253
2.704	6.036	-3.1857e+05	3105.3	-0.28206	0.074176	0.96429
2.706	6.1965	-3.1857e+05	3104	-0.28206	0.075054	0.96351
2.708	6.2194	-3.1856e+05	3102.8	-0.28206	0.075933	0.96273
2.71	6.1193	-3.1856e+05	3101.5	-0.28206	0.076811	0.96195
2.712	5.9522	-3.1855e+05	3100.2	-0.28206	0.07769	0.96116
2.714	5.7578	-3.1855e+05	3099	-0.28206	0.078568	0.96038
2.716	5.6944	-3.1854e+05	3097.7	-0.28158	0.07769	0.96156
2.718	5.7657	-3.1854e+05	3096.4	-0.28109	0.076811	0.96273
2.72	5.9123	-3.1853e+05	3095.1	-0.2806	0.075933	0.9639
2.722	6.1504	-3.1853e+05	3093.7	-0.28011	0.075054	0.96507
2.724	6.2583	-3.1852e+05	3092.4	-0.27962	0.074176	0.96624
2.726	6.1581	-3.1851e+05	3091	-0.2807	0.074078	0.96692
2.728	6.012	-3.185e+05	3089.6	-0.28177	0.073981	0.96761
2.73	5.8055	-3.1849e+05	3088.2	-0.28284	0.073883	0.96829
2.732	5.6858	-3.1849e+05	3086.6	-0.28392	0.073786	0.96897
2.734	5.7635	-3.1849e+05	3085	-0.28499	0.073688	0.96966
2.736	5.8724	-3.1849e+05	3083.4	-0.28714	0.073981	0.96995
2.738	6.0825	-3.1848e+05	3081.7	-0.28929	0.074274	0.97024
2.74	6.2712	-3.1848e+05	3080	-0.29143	0.074566	0.97053
2.742	6.2036	-3.1848e+05	3078.2	-0.29358	0.074859	0.97083
2.744	6.0824	-3.1848e+05	3076.4	-0.29573	0.075152	0.97112
2.746	5.8789	-3.1847e+05	3074.5	-0.29583	0.074957	0.97171
2.748	5.6816	-3.1847e+05	3072.6	-0.29592	0.074762	0.97229
2.75	5.7149	-3.1846e+05	3070.7	-0.29602	0.074566	0.97288
2.752	5.8177	-3.1846e+05	3068.6	-0.29612	0.074371	0.97346
2.754	5.9903	-3.1845e+05	3066.6	-0.29622	0.074176	0.97405
2.756	6.2335	-3.1844e+05	3064.5	-0.2969	0.073786	0.97415
2.758	6.2433	-3.1843e+05	3062.5	-0.29758	0.073395	0.97424
2.76	6.1464	-3.1843e+05	3060.4	-0.29827	0.073005	0.97434
2.762	5.9793	-3.1843e+05	3058.4	-0.29895	0.072614	0.97444
2.764	5.7454	-3.1843e+05	3056.4	-0.29963	0.072224	0.97454
2.766	5.701	-3.1842e+05	3054.4	-0.29739	0.073005	0.97278
2.768	5.7827	-3.1842e+05	3052.5	-0.29514	0.073786	0.97102
2.77	5.9402	-3.1842e+05	3050.6	-0.2929	0.074566	0.96927
2.772	6.1711	-3.1842e+05	3048.8	-0.29065	0.075347	0.96751
2.774	6.2429	-3.1842e+05	3047	-0.28841	0.076128	0.96575
2.776	6.173	-3.1841e+05	3045.5	-0.28802	0.075445	0.96565
2.778	6.0237	-3.1841e+05	3043.9	-0.28763	0.074762	0.96556
2.78	5.7995	-3.1841e+05	3042.4	-0.28724	0.074078	0.96546
2.782	5.6986	-3.184e+05	3041	-0.28685	0.073395	0.96536
2.784	5.7558	-3.184e+05	3039.7	-0.28646	0.072712	0.96526
2.786	5.8751	-3.184e+05	3038.6	-0.28704	0.072907	0.96556
2.788	6.0865	-3.1839e+05	3037.4	-0.28763	0.073102	0.96585
2.79	6.2409	-3.1839e+05	3036.4	-0.28821	0.073298	0.96614
2.792	6.2077	-3.184e+05	3035.6	-0.2888	0.073493	0.96644
2.794	6.0892	-3.184e+05	3034.7	-0.28938	0.073688	0.96673
2.796	5.8932	-3.184e+05	3034.1	-0.28851	0.074078	0.96624
2.798	5.7054	-3.184e+05	3033.4	-0.28763	0.074469	0.96575
2.8	5.7082	-3.1839e+05	3032.9	-0.28675	0.074859	0.96526
2.802	5.8125	-3.1839e+05	3032.4	-0.28587	0.07525	0.96478
2.804	5.979	-3.1839e+05	3031.9	-0.28499	0.07564	0.96429
2.806	6.2064	-3.1839e+05	3031.6	-0.28577	0.076714	0.9639
2.808	6.255	-3.1839e+05	3031.4	-0.28655	0.077787	0.96351
2.81	6.1309	-3.1839e+05	3031.1	-0.28733	0.078861	0.96312
2.812	5.9753	-3.1839e+05	3030.9	-0.28812	0.079934	0.96273
2.814	5.7572	-3.1838e+05	3030.6	-0.2889	0.081008	0.96234
2.816	5.6916	-3.1838e+05	3030.5	-0.29036	0.080325	0.96146
2.818	5.7889	-3.1838e+05	3030.4	-0.29182	0.079642	0.96058
2.82	5.9215	-3.1839e+05	3030.3	-0.29329	0.078958	0.9597
2.822	6.1426	-3.1838e+05	3030.2	-0.29475	0.078275	0.95882
2.824	6.2598	-3.1837e+05	3030	-0.29622	0.077592	0.95794
2.826	6.1732	-3.1838e+05	3029.9	-0.29641	0.078373	0.95746
2.828	6.0425	-3.1838e+05	3029.8	-0.29661	0.079154	0.95697
2.83	5.7983	-3.1838e+05	3029.6	-0.2968	0.079934	0.95648
2.832	5.6671	-3.1838e+05	3029.5	-0.297	0.080715	0.95599
2.834	5.742	-3.1838e+05	3029.4	-0.29719	0.081496	0.9555
2.836	5.8455	-3.1838e+05	3029.2	-0.29709	0.080227	0.95687
2.838	6.1056	-3.1838e+05	3029.1	-0.297	0.078958	0.95824
2.84	6.2728	-3.1839e+05	3028.9	-0.2969	0.07769	0.9596
2.842	6.1907	-3.1838e+05	3028.8	-0.2968	0.076421	0.96097
2.844	6.0978	-3.1837e+05	3028.6	-0.2967	0.075152	0.96234
2.846	5.9156	-3.1838e+05	3028.5	-0.2968	0.07564	0.96146
2.848	5.7135	-3.1838e+05	3028.3	-0.2969	0.076128	0.96058
2.85	5.7111	-3.1838e+05	3028.1	-0.297	0.076616	0.9597
2.852	5.801	-3.1838e+05	3027.9	-0.29709	0.077104	0.95882
2.854	5.9857	-3.1838e+05	3027.7	-0.29719	0.077592	0.95794
2.856	6.2005	-3.1837e+05	3027.5	-0.29748	0.077787	0.95755
2.858	6.2235	-3.1837e+05	3027.3	-0.29778	0.077982	0.95716
2.86	6.1292	-3.1838e+05	3027.1	-0.29807	0.078178	0.95677
2.862	5.9568	-3.1837e+05	3027	-0.29836	0.078373	0.95638
2.864	5.7473	-3.1837e+05	3026.8	-0.29866	0.078568	0.95599
2.866	5.6944	-3.1837e+05	3026.6	-0.29836	0.079056	0.95648
2.868	5.7709	-3.1836e+05	3026.3	-0.29807	0.079544	0.95697
2.87	5.9177	-3.1837e+05	3026.1	-0.29778	0.080032	0.95746
2.872	6.127	-3.1837e+05	3025.9	-0.29748	0.08052	0.95794
2.874	6.2278	-3.1836e+05	3025.8	-0.29719	0.081008	0.95843
2.876	6.1772	-3.1836e+05	3025.5	-0.2968	0.080813	0.95902
2.878	6.0555	-3.1836e+05	3025.3	-0.29641	0.080618	0.9596
2.88	5.8575	-3.1836e+05	3025.1	-0.29602	0.080422	0.96019
2.882	5.7168	-3.1836e+05	3024.9	-0.29563	0.080227	0.96077
2.884	5.7415	-3.1837e+05	3024.7	-0.29524	0.080032	0.96136
2.886	5.8505	-3.1837e+05	3024.5	-0.29504	0.079837	0.96165
2.888	6.0594	-3.1837e+05	3024.3	-0.29485	0.079642	0.96195
2.89	6.2494	-3.1837e+05	3024.1	-0.29465	0.079446	0.96224
2.892	6.2205	-3.1837e+05	3023.9	-0.29446	0.079251	0.96253
2.894	6.0841	-3.1837e+05	3023.6	-0.29426	0.079056	0.96282
2.896	5.8932	-3.1836e+05	3023.4	-0.29544	0.079154	0.96195
2.898	5.7068	-3.1836e+05	3023.2	-0.29661	0.079251	0.96107
2.9	5.706	-3.1837e+05	3023	-0.29778	0.079349	0.96019
2.902	5.8069	-3.1837e+05	3022.7	-0.29895	0.079446	0.95931
2.904	5.9751	-3.1838e+05	3022.4	-0.30012	0.079544	0.95843
2.906	6.2327	-3.1837e+05	3022.1	-0.29895	0.079056	0.95872
2.908	6.2585	-3.1837e+05	3021.9	-0.29778	0.078568	0.95902
2.91	6.1372	-3.1836e+05	3021.6	-0.29661	0.07808	0.95931
2.912	6.0092	-3.1836e+05	3021.4	-0.29544	0.077592	0.9596
2.914	5.7508	-3.1836e+05	3021.1	-0.29426	0.077104	0.9599
2.916	5.6796	-3.1837e+05	3020.9	-0.29592	0.07769	0.9597
2.918	5.7898	-3.1837e+05	3020.6	-0.29758	0.078275	0.95951
2.92	5.9119	-3.1837e+05	3020.3	-0.29924	0.078861	0.95931
2.922	6.1755	-3.1837e+05	3020	-0.3009	0.079446	0.95912
2.924	6.2637	-3.1836e+05	3019.7	-0.30256	0.080032	0.95892
2.926	6.1818	-3.1836e+05	3019.5	-0.30227	0.079446	0.95892
2.928	6.0728	-3.1836e+05	3019.2	-0.30197	0.078861	0.95892
2.93	5.8408	-3.1837e+05	3018.9	-0.30168	0.078275	0.95892
2.932	5.7226	-3.1837e+05	3018.6	-0.30139	0.07769	0.95892
2.934	5.7737	-3.1837e+05	3018.3	-0.3011	0.077104	0.95892
2.936	5.8793	-3.1837e+05	3018.1	-0.301	0.077592	0.95853
2.938	6.1098	-3.1837e+05	3017.8	-0.3009	0.07808	0.95814
2.94	6.2653	-3.1837e+05	3017.5	-0.3008	0.078568	0.95775
2.942	6.2264	-3.1836e+05	3017.3	-0.30071	0.079056	0.95736
2.944	6.1436	-3.1836e+05	3017	-0.30061	0.079544	0.95697
2.946	5.9599	-3.1836e+05	3016.7	-0.30002	0.079739	0.95697
2.948	5.7693	-3.1836e+05	3016.4	-0.29944	0.079934	0.95697
2.95	5.7784	-3.1837e+05	3016.1	-0.29885	0.08013	0.95697
2.952	5.897	-3.1838e+05	3015.8	-0.29827	0.080325	0.95697
2.954	6.0786	-3.1838e+05	3015.5	-0.29768	0.08052	0.95697
2.956	6.2725	-3.1837e+05	3015.3	-0.29758	0.080227	0.95648
2.958	6.3165	-3.1837e+05	3015	-0.29748	0.079934	0.95599
2.96	6.2121	-3.1837e+05	3014.7	-0.29739	0.079642	0.9555
2.962	6.0259	-3.1838e+05	3014.4	-0.29729	0.079349	0.95502
2.964	5.8239	-3.1838e+05	3014.1	-0.29719	0.079056	0.95453
2.966	5.7614	-3.1838e+05	3013.8	-0.297	0.080032	0.95511
2.968	5.8466	-3.1838e+05	3013.6	-0.2968	0.081008	0.9557
2.97	5.9963	-3.1838e+05	3013.3	-0.29661	0.081984	0.95628
2.972	6.2007	-3.1837e+05	3013	-0.29641	0.08296	0.95687
2.974	6.3025	-3.1838e+05	3012.7	-0.29622	0.083936	0.95746
2.976	6.226	-3.1838e+05	3012.4	-0.297	0.082862	0.95716
2.978	6.0975	-3.1838e+05	3012.1	-0.29778	0.081789	0.95687
2.98	5.8888	-3.1838e+05	3011.8	-0.29856	0.080715	0.95658
2.982	5.7201	-3.1838e+05	3011.5	-0.29934	0.079642	0.95628
2.984	5.7588	-3.1838e+05	3011.2	-0.30012	0.078568	0.95599
2.986	5.8677	-3.1838e+05	3010.9	-0.29866	0.079446	0.95531
2.988	6.0625	-3.1837e+05	3010.6	-0.29719	0.080325	0.95463
2.99	6.2698	-3.1838e+05	3010.3	-0.29573	0.081203	0.95394
2.992	6.2339	-3.1838e+05	3010	-0.29426	0.082082	0.95326
2.994	6.1237	-3.1838e+05	3009.7	-0.2928	0.08296	0.95258
2.996	5.9676	-3.1838e+05	3009.4	-0.2929	0.082277	0.95287
2.998	5.7132	-3.1838e+05	3009.1	-0.293	0.081594	0.95316
3	5.6809	-3.1838e+05	3008.8	-0.29309	0.08091	0.95345
3.002	5.8138	-3.1838e+05	3008.5	-0.29319	0.080227	0.95375
3.004	5.9686	-3.1838e+05	3008.2	-0.29329	0.079544	0.95404
3.006	6.2408	-3.1838e+05	3008	-0.293	0.079251	0.95472
3.008	6.2389	-3.1838e+05	3007.7	-0.2927	0.078958	0.95541
3.01	6.1228	-3.1839e+05	3007.4	-0.29241	0.078666	0.95609
3.012	5.9711	-3.1839e+05	3007.1	-0.29212	0.078373	0.95677
3.014	5.7305	-3.1839e+05	3006.8	-0.29182	0.07808	0.95746
3.016	5.6915	-3.1838e+05	3006.5	-0.2926	0.078178	0.95755
3.018	5.7748	-3.1839e+05	3006.2	-0.29339	0.078275	0.95765
3.02	5.9025	-3.1839e+05	3005.9	-0.29417	0.078373	0.95775
3.022	6.1401	-3.1839e+05	3005.6	-0.29495	0.07847	0.95785
3.024	6.2231	-3.1839e+05	3005.3	-0.29573	0.078568	0.95794
3.026	6.1476	-3.1839e+05	3005	-0.29407	0.077787	0.95892
3.028	6.034	-3.1839e+05	3004.7	-0.29241	0.077006	0.9599
3.03	5.8248	-3.1839e+05	3004.4	-0.29075	0.076226	0.96087
3.032	5.7254	-3.1839e+05	3004.1	-0.28909	0.075445	0.96185
3.034	5.7722	-3.184e+05	3003.8	-0.28743	0.074664	0.96282
3.036	5.8593	-3.1841e+05	3003.6	-0.28821	0.074566	0.96409
3.038	6.0567	-3.1841e+05	3003.3	-0.28899	0.074469	0.96536
3.04	6.2127	-3.1841e+05	3003	-0.28977	0.074371	0.96663
3.042	6.198	-3.184e+05	3002.7	-0.29056	0.074274	0.9679
3.044	6.0873	-3.184e+05	3002.4	-0.29134	0.074176	0.96917
3.046	5.8844	-3.1841e+05	3002.2	-0.29192	0.074859	0.96878
3.048	5.6921	-3.1841e+05	3001.9	-0.29251	0.075542	0.96839
3.05	5.6806	-3.1841e+05	3001.7	-0.29309	0.076226	0.968
3.052	5.8007	-3.1841e+05	3001.4	-0.29368	0.076909	0.96761
3.054	5.9925	-3.1841e+05	3001.2	-0.29426	0.077592	0.96722
3.056	6.1887	-3.1841e+05	3001	-0.29378	0.077299	0.96809
3.058	6.2141	-3.1841e+05	3000.8	-0.29329	0.077006	0.96897
3.06	6.1132	-3.1841e+05	3000.5	-0.2928	0.076714	0.96985
3.062	5.9683	-3.1841e+05	3000.3	-0.29231	0.076421	0.97073
3.064	5.768	-3.1841e+05	3000.1	-0.29182	0.076128	0.97161
3.066	5.6907	-3.1841e+05	2999.9	-0.29182	0.076323	0.97083
3.068	5.7665	-3.184e+05	2999.7	-0.29182	0.076518	0.97005
3.07	5.8892	-3.1841e+05	2999.5	-0.29182	0.076714	0.96927
3.072	6.1057	-3.1841e+05	2999.3	-0.29182	0.076909	0.96848
3.074	6.2458	-3.1842e+05	2999.1	-0.29182	0.077104	0.9677
3.076	6.1675	-3.1842e+05	2998.9	-0.29075	0.075835	0.9678
3.078	6.0704	-3.1842e+05	2998.8	-0.28968	0.074566	0.9679
3.08	5.9043	-3.1842e+05	2998.6	-0.2886	0.073298	0.968
3.082	5.7843	-3.1843e+05	2998.5	-0.28753	0.072029	0.96809
3.084	5.8685	-3.1843e+05	2998.3	-0.28646	0.07076	0.96819
3.086	5.972	-3.1843e+05	2998.2	-0.28616	0.070955	0.9678
3.088	6.1881	-3.1843e+05	2998	-0.28587	0.07115	0.96741
3.09	6.4003	-3.1843e+05	2997.9	-0.28558	0.071346	0.96702
3.092	6.3375	-3.1843e+05	2997.7	-0.28528	0.071541	0.96663
3.094	6.2311	-3.1844e+05	2997.5	-0.28499	0.071736	0.96624
3.096	5.963	-3.1844e+05	2997.4	-0.28441	0.071931	0.96604
3.098	5.6599	-3.1844e+05	2997.3	-0.28382	0.072126	0.96585
3.1	5.6168	-3.1844e+05	2997.1	-0.28324	0.072322	0.96565
3.102	5.6258	-3.1844e+05	2997	-0.28265	0.072517	0.96546
3.104	5.7182	-3.1844e+05	2996.9	-0.28206	0.072712	0.96526
3.106	5.8447	-3.1844e+05	2996.7	-0.28226	0.072614	0.96575
3.108	5.782	-3.1844e+05	2996.6	-0.28245	0.072517	0.96624
3.11	5.6916	-3.1844e+05	2996.5	-0.28265	0.072419	0.96673
3.112	5.5668	-3.1844e+05	2996.3	-0.28284	0.072322	0.96722
3.114	5.3699	-3.1845e+05	2996.2	-0.28304	0.072224	0.9677
3.116	5.3192	-3.1845e+05	2996	-0.28333	0.072224	0.96741
3.118	5.3979	-3.1845e+05	2995.9	-0.28363	0.072224	0.96712
3.12	5.5552	-3.1845e+05	2995.8	-0.28392	0.072224	0.96683
3.122	5.8041	-3.1845e+05	2995.6	-0.28421	0.072224	0.96653
3.124	5.929	-3.1845e+05	2995.4	-0.2845	0.072224	0.96624
3.126	5.9036	-3.1846e+05	2995.2	-0.28421	0.072907	0.96604
3.128	5.8188	-3.1846e+05	2995	-0.28392	0.07359	0.96585
3.13	5.6316	-3.1846e+05	2994.9	-0.28363	0.074274	0.96565
3.132	5.4944	-3.1847e+05	2994.7	-0.28333	0.074957	0.96546
3.134	5.55	-3.1847e+05	2994.5	-0.28304	0.07564	0.96526
3.136	5.6969	-3.1847e+05	2994.3	-0.28421	0.076128	0.964
3.138	5.9153	-3.1847e+05	2994.1	-0.28538	0.076616	0.96273
3.14	6.1199	-3.1847e+05	2993.9	-0.28655	0.077104	0.96146
3.142	6.1276	-3.1847e+05	2993.7	-0.28772	0.077592	0.96019
3.144	6.0196	-3.1847e+05	2993.5	-0.2889	0.07808	0.95892
3.146	5.8592	-3.1847e+05	2993.2	-0.28938	0.078958	0.95794
3.148	5.6869	-3.1847e+05	2993	-0.28987	0.079837	0.95697
3.15	5.688	-3.1848e+05	2992.8	-0.29036	0.080715	0.95599
3.152	5.7824	-3.1849e+05	2992.6	-0.29085	0.081594	0.95502
3.154	5.9354	-3.1849e+05	2992.3	-0.29134	0.082472	0.95404
3.156	6.1637	-3.1849e+05	2992.1	-0.29065	0.081789	0.95394
3.158	6.2256	-3.1848e+05	2991.9	-0.28997	0.081106	0.95384
3.16	6.1348	-3.1848e+05	2991.6	-0.28929	0.080422	0.95375
3.162	5.995	-3.1849e+05	2991.4	-0.2886	0.079739	0.95365
3.164	5.7779	-3.185e+05	2991.1	-0.28792	0.079056	0.95355
3.166	5.7005	-3.1851e+05	2990.9	-0.28753	0.079251	0.95326
3.168	5.7859	-3.1851e+05	2990.7	-0.28714	0.079446	0.95297
3.17	5.9077	-3.1851e+05	2990.5	-0.28675	0.079642	0.95267
3.172	6.1483	-3.1851e+05	2990.3	-0.28636	0.079837	0.95238
3.174	6.2627	-3.1851e+05	2990.1	-0.28597	0.080032	0.95209
3.176	6.1659	-3.1851e+05	2989.9	-0.28597	0.079739	0.95238
3.178	6.0806	-3.1851e+05	2989.7	-0.28597	0.079446	0.95267
3.18	5.8518	-3.1851e+05	2989.4	-0.28597	0.079154	0.95297
3.182	5.6991	-3.1851e+05	2989.3	-0.28597	0.078861	0.95326
3.184	5.7623	-3.1851e+05	2989.1	-0.28597	0.078568	0.95355
3.186	5.8703	-3.1851e+05	2988.9	-0.28558	0.078568	0.95336
3.188	6.0997	-3.1851e+05	2988.6	-0.28519	0.078568	0.95316
3.19	6.2812	-3.1852e+05	2988.4	-0.2848	0.078568	0.95297
3.192	6.2313	-3.1852e+05	2988.2	-0.28441	0.078568	0.95277
3.194	6.1198	-3.1852e+05	2988	-0.28402	0.078568	0.95258
3.196	5.9463	-3.1851e+05	2987.8	-0.28607	0.079544	0.95365
3.198	5.7567	-3.1851e+05	2987.6	-0.28812	0.08052	0.95472
3.2	5.7412	-3.1851e+05	2987.4	-0.29016	0.081496	0.9558
3.202	5.8556	-3.1852e+05	2987.2	-0.29221	0.082472	0.95687
3.204	6.0278	-3.1852e+05	2987	-0.29426	0.083448	0.95794
3.206	6.2135	-3.1852e+05	2986.8	-0.29241	0.083936	0.95912
3.208	6.2443	-3.1853e+05	2986.6	-0.29056	0.084424	0.96029
3.21	6.1598	-3.1853e+05	2986.4	-0.2887	0.084912	0.96146
3.212	6.0166	-3.1853e+05	2986.3	-0.28685	0.0854	0.96263
3.214	5.8229	-3.1853e+05	2986.1	-0.28499	0.085888	0.9638
3.216	5.7456	-3.1853e+05	2986	-0.28772	0.084912	0.96302
3.218	5.8139	-3.1854e+05	2986	-0.29046	0.083936	0.96224
3.22	5.9554	-3.1855e+05	2986	-0.29319	0.08296	0.96146
3.222	6.1694	-3.1854e+05	2986	-0.29592	0.081984	0.96068
3.224	6.2912	-3.1854e+05	2986	-0.29866	0.081008	0.9599
3.226	6.2282	-3.1854e+05	2986.3	-0.29778	0.082277	0.95921
3.228	6.0968	-3.1854e+05	2986.5	-0.2969	0.083546	0.95853
3.23	5.8944	-3.1854e+05	2987	-0.29602	0.084814	0.95785
3.232	5.732	-3.1853e+05	2987.7	-0.29514	0.086083	0.95716
3.234	5.7651	-3.1854e+05	2988.4	-0.29426	0.087352	0.95648
3.236	5.8814	-3.1856e+05	2989.7	-0.29417	0.086766	0.9558
3.238	6.0796	-3.1856e+05	2991.1	-0.29407	0.086181	0.95511
3.24	6.2908	-3.1856e+05	2992.8	-0.29397	0.085595	0.95443
3.242	6.2665	-3.1857e+05	2994.9	-0.29387	0.08501	0.95375
3.244	6.1415	-3.1858e+05	2997	-0.29378	0.084424	0.95306
3.246	5.9934	-3.1859e+05	3000	-0.29475	0.084229	0.95345
3.248	5.7843	-3.1859e+05	3003	-0.29573	0.084034	0.95384
3.25	5.7761	-3.1859e+05	3006.4	-0.2967	0.083838	0.95424
3.252	5.8739	-3.1859e+05	3010.2	-0.29768	0.083643	0.95463
3.254	6.0192	-3.186e+05	3014.1	-0.29866	0.083448	0.95502
3.256	6.3078	-3.186e+05	3018.7	-0.29856	0.081301	0.95668
3.258	6.3384	-3.1861e+05	3023.3	-0.29846	0.079154	0.95833
3.26	6.2244	-3.1861e+05	3028.1	-0.29836	0.077006	0.95999
3.262	6.093	-3.1861e+05	3033.2	-0.29827	0.074859	0.96165
3.264	5.8147	-3.1861e+05	3038.2	-0.29817	0.072712	0.96331
3.266	5.7595	-3.1861e+05	3043.5	-0.29729	0.073102	0.96341
3.268	5.8827	-3.1861e+05	3048.8	-0.29641	0.073493	0.96351
3.27	6.0255	-3.186e+05	3054.1	-0.29553	0.073883	0.9636
3.272	6.2732	-3.1859e+05	3059.4	-0.29465	0.074274	0.9637
3.274	6.3733	-3.1859e+05	3064.6	-0.29378	0.074664	0.9638
3.276	6.3003	-3.1858e+05	3068	-0.29387	0.075152	0.96487
3.278	6.1951	-3.1858e+05	3071.3	-0.29397	0.07564	0.96595
3.28	5.9683	-3.1857e+05	3073.9	-0.29407	0.076128	0.96702
3.282	5.8314	-3.1857e+05	3075.7	-0.29417	0.076616	0.96809
3.284	5.8887	-3.1856e+05	3077.5	-0.29426	0.077104	0.96917
3.286	6.0143	-3.1856e+05	3078.6	-0.29456	0.077397	0.9678
3.288	6.2412	-3.1856e+05	3079.7	-0.29485	0.07769	0.96644
3.29	6.408	-3.1855e+05	3080.8	-0.29514	0.077982	0.96507
3.292	6.389	-3.1855e+05	3081.7	-0.29544	0.078275	0.9637
3.294	6.2894	-3.1855e+05	3082.6	-0.29573	0.078568	0.96234
3.296	6.1209	-3.1855e+05	3083.5	-0.29436	0.077787	0.96292
3.298	5.944	-3.1855e+05	3084.5	-0.293	0.077006	0.96351
3.3	5.9096	-3.1855e+05	3085.4	-0.29163	0.076226	0.96409
3.302	5.9993	-3.1854e+05	3086.4	-0.29026	0.075445	0.96468
3.304	6.1744	-3.1853e+05	3087.3	-0.2889	0.074664	0.96526
3.306	6.3783	-3.1852e+05	3088.3	-0.2887	0.07359	0.96546
3.308	6.4336	-3.1851e+05	3089.4	-0.28851	0.072517	0.96565
3.31	6.3444	-3.1851e+05	3090.4	-0.28831	0.071443	0.96585
3.312	6.2041	-3.185e+05	3091.5	-0.28812	0.07037	0.96604
3.314	6.0016	-3.1849e+05	3092.5	-0.28792	0.069296	0.96624
3.316	5.8986	-3.1849e+05	3093.6	-0.28753	0.069296	0.96536
3.318	5.9797	-3.1848e+05	3094.7	-0.28714	0.069296	0.96448
3.32	6.1165	-3.1848e+05	3095.8	-0.28675	0.069296	0.9636
3.322	6.3185	-3.1848e+05	3097	-0.28636	0.069296	0.96273
3.324	6.4571	-3.1847e+05	3098.1	-0.28597	0.069296	0.96185
3.326	6.3871	-3.1847e+05	3099.3	-0.28519	0.070077	0.96214
3.328	6.2696	-3.1846e+05	3100.5	-0.28441	0.070858	0.96243
3.33	6.0598	-3.1845e+05	3101.6	-0.28363	0.071638	0.96273
3.332	5.8846	-3.1844e+05	3102.8	-0.28284	0.072419	0.96302
3.334	5.9374	-3.1843e+05	3104	-0.28206	0.0732	0.96331
3.336	6.0286	-3.1843e+05	3105.1	-0.28167	0.075054	0.96292
3.338	6.2187	-3.1842e+05	3106.2	-0.28128	0.076909	0.96253
3.34	6.4575	-3.1842e+05	3107.3	-0.28089	0.078763	0.96214
3.342	6.407	-3.1842e+05	3108.4	-0.2805	0.080618	0.96175
3.344	6.2699	-3.1842e+05	3109.4	-0.28011	0.082472	0.96136
3.346	6.0736	-3.1841e+05	3110.4	-0.28138	0.082082	0.96048
3.348	5.841	-3.184e+05	3111.4	-0.28265	0.081691	0.9596
3.35	5.8536	-3.1839e+05	3112.2	-0.28392	0.081301	0.95872
3.352	5.9441	-3.1838e+05	3113	-0.28519	0.08091	0.95785
3.354	6.0876	-3.1838e+05	3113.8	-0.28646	0.08052	0.95697
3.356	6.3128	-3.1837e+05	3114.4	-0.28646	0.080227	0.95648
3.358	6.328	-3.1836e+05	3115.1	-0.28646	0.079934	0.95599
3.36	6.2515	-3.1835e+05	3115.6	-0.28646	0.079642	0.9555
3.362	6.1587	-3.1834e+05	3116	-0.28646	0.079349	0.95502
3.364	5.925	-3.1833e+05	3116.4	-0.28646	0.079056	0.95453
3.366	5.827	-3.1833e+05	3116.7	-0.28607	0.078861	0.95541
3.368	5.8804	-3.1833e+05	3117	-0.28568	0.078666	0.95628
3.37	5.9972	-3.1832e+05	3117.1	-0.28528	0.07847	0.95716
3.372	6.212	-3.1831e+05	3117.2	-0.28489	0.078275	0.95804
3.374	6.314	-3.183e+05	3117.2	-0.2845	0.07808	0.95892
3.376	6.2652	-3.1829e+05	3117.1	-0.28499	0.078178	0.95872
3.378	6.1463	-3.1829e+05	3116.9	-0.28548	0.078275	0.95853
3.38	5.9245	-3.1829e+05	3116.7	-0.28597	0.078373	0.95833
3.382	5.7811	-3.1828e+05	3116.4	-0.28646	0.07847	0.95814
3.384	5.8105	-3.1828e+05	3116.1	-0.28694	0.078568	0.95794
3.386	5.9071	-3.1827e+05	3115.7	-0.28665	0.077982	0.95716
3.388	6.0953	-3.1827e+05	3115.3	-0.28636	0.077397	0.95638
3.39	6.2716	-3.1827e+05	3114.8	-0.28607	0.076811	0.9556
3.392	6.2627	-3.1826e+05	3114.3	-0.28577	0.076226	0.95482
3.394	6.1541	-3.1825e+05	3113.7	-0.28548	0.07564	0.95404
3.396	5.9971	-3.1824e+05	3113.1	-0.28616	0.076616	0.95453
3.398	5.8061	-3.1823e+05	3112.5	-0.28685	0.077592	0.95502
3.4	5.7436	-3.1822e+05	3111.8	-0.28753	0.078568	0.9555
3.402	5.8286	-3.1821e+05	3111	-0.28821	0.079544	0.95599
3.404	5.9932	-3.182e+05	3110.2	-0.2889	0.08052	0.95648
3.406	6.2067	-3.1819e+05	3109.4	-0.28919	0.080032	0.95658
3.408	6.2605	-3.1818e+05	3108.6	-0.28948	0.079544	0.95668
3.41	6.1544	-3.1818e+05	3107.7	-0.28977	0.079056	0.95677
3.412	6.0232	-3.1817e+05	3106.8	-0.29007	0.078568	0.95687
3.414	5.8138	-3.1817e+05	3106	-0.29036	0.07808	0.95697
3.416	5.7042	-3.1817e+05	3105.1	-0.28841	0.077982	0.95785
3.418	5.7845	-3.1815e+05	3104.1	-0.28646	0.077885	0.95872
3.42	5.9057	-3.1814e+05	3103.2	-0.2845	0.077787	0.9596
3.422	6.1361	-3.1813e+05	3102.2	-0.28255	0.07769	0.96048
3.424	6.2873	-3.1813e+05	3101.3	-0.2806	0.077592	0.96136
3.426	6.1886	-3.1813e+05	3100.3	-0.28089	0.077397	0.96146
3.428	6.081	-3.1813e+05	3099.3	-0.28119	0.077202	0.96156
3.43	5.8667	-3.1812e+05	3098.3	-0.28148	0.077006	0.96165
3.432	5.678	-3.1811e+05	3097.2	-0.28177	0.076811	0.96175
3.434	5.7379	-3.1811e+05	3096.2	-0.28206	0.076616	0.96185
3.436	5.8452	-3.1811e+05	3095.2	-0.28206	0.076323	0.96234
3.438	6.0733	-3.181e+05	3094.2	-0.28206	0.07603	0.96282
3.44	6.2752	-3.1809e+05	3093.1	-0.28206	0.075738	0.96331
3.442	6.2011	-3.1809e+05	3092.1	-0.28206	0.075445	0.9638
3.444	6.0908	-3.1808e+05	3091	-0.28206	0.075152	0.96429
3.446	5.9313	-3.1807e+05	3089.9	-0.28177	0.074957	0.96487
3.448	5.747	-3.1807e+05	3088.8	-0.28148	0.074762	0.96546
3.45	5.7349	-3.1806e+05	3087.7	-0.28119	0.074566	0.96604
3.452	5.808	-3.1806e+05	3086.4	-0.28089	0.074371	0.96663
3.454	5.981	-3.1805e+05	3085.2	-0.2806	0.074176	0.96722
3.456	6.2062	-3.1804e+05	3083.9	-0.28226	0.074078	0.9678
3.458	6.2412	-3.1804e+05	3082.6	-0.28392	0.073981	0.96839
3.46	6.1551	-3.1804e+05	3081.2	-0.28558	0.073883	0.96897
3.462	6.0192	-3.1804e+05	3079.6	-0.28724	0.073786	0.96956
3.464	5.8308	-3.1803e+05	3078.1	-0.2889	0.073688	0.97014
3.466	5.7355	-3.1803e+05	3076.5	-0.29065	0.074274	0.97053
3.468	5.7635	-3.1803e+05	3074.9	-0.29241	0.074859	0.97092
3.47	5.8852	-3.1803e+05	3073.2	-0.29417	0.075445	0.97132
3.472	6.1038	-3.1803e+05	3071.4	-0.29592	0.07603	0.97171
3.474	6.2338	-3.1802e+05	3069.6	-0.29768	0.076616	0.9721
3.476	6.1873	-3.1801e+05	3067.7	-0.29651	0.077494	0.97083
3.478	6.067	-3.1801e+05	3065.8	-0.29534	0.078373	0.96956
3.48	5.8699	-3.18e+05	3063.9	-0.29417	0.079251	0.96829
3.482	5.706	-3.18e+05	3061.9	-0.293	0.08013	0.96702
3.484	5.732	-3.18e+05	3060	-0.29182	0.081008	0.96575
3.486	5.8528	-3.18e+05	3058	-0.29153	0.079837	0.96624
3.488	6.0421	-3.18e+05	3056	-0.29124	0.078666	0.96673
3.49	6.2334	-3.18e+05	3054	-0.29095	0.077494	0.96722
3.492	6.2214	-3.1799e+05	3052.1	-0.29065	0.076323	0.9677
3.494	6.1167	-3.1799e+05	3050.2	-0.29036	0.075152	0.96819
3.496	5.9691	-3.1799e+05	3048.5	-0.28997	0.075738	0.9678
3.498	5.7505	-3.1799e+05	3046.7	-0.28958	0.076323	0.96741
3.5	5.7136	-3.1799e+05	3045	-0.28919	0.076909	0.96702
3.502	5.8037	-3.1799e+05	3043.5	-0.2888	0.077494	0.96663
3.504	5.9437	-3.1799e+05	3042	-0.28841	0.07808	0.96624
3.506	6.2126	-3.1799e+05	3040.6	-0.28909	0.078275	0.96507
3.508	6.2705	-3.1799e+05	3039.3	-0.28977	0.07847	0.9639
3.51	6.1637	-3.1799e+05	3038.1	-0.29046	0.078666	0.96273
3.512	6.0332	-3.1798e+05	3037	-0.29114	0.078861	0.96156
3.514	5.7827	-3.1798e+05	3035.9	-0.29182	0.079056	0.96038
3.516	5.6972	-3.1797e+05	3035	-0.29319	0.078373	0.96058
3.518	5.794	-3.1797e+05	3034.2	-0.29456	0.07769	0.96077
3.52	5.9058	-3.1797e+05	3033.4	-0.29592	0.077006	0.96097
3.522	6.147	-3.1797e+05	3032.8	-0.29729	0.076323	0.96116
3.524	6.265	-3.1797e+05	3032.2	-0.29866	0.07564	0.96136
3.526	6.2094	-3.1797e+05	3031.7	-0.29856	0.075835	0.96107
3.528	6.0883	-3.1797e+05	3031.3	-0.29846	0.07603	0.96077
3.53	5.8654	-3.1797e+05	3031	-0.29836	0.076226	0.96048
3.532	5.7132	-3.1797e+05	3030.7	-0.29827	0.076421	0.96019
3.534	5.7441	-3.1797e+05	3030.4	-0.29817	0.076616	0.9599
3.536	5.8312	-3.1797e+05	3030.2	-0.29817	0.076811	0.9596
3.538	6.0403	-3.1797e+05	3030	-0.29817	0.077006	0.95931
3.54	6.2349	-3.1798e+05	3029.9	-0.29817	0.077202	0.95902
3.542	6.2145	-3.1798e+05	3029.7	-0.29817	0.077397	0.95872
3.544	6.1109	-3.1797e+05	3029.6	-0.29817	0.077592	0.95843
3.546	5.9381	-3.1797e+05	3029.4	-0.29778	0.078373	0.95804
3.548	5.755	-3.1797e+05	3029.3	-0.29739	0.079154	0.95765
3.55	5.7358	-3.1798e+05	3029.2	-0.297	0.079934	0.95726
3.552	5.8289	-3.1798e+05	3029.1	-0.29661	0.080715	0.95687
3.554	5.9883	-3.1797e+05	3029	-0.29622	0.081496	0.95648
3.556	6.184	-3.1797e+05	3028.9	-0.29583	0.08052	0.95755
3.558	6.2459	-3.1797e+05	3028.8	-0.29544	0.079544	0.95863
3.56	6.1582	-3.1797e+05	3028.7	-0.29504	0.078568	0.9597
3.562	6.0102	-3.1797e+05	3028.5	-0.29465	0.077592	0.96077
3.564	5.8212	-3.1798e+05	3028.4	-0.29426	0.076616	0.96185
3.566	5.7162	-3.1797e+05	3028.3	-0.29465	0.076421	0.96224
3.568	5.7577	-3.1797e+05	3028.1	-0.29504	0.076226	0.96263
3.57	5.8701	-3.1798e+05	3027.9	-0.29544	0.07603	0.96302
3.572	6.0713	-3.1798e+05	3027.7	-0.29583	0.075835	0.96341
3.574	6.223	-3.1798e+05	3027.5	-0.29622	0.07564	0.9638
3.576	6.1736	-3.1798e+05	3027.3	-0.29661	0.075738	0.96282
3.578	6.0639	-3.1798e+05	3027.1	-0.297	0.075835	0.96185
3.58	5.878	-3.1797e+05	3027	-0.29739	0.075933	0.96087
3.582	5.6848	-3.1798e+05	3026.8	-0.29778	0.07603	0.9599
3.584	5.7249	-3.1798e+05	3026.6	-0.29817	0.076128	0.95892
3.586	5.8439	-3.1798e+05	3026.4	-0.29758	0.076421	0.95902
3.588	6.0161	-3.1798e+05	3026.2	-0.297	0.076714	0.95912
3.59	6.2337	-3.1798e+05	3026	-0.29641	0.077006	0.95921
3.592	6.2133	-3.1798e+05	3025.8	-0.29583	0.077299	0.95931
3.594	6.098	-3.1798e+05	3025.6	-0.29524	0.077592	0.95941
3.596	5.9449	-3.1799e+05	3025.4	-0.29475	0.077592	0.95941
3.598	5.7046	-3.1799e+05	3025.2	-0.29426	0.077592	0.95941
3.6	5.6804	-3.1799e+05	3025	-0.29378	0.077592	0.95941
3.602	5.7799	-3.1798e+05	3024.8	-0.29329	0.077592	0.95941
3.604	5.916	-3.1798e+05	3024.6	-0.2928	0.077592	0.95941
3.606	6.2187	-3.1798e+05	3024.4	-0.29182	0.077494	0.96019
3.608	6.2603	-3.1798e+05	3024.2	-0.29085	0.077397	0.96097
3.61	6.1561	-3.1798e+05	3024	-0.28987	0.077299	0.96175
3.612	6.0385	-3.1799e+05	3023.7	-0.2889	0.077202	0.96253
3.614	5.7544	-3.1799e+05	3023.5	-0.28792	0.077104	0.96331
3.616	5.6234	-3.1799e+05	3023.3	-0.28704	0.076226	0.964
3.618	5.6957	-3.1799e+05	3023.1	-0.28616	0.075347	0.96468
3.62	5.8514	-3.1798e+05	3022.8	-0.28528	0.074469	0.96536
3.622	6.1205	-3.1799e+05	3022.6	-0.28441	0.07359	0.96604
3.624	6.2492	-3.1799e+05	3022.4	-0.28353	0.072712	0.96673
3.626	6.1824	-3.1799e+05	3022.1	-0.28402	0.073102	0.96761
3.628	6.0632	-3.1799e+05	3021.9	-0.2845	0.073493	0.96848
3.63	5.8543	-3.1799e+05	3021.6	-0.28499	0.073883	0.96936
3.632	5.7017	-3.1799e+05	3021.3	-0.28548	0.074274	0.97024
3.634	5.7246	-3.1799e+05	3021	-0.28597	0.074664	0.97112
3.636	5.833	-3.1799e+05	3020.8	-0.28587	0.074566	0.97024
3.638	6.0301	-3.1799e+05	3020.5	-0.28577	0.074469	0.96936
3.64	6.2093	-3.1799e+05	3020.3	-0.28568	0.074371	0.96848
3.642	6.2091	-3.1799e+05	3020	-0.28558	0.074274	0.96761
3.644	6.1024	-3.1799e+05	3019.8	-0.28548	0.074176	0.96673
3.646	5.9267	-3.1799e+05	3019.5	-0.28489	0.075152	0.96604
3.648	5.7404	-3.1799e+05	3019.2	-0.28431	0.076128	0.96536
3.65	5.7145	-3.18e+05	3018.9	-0.28372	0.077104	0.96468
3.652	5.8059	-3.18e+05	3018.7	-0.28314	0.07808	0.964
3.654	5.9562	-3.18e+05	3018.4	-0.28255	0.079056	0.96331
3.656	6.1653	-3.18e+05	3018.1	-0.28304	0.078178	0.9636
3.658	6.2402	-3.18e+05	3017.9	-0.28353	0.077299	0.9639
3.66	6.152	-3.18e+05	3017.6	-0.28402	0.076421	0.96419
3.662	6.0021	-3.18e+05	3017.3	-0.2845	0.075542	0.96448
3.664	5.7854	-3.18e+05	3017	-0.28499	0.074664	0.96478
3.666	5.6736	-3.18e+05	3016.8	-0.28441	0.074176	0.96439
3.668	5.7455	-3.18e+05	3016.5	-0.28382	0.073688	0.964
3.67	5.8771	-3.1801e+05	3016.3	-0.28324	0.0732	0.9636
3.672	6.1112	-3.1801e+05	3015.9	-0.28265	0.072712	0.96321
3.674	6.2688	-3.1801e+05	3015.6	-0.28206	0.072224	0.96282
3.676	6.1969	-3.1801e+05	3015.3	-0.28245	0.073298	0.96312
3.678	6.1001	-3.1801e+05	3015	-0.28284	0.074371	0.96341
3.68	5.9051	-3.1801e+05	3014.7	-0.28324	0.075445	0.9637
3.682	5.7288	-3.1801e+05	3014.4	-0.28363	0.076518	0.964
3.684	5.7809	-3.1801e+05	3014.1	-0.28402	0.077592	0.96429
3.686	5.8714	-3.1801e+05	3013.8	-0.28431	0.076811	0.9638
3.688	6.0503	-3.1801e+05	3013.6	-0.2846	0.07603	0.96331
3.69	6.2968	-3.1801e+05	3013.3	-0.28489	0.07525	0.96282
3.692	6.2729	-3.1802e+05	3013	-0.28519	0.074469	0.96234
3.694	6.1713	-3.1802e+05	3012.7	-0.28548	0.073688	0.96185
3.696	6.0044	-3.1802e+05	3012.4	-0.2846	0.074274	0.96175
3.698	5.7698	-3.1802e+05	3012.1	-0.28372	0.074859	0.96165
3.7	5.7497	-3.1802e+05	3011.8	-0.28284	0.075445	0.96156
3.702	5.8463	-3.1802e+05	3011.5	-0.28197	0.07603	0.96146
3.704	6.0071	-3.1803e+05	3011.2	-0.28109	0.076616	0.96136
3.706	6.2452	-3.1803e+05	3010.9	-0.28177	0.07603	0.96146
3.708	6.2832	-3.1803e+05	3010.7	-0.28245	0.075445	0.96156
3.71	6.1984	-3.1803e+05	3010.4	-0.28314	0.074859	0.96165
3.712	6.0673	-3.1803e+05	3010.1	-0.28382	0.074274	0.96175
3.714	5.8502	-3.1802e+05	3009.8	-0.2845	0.073688	0.96185
3.716	5.7556	-3.1802e+05	3009.5	-0.28499	0.07359	0.96165
3.718	5.8023	-3.1802e+05	3009.2	-0.28548	0.073493	0.96146
3.72	5.9073	-3.1803e+05	3008.9	-0.28597	0.073395	0.96126
3.722	6.0989	-3.1802e+05	3008.6	-0.28646	0.073298	0.96107
3.724	6.2143	-3.1802e+05	3008.2	-0.28694	0.0732	0.96087
3.726	6.1749	-3.1803e+05	3008	-0.28568	0.074176	0.96146
3.728	6.0568	-3.1804e+05	3007.7	-0.28441	0.075152	0.96204
3.73	5.8539	-3.1804e+05	3007.4	-0.28314	0.076128	0.96263
3.732	5.6879	-3.1804e+05	3007.1	-0.28187	0.077104	0.96321
3.734	5.7051	-3.1803e+05	3006.8	-0.2806	0.07808	0.9638
3.736	5.8259	-3.1803e+05	3006.5	-0.28099	0.077885	0.9639
3.738	6.0104	-3.1804e+05	3006.2	-0.28138	0.07769	0.964
3.74	6.1963	-3.1804e+05	3005.9	-0.28177	0.077494	0.96409
3.742	6.2018	-3.1805e+05	3005.6	-0.28216	0.077299	0.96419
3.744	6.094	-3.1805e+05	3005.3	-0.28255	0.077104	0.96429
3.746	5.9299	-3.1805e+05	3005	-0.28226	0.077299	0.9638
3.748	5.7011	-3.1806e+05	3004.7	-0.28197	0.077494	0.96331
3.75	5.6436	-3.1806e+05	3004.5	-0.28167	0.07769	0.96282
3.752	5.7607	-3.1806e+05	3004.2	-0.28138	0.077885	0.96234
3.754	5.9233	-3.1806e+05	3003.9	-0.28109	0.07808	0.96185
3.756	6.1592	-3.1806e+05	3003.6	-0.28128	0.077982	0.96224
3.758	6.2462	-3.1805e+05	3003.3	-0.28148	0.077885	0.96263
3.76	6.1616	-3.1805e+05	3003	-0.28167	0.077787	0.96302
3.762	6.0291	-3.1805e+05	3002.7	-0.28187	0.07769	0.96341
3.764	5.7727	-3.1806e+05	3002.5	-0.28206	0.077592	0.9638
3.766	5.6362	-3.1805e+05	3002.2	-0.28138	0.077885	0.9637
3.768	5.7253	-3.1805e+05	3002	-0.2807	0.078178	0.9636
3.77	5.8452	-3.1806e+05	3001.8	-0.28001	0.07847	0.96351
3.772	6.0914	-3.1808e+05	3001.5	-0.27933	0.078763	0.96341
3.774	6.2525	-3.1807e+05	3001.3	-0.27865	0.079056	0.96331
3.776	6.1637	-3.1807e+05	3001	-0.27943	0.078275	0.9639
3.778	6.0496	-3.1808e+05	3000.8	-0.28021	0.077494	0.96448
3.78	5.8269	-3.1808e+05	3000.6	-0.28099	0.076714	0.96507
3.782	5.6539	-3.1808e+05	3000.4	-0.28177	0.075933	0.96565
3.784	5.6997	-3.1809e+05	3000.1	-0.28255	0.075152	0.96624
3.786	5.7986	-3.1809e+05	3000	-0.28245	0.074762	0.96673
3.788	5.9912	-3.1809e+05	2999.8	-0.28236	0.074371	0.96722
3.79	6.1868	-3.1809e+05	2999.6	-0.28226	0.073981	0.9677
3.792	6.1747	-3.1809e+05	2999.4	-0.28216	0.07359	0.96819
3.794	6.0778	-3.181e+05	2999.2	-0.28206	0.0732	0.96868
3.796	5.9071	-3.181e+05	2999.1	-0.28255	0.073493	0.96907
3.798	5.7123	-3.181e+05	2998.9	-0.28304	0.073786	0.96946
3.8	5.6834	-3.181e+05	2998.8	-0.28353	0.074078	0.96985
3.802	5.7658	-3.1811e+05	2998.6	-0.28402	0.074371	0.97024
3.804	5.9189	-3.1811e+05	2998.4	-0.2845	0.074664	0.97063
3.806	6.1299	-3.1811e+05	2998.3	-0.28441	0.074176	0.96975
3.808	6.196	-3.1811e+05	2998.2	-0.28431	0.073688	0.96888
3.81	6.1221	-3.1811e+05	2998	-0.28421	0.0732	0.968
3.812	5.9865	-3.1812e+05	2997.9	-0.28411	0.072712	0.96712
3.814	5.7902	-3.1812e+05	2997.8	-0.28402	0.072224	0.96624
3.816	5.713	-3.1811e+05	2997.7	-0.28343	0.072614	0.96614
3.818	5.8211	-3.1812e+05	2997.6	-0.28284	0.073005	0.96604
3.82	5.9831	-3.1813e+05	2997.5	-0.28226	0.073395	0.96595
3.822	6.1865	-3.1813e+05	2997.4	-0.28167	0.073786	0.96585
3.824	6.3154	-3.1813e+05	2997.2	-0.28109	0.074176	0.96575
3.826	6.2499	-3.1813e+05	2997.2	-0.28138	0.074371	0.96575
3.828	6.141	-3.1813e+05	2997.1	-0.28167	0.074566	0.96575
3.83	5.9761	-3.1813e+05	2997	-0.28197	0.074762	0.96575
3.832	5.7752	-3.1813e+05	2996.9	-0.28226	0.074957	0.96575
3.834	5.7512	-3.1814e+05	2996.8	-0.28255	0.075152	0.96575
3.836	5.8143	-3.1814e+05	2996.7	-0.28226	0.074957	0.96565
3.838	5.9273	-3.1814e+05	2996.6	-0.28197	0.074762	0.96556
3.84	6.0401	-3.1814e+05	2996.5	-0.28167	0.074566	0.96546
3.842	5.9422	-3.1815e+05	2996.4	-0.28138	0.074371	0.96536
3.844	5.7392	-3.1816e+05	2996.3	-0.28109	0.074176	0.96526
3.846	5.5226	-3.1816e+05	2996.2	-0.28255	0.073298	0.96536
3.848	5.3	-3.1815e+05	2996.1	-0.28402	0.072419	0.96546
3.85	5.2768	-3.1816e+05	2996	-0.28548	0.071541	0.96556
3.852	5.3894	-3.1817e+05	2995.8	-0.28694	0.070662	0.96565
3.854	5.5233	-3.1817e+05	2995.6	-0.28841	0.069784	0.96575
3.856	5.7814	-3.1817e+05	2995.5	-0.28763	0.069686	0.96546
3.858	5.891	-3.1818e+05	2995.3	-0.28685	0.069589	0.96517
3.86	5.7999	-3.1819e+05	2995.2	-0.28607	0.069491	0.96487
3.862	5.7086	-3.1819e+05	2995	-0.28528	0.069394	0.96458
3.864	5.5091	-3.1818e+05	2994.9	-0.2845	0.069296	0.96429
3.866	5.4389	-3.1819e+05	2994.7	-0.2845	0.069784	0.96429
3.868	5.5251	-3.1819e+05	2994.6	-0.2845	0.070272	0.96429
3.87	5.647	-3.1819e+05	2994.4	-0.2845	0.07076	0.96429
3.872	5.9091	-3.1819e+05	2994.2	-0.2845	0.071248	0.96429
3.874	6.0703	-3.1819e+05	2994	-0.2845	0.071736	0.96429
3.876	6.029	-3.1819e+05	2993.8	-0.28499	0.072126	0.96507
3.878	5.95	-3.182e+05	2993.6	-0.28548	0.072517	0.96585
3.88	5.7733	-3.1821e+05	2993.4	-0.28597	0.072907	0.96663
3.882	5.6175	-3.1821e+05	2993.2	-0.28646	0.073298	0.96741
3.884	5.6351	-3.1821e+05	2992.9	-0.28694	0.073688	0.96819
3.886	5.7361	-3.1821e+05	2992.7	-0.28665	0.074469	0.96741
3.888	5.9392	-3.1822e+05	2992.5	-0.28636	0.07525	0.96663
3.89	6.1387	-3.1822e+05	2992.3	-0.28607	0.07603	0.96585
3.892	6.1564	-3.1822e+05	2992.1	-0.28577	0.076811	0.96507
3.894	6.0746	-3.1822e+05	2991.9	-0.28548	0.077592	0.96429
3.896	5.919	-3.1822e+05	2991.6	-0.2848	0.07769	0.9639
3.898	5.7201	-3.1823e+05	2991.4	-0.28411	0.077787	0.96351
3.9	5.6659	-3.1823e+05	2991.2	-0.28343	0.077885	0.96312
3.902	5.7661	-3.1823e+05	2990.9	-0.28275	0.077982	0.96273
3.904	5.9243	-3.1824e+05	2990.7	-0.28206	0.07808	0.96234
3.906	6.1212	-3.1824e+05	2990.4	-0.28411	0.078178	0.96146
3.908	6.2264	-3.1823e+05	2990.2	-0.28616	0.078275	0.96058
3.91	6.1573	-3.1824e+05	2990	-0.28821	0.078373	0.9597
3.912	6.009	-3.1824e+05	2989.8	-0.29026	0.07847	0.95882
3.914	5.8085	-3.1825e+05	2989.6	-0.29231	0.078568	0.95794
3.916	5.6652	-3.1826e+05	2989.4	-0.29202	0.078958	0.95687
3.918	5.7255	-3.1826e+05	2989.2	-0.29173	0.079349	0.9558
3.92	5.8732	-3.1826e+05	2989.1	-0.29143	0.079739	0.95472
3.922	6.0773	-3.1825e+05	2988.9	-0.29114	0.08013	0.95365
3.924	6.2441	-3.1825e+05	2988.7	-0.29085	0.08052	0.95258
3.926	6.1877	-3.1826e+05	2988.5	-0.29202	0.08013	0.95316
3.928	6.0484	-3.1826e+05	2988.3	-0.29319	0.079739	0.95375
3.93	5.8657	-3.1826e+05	2988	-0.29436	0.079349	0.95433
3.932	5.6606	-3.1827e+05	2987.8	-0.29553	0.078958	0.95492
3.934	5.6854	-3.1828e+05	2987.5	-0.2967	0.078568	0.9555
3.936	5.8219	-3.1829e+05	2987.3	-0.29612	0.079056	0.95687
3.938	5.9947	-3.1829e+05	2987	-0.29553	0.079544	0.95824
3.94	6.2368	-3.1828e+05	2986.8	-0.29495	0.080032	0.9596
3.942	6.2118	-3.1828e+05	2986.5	-0.29436	0.08052	0.96097
3.944	6.1005	-3.1829e+05	2986.3	-0.29378	0.081008	0.96234
3.946	5.9589	-3.1828e+05	2986.1	-0.2926	0.080422	0.96282
3.948	5.7075	-3.1828e+05	2985.9	-0.29143	0.079837	0.96331
3.95	5.6777	-3.1829e+05	2985.7	-0.29026	0.079251	0.9638
3.952	5.7832	-3.183e+05	2985.5	-0.28909	0.078666	0.96429
3.954	5.9221	-3.183e+05	2985.4	-0.28792	0.07808	0.96478
3.956	6.1746	-3.183e+05	2985.2	-0.28802	0.077885	0.96517
3.958	6.2451	-3.183e+05	2985.1	-0.28812	0.07769	0.96556
3.96	6.1606	-3.183e+05	2985.1	-0.28821	0.077494	0.96595
3.962	6.039	-3.183e+05	2985.1	-0.28831	0.077299	0.96634
3.964	5.8079	-3.1831e+05	2985.1	-0.28841	0.077104	0.96673
3.966	5.7055	-3.1831e+05	2985.4	-0.28782	0.076714	0.96604
3.968	5.7672	-3.1831e+05	2985.8	-0.28724	0.076323	0.96536
3.97	5.8742	-3.1832e+05	2986.4	-0.28665	0.075933	0.96468
3.972	6.0846	-3.1833e+05	2987.3	-0.28607	0.075542	0.964
3.974	6.2251	-3.1833e+05	2988.2	-0.28548	0.075152	0.96331
3.976	6.1872	-3.1834e+05	2989.7	-0.28685	0.075835	0.96107
3.978	6.0916	-3.1834e+05	2991.3	-0.28821	0.076518	0.95882
3.98	5.9223	-3.1834e+05	2993.3	-0.28958	0.077202	0.95658
3.982	5.7459	-3.1834e+05	2995.9	-0.29095	0.077885	0.95433
3.984	5.7156	-3.1834e+05	2998.5	-0.29231	0.078568	0.95209
3.986	5.8177	-3.1835e+05	3002	-0.29163	0.078275	0.95199
3.988	6.0163	-3.1836e+05	3005.5	-0.29095	0.077982	0.95189
3.99	6.2197	-3.1836e+05	3009.5	-0.29026	0.07769	0.9518
3.992	6.2571	-3.1835e+05	3013.9	-0.28958	0.077397	0.9517
3.994	6.1594	-3.1835e+05	3018.4	-0.2889	0.077104	0.9516
3.996	6.0064	-3.1835e+05	3023.5	-0.29231	0.077787	0.95228
3.998	5.8063	-3.1836e+05	3028.6	-0.29573	0.07847	0.95297
4	5.7223	-3.1836e+05	3033.9	-0.29914	0.079154	0.95365
4.002	5.7994	-3.1836e+05	3039.4	-0.30256	0.079837	0.95433
4.004	5.9555	-3.1836e+05	3044.9	-0.30598	0.08052	0.95502
4.006	6.1814	-3.1836e+05	3050.5	-0.30334	0.078861	0.95677
4.008	6.2982	-3.1836e+05	3056.1	-0.30071	0.077202	0.95853
4.01	6.2319	-3.1836e+05	3061.4	-0.29807	0.075542	0.96029
4.012	6.1104	-3.1836e+05	3066.5	-0.29544	0.073883	0.96204
4.014	5.8919	-3.1836e+05	3071.5	-0.2928	0.072224	0.9638
4.016	5.7492	-3.1836e+05	3074.1	-0.2927	0.073298	0.96497
4.018	5.8175	-3.1835e+05	3076.7	-0.2926	0.074371	0.96614
4.02	5.9392	-3.1835e+05	3078.7	-0.29251	0.075445	0.96731
4.022	6.1969	-3.1834e+05	3080.2	-0.29241	0.076518	0.96848
4.024	6.3879	-3.1834e+05	3081.6	-0.29231	0.077592	0.96966
4.026	6.2748	-3.1834e+05	3082.6	-0.29182	0.076909	0.96897
4.028	6.1669	-3.1834e+05	3083.6	-0.29134	0.076226	0.96829
4.03	6.01	-3.1833e+05	3084.5	-0.29085	0.075542	0.96761
4.032	5.7925	-3.1833e+05	3085.4	-0.29036	0.074859	0.96692
4.034	5.8301	-3.1832e+05	3086.3	-0.28987	0.074176	0.96624
4.036	5.9614	-3.1832e+05	3087.1	-0.28977	0.073981	0.96653
4.038	6.1323	-3.1831e+05	3087.9	-0.28968	0.073786	0.96683
4.04	6.3269	-3.1831e+05	3088.8	-0.28958	0.07359	0.96712
4.042	6.331	-3.183e+05	3089.8	-0.28948	0.073395	0.96741
4.044	6.2526	-3.1829e+05	3090.7	-0.28938	0.0732	0.9677
4.046	6.1153	-3.1828e+05	3091.7	-0.28909	0.072614	0.96673
4.048	5.8911	-3.1828e+05	3092.7	-0.2888	0.072029	0.96575
4.05	5.8406	-3.1827e+05	3093.7	-0.28851	0.071443	0.96478
4.052	5.925	-3.1827e+05	3094.8	-0.28821	0.070858	0.9638
4.054	6.0733	-3.1827e+05	3095.9	-0.28792	0.070272	0.96282
4.056	6.2935	-3.1826e+05	3096.9	-0.28685	0.070662	0.96312
4.058	6.3725	-3.1826e+05	3097.9	-0.28577	0.071053	0.96341
4.06	6.3017	-3.1826e+05	3099	-0.2847	0.071443	0.9637
4.062	6.1602	-3.1825e+05	3100.1	-0.28363	0.071834	0.964
4.064	5.9539	-3.1825e+05	3101.2	-0.28255	0.072224	0.96429
4.066	5.8557	-3.1824e+05	3102.3	-0.28187	0.073493	0.96409
4.068	5.9033	-3.1822e+05	3103.4	-0.28119	0.074762	0.9639
4.07	6.0179	-3.1822e+05	3104.6	-0.2805	0.07603	0.9637
4.072	6.2137	-3.1822e+05	3105.7	-0.27982	0.077299	0.96351
4.074	6.3519	-3.1822e+05	3106.8	-0.27914	0.078568	0.96331
4.076	6.3181	-3.1821e+05	3107.9	-0.27894	0.077885	0.9638
4.078	6.2074	-3.1821e+05	3108.9	-0.27875	0.077202	0.96429
4.08	6.0193	-3.182e+05	3109.9	-0.27855	0.076518	0.96478
4.082	5.8328	-3.182e+05	3111	-0.27836	0.075835	0.96526
4.084	5.8316	-3.1819e+05	3112	-0.27816	0.075152	0.96575
4.086	5.9188	-3.1818e+05	3112.8	-0.27992	0.07525	0.96429
4.088	6.0782	-3.1818e+05	3113.7	-0.28167	0.075347	0.96282
4.09	6.3005	-3.1817e+05	3114.5	-0.28343	0.075445	0.96136
4.092	6.3211	-3.1815e+05	3115.1	-0.28519	0.075542	0.9599
4.094	6.2092	-3.1815e+05	3115.8	-0.28694	0.07564	0.95843
4.096	6.0881	-3.1815e+05	3116.3	-0.28704	0.075542	0.95843
4.098	5.8627	-3.1815e+05	3116.8	-0.28714	0.075445	0.95843
4.1	5.7533	-3.1815e+05	3117.2	-0.28724	0.075347	0.95843
4.102	5.8561	-3.1814e+05	3117.5	-0.28733	0.07525	0.95843
4.104	5.9749	-3.1812e+05	3117.7	-0.28743	0.075152	0.95843
4.106	6.2048	-3.1811e+05	3117.9	-0.28685	0.075445	0.95902
4.108	6.3015	-3.181e+05	3118	-0.28626	0.075738	0.9596
4.11	6.1984	-3.1809e+05	3118	-0.28568	0.07603	0.96019
4.112	6.0944	-3.1809e+05	3117.8	-0.28509	0.076323	0.96077
4.114	5.8502	-3.1808e+05	3117.7	-0.2845	0.076616	0.96136
4.116	5.7083	-3.1807e+05	3117.5	-0.28402	0.07769	0.96107
4.118	5.7617	-3.1806e+05	3117.4	-0.28353	0.078763	0.96077
4.12	5.8611	-3.1805e+05	3117.1	-0.28304	0.079837	0.96048
4.122	6.0807	-3.1804e+05	3116.7	-0.28255	0.08091	0.96019
4.124	6.2569	-3.1803e+05	3116.4	-0.28206	0.081984	0.9599
4.126	6.1904	-3.1803e+05	3115.9	-0.28206	0.080813	0.96029
4.128	6.0653	-3.1802e+05	3115.3	-0.28206	0.079642	0.96068
4.13	5.8502	-3.1802e+05	3114.8	-0.28206	0.07847	0.96107
4.132	5.6786	-3.1802e+05	3114.2	-0.28206	0.077299	0.96146
4.134	5.7291	-3.1802e+05	3113.6	-0.28206	0.076128	0.96185
4.136	5.8165	-3.1801e+05	3112.8	-0.28197	0.076518	0.96165
4.138	5.9919	-3.18e+05	3112.1	-0.28187	0.076909	0.96146
4.14	6.1897	-3.1799e+05	3111.3	-0.28177	0.077299	0.96126
4.142	6.1966	-3.1799e+05	3110.6	-0.28167	0.07769	0.96107
4.144	6.1051	-3.1799e+05	3109.8	-0.28158	0.07808	0.96087
4.146	5.9533	-3.1798e+05	3108.9	-0.28099	0.078275	0.96165
4.148	5.7461	-3.1797e+05	3108.1	-0.2804	0.07847	0.96243
4.15	5.6642	-3.1796e+05	3107.2	-0.27982	0.078666	0.96321
4.152	5.7309	-3.1796e+05	3106.3	-0.27923	0.078861	0.964
4.154	5.8894	-3.1795e+05	3105.4	-0.27865	0.079056	0.96478
4.156	6.0992	-3.1795e+05	3104.5	-0.27884	0.07808	0.96468
4.158	6.1882	-3.1794e+05	3103.6	-0.27904	0.077104	0.96458
4.16	6.1187	-3.1793e+05	3102.6	-0.27923	0.076128	0.96448
4.162	5.9906	-3.1792e+05	3101.6	-0.27943	0.075152	0.96439
4.164	5.8021	-3.1791e+05	3100.6	-0.27962	0.074176	0.96429
4.166	5.6679	-3.1791e+05	3099.6	-0.28089	0.073786	0.96321
4.168	5.6997	-3.1791e+05	3098.6	-0.28216	0.073395	0.96214
4.17	5.8089	-3.1791e+05	3097.6	-0.28343	0.073005	0.96107
4.172	6.0064	-3.1791e+05	3096.6	-0.2847	0.072614	0.95999
4.174	6.186	-3.179e+05	3095.6	-0.28597	0.072224	0.95892
4.176	6.155	-3.179e+05	3094.5	-0.28538	0.072517	0.96019
4.178	6.0285	-3.179e+05	3093.5	-0.2848	0.07281	0.96146
4.18	5.8496	-3.1789e+05	3092.4	-0.28421	0.073102	0.96273
4.182	5.6542	-3.1789e+05	3091.4	-0.28363	0.073395	0.964
4.184	5.6791	-3.1788e+05	3090.4	-0.28304	0.073688	0.96526
4.186	5.7924	-3.1787e+05	3089.3	-0.28245	0.073493	0.96526
4.188	5.9424	-3.1787e+05	3088.2	-0.28187	0.073298	0.96526
4.19	6.2006	-3.1787e+05	3087.1	-0.28128	0.073102	0.96526
4.192	6.2058	-3.1787e+05	3085.9	-0.2807	0.072907	0.96526
4.194	6.0553	-3.1786e+05	3084.7	-0.28011	0.072712	0.96526
4.196	5.9317	-3.1786e+05	3083.5	-0.28206	0.07281	0.96624
4.198	5.6928	-3.1784e+05	3082.2	-0.28402	0.072907	0.96722
4.2	5.6295	-3.1783e+05	3080.8	-0.28597	0.073005	0.96819
4.202	5.7281	-3.1782e+05	3079.4	-0.28792	0.073102	0.96917
4.204	5.8447	-3.1782e+05	3078	-0.28987	0.0732	0.97014
4.206	6.0913	-3.1782e+05	3076.4	-0.29104	0.074078	0.97024
4.208	6.1836	-3.1783e+05	3074.8	-0.29221	0.074957	0.97034
4.21	6.1144	-3.1783e+05	3073.1	-0.29339	0.075835	0.97044
