t	ekg	optical	pressure	accel_x	accel_y	accel_z
0	11.58	-3.1709e+05	3005.6	-0.33516	0.041675	0.95199
0.002	11.704	-3.1709e+05	3005.4	-0.33496	0.041578	0.9518
0.004	11.705	-3.1709e+05	3005.2	-0.33477	0.04148	0.9516
0.006	11.607	-3.171e+05	3005	-0.33457	0.041382	0.9514
0.008	11.405	-3.171e+05	3004.8	-0.33438	0.041285	0.95121
0.01	11.249	-3.1711e+05	3004.6	-0.33418	0.041187	0.95101
0.012	11.256	-3.1712e+05	3004.4	-0.33399	0.04109	0.95082
0.014	11.337	-3.1712e+05	3004.3	-0.33379	0.040992	0.95062
0.016	11.519	-3.1712e+05	3004.1	-0.33389	0.041187	0.95023
0.018	11.686	-3.1711e+05	3003.8	-0.33399	0.041382	0.94984
0.02	11.699	-3.1711e+05	3003.6	-0.33408	0.041578	0.94945
0.022	11.627	-3.1712e+05	3003.4	-0.33418	0.041773	0.94906
0.024	11.471	-3.1713e+05	3003.2	-0.33428	0.041968	0.94867
0.026	11.291	-3.1713e+05	3003.1	-0.33408	0.042066	0.94887
0.028	11.227	-3.1713e+05	3003	-0.33389	0.042163	0.94906
0.03	11.27	-3.1713e+05	3002.8	-0.33369	0.042261	0.94926
0.032	11.418	-3.1712e+05	3002.6	-0.3335	0.042358	0.94945
0.034	11.623	-3.1713e+05	3002.4	-0.3333	0.042456	0.94965
0.036	11.706	-3.1713e+05	3002.2	-0.33291	0.042358	0.94945
0.038	11.658	-3.1713e+05	3002.1	-0.33252	0.042261	0.94926
0.04	11.537	-3.1714e+05	3001.9	-0.33213	0.042163	0.94906
0.042	11.356	-3.1714e+05	3001.7	-0.33174	0.042066	0.94887
0.044	11.249	-3.1714e+05	3001.5	-0.33135	0.041968	0.94867
0.046	11.258	-3.1715e+05	3001.4	-0.33223	0.043042	0.94857
0.048	11.355	-3.1715e+05	3001.2	-0.33311	0.044115	0.94848
0.05	11.57	-3.1715e+05	3001.1	-0.33399	0.045189	0.94838
0.052	11.713	-3.1716e+05	3000.9	-0.33487	0.046262	0.94828
0.054	11.682	-3.1716e+05	3000.8	-0.33574	0.047336	0.94818
0.056	11.588	-3.1716e+05	3000.7	-0.33584	0.047336	0.94789
0.058	11.398	-3.1717e+05	3000.5	-0.33594	0.047336	0.9476
0.06	11.261	-3.1717e+05	3000.4	-0.33604	0.047336	0.94731
0.062	11.294	-3.1717e+05	3000.3	-0.33613	0.047336	0.94701
0.064	11.366	-3.1717e+05	3000.1	-0.33623	0.047336	0.94672
0.066	11.522	-3.1717e+05	3000.1	-0.33779	0.047824	0.94565
0.068	11.692	-3.1717e+05	3000	-0.33936	0.048312	0.94457
0.07	11.691	-3.1717e+05	2999.9	-0.34092	0.0488	0.9435
0.072	11.648	-3.1718e+05	2999.8	-0.34248	0.049288	0.94243
0.074	11.56	-3.1718e+05	2999.6	-0.34404	0.049776	0.94135
0.076	11.366	-3.1717e+05	2999.5	-0.34404	0.049776	0.94155
0.078	11.35	-3.1718e+05	2999.4	-0.34404	0.049776	0.94174
0.08	11.418	-3.1719e+05	2999.3	-0.34404	0.049776	0.94194
0.082	11.555	-3.1719e+05	2999.2	-0.34404	0.049776	0.94213
0.084	11.755	-3.1719e+05	2999.1	-0.34404	0.049776	0.94233
0.086	11.814	-3.172e+05	2999	-0.34384	0.048995	0.94262
0.088	11.714	-3.1721e+05	2998.8	-0.34365	0.048214	0.94291
0.09	11.538	-3.1721e+05	2998.7	-0.34345	0.047434	0.94321
0.092	11.306	-3.1721e+05	2998.6	-0.34326	0.046653	0.9435
0.094	11.146	-3.1721e+05	2998.5	-0.34306	0.045872	0.94379
0.096	11.068	-3.1721e+05	2998.4	-0.34277	0.046848	0.94379
0.098	11.064	-3.1722e+05	2998.3	-0.34248	0.047824	0.94379
0.1	11.197	-3.1723e+05	2998.1	-0.34219	0.0488	0.94379
0.102	11.311	-3.1723e+05	2998	-0.34189	0.049776	0.94379
0.104	11.292	-3.1723e+05	2997.9	-0.3416	0.050752	0.94379
0.106	11.209	-3.1723e+05	2997.7	-0.3414	0.050362	0.94369
0.108	11.062	-3.1723e+05	2997.5	-0.34121	0.049971	0.9436
0.11	10.941	-3.1723e+05	2997.4	-0.34101	0.049581	0.9435
0.112	10.937	-3.1724e+05	2997.3	-0.34082	0.04919	0.9434
0.114	11.004	-3.1724e+05	2997.1	-0.34062	0.0488	0.9433
0.116	11.178	-3.1725e+05	2997	-0.34014	0.048995	0.94399
0.118	11.392	-3.1725e+05	2996.9	-0.33965	0.04919	0.94467
0.12	11.462	-3.1725e+05	2996.7	-0.33916	0.049386	0.94535
0.122	11.433	-3.1725e+05	2996.6	-0.33867	0.049581	0.94604
0.124	11.325	-3.1724e+05	2996.5	-0.33818	0.049776	0.94672
0.126	11.147	-3.1725e+05	2996.3	-0.33779	0.049483	0.94643
0.128	11.103	-3.1726e+05	2996.2	-0.3374	0.04919	0.94613
0.13	11.194	-3.1726e+05	2996	-0.33701	0.048898	0.94584
0.132	11.353	-3.1726e+05	2995.8	-0.33662	0.048605	0.94555
0.134	11.561	-3.1726e+05	2995.6	-0.33623	0.048312	0.94526
0.136	11.648	-3.1726e+05	2995.4	-0.33692	0.04919	0.94555
0.138	11.627	-3.1727e+05	2995.3	-0.3376	0.050069	0.94584
0.14	11.546	-3.1727e+05	2995.1	-0.33828	0.050947	0.94613
0.142	11.339	-3.1727e+05	2994.9	-0.33896	0.051826	0.94643
0.144	11.232	-3.1727e+05	2994.8	-0.33965	0.052704	0.94672
0.146	11.268	-3.1727e+05	2994.6	-0.33838	0.050654	0.9477
0.148	11.345	-3.1727e+05	2994.4	-0.33711	0.048605	0.94867
0.15	11.582	-3.1728e+05	2994.2	-0.33584	0.046555	0.94965
0.152	11.721	-3.1729e+05	2994	-0.33457	0.044506	0.95062
0.154	11.679	-3.173e+05	2993.8	-0.3333	0.042456	0.9516
0.156	11.649	-3.173e+05	2993.6	-0.33399	0.043432	0.9514
0.158	11.454	-3.173e+05	2993.5	-0.33467	0.044408	0.95121
0.16	11.283	-3.173e+05	2993.3	-0.33535	0.045384	0.95101
0.162	11.298	-3.1731e+05	2993.1	-0.33604	0.04636	0.95082
0.164	11.36	-3.1732e+05	2992.9	-0.33672	0.047336	0.95062
0.166	11.523	-3.1732e+05	2992.8	-0.33682	0.047531	0.94906
0.168	11.728	-3.1732e+05	2992.6	-0.33692	0.047726	0.9475
0.17	11.756	-3.1732e+05	2992.4	-0.33701	0.047922	0.94594
0.172	11.671	-3.1732e+05	2992.3	-0.33711	0.048117	0.94438
0.174	11.513	-3.1732e+05	2992.1	-0.33721	0.048312	0.94282
0.176	11.338	-3.1733e+05	2992	-0.33867	0.048312	0.94223
0.178	11.293	-3.1734e+05	2991.8	-0.34014	0.048312	0.94164
0.18	11.33	-3.1734e+05	2991.6	-0.3416	0.048312	0.94106
0.182	11.463	-3.1734e+05	2991.5	-0.34306	0.048312	0.94047
0.184	11.692	-3.1734e+05	2991.3	-0.34453	0.048312	0.93989
0.186	11.791	-3.1734e+05	2991.1	-0.34433	0.048995	0.94018
0.188	11.734	-3.1735e+05	2990.9	-0.34414	0.049678	0.94047
0.19	11.578	-3.1735e+05	2990.7	-0.34394	0.050362	0.94077
0.192	11.374	-3.1735e+05	2990.5	-0.34375	0.051045	0.94106
0.194	11.273	-3.1735e+05	2990.3	-0.34355	0.051728	0.94135
0.196	11.3	-3.1736e+05	2990.1	-0.34267	0.052216	0.94204
0.198	11.42	-3.1736e+05	2990	-0.3418	0.052704	0.94272
0.2	11.625	-3.1737e+05	2989.8	-0.34092	0.053192	0.9434
0.202	11.749	-3.1737e+05	2989.6	-0.34004	0.05368	0.94408
0.204	11.723	-3.1737e+05	2989.5	-0.33916	0.054168	0.94477
0.206	11.652	-3.1738e+05	2989.3	-0.33906	0.053875	0.94506
0.208	11.48	-3.1738e+05	2989.2	-0.33896	0.053582	0.94535
0.21	11.307	-3.1738e+05	2989.1	-0.33887	0.05329	0.94565
0.212	11.323	-3.1738e+05	2989	-0.33877	0.052997	0.94594
0.214	11.414	-3.1738e+05	2988.9	-0.33867	0.052704	0.94623
0.216	11.569	-3.1739e+05	2989	-0.33857	0.052118	0.94623
0.218	11.744	-3.1739e+05	2989	-0.33848	0.051533	0.94623
0.22	11.773	-3.174e+05	2989.1	-0.33838	0.050947	0.94623
0.222	11.708	-3.174e+05	2989.3	-0.33828	0.050362	0.94623
0.224	11.573	-3.174e+05	2989.5	-0.33818	0.049776	0.94623
0.226	11.356	-3.1741e+05	2990	-0.33945	0.049483	0.94516
0.228	11.299	-3.1741e+05	2990.4	-0.34072	0.04919	0.94408
0.23	11.359	-3.1741e+05	2991.1	-0.34199	0.048898	0.94301
0.232	11.476	-3.1741e+05	2991.9	-0.34326	0.048605	0.94194
0.234	11.709	-3.1741e+05	2992.8	-0.34453	0.048312	0.94086
0.236	11.786	-3.1742e+05	2994.2	-0.34404	0.048507	0.94038
0.238	11.732	-3.1742e+05	2995.5	-0.34355	0.048702	0.93989
0.24	11.655	-3.1742e+05	2997.2	-0.34306	0.048898	0.9394
0.242	11.429	-3.1742e+05	2999	-0.34258	0.049093	0.93891
0.244	11.32	-3.1743e+05	3000.9	-0.34209	0.049288	0.93842
0.246	11.381	-3.1743e+05	3003.3	-0.34258	0.049776	0.93881
0.248	11.472	-3.1743e+05	3005.7	-0.34306	0.050264	0.9392
0.25	11.69	-3.1743e+05	3008.3	-0.34355	0.050752	0.9396
0.252	11.821	-3.1743e+05	3010.9	-0.34404	0.05124	0.93999
0.254	11.802	-3.1743e+05	3013.6	-0.34453	0.051728	0.94038
0.256	11.752	-3.1744e+05	3016.4	-0.34414	0.051045	0.94116
0.258	11.572	-3.1744e+05	3019.2	-0.34375	0.050362	0.94194
0.26	11.401	-3.1745e+05	3022	-0.34336	0.049678	0.94272
0.262	11.384	-3.1745e+05	3024.7	-0.34297	0.048995	0.9435
0.264	11.449	-3.1745e+05	3027.4	-0.34258	0.048312	0.94428
0.266	11.64	-3.1744e+05	3029.9	-0.3418	0.048702	0.94487
0.268	11.814	-3.1743e+05	3032.3	-0.34101	0.049093	0.94545
0.27	11.862	-3.1743e+05	3034.6	-0.34023	0.049483	0.94604
0.272	11.821	-3.1743e+05	3036.8	-0.33945	0.049874	0.94662
0.274	11.657	-3.1743e+05	3039	-0.33867	0.050264	0.94721
0.276	11.468	-3.1743e+05	3040.9	-0.33945	0.049483	0.94662
0.278	11.415	-3.1743e+05	3042.9	-0.34023	0.048702	0.94604
0.28	11.47	-3.1742e+05	3044.8	-0.34101	0.047922	0.94545
0.282	11.62	-3.1742e+05	3046.7	-0.3418	0.047141	0.94487
0.284	11.829	-3.1741e+05	3048.5	-0.34258	0.04636	0.94428
0.286	11.929	-3.1741e+05	3050.2	-0.34228	0.046165	0.94448
0.288	11.901	-3.174e+05	3051.8	-0.34199	0.04597	0.94467
0.29	11.788	-3.174e+05	3053.3	-0.3417	0.045774	0.94487
0.292	11.582	-3.1739e+05	3054.7	-0.3414	0.045579	0.94506
0.294	11.458	-3.1738e+05	3056.1	-0.34111	0.045384	0.94526
0.296	11.491	-3.1738e+05	3057.2	-0.34062	0.046067	0.94555
0.298	11.594	-3.1738e+05	3058.2	-0.34014	0.04675	0.94584
0.3	11.824	-3.1737e+05	3059	-0.33965	0.047434	0.94613
0.302	12.013	-3.1737e+05	3059.7	-0.33916	0.048117	0.94643
0.304	11.97	-3.1736e+05	3060.3	-0.33867	0.0488	0.94672
0.306	11.867	-3.1736e+05	3060.8	-0.33916	0.048995	0.94584
0.308	11.679	-3.1735e+05	3061.3	-0.33965	0.04919	0.94496
0.31	11.489	-3.1735e+05	3061.7	-0.34014	0.049386	0.94408
0.312	11.48	-3.1735e+05	3062.2	-0.34062	0.049581	0.94321
0.314	11.557	-3.1733e+05	3062.6	-0.34111	0.049776	0.94233
0.316	11.774	-3.1731e+05	3062.9	-0.33984	0.048605	0.94399
0.318	11.98	-3.1731e+05	3063.2	-0.33857	0.047434	0.94565
0.32	11.984	-3.173e+05	3063.5	-0.33731	0.046262	0.94731
0.322	11.913	-3.173e+05	3063.8	-0.33604	0.045091	0.94896
0.324	11.75	-3.173e+05	3064.1	-0.33477	0.04392	0.95062
0.326	11.531	-3.1729e+05	3064.3	-0.33438	0.04353	0.95121
0.328	11.514	-3.1728e+05	3064.5	-0.33399	0.043139	0.9518
0.33	11.565	-3.1727e+05	3064.7	-0.3336	0.042749	0.95238
0.332	11.676	-3.1727e+05	3064.8	-0.33321	0.042358	0.95297
0.334	11.895	-3.1726e+05	3065	-0.33282	0.041968	0.95355
0.336	11.956	-3.1725e+05	3065.1	-0.33223	0.042846	0.95209
0.338	11.907	-3.1724e+05	3065.2	-0.33164	0.043725	0.95062
0.34	11.793	-3.1724e+05	3065.2	-0.33106	0.044603	0.94916
0.342	11.569	-3.1723e+05	3065.3	-0.33047	0.045482	0.9477
0.344	11.45	-3.1722e+05	3065.4	-0.32989	0.04636	0.94623
0.346	11.466	-3.1722e+05	3065.4	-0.32979	0.046262	0.94594
0.348	11.555	-3.1722e+05	3065.5	-0.32969	0.046165	0.94565
0.35	11.755	-3.172e+05	3065.5	-0.3296	0.046067	0.94535
0.352	11.879	-3.1718e+05	3065.6	-0.3295	0.04597	0.94506
0.354	11.859	-3.1717e+05	3065.6	-0.3294	0.045872	0.94477
0.356	11.769	-3.1717e+05	3065.5	-0.32911	0.046165	0.94506
0.358	11.574	-3.1716e+05	3065.5	-0.32881	0.046458	0.94535
0.36	11.397	-3.1715e+05	3065.5	-0.32852	0.04675	0.94565
0.362	11.368	-3.1715e+05	3065.4	-0.32823	0.047043	0.94594
0.364	11.436	-3.1715e+05	3065.4	-0.32794	0.047336	0.94623
0.366	11.599	-3.1714e+05	3065.3	-0.32969	0.048117	0.94496
0.368	11.775	-3.1714e+05	3065.3	-0.33145	0.048898	0.94369
0.37	11.809	-3.1713e+05	3065.2	-0.33321	0.049678	0.94243
0.372	11.737	-3.1711e+05	3065.1	-0.33496	0.050459	0.94116
0.374	11.592	-3.1711e+05	3065	-0.33672	0.05124	0.93989
0.376	11.403	-3.171e+05	3064.9	-0.33692	0.051533	0.94038
0.378	11.321	-3.1709e+05	3064.7	-0.33711	0.051826	0.94086
0.38	11.352	-3.1708e+05	3064.6	-0.33731	0.052118	0.94135
0.382	11.488	-3.1708e+05	3064.5	-0.3375	0.052411	0.94184
0.384	11.73	-3.1708e+05	3064.3	-0.3377	0.052704	0.94233
0.386	11.806	-3.1706e+05	3064.2	-0.33711	0.052509	0.94223
0.388	11.739	-3.1705e+05	3064	-0.33652	0.052314	0.94213
0.39	11.651	-3.1704e+05	3063.9	-0.33594	0.052118	0.94204
0.392	11.458	-3.1703e+05	3063.7	-0.33535	0.051923	0.94194
0.394	11.322	-3.1703e+05	3063.5	-0.33477	0.051728	0.94184
0.396	11.351	-3.1702e+05	3063.4	-0.33496	0.050557	0.94252
0.398	11.454	-3.1702e+05	3063.2	-0.33516	0.049386	0.94321
0.4	11.646	-3.1701e+05	3063	-0.33535	0.048214	0.94389
0.402	11.77	-3.1701e+05	3062.8	-0.33555	0.047043	0.94457
0.404	11.749	-3.1701e+05	3062.6	-0.33574	0.045872	0.94526
0.406	11.694	-3.17e+05	3062.4	-0.33408	0.046555	0.94526
0.408	11.518	-3.1699e+05	3062.2	-0.33243	0.047238	0.94526
0.41	11.339	-3.1698e+05	3062	-0.33077	0.047922	0.94526
0.412	11.321	-3.1698e+05	3061.8	-0.32911	0.048605	0.94526
0.414	11.378	-3.1697e+05	3061.5	-0.32745	0.049288	0.94526
0.416	11.539	-3.1695e+05	3061.2	-0.32813	0.047531	0.94535
0.418	11.726	-3.1695e+05	3061	-0.32881	0.045774	0.94545
0.42	11.75	-3.1695e+05	3060.7	-0.3295	0.044018	0.94555
0.422	11.705	-3.1694e+05	3060.5	-0.33018	0.042261	0.94565
0.424	11.551	-3.1693e+05	3060.2	-0.33086	0.040504	0.94574
0.426	11.326	-3.1692e+05	3059.9	-0.33038	0.041675	0.94565
0.428	11.3	-3.1692e+05	3059.7	-0.32989	0.042846	0.94555
0.43	11.356	-3.1692e+05	3059.4	-0.3294	0.044018	0.94545
0.432	11.473	-3.1692e+05	3059.1	-0.32891	0.045189	0.94535
0.434	11.671	-3.1691e+05	3058.8	-0.32842	0.04636	0.94526
0.436	11.767	-3.1689e+05	3058.5	-0.32823	0.045872	0.94623
0.438	11.735	-3.169e+05	3058.2	-0.32803	0.045384	0.94721
0.44	11.618	-3.169e+05	3057.9	-0.32784	0.044896	0.94818
0.442	11.402	-3.1689e+05	3057.6	-0.32764	0.044408	0.94916
0.444	11.245	-3.1688e+05	3057.3	-0.32745	0.04392	0.95014
0.446	11.27	-3.1687e+05	3057	-0.32745	0.045286	0.94926
0.448	11.421	-3.1686e+05	3056.7	-0.32745	0.046653	0.94838
0.45	11.635	-3.1685e+05	3056.3	-0.32745	0.048019	0.9475
0.452	11.767	-3.1684e+05	3056	-0.32745	0.049386	0.94662
0.454	11.752	-3.1684e+05	3055.6	-0.32745	0.050752	0.94574
0.456	11.664	-3.1684e+05	3055.2	-0.32823	0.049483	0.94574
0.458	11.487	-3.1684e+05	3054.8	-0.32901	0.048214	0.94574
0.46	11.305	-3.1684e+05	3054.4	-0.32979	0.046946	0.94574
0.462	11.288	-3.1683e+05	3054	-0.33057	0.045677	0.94574
0.464	11.387	-3.1682e+05	3053.6	-0.33135	0.044408	0.94574
0.466	11.548	-3.1682e+05	3053.1	-0.33272	0.044896	0.94721
0.468	11.727	-3.1682e+05	3052.6	-0.33408	0.045384	0.94867
0.47	11.779	-3.1681e+05	3052.1	-0.33545	0.045872	0.95014
0.472	11.701	-3.168e+05	3051.5	-0.33682	0.04636	0.9516
0.474	11.561	-3.168e+05	3050.9	-0.33818	0.046848	0.95306
0.476	11.337	-3.168e+05	3050.2	-0.33828	0.046458	0.95345
0.478	11.244	-3.168e+05	3049.6	-0.33838	0.046067	0.95384
0.48	11.31	-3.168e+05	3048.8	-0.33848	0.045677	0.95424
0.482	11.473	-3.168e+05	3048.1	-0.33857	0.045286	0.95463
0.484	11.707	-3.1679e+05	3047.3	-0.33867	0.044896	0.95502
0.486	11.795	-3.1679e+05	3046.5	-0.33828	0.045677	0.95394
0.488	11.734	-3.1679e+05	3045.7	-0.33789	0.046458	0.95287
0.49	11.625	-3.1678e+05	3044.9	-0.3375	0.047238	0.9518
0.492	11.4	-3.1677e+05	3044.1	-0.33711	0.048019	0.95072
0.494	11.279	-3.1677e+05	3043.3	-0.33672	0.0488	0.94965
0.496	11.311	-3.1677e+05	3042.5	-0.33682	0.047629	0.95043
0.498	11.398	-3.1676e+05	3041.8	-0.33692	0.046458	0.95121
0.5	11.625	-3.1676e+05	3041	-0.33701	0.045286	0.95199
0.502	11.772	-3.1676e+05	3040.3	-0.33711	0.044115	0.95277
0.504	11.758	-3.1676e+05	3039.6	-0.33721	0.042944	0.95355
0.506	11.698	-3.1676e+05	3038.9	-0.3375	0.043432	0.95287
0.508	11.483	-3.1676e+05	3038.2	-0.33779	0.04392	0.95219
0.51	11.311	-3.1676e+05	3037.6	-0.33809	0.044408	0.9515
0.512	11.295	-3.1676e+05	3037.1	-0.33838	0.044896	0.95082
0.514	11.356	-3.1675e+05	3036.5	-0.33867	0.045384	0.95014
0.516	11.548	-3.1675e+05	3036	-0.33789	0.04431	0.94994
0.518	11.744	-3.1675e+05	3035.5	-0.33711	0.043237	0.94975
0.52	11.781	-3.1675e+05	3035	-0.33633	0.042163	0.94955
0.522	11.736	-3.1675e+05	3034.6	-0.33555	0.04109	0.94936
0.524	11.593	-3.1675e+05	3034.1	-0.33477	0.040016	0.94916
0.526	11.388	-3.1675e+05	3033.7	-0.33574	0.041187	0.94945
0.528	11.299	-3.1675e+05	3033.4	-0.33672	0.042358	0.94975
0.53	11.334	-3.1674e+05	3033.1	-0.3377	0.04353	0.95004
0.532	11.474	-3.1674e+05	3032.8	-0.33867	0.044701	0.95033
0.534	11.678	-3.1674e+05	3032.5	-0.33965	0.045872	0.95062
0.536	11.772	-3.1674e+05	3032.3	-0.33984	0.045482	0.9514
0.538	11.737	-3.1674e+05	3032.1	-0.34004	0.045091	0.95219
0.54	11.635	-3.1674e+05	3031.8	-0.34023	0.044701	0.95297
0.542	11.454	-3.1674e+05	3031.6	-0.34043	0.04431	0.95375
0.544	11.311	-3.1674e+05	3031.4	-0.34062	0.04392	0.95453
0.546	11.317	-3.1674e+05	3031.3	-0.33994	0.044603	0.95326
0.548	11.43	-3.1673e+05	3031.2	-0.33926	0.045286	0.95199
0.55	11.628	-3.1674e+05	3031.1	-0.33857	0.04597	0.95072
0.552	11.787	-3.1675e+05	3031	-0.33789	0.046653	0.94945
0.554	11.763	-3.1675e+05	3030.8	-0.33721	0.047336	0.94818
0.556	11.66	-3.1674e+05	3030.7	-0.33731	0.046653	0.94867
0.558	11.493	-3.1675e+05	3030.6	-0.3374	0.04597	0.94916
0.56	11.317	-3.1675e+05	3030.5	-0.3375	0.045286	0.94965
0.562	11.279	-3.1675e+05	3030.4	-0.3376	0.044603	0.95014
0.564	11.316	-3.1675e+05	3030.3	-0.3377	0.04392	0.95062
0.566	11.491	-3.1675e+05	3030.2	-0.33789	0.044506	0.95062
0.568	11.769	-3.1674e+05	3030.1	-0.33809	0.045091	0.95062
0.57	11.802	-3.1675e+05	3030	-0.33828	0.045677	0.95062
0.572	11.725	-3.1675e+05	3029.9	-0.33848	0.046262	0.95062
0.574	11.593	-3.1675e+05	3029.8	-0.33867	0.046848	0.95062
0.576	11.355	-3.1675e+05	3029.7	-0.33896	0.046262	0.94994
0.578	11.283	-3.1674e+05	3029.6	-0.33926	0.045677	0.94926
0.58	11.331	-3.1674e+05	3029.5	-0.33955	0.045091	0.94857
0.582	11.436	-3.1675e+05	3029.4	-0.33984	0.044506	0.94789
0.584	11.682	-3.1675e+05	3029.3	-0.34014	0.04392	0.94721
0.586	11.81	-3.1675e+05	3029.2	-0.33936	0.044115	0.9477
0.588	11.764	-3.1674e+05	3029.1	-0.33857	0.04431	0.94818
0.59	11.662	-3.1675e+05	3029	-0.33779	0.044506	0.94867
0.592	11.421	-3.1675e+05	3028.9	-0.33701	0.044701	0.94916
0.594	11.29	-3.1675e+05	3028.8	-0.33623	0.044896	0.94965
0.596	11.315	-3.1675e+05	3028.7	-0.33731	0.045189	0.94994
0.598	11.401	-3.1675e+05	3028.6	-0.33838	0.045482	0.95023
0.6	11.605	-3.1675e+05	3028.5	-0.33945	0.045774	0.95053
0.602	11.736	-3.1675e+05	3028.3	-0.34053	0.046067	0.95082
0.604	11.729	-3.1676e+05	3028.2	-0.3416	0.04636	0.95111
0.606	11.69	-3.1675e+05	3028	-0.34092	0.04675	0.95033
0.608	11.533	-3.1675e+05	3027.9	-0.34023	0.047141	0.94955
0.61	11.356	-3.1675e+05	3027.8	-0.33955	0.047531	0.94877
0.612	11.311	-3.1675e+05	3027.6	-0.33887	0.047922	0.94799
0.614	11.367	-3.1676e+05	3027.5	-0.33818	0.048312	0.94721
0.616	11.524	-3.1676e+05	3027.3	-0.33799	0.047726	0.94857
0.618	11.704	-3.1675e+05	3027.2	-0.33779	0.047141	0.94994
0.62	11.758	-3.1675e+05	3027	-0.3376	0.046555	0.95131
0.622	11.698	-3.1676e+05	3026.8	-0.3374	0.04597	0.95267
0.624	11.575	-3.1677e+05	3026.6	-0.33721	0.045384	0.95404
0.626	11.411	-3.1676e+05	3026.4	-0.33643	0.044896	0.95365
0.628	11.315	-3.1676e+05	3026.2	-0.33565	0.044408	0.95326
0.63	11.345	-3.1676e+05	3025.9	-0.33487	0.04392	0.95287
0.632	11.484	-3.1676e+05	3025.7	-0.33408	0.043432	0.95248
0.634	11.686	-3.1676e+05	3025.5	-0.3333	0.042944	0.95209
0.636	11.785	-3.1677e+05	3025.4	-0.33252	0.042846	0.9517
0.638	11.742	-3.1677e+05	3025.2	-0.33174	0.042749	0.95131
0.64	11.628	-3.1676e+05	3025	-0.33096	0.042651	0.95092
0.642	11.433	-3.1677e+05	3024.8	-0.33018	0.042554	0.95053
0.644	11.29	-3.1677e+05	3024.6	-0.3294	0.042456	0.95014
0.646	11.329	-3.1677e+05	3024.4	-0.32999	0.041773	0.95004
0.648	11.445	-3.1677e+05	3024.2	-0.33057	0.04109	0.94994
0.65	11.621	-3.1677e+05	3024	-0.33116	0.040406	0.94984
0.652	11.755	-3.1677e+05	3023.8	-0.33174	0.039723	0.94975
0.654	11.702	-3.1677e+05	3023.7	-0.33233	0.03904	0.94965
0.656	11.632	-3.1677e+05	3023.4	-0.33145	0.040406	0.94955
0.658	11.516	-3.1677e+05	3023.2	-0.33057	0.041773	0.94945
0.66	11.319	-3.1677e+05	3022.9	-0.32969	0.043139	0.94936
0.662	11.29	-3.1677e+05	3022.7	-0.32881	0.044506	0.94926
0.664	11.375	-3.1677e+05	3022.4	-0.32794	0.045872	0.94916
0.666	11.55	-3.1677e+05	3022.1	-0.32813	0.045384	0.94926
0.668	11.746	-3.1677e+05	3021.8	-0.32833	0.044896	0.94936
0.67	11.759	-3.1678e+05	3021.5	-0.32852	0.044408	0.94945
0.672	11.728	-3.1679e+05	3021.3	-0.32872	0.04392	0.94955
0.674	11.601	-3.1679e+05	3021.1	-0.32891	0.043432	0.94965
0.676	11.365	-3.1679e+05	3020.8	-0.32911	0.043237	0.94984
0.678	11.287	-3.1679e+05	3020.6	-0.3293	0.043042	0.95004
0.68	11.341	-3.1679e+05	3020.3	-0.3295	0.042846	0.95023
0.682	11.47	-3.1679e+05	3020.1	-0.32969	0.042651	0.95043
0.684	11.692	-3.1679e+05	3019.9	-0.32989	0.042456	0.95062
0.686	11.777	-3.1679e+05	3019.7	-0.3296	0.042554	0.95062
0.688	11.748	-3.1679e+05	3019.5	-0.3293	0.042651	0.95062
0.69	11.639	-3.1679e+05	3019.2	-0.32901	0.042749	0.95062
0.692	11.429	-3.1679e+05	3018.9	-0.32872	0.042846	0.95062
0.694	11.319	-3.168e+05	3018.6	-0.32842	0.042944	0.95062
0.696	11.346	-3.168e+05	3018.4	-0.32813	0.04353	0.95023
0.698	11.436	-3.168e+05	3018.2	-0.32784	0.044115	0.94984
0.7	11.626	-3.168e+05	3018	-0.32755	0.044701	0.94945
0.702	11.768	-3.168e+05	3017.7	-0.32725	0.045286	0.94906
0.704	11.761	-3.168e+05	3017.4	-0.32696	0.045872	0.94867
0.706	11.689	-3.1681e+05	3017.2	-0.32696	0.045384	0.94936
0.708	11.53	-3.1681e+05	3016.9	-0.32696	0.044896	0.95004
0.71	11.367	-3.1682e+05	3016.7	-0.32696	0.044408	0.95072
0.712	11.348	-3.1682e+05	3016.4	-0.32696	0.04392	0.9514
0.714	11.431	-3.1682e+05	3016.1	-0.32696	0.043432	0.95209
0.716	11.587	-3.1681e+05	3015.9	-0.32735	0.042456	0.95121
0.718	11.768	-3.1681e+05	3015.6	-0.32774	0.04148	0.95033
0.72	11.822	-3.1681e+05	3015.4	-0.32813	0.040504	0.94945
0.722	11.761	-3.1682e+05	3015.2	-0.32852	0.039528	0.94857
0.724	11.63	-3.1682e+05	3015	-0.32891	0.038552	0.9477
0.726	11.421	-3.1682e+05	3014.8	-0.3296	0.039235	0.94867
0.728	11.333	-3.1683e+05	3014.6	-0.33028	0.039918	0.94965
0.73	11.4	-3.1683e+05	3014.4	-0.33096	0.040602	0.95062
0.732	11.513	-3.1683e+05	3014.1	-0.33164	0.041285	0.9516
0.734	11.723	-3.1683e+05	3013.9	-0.33233	0.041968	0.95258
0.736	11.834	-3.1684e+05	3013.7	-0.33174	0.041773	0.9517
0.738	11.797	-3.1684e+05	3013.5	-0.33116	0.041578	0.95082
0.74	11.717	-3.1684e+05	3013.3	-0.33057	0.041382	0.94994
0.742	11.502	-3.1685e+05	3013	-0.32999	0.041187	0.94906
0.744	11.33	-3.1685e+05	3012.8	-0.3294	0.040992	0.94818
0.746	11.315	-3.1686e+05	3012.6	-0.33057	0.040699	0.94926
0.748	11.386	-3.1686e+05	3012.3	-0.33174	0.040406	0.95033
0.75	11.643	-3.1686e+05	3012.1	-0.33291	0.040114	0.9514
0.752	11.787	-3.1686e+05	3011.9	-0.33408	0.039821	0.95248
0.754	11.709	-3.1686e+05	3011.7	-0.33526	0.039528	0.95355
0.756	11.681	-3.1686e+05	3011.5	-0.33545	0.040602	0.95345
0.758	11.556	-3.1686e+05	3011.3	-0.33565	0.041675	0.95336
0.76	11.338	-3.1686e+05	3011.1	-0.33584	0.042749	0.95326
0.762	11.277	-3.1686e+05	3010.9	-0.33604	0.043822	0.95316
0.764	11.329	-3.1686e+05	3010.8	-0.33623	0.044896	0.95306
0.766	11.492	-3.1687e+05	3010.6	-0.33613	0.043627	0.95287
0.768	11.68	-3.1688e+05	3010.4	-0.33604	0.042358	0.95267
0.77	11.724	-3.1688e+05	3010.2	-0.33594	0.04109	0.95248
0.772	11.712	-3.1689e+05	3010.1	-0.33584	0.039821	0.95228
0.774	11.583	-3.1689e+05	3009.9	-0.33574	0.038552	0.95209
0.776	11.383	-3.1689e+05	3009.7	-0.33643	0.039918	0.95209
0.778	11.295	-3.1689e+05	3009.6	-0.33711	0.041285	0.95209
0.78	11.315	-3.1688e+05	3009.4	-0.33779	0.042651	0.95209
0.782	11.443	-3.1689e+05	3009.3	-0.33848	0.044018	0.95209
0.784	11.653	-3.1689e+05	3009.1	-0.33916	0.045384	0.95209
0.786	11.74	-3.169e+05	3008.9	-0.33936	0.044896	0.95258
0.788	11.713	-3.169e+05	3008.8	-0.33955	0.044408	0.95306
0.79	11.631	-3.169e+05	3008.6	-0.33975	0.04392	0.95355
0.792	11.432	-3.1691e+05	3008.4	-0.33994	0.043432	0.95404
0.794	11.28	-3.1691e+05	3008.2	-0.34014	0.042944	0.95453
0.796	11.297	-3.1691e+05	3008.1	-0.34033	0.043237	0.95482
0.798	11.391	-3.1692e+05	3008	-0.34053	0.04353	0.95511
0.8	11.562	-3.1692e+05	3007.8	-0.34072	0.043822	0.95541
0.802	11.733	-3.1692e+05	3007.7	-0.34092	0.044115	0.9557
0.804	11.747	-3.1692e+05	3007.5	-0.34111	0.044408	0.95599
0.806	11.659	-3.1692e+05	3007.4	-0.34101	0.043725	0.9556
0.808	11.486	-3.1692e+05	3007.2	-0.34092	0.043042	0.95521
0.81	11.301	-3.1692e+05	3007.1	-0.34082	0.042358	0.95482
0.812	11.275	-3.1692e+05	3007	-0.34072	0.041675	0.95443
0.814	11.34	-3.1693e+05	3006.8	-0.34062	0.040992	0.95404
0.816	11.491	-3.1693e+05	3006.7	-0.34062	0.041187	0.95375
0.818	11.702	-3.1695e+05	3006.6	-0.34062	0.041382	0.95345
0.82	11.754	-3.1697e+05	3006.5	-0.34062	0.041578	0.95316
0.822	11.693	-3.1697e+05	3006.4	-0.34062	0.041773	0.95287
0.824	11.564	-3.1697e+05	3006.3	-0.34062	0.041968	0.95258
0.826	11.322	-3.1697e+05	3006.2	-0.34043	0.042749	0.95258
0.828	11.258	-3.1697e+05	3006	-0.34023	0.04353	0.95258
0.83	11.33	-3.1697e+05	3005.9	-0.34004	0.04431	0.95258
0.832	11.406	-3.1697e+05	3005.8	-0.33984	0.045091	0.95258
0.834	11.658	-3.1698e+05	3005.7	-0.33965	0.045872	0.95258
0.836	11.763	-3.1699e+05	3005.6	-0.33867	0.044408	0.95248
0.838	11.748	-3.1698e+05	3005.5	-0.3377	0.042944	0.95238
0.84	11.649	-3.1698e+05	3005.5	-0.33672	0.04148	0.95228
0.842	11.395	-3.1699e+05	3005.4	-0.33574	0.040016	0.95219
0.844	11.227	-3.17e+05	3005.3	-0.33477	0.038552	0.95209
0.846	11.283	-3.1701e+05	3005.2	-0.33535	0.03904	0.9514
0.848	11.42	-3.1701e+05	3005.1	-0.33594	0.039528	0.95072
0.85	11.64	-3.17e+05	3005	-0.33652	0.040016	0.95004
0.852	11.8	-3.1699e+05	3005	-0.33711	0.040504	0.94936
0.854	11.816	-3.17e+05	3004.9	-0.3377	0.040992	0.94867
0.856	11.772	-3.17e+05	3004.9	-0.33711	0.040504	0.94857
0.858	11.604	-3.1701e+05	3004.8	-0.33652	0.040016	0.94848
0.86	11.445	-3.1702e+05	3004.7	-0.33594	0.039528	0.94838
0.862	11.423	-3.1702e+05	3004.6	-0.33535	0.03904	0.94828
0.864	11.463	-3.1701e+05	3004.5	-0.33477	0.038552	0.94818
0.866	11.605	-3.1701e+05	3004.4	-0.33496	0.039138	0.94789
0.868	11.77	-3.1701e+05	3004.3	-0.33516	0.039723	0.9476
0.87	11.752	-3.1702e+05	3004.2	-0.33535	0.040309	0.94731
0.872	11.609	-3.1702e+05	3004.1	-0.33555	0.040894	0.94701
0.874	11.384	-3.1703e+05	3004	-0.33574	0.04148	0.94672
0.876	11.116	-3.1704e+05	3003.9	-0.33555	0.042163	0.94731
0.878	10.949	-3.1704e+05	3003.7	-0.33535	0.042846	0.94789
0.88	10.932	-3.1704e+05	3003.6	-0.33516	0.04353	0.94848
0.882	11.045	-3.1704e+05	3003.4	-0.33496	0.044213	0.94906
0.884	11.238	-3.1704e+05	3003.3	-0.33477	0.044896	0.94965
0.886	11.377	-3.1705e+05	3003.2	-0.33467	0.044115	0.94926
0.888	11.393	-3.1705e+05	3003	-0.33457	0.043334	0.94887
0.89	11.302	-3.1706e+05	3002.9	-0.33448	0.042554	0.94848
0.892	11.126	-3.1706e+05	3002.7	-0.33438	0.041773	0.94809
0.894	10.991	-3.1706e+05	3002.5	-0.33428	0.040992	0.9477
0.896	11.016	-3.1707e+05	3002.4	-0.33457	0.040992	0.9477
0.898	11.141	-3.1708e+05	3002.2	-0.33487	0.040992	0.9477
0.9	11.345	-3.1708e+05	3002.1	-0.33516	0.040992	0.9477
0.902	11.548	-3.1708e+05	3001.9	-0.33545	0.040992	0.9477
0.904	11.57	-3.1708e+05	3001.7	-0.33574	0.040992	0.9477
0.906	11.503	-3.1708e+05	3001.6	-0.33643	0.041578	0.94809
0.908	11.349	-3.1708e+05	3001.4	-0.33711	0.042163	0.94848
0.91	11.188	-3.1709e+05	3001.2	-0.33779	0.042749	0.94887
0.912	11.211	-3.1709e+05	3001	-0.33848	0.043334	0.94926
0.914	11.27	-3.171e+05	3000.8	-0.33916	0.04392	0.94965
0.916	11.423	-3.171e+05	3000.6	-0.33916	0.044798	0.94848
0.918	11.67	-3.171e+05	3000.4	-0.33916	0.045677	0.94731
0.92	11.713	-3.171e+05	3000.3	-0.33916	0.046555	0.94613
0.922	11.665	-3.1711e+05	3000.1	-0.33916	0.047434	0.94496
0.924	11.547	-3.1712e+05	2999.9	-0.33916	0.048312	0.94379
0.926	11.3	-3.1712e+05	2999.7	-0.33955	0.047922	0.94448
0.928	11.248	-3.1713e+05	2999.5	-0.33994	0.047531	0.94516
0.93	11.322	-3.1713e+05	2999.3	-0.34033	0.047141	0.94584
0.932	11.433	-3.1714e+05	2999.1	-0.34072	0.04675	0.94652
0.934	11.666	-3.1714e+05	2998.9	-0.34111	0.04636	0.94721
0.936	11.765	-3.1714e+05	2998.6	-0.33965	0.04597	0.9475
0.938	11.714	-3.1714e+05	2998.4	-0.33818	0.045579	0.94779
0.94	11.627	-3.1714e+05	2998.2	-0.33672	0.045189	0.94809
0.942	11.443	-3.1714e+05	2997.9	-0.33526	0.044798	0.94838
0.944	11.31	-3.1714e+05	2997.7	-0.33379	0.044408	0.94867
0.946	11.325	-3.1714e+05	2997.5	-0.33467	0.044018	0.94857
0.948	11.409	-3.1715e+05	2997.3	-0.33555	0.043627	0.94848
0.95	11.603	-3.1716e+05	2997.1	-0.33643	0.043237	0.94838
0.952	11.763	-3.1717e+05	2996.9	-0.33731	0.042846	0.94828
0.954	11.769	-3.1717e+05	2996.7	-0.33818	0.042456	0.94818
0.956	11.696	-3.1718e+05	2996.5	-0.33926	0.042846	0.94701
0.958	11.519	-3.1718e+05	2996.3	-0.34033	0.043237	0.94584
0.96	11.339	-3.1718e+05	2996.1	-0.3414	0.043627	0.94467
0.962	11.282	-3.1718e+05	2995.9	-0.34248	0.044018	0.9435
0.964	11.339	-3.1719e+05	2995.7	-0.34355	0.044408	0.94233
0.966	11.533	-3.1719e+05	2995.5	-0.34297	0.044701	0.94311
0.968	11.742	-3.1719e+05	2995.2	-0.34238	0.044994	0.94389
0.97	11.788	-3.172e+05	2995	-0.3418	0.045286	0.94467
0.972	11.728	-3.1721e+05	2994.7	-0.34121	0.045579	0.94545
0.974	11.587	-3.1721e+05	2994.4	-0.34062	0.045872	0.94623
0.976	11.379	-3.1721e+05	2994.1	-0.33984	0.045872	0.94643
0.978	11.297	-3.1721e+05	2993.9	-0.33906	0.045872	0.94662
0.98	11.355	-3.1722e+05	2993.6	-0.33828	0.045872	0.94682
0.982	11.466	-3.1722e+05	2993.4	-0.3375	0.045872	0.94701
0.984	11.664	-3.1722e+05	2993.2	-0.33672	0.045872	0.94721
0.986	11.793	-3.1722e+05	2993	-0.3375	0.045189	0.94828
0.988	11.754	-3.1723e+05	2992.8	-0.33828	0.044506	0.94936
0.99	11.656	-3.1723e+05	2992.6	-0.33906	0.043822	0.95043
0.992	11.463	-3.1723e+05	2992.5	-0.33984	0.043139	0.9515
0.994	11.308	-3.1723e+05	2992.3	-0.34062	0.042456	0.95258
0.996	11.337	-3.1724e+05	2992.2	-0.34101	0.042944	0.95238
0.998	11.433	-3.1724e+05	2992.1	-0.3414	0.043432	0.95219
1	11.612	-3.1725e+05	2992.1	-0.3418	0.04392	0.95199
1.002	11.823	-3.1725e+05	2992.1	-0.34219	0.044408	0.9518
1.004	11.773	-3.1725e+05	2992.1	-0.34258	0.044896	0.9516
1.006	11.694	-3.1725e+05	2992.4	-0.3416	0.044701	0.9514
1.008	11.547	-3.1726e+05	2992.7	-0.34062	0.044506	0.95121
1.01	11.352	-3.1726e+05	2993.1	-0.33965	0.04431	0.95101
1.012	11.344	-3.1727e+05	2993.7	-0.33867	0.044115	0.95082
1.014	11.385	-3.1727e+05	2994.3	-0.3377	0.04392	0.95062
1.016	11.549	-3.1727e+05	2995.3	-0.33672	0.043432	0.95014
1.018	11.796	-3.1727e+05	2996.4	-0.33574	0.042944	0.94965
1.02	11.826	-3.1727e+05	2997.7	-0.33477	0.042456	0.94916
1.022	11.771	-3.1727e+05	2999.3	-0.33379	0.041968	0.94867
1.024	11.65	-3.1728e+05	3000.9	-0.33282	0.04148	0.94818
1.026	11.44	-3.1728e+05	3003.1	-0.3336	0.042358	0.9474
1.028	11.363	-3.1728e+05	3005.3	-0.33438	0.043237	0.94662
1.03	11.398	-3.1729e+05	3007.7	-0.33516	0.044115	0.94584
1.032	11.522	-3.1729e+05	3010.4	-0.33594	0.044994	0.94506
1.034	11.741	-3.173e+05	3013	-0.33672	0.045872	0.94428
1.036	11.848	-3.1731e+05	3015.8	-0.33672	0.045091	0.94633
1.038	11.815	-3.1731e+05	3018.6	-0.33672	0.04431	0.94838
1.04	11.713	-3.1731e+05	3021.4	-0.33672	0.04353	0.95043
1.042	11.53	-3.1731e+05	3024.1	-0.33672	0.042749	0.95248
1.044	11.421	-3.1731e+05	3026.8	-0.33672	0.041968	0.95453
1.046	11.435	-3.1731e+05	3029.4	-0.33877	0.041285	0.95453
1.048	11.52	-3.173e+05	3031.9	-0.34082	0.040602	0.95453
1.05	11.701	-3.1731e+05	3034.2	-0.34287	0.039918	0.95453
1.052	11.865	-3.1731e+05	3036.4	-0.34492	0.039235	0.95453
1.054	11.873	-3.173e+05	3038.7	-0.34697	0.038552	0.95453
1.056	11.784	-3.173e+05	3040.6	-0.3456	0.039626	0.95365
1.058	11.646	-3.173e+05	3042.5	-0.34424	0.040699	0.95277
1.06	11.496	-3.173e+05	3044.2	-0.34287	0.041773	0.95189
1.062	11.445	-3.1729e+05	3045.9	-0.3415	0.042846	0.95101
1.064	11.519	-3.1729e+05	3047.5	-0.34014	0.04392	0.95014
1.066	11.702	-3.1729e+05	3049	-0.33984	0.043822	0.95053
1.068	11.905	-3.1728e+05	3050.5	-0.33955	0.043725	0.95092
1.07	11.968	-3.1728e+05	3052	-0.33926	0.043627	0.95131
1.072	11.913	-3.1727e+05	3053.3	-0.33896	0.04353	0.9517
1.074	11.774	-3.1727e+05	3054.7	-0.33867	0.043432	0.95209
1.076	11.529	-3.1727e+05	3055.8	-0.33838	0.043237	0.95219
1.078	11.459	-3.1726e+05	3057	-0.33809	0.043042	0.95228
1.08	11.514	-3.1726e+05	3058	-0.33779	0.042846	0.95238
1.082	11.637	-3.1726e+05	3058.9	-0.3375	0.042651	0.95248
1.084	11.858	-3.1726e+05	3059.9	-0.33721	0.042456	0.95258
1.086	11.986	-3.1725e+05	3060.5	-0.33867	0.042261	0.95297
1.088	11.943	-3.1724e+05	3061.1	-0.34014	0.042066	0.95336
1.09	11.878	-3.1724e+05	3061.6	-0.3416	0.04187	0.95375
1.092	11.66	-3.1724e+05	3062.1	-0.34306	0.041675	0.95414
1.094	11.493	-3.1723e+05	3062.5	-0.34453	0.04148	0.95453
1.096	11.526	-3.1723e+05	3062.9	-0.34306	0.040309	0.95384
1.098	11.593	-3.1723e+05	3063.2	-0.3416	0.039138	0.95316
1.1	11.804	-3.1722e+05	3063.5	-0.34014	0.037966	0.95248
1.102	11.971	-3.1721e+05	3063.8	-0.33867	0.036795	0.9518
1.104	11.955	-3.1719e+05	3064.1	-0.33721	0.035624	0.95111
1.106	11.891	-3.1719e+05	3064.3	-0.33623	0.035331	0.95033
1.108	11.718	-3.1719e+05	3064.4	-0.33526	0.035038	0.94955
1.11	11.523	-3.1718e+05	3064.6	-0.33428	0.034746	0.94877
1.112	11.488	-3.1717e+05	3064.7	-0.3333	0.034453	0.94799
1.114	11.529	-3.1716e+05	3064.8	-0.33233	0.03416	0.94721
1.116	11.684	-3.1715e+05	3064.8	-0.33233	0.03416	0.94652
1.118	11.868	-3.1715e+05	3064.9	-0.33233	0.03416	0.94584
1.12	11.907	-3.1715e+05	3064.9	-0.33233	0.03416	0.94516
1.122	11.863	-3.1714e+05	3064.9	-0.33233	0.03416	0.94448
1.124	11.733	-3.1713e+05	3064.9	-0.33233	0.03416	0.94379
1.126	11.519	-3.1713e+05	3064.9	-0.33233	0.034746	0.94369
1.128	11.407	-3.1712e+05	3064.9	-0.33233	0.035331	0.9436
1.13	11.45	-3.1712e+05	3064.8	-0.33233	0.035917	0.9435
1.132	11.57	-3.1712e+05	3064.8	-0.33233	0.036502	0.9434
1.134	11.76	-3.1711e+05	3064.8	-0.33233	0.037088	0.9433
1.136	11.888	-3.1709e+05	3064.7	-0.33311	0.037576	0.94379
1.138	11.851	-3.1709e+05	3064.6	-0.33389	0.038064	0.94428
1.14	11.722	-3.1709e+05	3064.5	-0.33467	0.038552	0.94477
1.142	11.53	-3.1708e+05	3064.4	-0.33545	0.03904	0.94526
1.144	11.376	-3.1708e+05	3064.3	-0.33623	0.039528	0.94574
1.146	11.379	-3.1707e+05	3064.2	-0.33477	0.039918	0.94623
1.148	11.47	-3.1706e+05	3064.1	-0.3333	0.040309	0.94672
1.15	11.641	-3.1706e+05	3063.9	-0.33184	0.040699	0.94721
1.152	11.804	-3.1706e+05	3063.8	-0.33038	0.04109	0.9477
1.154	11.794	-3.1705e+05	3063.6	-0.32891	0.04148	0.94818
1.156	11.721	-3.1705e+05	3063.4	-0.3293	0.041773	0.94838
1.158	11.576	-3.1704e+05	3063.2	-0.32969	0.042066	0.94857
1.16	11.385	-3.1703e+05	3063.1	-0.33008	0.042358	0.94877
1.162	11.347	-3.1702e+05	3062.9	-0.33047	0.042651	0.94896
1.164	11.391	-3.1702e+05	3062.8	-0.33086	0.042944	0.94916
1.166	11.523	-3.1701e+05	3062.6	-0.33125	0.04187	0.94828
1.168	11.747	-3.1701e+05	3062.4	-0.33164	0.040797	0.9474
1.17	11.786	-3.17e+05	3062.2	-0.33204	0.039723	0.94652
1.172	11.735	-3.1699e+05	3062	-0.33243	0.03865	0.94565
1.174	11.62	-3.1699e+05	3061.9	-0.33282	0.037576	0.94477
1.176	11.373	-3.1699e+05	3061.6	-0.33418	0.038259	0.94467
1.178	11.285	-3.1698e+05	3061.4	-0.33555	0.038942	0.94457
1.18	11.358	-3.1698e+05	3061.2	-0.33692	0.039626	0.94448
1.182	11.458	-3.1697e+05	3061	-0.33828	0.040309	0.94438
1.184	11.68	-3.1696e+05	3060.8	-0.33965	0.040992	0.94428
1.186	11.792	-3.1696e+05	3060.5	-0.33916	0.040114	0.94448
1.188	11.757	-3.1696e+05	3060.2	-0.33867	0.039235	0.94467
1.19	11.657	-3.1695e+05	3059.9	-0.33818	0.038357	0.94487
1.192	11.426	-3.1694e+05	3059.6	-0.3377	0.037478	0.94506
1.194	11.278	-3.1693e+05	3059.3	-0.33721	0.0366	0.94526
1.196	11.288	-3.1693e+05	3059	-0.3374	0.037381	0.94604
1.198	11.381	-3.1693e+05	3058.8	-0.3376	0.038162	0.94682
1.2	11.596	-3.1693e+05	3058.5	-0.33779	0.038942	0.9476
1.202	11.763	-3.1692e+05	3058.2	-0.33799	0.039723	0.94838
1.204	11.796	-3.1692e+05	3057.9	-0.33818	0.040504	0.94916
1.206	11.733	-3.1691e+05	3057.6	-0.33731	0.03943	0.94887
1.208	11.562	-3.1689e+05	3057.3	-0.33643	0.038357	0.94857
1.21	11.392	-3.1689e+05	3057	-0.33555	0.037283	0.94828
1.212	11.332	-3.1689e+05	3056.7	-0.33467	0.03621	0.94799
1.214	11.349	-3.1689e+05	3056.4	-0.33379	0.035136	0.9477
1.216	11.488	-3.1689e+05	3056	-0.33467	0.036307	0.94731
1.218	11.687	-3.1688e+05	3055.7	-0.33555	0.037478	0.94692
1.22	11.757	-3.1687e+05	3055.4	-0.33643	0.03865	0.94652
1.222	11.708	-3.1687e+05	3055.1	-0.33731	0.039821	0.94613
1.224	11.581	-3.1687e+05	3054.8	-0.33818	0.040992	0.94574
1.226	11.39	-3.1687e+05	3054.4	-0.33789	0.040699	0.94613
1.228	11.291	-3.1686e+05	3054	-0.3376	0.040406	0.94652
1.23	11.328	-3.1685e+05	3053.6	-0.33731	0.040114	0.94692
1.232	11.436	-3.1684e+05	3053.2	-0.33701	0.039821	0.94731
1.234	11.627	-3.1683e+05	3052.8	-0.33672	0.039528	0.9477
1.236	11.766	-3.1683e+05	3052.4	-0.33682	0.038845	0.94789
1.238	11.736	-3.1682e+05	3052	-0.33692	0.038162	0.94809
1.24	11.637	-3.1682e+05	3051.5	-0.33701	0.037478	0.94828
1.242	11.453	-3.1682e+05	3051.1	-0.33711	0.036795	0.94848
1.244	11.289	-3.1683e+05	3050.6	-0.33721	0.036112	0.94867
1.246	11.312	-3.1682e+05	3050	-0.3374	0.037283	0.94984
1.248	11.395	-3.1682e+05	3049.4	-0.3376	0.038454	0.95101
1.25	11.551	-3.1681e+05	3048.8	-0.33779	0.039626	0.95219
1.252	11.711	-3.1681e+05	3048.1	-0.33799	0.040797	0.95336
1.254	11.745	-3.1681e+05	3047.4	-0.33818	0.041968	0.95453
1.256	11.698	-3.1681e+05	3046.7	-0.33916	0.040602	0.95345
1.258	11.527	-3.168e+05	3046	-0.34014	0.039235	0.95238
1.26	11.303	-3.1679e+05	3045.2	-0.34111	0.037869	0.95131
1.262	11.291	-3.1679e+05	3044.3	-0.34209	0.036502	0.95023
1.264	11.343	-3.1679e+05	3043.5	-0.34306	0.035136	0.94916
1.266	11.479	-3.1679e+05	3042.6	-0.34297	0.036698	0.95023
1.268	11.712	-3.1679e+05	3041.7	-0.34287	0.038259	0.95131
1.27	11.747	-3.1679e+05	3040.9	-0.34277	0.039821	0.95238
1.272	11.697	-3.1679e+05	3040	-0.34267	0.041382	0.95345
1.274	11.565	-3.1679e+05	3039.2	-0.34258	0.042944	0.95453
1.276	11.329	-3.1678e+05	3038.3	-0.34219	0.042554	0.95345
1.278	11.314	-3.1678e+05	3037.4	-0.3418	0.042163	0.95238
1.28	11.341	-3.1678e+05	3036.6	-0.3414	0.041773	0.95131
1.282	11.424	-3.1678e+05	3035.8	-0.34101	0.041382	0.95023
1.284	11.638	-3.1678e+05	3035	-0.34062	0.040992	0.94916
1.286	11.745	-3.1678e+05	3034.2	-0.34043	0.04148	0.94926
1.288	11.73	-3.1678e+05	3033.5	-0.34023	0.041968	0.94936
1.29	11.648	-3.1678e+05	3032.8	-0.34004	0.042456	0.94945
1.292	11.44	-3.1678e+05	3032.1	-0.33984	0.042944	0.94955
1.294	11.314	-3.1678e+05	3031.4	-0.33965	0.043432	0.94965
1.296	11.311	-3.1678e+05	3030.9	-0.33936	0.043042	0.94936
1.298	11.376	-3.1678e+05	3030.4	-0.33906	0.042651	0.94906
1.3	11.564	-3.1677e+05	3029.8	-0.33877	0.042261	0.94877
1.302	11.744	-3.1677e+05	3029.3	-0.33848	0.04187	0.94848
1.304	11.765	-3.1678e+05	3028.8	-0.33818	0.04148	0.94818
1.306	11.69	-3.1677e+05	3028.3	-0.33818	0.041187	0.94867
1.308	11.542	-3.1677e+05	3027.9	-0.33818	0.040894	0.94916
1.31	11.365	-3.1678e+05	3027.5	-0.33818	0.040602	0.94965
1.312	11.298	-3.1678e+05	3027.2	-0.33818	0.040309	0.95014
1.314	11.334	-3.1679e+05	3026.8	-0.33818	0.040016	0.95062
1.316	11.455	-3.1679e+05	3026.6	-0.33818	0.040894	0.95033
1.318	11.651	-3.1678e+05	3026.3	-0.33818	0.041773	0.95004
1.32	11.755	-3.1678e+05	3026.1	-0.33818	0.042651	0.94975
1.322	11.723	-3.1679e+05	3025.8	-0.33818	0.04353	0.94945
1.324	11.612	-3.168e+05	3025.5	-0.33818	0.044408	0.94916
1.326	11.411	-3.168e+05	3025.4	-0.33975	0.044115	0.94818
1.328	11.297	-3.168e+05	3025.3	-0.34131	0.043822	0.94721
1.33	11.33	-3.168e+05	3025.1	-0.34287	0.04353	0.94623
1.332	11.426	-3.1679e+05	3024.8	-0.34443	0.043237	0.94526
1.334	11.617	-3.1679e+05	3024.6	-0.34599	0.042944	0.94428
1.336	11.772	-3.1679e+05	3024.5	-0.3455	0.042554	0.94457
1.338	11.748	-3.168e+05	3024.3	-0.34502	0.042163	0.94487
1.34	11.645	-3.1681e+05	3024.1	-0.34453	0.041773	0.94516
1.342	11.451	-3.1681e+05	3024	-0.34404	0.041382	0.94545
1.344	11.272	-3.1681e+05	3023.8	-0.34355	0.040992	0.94574
1.346	11.277	-3.1681e+05	3023.7	-0.34267	0.041187	0.94633
1.348	11.376	-3.168e+05	3023.6	-0.3418	0.041382	0.94692
1.35	11.554	-3.168e+05	3023.4	-0.34092	0.041578	0.9475
1.352	11.764	-3.1681e+05	3023.3	-0.34004	0.041773	0.94809
1.354	11.745	-3.1681e+05	3023.1	-0.33916	0.041968	0.94867
1.356	11.709	-3.1681e+05	3023	-0.33887	0.041675	0.94799
1.358	11.537	-3.1682e+05	3022.9	-0.33857	0.041382	0.94731
1.36	11.328	-3.1682e+05	3022.7	-0.33828	0.04109	0.94662
1.362	11.297	-3.1682e+05	3022.6	-0.33799	0.040797	0.94594
1.364	11.334	-3.1682e+05	3022.5	-0.3377	0.040504	0.94526
1.366	11.465	-3.1682e+05	3022.4	-0.33877	0.040797	0.94535
1.368	11.685	-3.1682e+05	3022.2	-0.33984	0.04109	0.94545
1.37	11.741	-3.1682e+05	3022.1	-0.34092	0.041382	0.94555
1.372	11.701	-3.1682e+05	3022	-0.34199	0.041675	0.94565
1.374	11.568	-3.1682e+05	3021.9	-0.34306	0.041968	0.94574
1.376	11.393	-3.1682e+05	3021.7	-0.34297	0.041578	0.94565
1.378	11.313	-3.1683e+05	3021.6	-0.34287	0.041187	0.94555
1.38	11.348	-3.1684e+05	3021.5	-0.34277	0.040797	0.94545
1.382	11.457	-3.1684e+05	3021.3	-0.34267	0.040406	0.94535
1.384	11.646	-3.1684e+05	3021.1	-0.34258	0.040016	0.94526
1.386	11.743	-3.1684e+05	3021	-0.34199	0.040992	0.94584
1.388	11.714	-3.1684e+05	3020.8	-0.3414	0.041968	0.94643
1.39	11.642	-3.1684e+05	3020.7	-0.34082	0.042944	0.94701
1.392	11.473	-3.1684e+05	3020.5	-0.34023	0.04392	0.9476
1.394	11.312	-3.1685e+05	3020.3	-0.33965	0.044896	0.94818
1.396	11.302	-3.1686e+05	3020.2	-0.33916	0.044018	0.94809
1.398	11.389	-3.1686e+05	3020	-0.33867	0.043139	0.94799
1.4	11.559	-3.1686e+05	3019.8	-0.33818	0.042261	0.94789
1.402	11.726	-3.1685e+05	3019.6	-0.3377	0.041382	0.94779
1.404	11.76	-3.1685e+05	3019.4	-0.33721	0.040504	0.9477
1.406	11.696	-3.1685e+05	3019.3	-0.33857	0.041285	0.94731
1.408	11.542	-3.1686e+05	3019.1	-0.33994	0.042066	0.94692
1.41	11.343	-3.1685e+05	3018.9	-0.34131	0.042846	0.94652
1.412	11.29	-3.1685e+05	3018.6	-0.34267	0.043627	0.94613
1.414	11.361	-3.1685e+05	3018.4	-0.34404	0.044408	0.94574
1.416	11.493	-3.1685e+05	3018.2	-0.34336	0.044506	0.94613
1.418	11.697	-3.1686e+05	3017.9	-0.34267	0.044603	0.94652
1.42	11.754	-3.1686e+05	3017.7	-0.34199	0.044701	0.94692
1.422	11.704	-3.1687e+05	3017.4	-0.34131	0.044798	0.94731
1.424	11.647	-3.1687e+05	3017.2	-0.34062	0.044896	0.9477
1.426	11.464	-3.1687e+05	3016.9	-0.34062	0.044701	0.94779
1.428	11.275	-3.1687e+05	3016.6	-0.34062	0.044506	0.94789
1.43	11.261	-3.1687e+05	3016.3	-0.34062	0.04431	0.94799
1.432	11.358	-3.1687e+05	3016.1	-0.34062	0.044115	0.94809
1.434	11.625	-3.1687e+05	3015.8	-0.34062	0.04392	0.94818
1.436	11.78	-3.1688e+05	3015.6	-0.33945	0.043432	0.94867
1.438	11.735	-3.1688e+05	3015.3	-0.33828	0.042944	0.94916
1.44	11.634	-3.1689e+05	3015.1	-0.33711	0.042456	0.94965
1.442	11.455	-3.169e+05	3014.8	-0.33594	0.041968	0.95014
1.444	11.312	-3.1691e+05	3014.6	-0.33477	0.04148	0.95062
1.446	11.303	-3.169e+05	3014.4	-0.33496	0.04148	0.95062
1.448	11.377	-3.1689e+05	3014.1	-0.33516	0.04148	0.95062
1.45	11.594	-3.169e+05	3013.8	-0.33535	0.04148	0.95062
1.452	11.764	-3.1691e+05	3013.6	-0.33555	0.04148	0.95062
1.454	11.769	-3.1691e+05	3013.3	-0.33574	0.04148	0.95062
1.456	11.703	-3.1691e+05	3013	-0.33584	0.040894	0.95014
1.458	11.526	-3.1691e+05	3012.8	-0.33594	0.040309	0.94965
1.46	11.353	-3.1692e+05	3012.6	-0.33604	0.039723	0.94916
1.462	11.321	-3.1691e+05	3012.3	-0.33613	0.039138	0.94867
1.464	11.354	-3.169e+05	3012	-0.33623	0.038552	0.94818
1.466	11.506	-3.1691e+05	3011.8	-0.33633	0.039333	0.94867
1.468	11.706	-3.1692e+05	3011.5	-0.33643	0.040114	0.94916
1.47	11.77	-3.1693e+05	3011.2	-0.33652	0.040894	0.94965
1.472	11.726	-3.1693e+05	3011	-0.33662	0.041675	0.95014
1.474	11.599	-3.1693e+05	3010.8	-0.33672	0.042456	0.95062
1.476	11.399	-3.1693e+05	3010.5	-0.33652	0.042163	0.95062
1.478	11.295	-3.1693e+05	3010.2	-0.33633	0.04187	0.95062
1.48	11.346	-3.1693e+05	3010	-0.33613	0.041578	0.95062
1.482	11.479	-3.1694e+05	3009.7	-0.33594	0.041285	0.95062
1.484	11.672	-3.1694e+05	3009.4	-0.33574	0.040992	0.95062
1.486	11.81	-3.1694e+05	3009.2	-0.33633	0.041382	0.94975
1.488	11.793	-3.1694e+05	3009	-0.33692	0.041773	0.94887
1.49	11.689	-3.1694e+05	3008.8	-0.3375	0.042163	0.94799
1.492	11.514	-3.1694e+05	3008.5	-0.33809	0.042554	0.94711
1.494	11.363	-3.1695e+05	3008.3	-0.33867	0.042944	0.94623
1.496	11.368	-3.1696e+05	3008	-0.33887	0.042261	0.94613
1.498	11.457	-3.1696e+05	3007.8	-0.33906	0.041578	0.94604
1.5	11.605	-3.1696e+05	3007.5	-0.33926	0.040894	0.94594
1.502	11.779	-3.1696e+05	3007.3	-0.33945	0.040211	0.94584
1.504	11.817	-3.1696e+05	3007	-0.33965	0.039528	0.94574
1.506	11.749	-3.1697e+05	3006.7	-0.33926	0.039333	0.94565
1.508	11.604	-3.1697e+05	3006.5	-0.33887	0.039138	0.94555
1.51	11.38	-3.1697e+05	3006.3	-0.33848	0.038942	0.94545
1.512	11.329	-3.1697e+05	3006	-0.33809	0.038747	0.94535
1.514	11.394	-3.1698e+05	3005.7	-0.3377	0.038552	0.94526
1.516	11.516	-3.1699e+05	3005.4	-0.33721	0.038259	0.94535
1.518	11.745	-3.1699e+05	3005.1	-0.33672	0.037966	0.94545
1.52	11.805	-3.1699e+05	3004.9	-0.33623	0.037674	0.94555
1.522	11.745	-3.1699e+05	3004.6	-0.33574	0.037381	0.94565
1.524	11.646	-3.17e+05	3004.4	-0.33526	0.037088	0.94574
1.526	11.399	-3.17e+05	3004.1	-0.33584	0.037478	0.94613
1.528	11.293	-3.17e+05	3003.9	-0.33643	0.037869	0.94652
1.53	11.342	-3.17e+05	3003.7	-0.33701	0.038259	0.94692
1.532	11.425	-3.17e+05	3003.4	-0.3376	0.03865	0.94731
1.534	11.635	-3.1701e+05	3003.2	-0.33818	0.03904	0.9477
1.536	11.751	-3.1701e+05	3002.9	-0.33818	0.039333	0.9474
1.538	11.718	-3.1701e+05	3002.6	-0.33818	0.039626	0.94711
1.54	11.621	-3.1701e+05	3002.3	-0.33818	0.039918	0.94682
1.542	11.425	-3.1702e+05	3002.1	-0.33818	0.040211	0.94652
1.544	11.283	-3.1703e+05	3001.9	-0.33818	0.040504	0.94623
1.546	11.277	-3.1703e+05	3001.6	-0.33779	0.040114	0.9476
1.548	11.352	-3.1703e+05	3001.3	-0.3374	0.039723	0.94896
1.55	11.565	-3.1703e+05	3001.1	-0.33701	0.039333	0.95033
1.552	11.746	-3.1703e+05	3000.8	-0.33662	0.038942	0.9517
1.554	11.734	-3.1704e+05	3000.5	-0.33623	0.038552	0.95306
1.556	11.641	-3.1705e+05	3000.2	-0.33613	0.038162	0.95199
1.558	11.495	-3.1705e+05	3000	-0.33604	0.037771	0.95092
1.56	11.327	-3.1705e+05	2999.7	-0.33594	0.037381	0.94984
1.562	11.271	-3.1705e+05	2999.5	-0.33584	0.03699	0.94877
1.564	11.323	-3.1706e+05	2999.2	-0.33574	0.0366	0.9477
1.566	11.464	-3.1707e+05	2999	-0.33604	0.037283	0.94779
1.568	11.659	-3.1707e+05	2998.8	-0.33633	0.037966	0.94789
1.57	11.741	-3.1708e+05	2998.5	-0.33662	0.03865	0.94799
1.572	11.676	-3.1708e+05	2998.3	-0.33692	0.039333	0.94809
1.574	11.543	-3.1708e+05	2998.1	-0.33721	0.040016	0.94818
1.576	11.363	-3.1708e+05	2997.9	-0.33692	0.039626	0.94848
1.578	11.273	-3.1708e+05	2997.7	-0.33662	0.039235	0.94877
1.58	11.332	-3.1708e+05	2997.5	-0.33633	0.038845	0.94906
1.582	11.423	-3.1709e+05	2997.3	-0.33604	0.038454	0.94936
1.584	11.597	-3.1709e+05	2997.1	-0.33574	0.038064	0.94965
1.586	11.741	-3.1709e+05	2996.9	-0.33594	0.038259	0.94857
1.588	11.707	-3.1709e+05	2996.7	-0.33613	0.038454	0.9475
1.59	11.615	-3.171e+05	2996.6	-0.33633	0.03865	0.94643
1.592	11.432	-3.1711e+05	2996.4	-0.33652	0.038845	0.94535
1.594	11.257	-3.1711e+05	2996.2	-0.33672	0.03904	0.94428
1.596	11.262	-3.1711e+05	2996.1	-0.33731	0.039626	0.94613
1.598	11.354	-3.1711e+05	2995.9	-0.33789	0.040211	0.94799
1.6	11.527	-3.1711e+05	2995.7	-0.33848	0.040797	0.94984
1.602	11.725	-3.1712e+05	2995.6	-0.33906	0.041382	0.9517
1.604	11.737	-3.1713e+05	2995.4	-0.33965	0.041968	0.95355
1.606	11.675	-3.1713e+05	2995.3	-0.33906	0.04148	0.95267
1.608	11.531	-3.1713e+05	2995.1	-0.33848	0.040992	0.9518
1.61	11.303	-3.1713e+05	2995	-0.33789	0.040504	0.95092
1.612	11.263	-3.1713e+05	2994.9	-0.33731	0.040016	0.95004
1.614	11.305	-3.1713e+05	2994.8	-0.33672	0.039528	0.94916
1.616	11.426	-3.1713e+05	2994.7	-0.33721	0.040114	0.94896
1.618	11.672	-3.1715e+05	2994.6	-0.3377	0.040699	0.94877
1.62	11.755	-3.1716e+05	2994.5	-0.33818	0.041285	0.94857
1.622	11.729	-3.1716e+05	2994.4	-0.33867	0.04187	0.94838
1.624	11.634	-3.1716e+05	2994.3	-0.33916	0.042456	0.94818
1.626	11.411	-3.1716e+05	2994.3	-0.33965	0.042163	0.94867
1.628	11.321	-3.1717e+05	2994.2	-0.34014	0.04187	0.94916
1.63	11.375	-3.1717e+05	2994.1	-0.34062	0.041578	0.94965
1.632	11.497	-3.1718e+05	2994	-0.34111	0.041285	0.95014
1.634	11.703	-3.1718e+05	2993.9	-0.3416	0.040992	0.95062
1.636	11.824	-3.1719e+05	2993.8	-0.34062	0.04109	0.95043
1.638	11.811	-3.1719e+05	2993.7	-0.33965	0.041187	0.95023
1.64	11.703	-3.1719e+05	2993.7	-0.33867	0.041285	0.95004
1.642	11.433	-3.1719e+05	2993.6	-0.3377	0.041382	0.94984
1.644	11.19	-3.172e+05	2993.5	-0.33672	0.04148	0.94965
1.646	11.143	-3.172e+05	2993.4	-0.3376	0.041773	0.94916
1.648	11.169	-3.172e+05	2993.3	-0.33848	0.042066	0.94867
1.65	11.25	-3.1721e+05	2993.2	-0.33936	0.042358	0.94818
1.652	11.359	-3.1722e+05	2993.1	-0.34023	0.042651	0.9477
1.654	11.363	-3.1722e+05	2993	-0.34111	0.042944	0.94721
1.656	11.292	-3.1722e+05	2992.9	-0.34248	0.041578	0.94574
1.658	11.16	-3.1723e+05	2992.8	-0.34384	0.040211	0.94428
1.66	11	-3.1723e+05	2992.8	-0.34521	0.038845	0.94282
1.662	10.958	-3.1723e+05	2992.7	-0.34658	0.037478	0.94135
1.664	11.026	-3.1723e+05	2992.6	-0.34794	0.036112	0.93989
1.666	11.168	-3.1723e+05	2992.6	-0.34902	0.037381	0.94086
1.668	11.395	-3.1723e+05	2992.5	-0.35009	0.03865	0.94184
1.67	11.51	-3.1723e+05	2992.4	-0.35116	0.039918	0.94282
1.672	11.481	-3.1724e+05	2992.2	-0.35224	0.041187	0.94379
1.674	11.402	-3.1724e+05	2992.1	-0.35331	0.042456	0.94477
1.676	11.222	-3.1725e+05	2992	-0.35204	0.041382	0.94379
1.678	11.144	-3.1725e+05	2991.9	-0.35077	0.040309	0.94282
1.68	11.22	-3.1726e+05	2991.7	-0.34951	0.039235	0.94184
1.682	11.294	-3.1726e+05	2991.5	-0.34824	0.038162	0.94086
1.684	11.479	-3.1727e+05	2991.3	-0.34697	0.037088	0.93989
1.686	11.638	-3.1727e+05	2991.1	-0.34824	0.037576	0.94028
1.688	11.666	-3.1727e+05	2991	-0.34951	0.038064	0.94067
1.69	11.611	-3.1727e+05	2990.8	-0.35077	0.038552	0.94106
1.692	11.373	-3.1727e+05	2990.7	-0.35204	0.03904	0.94145
1.694	11.217	-3.1727e+05	2990.6	-0.35331	0.039528	0.94184
1.696	11.25	-3.1728e+05	2990.5	-0.35156	0.040309	0.94311
1.698	11.332	-3.1728e+05	2990.3	-0.3498	0.04109	0.94438
1.7	11.518	-3.1729e+05	2990.1	-0.34804	0.04187	0.94565
1.702	11.715	-3.173e+05	2990	-0.34628	0.042651	0.94692
1.704	11.707	-3.173e+05	2989.8	-0.34453	0.043432	0.94818
1.706	11.643	-3.1731e+05	2989.7	-0.34394	0.04392	0.94818
1.708	11.532	-3.1732e+05	2989.5	-0.34336	0.044408	0.94818
1.71	11.353	-3.1732e+05	2989.4	-0.34277	0.044896	0.94818
1.712	11.298	-3.1733e+05	2989.2	-0.34219	0.045384	0.94818
1.714	11.34	-3.1733e+05	2989	-0.3416	0.045872	0.94818
1.716	11.477	-3.1733e+05	2988.8	-0.34258	0.045774	0.94799
1.718	11.68	-3.1733e+05	2988.6	-0.34355	0.045677	0.94779
1.72	11.756	-3.1734e+05	2988.5	-0.34453	0.045579	0.9476
1.722	11.715	-3.1735e+05	2988.3	-0.3455	0.045482	0.9474
1.724	11.596	-3.1736e+05	2988.2	-0.34648	0.045384	0.94721
1.726	11.398	-3.1736e+05	2988	-0.34599	0.044896	0.94779
1.728	11.301	-3.1737e+05	2987.8	-0.3455	0.044408	0.94838
1.73	11.339	-3.1737e+05	2987.7	-0.34502	0.04392	0.94896
1.732	11.445	-3.1737e+05	2987.5	-0.34453	0.043432	0.94955
1.734	11.632	-3.1738e+05	2987.3	-0.34404	0.042944	0.95014
1.736	11.767	-3.1739e+05	2987.1	-0.34384	0.042944	0.94926
1.738	11.759	-3.174e+05	2986.9	-0.34365	0.042944	0.94838
1.74	11.673	-3.174e+05	2986.7	-0.34345	0.042944	0.9475
1.742	11.49	-3.174e+05	2986.5	-0.34326	0.042944	0.94662
1.744	11.319	-3.174e+05	2986.4	-0.34306	0.042944	0.94574
1.746	11.308	-3.1741e+05	2986.2	-0.34404	0.042163	0.94565
1.748	11.393	-3.1743e+05	2985.9	-0.34502	0.041382	0.94555
1.75	11.554	-3.1743e+05	2985.7	-0.34599	0.040602	0.94545
1.752	11.747	-3.1743e+05	2985.6	-0.34697	0.039821	0.94535
1.754	11.774	-3.1743e+05	2985.4	-0.34794	0.03904	0.94526
1.756	11.698	-3.1742e+05	2985.2	-0.34775	0.03904	0.94594
1.758	11.563	-3.1742e+05	2984.9	-0.34755	0.03904	0.94662
1.76	11.358	-3.1742e+05	2984.7	-0.34736	0.03904	0.94731
1.762	11.312	-3.1743e+05	2984.6	-0.34716	0.03904	0.94799
1.764	11.375	-3.1743e+05	2984.4	-0.34697	0.03904	0.94867
1.766	11.465	-3.1743e+05	2984.2	-0.34707	0.038942	0.94955
1.768	11.682	-3.1743e+05	2984	-0.34716	0.038845	0.95043
1.77	11.793	-3.1744e+05	2983.8	-0.34726	0.038747	0.95131
1.772	11.713	-3.1744e+05	2983.7	-0.34736	0.03865	0.95219
1.774	11.619	-3.1744e+05	2983.6	-0.34746	0.038552	0.95306
1.776	11.465	-3.1745e+05	2983.5	-0.34785	0.038162	0.95121
1.778	11.358	-3.1745e+05	2983.5	-0.34824	0.037771	0.94936
1.78	11.363	-3.1745e+05	2983.6	-0.34863	0.037381	0.9475
1.782	11.407	-3.1746e+05	2983.8	-0.34902	0.03699	0.94565
1.784	11.636	-3.1747e+05	2983.9	-0.34941	0.0366	0.94379
1.786	11.781	-3.1747e+05	2984.4	-0.34775	0.038064	0.94477
1.788	11.762	-3.1747e+05	2984.9	-0.34609	0.039528	0.94574
1.79	11.702	-3.1747e+05	2985.6	-0.34443	0.040992	0.94672
1.792	11.514	-3.1747e+05	2986.6	-0.34277	0.042456	0.9477
1.794	11.349	-3.1748e+05	2987.6	-0.34111	0.04392	0.94867
1.796	11.334	-3.1749e+05	2989.1	-0.34228	0.043334	0.94711
1.798	11.402	-3.1749e+05	2990.7	-0.34345	0.042749	0.94555
1.8	11.59	-3.1748e+05	2992.5	-0.34463	0.042163	0.94399
1.802	11.779	-3.175e+05	2994.5	-0.3458	0.041578	0.94243
1.804	11.814	-3.1751e+05	2996.6	-0.34697	0.040992	0.94086
1.806	11.758	-3.1751e+05	2999.1	-0.34619	0.042066	0.94174
1.808	11.575	-3.1751e+05	3001.7	-0.34541	0.043139	0.94262
1.81	11.392	-3.1751e+05	3004.3	-0.34463	0.044213	0.9435
1.812	11.361	-3.1752e+05	3007.1	-0.34384	0.045286	0.94438
1.814	11.428	-3.1752e+05	3009.9	-0.34306	0.04636	0.94526
1.816	11.579	-3.1752e+05	3012.6	-0.34209	0.045579	0.94643
1.818	11.775	-3.1753e+05	3015.4	-0.34111	0.044798	0.9476
1.82	11.853	-3.1753e+05	3018	-0.34014	0.044018	0.94877
1.822	11.806	-3.1753e+05	3020.6	-0.33916	0.043237	0.94994
1.824	11.692	-3.1753e+05	3023.2	-0.33818	0.042456	0.95111
1.826	11.514	-3.1753e+05	3025.4	-0.33789	0.042651	0.95033
1.828	11.414	-3.1752e+05	3027.6	-0.3376	0.042846	0.94955
1.83	11.463	-3.1752e+05	3029.7	-0.33731	0.043042	0.94877
1.832	11.572	-3.1751e+05	3031.5	-0.33701	0.043237	0.94799
1.834	11.738	-3.1751e+05	3033.4	-0.33672	0.043432	0.94721
1.836	11.877	-3.1751e+05	3034.9	-0.33692	0.042554	0.94721
1.838	11.876	-3.1751e+05	3036.5	-0.33711	0.041675	0.94721
1.84	11.798	-3.1751e+05	3037.9	-0.33731	0.040797	0.94721
1.842	11.634	-3.1751e+05	3039.3	-0.3375	0.039918	0.94721
1.844	11.453	-3.175e+05	3040.6	-0.3377	0.03904	0.94721
1.846	11.449	-3.175e+05	3041.8	-0.33848	0.038747	0.94682
1.848	11.532	-3.1749e+05	3042.9	-0.33926	0.038454	0.94643
1.85	11.7	-3.1749e+05	3044	-0.34004	0.038162	0.94604
1.852	11.928	-3.1749e+05	3044.9	-0.34082	0.037869	0.94565
1.854	11.935	-3.1749e+05	3045.9	-0.3416	0.037576	0.94526
1.856	11.858	-3.1748e+05	3046.8	-0.34121	0.038747	0.94633
1.858	11.746	-3.1748e+05	3047.8	-0.34082	0.039918	0.9474
1.86	11.505	-3.1747e+05	3048.6	-0.34043	0.04109	0.94848
1.862	11.431	-3.1746e+05	3049.4	-0.34004	0.042261	0.94955
1.864	11.509	-3.1745e+05	3050.1	-0.33965	0.043432	0.95062
1.866	11.648	-3.1745e+05	3050.6	-0.33916	0.042358	0.94994
1.868	11.876	-3.1745e+05	3051	-0.33867	0.041285	0.94926
1.87	11.949	-3.1745e+05	3051.5	-0.33818	0.040211	0.94857
1.872	11.91	-3.1745e+05	3051.8	-0.3377	0.039138	0.94789
1.874	11.811	-3.1744e+05	3052.2	-0.33721	0.038064	0.94721
1.876	11.578	-3.1743e+05	3052.4	-0.3377	0.038162	0.94643
1.878	11.465	-3.1743e+05	3052.5	-0.33818	0.038259	0.94565
1.88	11.48	-3.1742e+05	3052.7	-0.33867	0.038357	0.94487
1.882	11.578	-3.1742e+05	3052.8	-0.33916	0.038454	0.94408
1.884	11.809	-3.1741e+05	3052.9	-0.33965	0.038552	0.9433
1.886	11.94	-3.174e+05	3053	-0.33848	0.038162	0.94379
1.888	11.901	-3.1739e+05	3053.1	-0.33731	0.037771	0.94428
1.89	11.806	-3.1739e+05	3053.1	-0.33613	0.037381	0.94477
1.892	11.614	-3.1738e+05	3053.2	-0.33496	0.03699	0.94526
1.894	11.453	-3.1738e+05	3053.2	-0.33379	0.0366	0.94574
1.896	11.44	-3.1737e+05	3053.1	-0.33399	0.037088	0.94594
1.898	11.495	-3.1737e+05	3053	-0.33418	0.037576	0.94613
1.9	11.64	-3.1737e+05	3053	-0.33438	0.038064	0.94633
1.902	11.802	-3.1736e+05	3052.9	-0.33457	0.038552	0.94652
1.904	11.829	-3.1735e+05	3052.8	-0.33477	0.03904	0.94672
1.906	11.784	-3.1735e+05	3052.7	-0.33448	0.03865	0.94633
1.908	11.68	-3.1734e+05	3052.6	-0.33418	0.038259	0.94594
1.91	11.489	-3.1733e+05	3052.5	-0.33389	0.037869	0.94555
1.912	11.361	-3.1732e+05	3052.4	-0.3336	0.037478	0.94516
1.914	11.371	-3.1733e+05	3052.2	-0.3333	0.037088	0.94477
1.916	11.489	-3.1733e+05	3052.2	-0.3334	0.037381	0.94526
1.918	11.686	-3.1732e+05	3052.1	-0.3335	0.037674	0.94574
1.92	11.775	-3.1731e+05	3052	-0.3336	0.037966	0.94623
1.922	11.756	-3.1731e+05	3051.9	-0.33369	0.038259	0.94672
1.924	11.672	-3.173e+05	3051.8	-0.33379	0.038552	0.94721
1.926	11.467	-3.1729e+05	3051.6	-0.33438	0.039528	0.94789
1.928	11.321	-3.1728e+05	3051.4	-0.33496	0.040504	0.94857
1.93	11.325	-3.1728e+05	3051.2	-0.33555	0.04148	0.94926
1.932	11.411	-3.1728e+05	3051.1	-0.33613	0.042456	0.94994
1.934	11.632	-3.1728e+05	3050.9	-0.33672	0.043432	0.95062
1.936	11.78	-3.1727e+05	3050.6	-0.33701	0.043432	0.95111
1.938	11.727	-3.1727e+05	3050.4	-0.33731	0.043432	0.9516
1.94	11.648	-3.1726e+05	3050.2	-0.3376	0.043432	0.95209
1.942	11.474	-3.1726e+05	3050	-0.33789	0.043432	0.95258
1.944	11.275	-3.1725e+05	3049.8	-0.33818	0.043432	0.95306
1.946	11.287	-3.1725e+05	3049.5	-0.33867	0.042944	0.95258
1.948	11.364	-3.1724e+05	3049.3	-0.33916	0.042456	0.95209
1.95	11.509	-3.1724e+05	3049	-0.33965	0.041968	0.9516
1.952	11.722	-3.1724e+05	3048.8	-0.34014	0.04148	0.95111
1.954	11.72	-3.1724e+05	3048.6	-0.34062	0.040992	0.95062
1.956	11.696	-3.1723e+05	3048.3	-0.34062	0.040992	0.95082
1.958	11.58	-3.1722e+05	3048.1	-0.34062	0.040992	0.95101
1.96	11.346	-3.1721e+05	3047.8	-0.34062	0.040992	0.95121
1.962	11.276	-3.1721e+05	3047.6	-0.34062	0.040992	0.9514
1.964	11.3	-3.1721e+05	3047.4	-0.34062	0.040992	0.9516
1.966	11.446	-3.1721e+05	3047.1	-0.34082	0.041675	0.9517
1.968	11.685	-3.172e+05	3046.8	-0.34101	0.042358	0.9518
1.97	11.759	-3.172e+05	3046.5	-0.34121	0.043042	0.95189
1.972	11.714	-3.1719e+05	3046.2	-0.3414	0.043725	0.95199
1.974	11.599	-3.1719e+05	3046	-0.3416	0.044408	0.95209
1.976	11.399	-3.1719e+05	3045.6	-0.34121	0.04431	0.9518
1.978	11.293	-3.1718e+05	3045.3	-0.34082	0.044213	0.9515
1.98	11.311	-3.1717e+05	3045	-0.34043	0.044115	0.95121
1.982	11.385	-3.1717e+05	3044.7	-0.34004	0.044018	0.95092
1.984	11.561	-3.1717e+05	3044.5	-0.33965	0.04392	0.95062
1.986	11.709	-3.1717e+05	3044.2	-0.33965	0.043334	0.95082
1.988	11.716	-3.1717e+05	3043.9	-0.33965	0.042749	0.95101
1.99	11.637	-3.1716e+05	3043.5	-0.33965	0.042163	0.95121
1.992	11.462	-3.1716e+05	3043.2	-0.33965	0.041578	0.9514
1.994	11.294	-3.1714e+05	3042.8	-0.33965	0.040992	0.9516
1.996	11.278	-3.1713e+05	3042.5	-0.33916	0.040992	0.95121
1.998	11.354	-3.1713e+05	3042.1	-0.33867	0.040992	0.95082
2	11.498	-3.1714e+05	3041.8	-0.33818	0.040992	0.95043
2.002	11.674	-3.1713e+05	3041.5	-0.3377	0.040992	0.95004
2.004	11.727	-3.1712e+05	3041.2	-0.33721	0.040992	0.94965
2.006	11.667	-3.1712e+05	3040.8	-0.33682	0.040406	0.94936
2.008	11.528	-3.1712e+05	3040.4	-0.33643	0.039821	0.94906
2.01	11.324	-3.1712e+05	3040	-0.33604	0.039235	0.94877
2.012	11.243	-3.1713e+05	3039.4	-0.33565	0.03865	0.94848
2.014	11.288	-3.1712e+05	3038.9	-0.33526	0.038064	0.94818
2.016	11.402	-3.1711e+05	3038.3	-0.33584	0.039138	0.94887
2.018	11.635	-3.1711e+05	3037.8	-0.33643	0.040211	0.94955
2.02	11.749	-3.171e+05	3037.2	-0.33701	0.041285	0.95023
2.022	11.695	-3.171e+05	3036.5	-0.3376	0.042358	0.95092
2.024	11.59	-3.171e+05	3035.9	-0.33818	0.043432	0.9516
2.026	11.352	-3.171e+05	3035.1	-0.33887	0.042846	0.9516
2.028	11.233	-3.1709e+05	3034.4	-0.33955	0.042261	0.9516
2.03	11.231	-3.1709e+05	3033.7	-0.34023	0.041675	0.9516
2.032	11.284	-3.1709e+05	3033	-0.34092	0.04109	0.9516
2.034	11.567	-3.1709e+05	3032.3	-0.3416	0.040504	0.9516
2.036	11.768	-3.1709e+05	3031.5	-0.34131	0.040894	0.9518
2.038	11.728	-3.1708e+05	3030.8	-0.34101	0.041285	0.95199
2.04	11.64	-3.1708e+05	3030	-0.34072	0.041675	0.95219
2.042	11.437	-3.1708e+05	3029.3	-0.34043	0.042066	0.95238
2.044	11.303	-3.1708e+05	3028.5	-0.34014	0.042456	0.95258
2.046	11.277	-3.1708e+05	3027.9	-0.34014	0.042456	0.95189
2.048	11.315	-3.1708e+05	3027.3	-0.34014	0.042456	0.95121
2.05	11.499	-3.1708e+05	3026.7	-0.34014	0.042456	0.95053
2.052	11.695	-3.1708e+05	3026.1	-0.34014	0.042456	0.94984
2.054	11.721	-3.1708e+05	3025.5	-0.34014	0.042456	0.94916
2.056	11.667	-3.1708e+05	3025	-0.33945	0.042358	0.94838
2.058	11.529	-3.1708e+05	3024.4	-0.33877	0.042261	0.9476
2.06	11.33	-3.1708e+05	3023.9	-0.33809	0.042163	0.94682
2.062	11.25	-3.1709e+05	3023.4	-0.3374	0.042066	0.94604
2.064	11.304	-3.1709e+05	3022.9	-0.33672	0.041968	0.94526
2.066	11.447	-3.1709e+05	3022.5	-0.33682	0.041968	0.94584
2.068	11.643	-3.1709e+05	3022.1	-0.33692	0.041968	0.94643
2.07	11.73	-3.1709e+05	3021.7	-0.33701	0.041968	0.94701
2.072	11.685	-3.1709e+05	3021.4	-0.33711	0.041968	0.9476
2.074	11.573	-3.1709e+05	3021	-0.33721	0.041968	0.94818
2.076	11.396	-3.1708e+05	3020.8	-0.33838	0.042846	0.94711
2.078	11.27	-3.1708e+05	3020.6	-0.33955	0.043725	0.94604
2.08	11.266	-3.1708e+05	3020.4	-0.34072	0.044603	0.94496
2.082	11.363	-3.1709e+05	3020.3	-0.34189	0.045482	0.94389
2.084	11.573	-3.1709e+05	3020.1	-0.34306	0.04636	0.94282
2.086	11.727	-3.1709e+05	3020	-0.34287	0.046555	0.94321
2.088	11.712	-3.1708e+05	3019.9	-0.34267	0.04675	0.9436
2.09	11.633	-3.1709e+05	3019.8	-0.34248	0.046946	0.94399
2.092	11.48	-3.1709e+05	3019.7	-0.34228	0.047141	0.94438
2.094	11.299	-3.1709e+05	3019.6	-0.34209	0.047336	0.94477
2.096	11.267	-3.1709e+05	3019.5	-0.3414	0.04675	0.94516
2.098	11.345	-3.171e+05	3019.5	-0.34072	0.046165	0.94555
2.1	11.508	-3.171e+05	3019.4	-0.34004	0.045579	0.94594
2.102	11.723	-3.171e+05	3019.3	-0.33936	0.044994	0.94633
2.104	11.732	-3.1711e+05	3019.2	-0.33867	0.044408	0.94672
2.106	11.633	-3.1711e+05	3019.2	-0.3376	0.043627	0.9475
2.108	11.525	-3.1711e+05	3019.1	-0.33652	0.042846	0.94828
2.11	11.313	-3.171e+05	3019.1	-0.33545	0.042066	0.94906
2.112	11.239	-3.171e+05	3019	-0.33438	0.041285	0.94984
2.114	11.289	-3.171e+05	3018.9	-0.3333	0.040504	0.95062
2.116	11.4	-3.1711e+05	3018.8	-0.33438	0.040699	0.95004
2.118	11.656	-3.1711e+05	3018.7	-0.33545	0.040894	0.94945
2.12	11.74	-3.1711e+05	3018.7	-0.33652	0.04109	0.94887
2.122	11.683	-3.1711e+05	3018.6	-0.3376	0.041285	0.94828
2.124	11.602	-3.1711e+05	3018.6	-0.33867	0.04148	0.9477
2.126	11.365	-3.1711e+05	3018.6	-0.33848	0.041578	0.94828
2.128	11.256	-3.1711e+05	3018.6	-0.33828	0.041675	0.94887
2.13	11.249	-3.1711e+05	3018.5	-0.33809	0.041773	0.94945
2.132	11.333	-3.1711e+05	3018.5	-0.33789	0.04187	0.95004
2.134	11.571	-3.1711e+05	3018.5	-0.3377	0.041968	0.95062
2.136	11.727	-3.1712e+05	3018.4	-0.33721	0.041187	0.95023
2.138	11.722	-3.1712e+05	3018.4	-0.33672	0.040406	0.94984
2.14	11.652	-3.1711e+05	3018.4	-0.33623	0.039626	0.94945
2.142	11.467	-3.1712e+05	3018.3	-0.33574	0.038845	0.94906
2.144	11.278	-3.1712e+05	3018.2	-0.33526	0.038064	0.94867
2.146	11.243	-3.1712e+05	3018.2	-0.33604	0.03943	0.94896
2.148	11.322	-3.1712e+05	3018.2	-0.33682	0.040797	0.94926
2.15	11.471	-3.1713e+05	3018.1	-0.3376	0.042163	0.94955
2.152	11.634	-3.1714e+05	3018	-0.33838	0.04353	0.94984
2.154	11.707	-3.1713e+05	3017.9	-0.33916	0.044896	0.95014
2.156	11.67	-3.1713e+05	3017.9	-0.33936	0.045091	0.94965
2.158	11.517	-3.1713e+05	3017.9	-0.33955	0.045286	0.94916
2.16	11.321	-3.1713e+05	3017.8	-0.33975	0.045482	0.94867
2.162	11.238	-3.1713e+05	3017.8	-0.33994	0.045677	0.94818
2.164	11.282	-3.1713e+05	3017.7	-0.34014	0.045872	0.9477
2.166	11.423	-3.1713e+05	3017.6	-0.33965	0.045091	0.94857
2.168	11.622	-3.1714e+05	3017.5	-0.33916	0.04431	0.94945
2.17	11.697	-3.1714e+05	3017.4	-0.33867	0.04353	0.95033
2.172	11.643	-3.1714e+05	3017.3	-0.33818	0.042749	0.95121
2.174	11.564	-3.1714e+05	3017.2	-0.3377	0.041968	0.95209
2.176	11.415	-3.1715e+05	3017.1	-0.33779	0.04187	0.9518
2.178	11.265	-3.1715e+05	3017.1	-0.33789	0.041773	0.9515
2.18	11.266	-3.1715e+05	3016.9	-0.33799	0.041675	0.95121
2.182	11.359	-3.1715e+05	3016.8	-0.33809	0.041578	0.95092
2.184	11.551	-3.1715e+05	3016.7	-0.33818	0.04148	0.95062
2.186	11.723	-3.1715e+05	3016.5	-0.33799	0.041578	0.95092
2.188	11.702	-3.1715e+05	3016.4	-0.33779	0.041675	0.95121
2.19	11.639	-3.1716e+05	3016.2	-0.3376	0.041773	0.9515
2.192	11.467	-3.1716e+05	3016	-0.3374	0.04187	0.9518
2.194	11.253	-3.1716e+05	3015.9	-0.33721	0.041968	0.95209
2.196	11.226	-3.1717e+05	3015.7	-0.33682	0.04148	0.9517
2.198	11.301	-3.1716e+05	3015.5	-0.33643	0.040992	0.95131
2.2	11.475	-3.1716e+05	3015.3	-0.33604	0.040504	0.95092
2.202	11.701	-3.1716e+05	3015.1	-0.33565	0.040016	0.95053
2.204	11.728	-3.1716e+05	3014.9	-0.33526	0.039528	0.95014
2.206	11.671	-3.1717e+05	3014.7	-0.33565	0.040406	0.94975
2.208	11.553	-3.1717e+05	3014.5	-0.33604	0.041285	0.94936
2.21	11.35	-3.1718e+05	3014.3	-0.33643	0.042163	0.94896
2.212	11.292	-3.1718e+05	3014	-0.33682	0.043042	0.94857
2.214	11.311	-3.1718e+05	3013.8	-0.33721	0.04392	0.94818
2.216	11.397	-3.1718e+05	3013.6	-0.33711	0.043725	0.94809
2.218	11.62	-3.1718e+05	3013.3	-0.33701	0.04353	0.94799
2.22	11.721	-3.1718e+05	3013.1	-0.33692	0.043334	0.94789
2.222	11.691	-3.1718e+05	3012.9	-0.33682	0.043139	0.94779
2.224	11.592	-3.1718e+05	3012.7	-0.33672	0.042944	0.9477
2.226	11.382	-3.1718e+05	3012.4	-0.33692	0.043334	0.94789
2.228	11.252	-3.1719e+05	3012.1	-0.33711	0.043725	0.94809
2.23	11.271	-3.1719e+05	3011.9	-0.33731	0.044115	0.94828
2.232	11.366	-3.1719e+05	3011.6	-0.3375	0.044506	0.94848
2.234	11.557	-3.1719e+05	3011.4	-0.3377	0.044896	0.94867
2.236	11.696	-3.1719e+05	3011.2	-0.33643	0.04431	0.94896
2.238	11.727	-3.1719e+05	3011	-0.33516	0.043725	0.94926
2.24	11.66	-3.1719e+05	3010.7	-0.33389	0.043139	0.94955
2.242	11.445	-3.1719e+05	3010.4	-0.33262	0.042554	0.94984
2.244	11.258	-3.1719e+05	3010.1	-0.33135	0.041968	0.95014
2.246	11.25	-3.172e+05	3009.9	-0.33213	0.042261	0.94994
2.248	11.344	-3.172e+05	3009.6	-0.33291	0.042554	0.94975
2.25	11.527	-3.172e+05	3009.4	-0.33369	0.042846	0.94955
2.252	11.712	-3.1721e+05	3009.1	-0.33448	0.043139	0.94936
2.254	11.746	-3.1721e+05	3008.8	-0.33526	0.043432	0.94916
2.256	11.686	-3.1721e+05	3008.5	-0.33487	0.042554	0.94877
2.258	11.561	-3.1721e+05	3008.3	-0.33448	0.041675	0.94838
2.26	11.374	-3.1721e+05	3008.1	-0.33408	0.040797	0.94799
2.262	11.292	-3.1722e+05	3007.9	-0.33369	0.039918	0.9476
2.264	11.346	-3.1723e+05	3007.6	-0.3333	0.03904	0.94721
2.266	11.469	-3.1723e+05	3007.4	-0.33379	0.038942	0.94711
2.268	11.684	-3.1723e+05	3007.2	-0.33428	0.038845	0.94701
2.27	11.802	-3.1723e+05	3006.9	-0.33477	0.038747	0.94692
2.272	11.747	-3.1722e+05	3006.7	-0.33526	0.03865	0.94682
2.274	11.63	-3.1723e+05	3006.4	-0.33574	0.038552	0.94672
2.276	11.433	-3.1723e+05	3006.2	-0.33506	0.038747	0.9475
2.278	11.28	-3.1724e+05	3005.9	-0.33438	0.038942	0.94828
2.28	11.306	-3.1724e+05	3005.7	-0.33369	0.039138	0.94906
2.282	11.388	-3.1724e+05	3005.4	-0.33301	0.039333	0.94984
2.284	11.585	-3.1724e+05	3005.1	-0.33233	0.039528	0.95062
2.286	11.774	-3.1725e+05	3004.9	-0.3333	0.039821	0.95043
2.288	11.732	-3.1725e+05	3004.6	-0.33428	0.040114	0.95023
2.29	11.671	-3.1725e+05	3004.4	-0.33526	0.040406	0.95004
2.292	11.499	-3.1724e+05	3004.2	-0.33623	0.040699	0.94984
2.294	11.289	-3.1725e+05	3003.9	-0.33721	0.040992	0.94965
2.296	11.254	-3.1726e+05	3003.7	-0.33613	0.040406	0.94945
2.298	11.314	-3.1726e+05	3003.6	-0.33506	0.039821	0.94926
2.3	11.463	-3.1726e+05	3003.3	-0.33399	0.039235	0.94906
2.302	11.653	-3.1726e+05	3003.1	-0.33291	0.03865	0.94887
2.304	11.687	-3.1726e+05	3002.9	-0.33184	0.038064	0.94867
2.306	11.638	-3.1726e+05	3002.6	-0.33174	0.037966	0.94828
2.308	11.512	-3.1727e+05	3002.4	-0.33164	0.037869	0.94789
2.31	11.301	-3.1727e+05	3002.3	-0.33155	0.037771	0.9475
2.312	11.228	-3.1728e+05	3002.1	-0.33145	0.037674	0.94711
2.314	11.255	-3.1727e+05	3001.9	-0.33135	0.037576	0.94672
2.316	11.39	-3.1727e+05	3001.7	-0.33164	0.037674	0.94692
2.318	11.603	-3.1728e+05	3001.4	-0.33194	0.037771	0.94711
2.32	11.672	-3.1728e+05	3001.2	-0.33223	0.037869	0.94731
2.322	11.641	-3.1729e+05	3000.9	-0.33252	0.037966	0.9475
2.324	11.557	-3.1729e+05	3000.7	-0.33282	0.038064	0.9477
2.326	11.357	-3.1729e+05	3000.5	-0.33282	0.038454	0.94789
2.328	11.214	-3.1728e+05	3000.3	-0.33282	0.038845	0.94809
2.33	11.242	-3.1729e+05	3000.1	-0.33282	0.039235	0.94828
2.332	11.339	-3.173e+05	2999.9	-0.33282	0.039626	0.94848
2.334	11.508	-3.1731e+05	2999.7	-0.33282	0.040016	0.94867
2.336	11.662	-3.1732e+05	2999.5	-0.33272	0.040016	0.94838
2.338	11.672	-3.1732e+05	2999.4	-0.33262	0.040016	0.94809
2.34	11.618	-3.1732e+05	2999.2	-0.33252	0.040016	0.94779
2.342	11.471	-3.1732e+05	2999	-0.33243	0.040016	0.9475
2.344	11.274	-3.1732e+05	2998.8	-0.33233	0.040016	0.94721
2.346	11.235	-3.1732e+05	2998.7	-0.33223	0.039333	0.94701
2.348	11.313	-3.1733e+05	2998.6	-0.33213	0.03865	0.94682
2.35	11.465	-3.1733e+05	2998.4	-0.33204	0.037966	0.94662
2.352	11.654	-3.1733e+05	2998.2	-0.33194	0.037283	0.94643
2.354	11.671	-3.1733e+05	2998	-0.33184	0.0366	0.94623
2.356	11.601	-3.1734e+05	2997.8	-0.33223	0.036502	0.94672
2.358	11.504	-3.1734e+05	2997.6	-0.33262	0.036405	0.94721
2.36	11.302	-3.1735e+05	2997.5	-0.33301	0.036307	0.9477
2.362	11.216	-3.1735e+05	2997.3	-0.3334	0.03621	0.94818
2.364	11.229	-3.1735e+05	2997.2	-0.33379	0.036112	0.94867
2.366	11.34	-3.1735e+05	2997	-0.33399	0.036893	0.94896
2.368	11.606	-3.1736e+05	2996.9	-0.33418	0.037674	0.94926
2.37	11.708	-3.1736e+05	2996.7	-0.33438	0.038454	0.94955
2.372	11.642	-3.1737e+05	2996.6	-0.33457	0.039235	0.94984
2.374	11.564	-3.1737e+05	2996.5	-0.33477	0.040016	0.95014
2.376	11.363	-3.1737e+05	2996.4	-0.33496	0.040016	0.95023
2.378	11.233	-3.1738e+05	2996.3	-0.33516	0.040016	0.95033
2.38	11.241	-3.1738e+05	2996.2	-0.33535	0.040016	0.95043
2.382	11.322	-3.1738e+05	2996	-0.33555	0.040016	0.95053
2.384	11.53	-3.1738e+05	2995.9	-0.33574	0.040016	0.95062
2.386	11.685	-3.1738e+05	2995.8	-0.33506	0.039528	0.95004
2.388	11.691	-3.1739e+05	2995.7	-0.33438	0.03904	0.94945
2.39	11.626	-3.1739e+05	2995.6	-0.33369	0.038552	0.94887
2.392	11.43	-3.174e+05	2995.5	-0.33301	0.038064	0.94828
2.394	11.252	-3.174e+05	2995.4	-0.33233	0.037576	0.9477
2.396	11.242	-3.174e+05	2995.4	-0.33369	0.038064	0.94711
2.398	11.336	-3.174e+05	2995.3	-0.33506	0.038552	0.94652
2.4	11.537	-3.174e+05	2995.2	-0.33643	0.03904	0.94594
2.402	11.75	-3.174e+05	2995.1	-0.33779	0.039528	0.94535
2.404	11.809	-3.174e+05	2995	-0.33916	0.040016	0.94477
2.406	11.766	-3.1741e+05	2994.9	-0.33857	0.040016	0.94545
2.408	11.631	-3.1741e+05	2994.8	-0.33799	0.040016	0.94613
2.41	11.425	-3.1741e+05	2994.7	-0.3374	0.040016	0.94682
2.412	11.318	-3.1741e+05	2994.6	-0.33682	0.040016	0.9475
2.414	11.322	-3.1742e+05	2994.5	-0.33623	0.040016	0.94818
2.416	11.394	-3.1743e+05	2994.4	-0.33682	0.041187	0.94809
2.418	11.529	-3.1743e+05	2994.3	-0.3374	0.042358	0.94799
2.42	11.567	-3.1743e+05	2994.2	-0.33799	0.04353	0.94789
2.422	11.447	-3.1743e+05	2994.1	-0.33857	0.044701	0.94779
2.424	11.255	-3.1743e+05	2994	-0.33916	0.045872	0.9477
2.426	11.008	-3.1744e+05	2993.9	-0.33975	0.046067	0.94701
2.428	10.839	-3.1744e+05	2993.7	-0.34033	0.046262	0.94633
2.43	10.853	-3.1744e+05	2993.6	-0.34092	0.046458	0.94565
2.432	10.968	-3.1744e+05	2993.5	-0.3415	0.046653	0.94496
2.434	11.18	-3.1745e+05	2993.3	-0.34209	0.046848	0.94428
2.436	11.371	-3.1745e+05	2993.2	-0.34228	0.046848	0.94408
2.438	11.361	-3.1746e+05	2993.1	-0.34248	0.046848	0.94389
2.44	11.293	-3.1746e+05	2993	-0.34267	0.046848	0.94369
2.442	11.176	-3.1747e+05	2992.9	-0.34287	0.046848	0.9435
2.444	10.995	-3.1747e+05	2992.7	-0.34306	0.046848	0.9433
2.446	10.994	-3.1747e+05	2992.6	-0.3414	0.046262	0.94418
2.448	11.085	-3.1748e+05	2992.4	-0.33975	0.045677	0.94506
2.45	11.262	-3.1748e+05	2992.2	-0.33809	0.045091	0.94594
2.452	11.523	-3.1748e+05	2992.1	-0.33643	0.044506	0.94682
2.454	11.581	-3.1749e+05	2992	-0.33477	0.04392	0.9477
2.456	11.556	-3.1749e+05	2991.8	-0.33428	0.043334	0.94809
2.458	11.47	-3.1749e+05	2991.6	-0.33379	0.042749	0.94848
2.46	11.225	-3.1748e+05	2991.4	-0.3333	0.042163	0.94887
2.462	11.134	-3.1749e+05	2991.2	-0.33282	0.041578	0.94926
2.464	11.156	-3.175e+05	2991	-0.33233	0.040992	0.94965
2.466	11.329	-3.175e+05	2990.8	-0.33272	0.040797	0.94994
2.468	11.632	-3.175e+05	2990.7	-0.33311	0.040602	0.95023
2.47	11.724	-3.1751e+05	2990.5	-0.3335	0.040406	0.95053
2.472	11.674	-3.1752e+05	2990.3	-0.33389	0.040211	0.95082
2.474	11.568	-3.1752e+05	2990.1	-0.33428	0.040016	0.95111
2.476	11.345	-3.1752e+05	2989.9	-0.33418	0.039626	0.95092
2.478	11.207	-3.1752e+05	2989.7	-0.33408	0.039235	0.95072
2.48	11.251	-3.1752e+05	2989.5	-0.33399	0.038845	0.95053
2.482	11.347	-3.1753e+05	2989.3	-0.33389	0.038454	0.95033
2.484	11.542	-3.1753e+05	2989.1	-0.33379	0.038064	0.95014
2.486	11.695	-3.1754e+05	2989	-0.3335	0.03865	0.95033
2.488	11.71	-3.1754e+05	2988.8	-0.33321	0.039235	0.95053
2.49	11.634	-3.1754e+05	2988.6	-0.33291	0.039821	0.95072
2.492	11.454	-3.1754e+05	2988.4	-0.33262	0.040406	0.95092
2.494	11.298	-3.1755e+05	2988.2	-0.33233	0.040992	0.95111
2.496	11.266	-3.1757e+05	2988	-0.33311	0.042066	0.95014
2.498	11.326	-3.1757e+05	2987.8	-0.33389	0.043139	0.94916
2.5	11.489	-3.1756e+05	2987.6	-0.33467	0.044213	0.94818
2.502	11.675	-3.1756e+05	2987.4	-0.33545	0.045286	0.94721
2.504	11.725	-3.1756e+05	2987.3	-0.33623	0.04636	0.94623
2.506	11.662	-3.1757e+05	2987	-0.33731	0.047043	0.94516
2.508	11.537	-3.1757e+05	2986.8	-0.33838	0.047726	0.94408
2.51	11.359	-3.1758e+05	2986.6	-0.33945	0.04841	0.94301
2.512	11.272	-3.1758e+05	2986.4	-0.34053	0.049093	0.94194
2.514	11.314	-3.1759e+05	2986.2	-0.3416	0.049776	0.94086
2.516	11.439	-3.1759e+05	2985.9	-0.34238	0.048605	0.94145
2.518	11.633	-3.176e+05	2985.7	-0.34316	0.047434	0.94204
2.52	11.752	-3.176e+05	2985.5	-0.34394	0.046262	0.94262
2.522	11.713	-3.176e+05	2985.2	-0.34472	0.045091	0.94321
2.524	11.613	-3.1761e+05	2985	-0.3455	0.04392	0.94379
2.526	11.437	-3.1761e+05	2984.8	-0.34384	0.044603	0.94496
2.528	11.287	-3.1761e+05	2984.6	-0.34219	0.045286	0.94613
2.53	11.297	-3.1762e+05	2984.4	-0.34053	0.04597	0.94731
2.532	11.356	-3.1763e+05	2984.2	-0.33887	0.046653	0.94848
2.534	11.535	-3.1763e+05	2984	-0.33721	0.047336	0.94965
2.536	11.739	-3.1763e+05	2983.9	-0.33701	0.046067	0.95004
2.538	11.739	-3.1764e+05	2983.7	-0.33682	0.044798	0.95043
2.54	11.68	-3.1764e+05	2983.6	-0.33662	0.04353	0.95082
2.542	11.522	-3.1763e+05	2983.4	-0.33643	0.042261	0.95121
2.544	11.309	-3.1762e+05	2983.3	-0.33623	0.040992	0.9516
2.546	11.288	-3.1763e+05	2983.3	-0.33584	0.040894	0.95111
2.548	11.341	-3.1764e+05	2983.3	-0.33545	0.040797	0.95062
2.55	11.495	-3.1765e+05	2983.3	-0.33506	0.040699	0.95014
2.552	11.727	-3.1765e+05	2983.5	-0.33467	0.040602	0.94965
2.554	11.77	-3.1766e+05	2983.6	-0.33428	0.040504	0.94916
2.556	11.708	-3.1766e+05	2984	-0.33418	0.040309	0.94877
2.558	11.576	-3.1767e+05	2984.4	-0.33408	0.040114	0.94838
2.56	11.362	-3.1767e+05	2985	-0.33399	0.039918	0.94799
2.562	11.29	-3.1767e+05	2985.9	-0.33389	0.039723	0.9476
2.564	11.332	-3.1767e+05	2986.7	-0.33379	0.039528	0.94721
2.566	11.449	-3.1767e+05	2988	-0.33487	0.039918	0.94643
2.568	11.684	-3.1767e+05	2989.3	-0.33594	0.040309	0.94565
2.57	11.796	-3.1767e+05	2990.9	-0.33701	0.040699	0.94487
2.572	11.761	-3.1768e+05	2992.7	-0.33809	0.04109	0.94408
2.574	11.672	-3.1768e+05	2994.6	-0.33916	0.04148	0.9433
2.576	11.507	-3.1769e+05	2997	-0.33955	0.042749	0.9435
2.578	11.366	-3.1769e+05	2999.3	-0.33994	0.044018	0.94369
2.58	11.347	-3.177e+05	3001.8	-0.34033	0.045286	0.94389
2.582	11.434	-3.177e+05	3004.4	-0.34072	0.046555	0.94408
2.584	11.626	-3.177e+05	3007.1	-0.34111	0.047824	0.94428
2.586	11.783	-3.177e+05	3009.7	-0.34082	0.047238	0.94613
2.588	11.811	-3.177e+05	3012.4	-0.34053	0.046653	0.94799
2.59	11.76	-3.1771e+05	3015	-0.34023	0.046067	0.94984
2.592	11.592	-3.1772e+05	3017.5	-0.33994	0.045482	0.9517
2.594	11.402	-3.1771e+05	3020	-0.33965	0.044896	0.95355
2.596	11.383	-3.177e+05	3022.3	-0.3417	0.043627	0.95375
2.598	11.461	-3.177e+05	3024.6	-0.34375	0.042358	0.95394
2.6	11.602	-3.177e+05	3026.8	-0.3458	0.04109	0.95414
2.602	11.803	-3.177e+05	3028.7	-0.34785	0.039821	0.95433
2.604	11.87	-3.1769e+05	3030.7	-0.3499	0.038552	0.95453
2.606	11.818	-3.1769e+05	3032.3	-0.34882	0.038747	0.95443
2.608	11.715	-3.1769e+05	3033.9	-0.34775	0.038942	0.95433
2.61	11.518	-3.177e+05	3035.4	-0.34668	0.039138	0.95424
2.612	11.409	-3.1771e+05	3036.7	-0.3456	0.039333	0.95414
2.614	11.461	-3.1771e+05	3038.1	-0.34453	0.039528	0.95404
2.616	11.584	-3.1771e+05	3039.3	-0.34472	0.040114	0.95394
2.618	11.803	-3.1771e+05	3040.5	-0.34492	0.040699	0.95384
2.62	11.931	-3.1772e+05	3041.7	-0.34511	0.041285	0.95375
2.622	11.899	-3.1771e+05	3042.7	-0.34531	0.04187	0.95365
2.624	11.817	-3.177e+05	3043.7	-0.3455	0.042456	0.95355
2.626	11.596	-3.1769e+05	3044.6	-0.34443	0.043139	0.95326
2.628	11.43	-3.1769e+05	3045.5	-0.34336	0.043822	0.95297
2.63	11.476	-3.1768e+05	3046.3	-0.34228	0.044506	0.95267
2.632	11.539	-3.1767e+05	3047.1	-0.34121	0.045189	0.95238
2.634	11.752	-3.1767e+05	3047.9	-0.34014	0.045872	0.95209
2.636	11.951	-3.1767e+05	3048.7	-0.33936	0.045091	0.95189
2.638	11.913	-3.1766e+05	3049.4	-0.33857	0.04431	0.9517
2.64	11.821	-3.1765e+05	3050	-0.33779	0.04353	0.9515
2.642	11.678	-3.1765e+05	3050.6	-0.33701	0.042749	0.95131
2.644	11.511	-3.1764e+05	3051.1	-0.33623	0.041968	0.95111
2.646	11.482	-3.1763e+05	3051.4	-0.33565	0.042163	0.9514
2.648	11.534	-3.1762e+05	3051.8	-0.33506	0.042358	0.9517
2.65	11.682	-3.1762e+05	3052.1	-0.33448	0.042554	0.95199
2.652	11.875	-3.1761e+05	3052.4	-0.33389	0.042749	0.95228
2.654	11.929	-3.1761e+05	3052.7	-0.3333	0.042944	0.95258
2.656	11.887	-3.1761e+05	3053	-0.33262	0.042163	0.9518
2.658	11.748	-3.176e+05	3053.2	-0.33194	0.041382	0.95101
2.66	11.547	-3.1759e+05	3053.4	-0.33125	0.040602	0.95023
2.662	11.459	-3.1759e+05	3053.6	-0.33057	0.039821	0.94945
2.664	11.481	-3.1758e+05	3053.7	-0.32989	0.03904	0.94867
2.666	11.586	-3.1758e+05	3053.8	-0.32911	0.039821	0.94828
2.668	11.784	-3.1757e+05	3054	-0.32833	0.040602	0.94789
2.67	11.892	-3.1757e+05	3054.1	-0.32755	0.041382	0.9475
2.672	11.848	-3.1757e+05	3054.2	-0.32676	0.042163	0.94711
2.674	11.735	-3.1756e+05	3054.2	-0.32598	0.042944	0.94672
2.676	11.552	-3.1756e+05	3054.2	-0.32598	0.04392	0.94623
2.678	11.392	-3.1755e+05	3054.2	-0.32598	0.044896	0.94574
2.68	11.365	-3.1754e+05	3054.2	-0.32598	0.045872	0.94526
2.682	11.461	-3.1753e+05	3054.2	-0.32598	0.046848	0.94477
2.684	11.652	-3.1753e+05	3054.2	-0.32598	0.047824	0.94428
2.686	11.833	-3.1752e+05	3054.1	-0.32686	0.046653	0.94516
2.688	11.844	-3.1751e+05	3054	-0.32774	0.045482	0.94604
2.69	11.751	-3.1751e+05	3053.9	-0.32862	0.04431	0.94692
2.692	11.567	-3.1751e+05	3053.9	-0.3295	0.043139	0.94779
2.694	11.349	-3.175e+05	3053.8	-0.33038	0.041968	0.94867
2.696	11.312	-3.175e+05	3053.7	-0.33106	0.042846	0.94799
2.698	11.369	-3.1749e+05	3053.6	-0.33174	0.043725	0.94731
2.7	11.488	-3.1748e+05	3053.5	-0.33243	0.044603	0.94662
2.702	11.74	-3.1748e+05	3053.3	-0.33311	0.045482	0.94594
2.704	11.805	-3.1748e+05	3053.2	-0.33379	0.04636	0.94526
2.706	11.71	-3.1748e+05	3053	-0.33399	0.04636	0.94535
2.708	11.583	-3.1747e+05	3052.9	-0.33418	0.04636	0.94545
2.71	11.347	-3.1746e+05	3052.7	-0.33438	0.04636	0.94555
2.712	11.249	-3.1746e+05	3052.5	-0.33457	0.04636	0.94565
2.714	11.339	-3.1745e+05	3052.3	-0.33477	0.04636	0.94574
2.716	11.433	-3.1744e+05	3052.1	-0.3336	0.046165	0.94623
2.718	11.657	-3.1743e+05	3051.8	-0.33243	0.04597	0.94672
2.72	11.753	-3.1742e+05	3051.6	-0.33125	0.045774	0.94721
2.722	11.707	-3.1742e+05	3051.3	-0.33008	0.045579	0.9477
2.724	11.655	-3.1741e+05	3051.1	-0.32891	0.045384	0.94818
2.726	11.424	-3.1741e+05	3050.8	-0.32979	0.044798	0.94809
2.728	11.268	-3.1741e+05	3050.5	-0.33067	0.044213	0.94799
2.73	11.288	-3.174e+05	3050.2	-0.33155	0.043627	0.94789
2.732	11.354	-3.1739e+05	3049.9	-0.33243	0.043042	0.94779
2.734	11.553	-3.1738e+05	3049.7	-0.3333	0.042456	0.9477
2.736	11.722	-3.1737e+05	3049.3	-0.33272	0.042358	0.94838
2.738	11.742	-3.1737e+05	3049	-0.33213	0.042261	0.94906
2.74	11.676	-3.1736e+05	3048.7	-0.33155	0.042163	0.94975
2.742	11.493	-3.1737e+05	3048.4	-0.33096	0.042066	0.95043
2.744	11.309	-3.1737e+05	3048.1	-0.33038	0.041968	0.95111
2.746	11.263	-3.1736e+05	3047.7	-0.33047	0.04187	0.95121
2.748	11.316	-3.1736e+05	3047.4	-0.33057	0.041773	0.95131
2.75	11.471	-3.1735e+05	3047	-0.33067	0.041675	0.9514
2.752	11.648	-3.1735e+05	3046.7	-0.33077	0.041578	0.9515
2.754	11.717	-3.1734e+05	3046.3	-0.33086	0.04148	0.9516
2.756	11.691	-3.1733e+05	3046	-0.33213	0.041187	0.95043
2.758	11.569	-3.1733e+05	3045.6	-0.3334	0.040894	0.94926
2.76	11.361	-3.1733e+05	3045.2	-0.33467	0.040602	0.94809
2.762	11.241	-3.1733e+05	3044.9	-0.33594	0.040309	0.94692
2.764	11.281	-3.1733e+05	3044.6	-0.33721	0.040016	0.94574
2.766	11.404	-3.1732e+05	3044.2	-0.33731	0.040894	0.94731
2.768	11.603	-3.1731e+05	3043.8	-0.3374	0.041773	0.94887
2.77	11.73	-3.173e+05	3043.5	-0.3375	0.042651	0.95043
2.772	11.69	-3.173e+05	3043.1	-0.3376	0.04353	0.95199
2.774	11.575	-3.1729e+05	3042.8	-0.3377	0.044408	0.95355
2.776	11.391	-3.1729e+05	3042.4	-0.33828	0.044994	0.95316
2.778	11.26	-3.1728e+05	3042	-0.33887	0.045579	0.95277
2.78	11.284	-3.1728e+05	3041.6	-0.33945	0.046165	0.95238
2.782	11.372	-3.1728e+05	3041.3	-0.34004	0.04675	0.95199
2.784	11.545	-3.1728e+05	3040.9	-0.34062	0.047336	0.9516
2.786	11.73	-3.1727e+05	3040.5	-0.34092	0.046848	0.95209
2.788	11.715	-3.1727e+05	3040.1	-0.34121	0.04636	0.95258
2.79	11.623	-3.1727e+05	3039.7	-0.3415	0.045872	0.95306
2.792	11.506	-3.1726e+05	3039.2	-0.3418	0.045384	0.95355
2.794	11.302	-3.1726e+05	3038.8	-0.34209	0.044896	0.95404
2.796	11.234	-3.1727e+05	3038.2	-0.34092	0.045579	0.95306
2.798	11.292	-3.1726e+05	3037.6	-0.33975	0.046262	0.95209
2.8	11.435	-3.1725e+05	3037.1	-0.33857	0.046946	0.95111
2.802	11.666	-3.1725e+05	3036.5	-0.3374	0.047629	0.95014
2.804	11.718	-3.1725e+05	3035.9	-0.33623	0.048312	0.94916
2.806	11.685	-3.1725e+05	3035.2	-0.3375	0.0488	0.94916
2.808	11.577	-3.1725e+05	3034.5	-0.33877	0.049288	0.94916
2.81	11.342	-3.1724e+05	3033.8	-0.34004	0.049776	0.94916
2.812	11.242	-3.1723e+05	3033.1	-0.34131	0.050264	0.94916
2.814	11.273	-3.1724e+05	3032.4	-0.34258	0.050752	0.94916
2.816	11.38	-3.1724e+05	3031.7	-0.3418	0.050459	0.94857
2.818	11.592	-3.1724e+05	3030.9	-0.34101	0.050166	0.94799
2.82	11.703	-3.1723e+05	3030.2	-0.34023	0.049874	0.9474
2.822	11.721	-3.1722e+05	3029.4	-0.33945	0.049581	0.94682
2.824	11.656	-3.1722e+05	3028.6	-0.33867	0.049288	0.94623
2.826	11.437	-3.1722e+05	3027.9	-0.33965	0.048995	0.94555
2.828	11.27	-3.1721e+05	3027.1	-0.34062	0.048702	0.94487
2.83	11.247	-3.1721e+05	3026.4	-0.3416	0.04841	0.94418
2.832	11.322	-3.1722e+05	3025.7	-0.34258	0.048117	0.9435
2.834	11.504	-3.1722e+05	3025	-0.34355	0.047824	0.94282
2.836	11.663	-3.1722e+05	3024.4	-0.34365	0.048117	0.94291
2.838	11.705	-3.1722e+05	3023.7	-0.34375	0.04841	0.94301
2.84	11.671	-3.1722e+05	3023.1	-0.34384	0.048702	0.94311
2.842	11.516	-3.1722e+05	3022.5	-0.34394	0.048995	0.94321
2.844	11.306	-3.1722e+05	3021.8	-0.34404	0.049288	0.9433
2.846	11.237	-3.1722e+05	3021.3	-0.34394	0.04841	0.94399
2.848	11.302	-3.1722e+05	3020.8	-0.34384	0.047531	0.94467
2.85	11.456	-3.1722e+05	3020.4	-0.34375	0.046653	0.94535
2.852	11.655	-3.1722e+05	3020	-0.34365	0.045774	0.94604
2.854	11.713	-3.1721e+05	3019.6	-0.34355	0.044896	0.94672
2.856	11.652	-3.1721e+05	3019.3	-0.34424	0.045482	0.94604
2.858	11.576	-3.1721e+05	3018.9	-0.34492	0.046067	0.94535
2.86	11.401	-3.1721e+05	3018.5	-0.3456	0.046653	0.94467
2.862	11.272	-3.1721e+05	3018.2	-0.34628	0.047238	0.94399
2.864	11.315	-3.1721e+05	3017.9	-0.34697	0.047824	0.9433
2.866	11.408	-3.1721e+05	3017.7	-0.34541	0.047726	0.94399
2.868	11.596	-3.1721e+05	3017.4	-0.34384	0.047629	0.94467
2.87	11.727	-3.1722e+05	3017.2	-0.34228	0.047531	0.94535
2.872	11.723	-3.1722e+05	3017	-0.34072	0.047434	0.94604
2.874	11.643	-3.1722e+05	3016.8	-0.33916	0.047336	0.94672
2.876	11.425	-3.1722e+05	3016.7	-0.34014	0.047141	0.94623
2.878	11.245	-3.1722e+05	3016.5	-0.34111	0.046946	0.94574
2.88	11.248	-3.1722e+05	3016.3	-0.34209	0.04675	0.94526
2.882	11.321	-3.1722e+05	3016.1	-0.34306	0.046555	0.94477
2.884	11.527	-3.1722e+05	3016	-0.34404	0.04636	0.94428
2.886	11.746	-3.1722e+05	3015.8	-0.34394	0.04597	0.94438
2.888	11.732	-3.1722e+05	3015.6	-0.34384	0.045579	0.94448
2.89	11.677	-3.1722e+05	3015.5	-0.34375	0.045189	0.94457
2.892	11.5	-3.1722e+05	3015.4	-0.34365	0.044798	0.94467
2.894	11.294	-3.1723e+05	3015.3	-0.34355	0.044408	0.94477
2.896	11.263	-3.1723e+05	3015.2	-0.34355	0.045189	0.94379
2.898	11.299	-3.1723e+05	3015	-0.34355	0.04597	0.94282
2.9	11.468	-3.1723e+05	3014.9	-0.34355	0.04675	0.94184
2.902	11.681	-3.1723e+05	3014.8	-0.34355	0.047531	0.94086
2.904	11.73	-3.1722e+05	3014.7	-0.34355	0.048312	0.93989
2.906	11.688	-3.1722e+05	3014.6	-0.34306	0.048117	0.94086
2.908	11.561	-3.1723e+05	3014.5	-0.34258	0.047922	0.94184
2.91	11.34	-3.1723e+05	3014.3	-0.34209	0.047726	0.94282
2.912	11.241	-3.1724e+05	3014.2	-0.3416	0.047531	0.94379
2.914	11.283	-3.1724e+05	3014.1	-0.34111	0.047336	0.94477
2.916	11.415	-3.1723e+05	3013.9	-0.3415	0.047336	0.94457
2.918	11.6	-3.1724e+05	3013.8	-0.34189	0.047336	0.94438
2.92	11.688	-3.1724e+05	3013.6	-0.34228	0.047336	0.94418
2.922	11.694	-3.1724e+05	3013.5	-0.34267	0.047336	0.94399
2.924	11.646	-3.1724e+05	3013.3	-0.34306	0.047336	0.94379
2.926	11.479	-3.1724e+05	3013.2	-0.34287	0.048019	0.9433
2.928	11.322	-3.1725e+05	3013.1	-0.34267	0.048702	0.94282
2.93	11.282	-3.1724e+05	3013	-0.34248	0.049386	0.94233
2.932	11.337	-3.1724e+05	3012.8	-0.34228	0.050069	0.94184
2.934	11.518	-3.1724e+05	3012.7	-0.34209	0.050752	0.94135
2.936	11.703	-3.1725e+05	3012.6	-0.3416	0.050069	0.94174
2.938	11.727	-3.1725e+05	3012.4	-0.34111	0.049386	0.94213
2.94	11.654	-3.1725e+05	3012.3	-0.34062	0.048702	0.94252
2.942	11.51	-3.1725e+05	3012.3	-0.34014	0.048019	0.94291
2.944	11.322	-3.1726e+05	3012.2	-0.33965	0.047336	0.9433
2.946	11.259	-3.1726e+05	3012	-0.33848	0.04675	0.94477
2.948	11.288	-3.1726e+05	3011.8	-0.33731	0.046165	0.94623
2.95	11.419	-3.1725e+05	3011.7	-0.33613	0.045579	0.9477
2.952	11.675	-3.1724e+05	3011.5	-0.33496	0.044994	0.94916
2.954	11.749	-3.1725e+05	3011.3	-0.33379	0.044408	0.95062
2.956	11.69	-3.1726e+05	3011.1	-0.33418	0.04431	0.95082
2.958	11.584	-3.1725e+05	3010.9	-0.33457	0.044213	0.95101
2.96	11.352	-3.1725e+05	3010.7	-0.33496	0.044115	0.95121
2.962	11.234	-3.1726e+05	3010.5	-0.33535	0.044018	0.9514
2.964	11.26	-3.1726e+05	3010.3	-0.33574	0.04392	0.9516
2.966	11.364	-3.1726e+05	3010.1	-0.33516	0.043822	0.9514
2.968	11.623	-3.1726e+05	3009.9	-0.33457	0.043725	0.95121
2.97	11.767	-3.1727e+05	3009.7	-0.33399	0.043627	0.95101
2.972	11.716	-3.1729e+05	3009.5	-0.3334	0.04353	0.95082
2.974	11.627	-3.1728e+05	3009.3	-0.33282	0.043432	0.95062
2.976	11.417	-3.1728e+05	3009.1	-0.3334	0.044506	0.95033
2.978	11.268	-3.1727e+05	3008.9	-0.33399	0.045579	0.95004
2.98	11.283	-3.1727e+05	3008.7	-0.33457	0.046653	0.94975
2.982	11.341	-3.1727e+05	3008.5	-0.33516	0.047726	0.94945
2.984	11.529	-3.1727e+05	3008.3	-0.33574	0.0488	0.94916
2.986	11.718	-3.1728e+05	3008.1	-0.33516	0.047629	0.94945
2.988	11.73	-3.1729e+05	3007.9	-0.33457	0.046458	0.94975
2.99	11.656	-3.1729e+05	3007.7	-0.33399	0.045286	0.95004
2.992	11.469	-3.173e+05	3007.5	-0.3334	0.044115	0.95033
2.994	11.297	-3.1729e+05	3007.3	-0.33282	0.042944	0.95062
2.996	11.263	-3.1729e+05	3007.1	-0.33301	0.043042	0.95092
2.998	11.322	-3.1729e+05	3006.9	-0.33321	0.043139	0.95121
3	11.477	-3.1729e+05	3006.7	-0.3334	0.043237	0.9515
3.002	11.677	-3.1729e+05	3006.5	-0.3336	0.043334	0.9518
3.004	11.741	-3.1729e+05	3006.3	-0.33379	0.043432	0.95209
3.006	11.692	-3.1729e+05	3006	-0.33311	0.043042	0.95199
3.008	11.554	-3.1729e+05	3005.8	-0.33243	0.042651	0.95189
3.01	11.35	-3.173e+05	3005.6	-0.33174	0.042261	0.9518
3.012	11.249	-3.173e+05	3005.4	-0.33106	0.04187	0.9517
3.014	11.287	-3.1731e+05	3005.2	-0.33038	0.04148	0.9516
3.016	11.416	-3.1731e+05	3005	-0.33135	0.04109	0.95004
3.018	11.614	-3.1731e+05	3004.8	-0.33233	0.040699	0.94848
3.02	11.736	-3.1732e+05	3004.5	-0.3333	0.040309	0.94692
3.022	11.712	-3.1731e+05	3004.3	-0.33428	0.039918	0.94535
3.024	11.618	-3.173e+05	3004.1	-0.33526	0.039528	0.94379
3.026	11.448	-3.1731e+05	3003.9	-0.33448	0.039821	0.94457
3.028	11.28	-3.1732e+05	3003.7	-0.33369	0.040114	0.94535
3.03	11.247	-3.1732e+05	3003.5	-0.33291	0.040406	0.94613
3.032	11.316	-3.1733e+05	3003.2	-0.33213	0.040699	0.94692
3.034	11.504	-3.1733e+05	3002.9	-0.33135	0.040992	0.9477
3.036	11.7	-3.1734e+05	3002.7	-0.33125	0.040797	0.94779
3.038	11.727	-3.1734e+05	3002.4	-0.33116	0.040602	0.94789
3.04	11.69	-3.1734e+05	3002.2	-0.33106	0.040406	0.94799
3.042	11.566	-3.1734e+05	3002	-0.33096	0.040211	0.94809
3.044	11.349	-3.1733e+05	3001.8	-0.33086	0.040016	0.94818
3.046	11.249	-3.1734e+05	3001.5	-0.33106	0.040309	0.94818
3.048	11.302	-3.1734e+05	3001.3	-0.33125	0.040602	0.94818
3.05	11.435	-3.1734e+05	3001	-0.33145	0.040894	0.94818
3.052	11.675	-3.1734e+05	3000.8	-0.33164	0.041187	0.94818
3.054	11.772	-3.1735e+05	3000.6	-0.33184	0.04148	0.94818
3.056	11.697	-3.1735e+05	3000.4	-0.33135	0.041578	0.94799
3.058	11.563	-3.1735e+05	3000.1	-0.33086	0.041675	0.94779
3.06	11.366	-3.1735e+05	2999.9	-0.33038	0.041773	0.9476
3.062	11.28	-3.1736e+05	2999.7	-0.32989	0.04187	0.9474
3.064	11.306	-3.1736e+05	2999.5	-0.3294	0.041968	0.94721
3.066	11.402	-3.1736e+05	2999.3	-0.3296	0.041675	0.94731
3.068	11.631	-3.1736e+05	2999.1	-0.32979	0.041382	0.9474
3.07	11.74	-3.1737e+05	2998.9	-0.32999	0.04109	0.9475
3.072	11.707	-3.1738e+05	2998.6	-0.33018	0.040797	0.9476
3.074	11.67	-3.1737e+05	2998.4	-0.33038	0.040504	0.9477
3.076	11.485	-3.1737e+05	2998.2	-0.33057	0.04109	0.94809
3.078	11.308	-3.1737e+05	2998	-0.33077	0.041675	0.94848
3.08	11.325	-3.1737e+05	2997.8	-0.33096	0.042261	0.94887
3.082	11.419	-3.1737e+05	2997.6	-0.33116	0.042846	0.94926
3.084	11.606	-3.1737e+05	2997.3	-0.33135	0.043432	0.94965
3.086	11.779	-3.1738e+05	2997.1	-0.33213	0.043139	0.94994
3.088	11.797	-3.1739e+05	2996.9	-0.33291	0.042846	0.95023
3.09	11.726	-3.1739e+05	2996.7	-0.33369	0.042554	0.95053
3.092	11.566	-3.1739e+05	2996.4	-0.33448	0.042261	0.95082
3.094	11.383	-3.1739e+05	2996.2	-0.33526	0.041968	0.95111
3.096	11.322	-3.1739e+05	2996	-0.33574	0.042554	0.9517
3.098	11.358	-3.174e+05	2995.8	-0.33623	0.043139	0.95228
3.1	11.506	-3.174e+05	2995.5	-0.33672	0.043725	0.95287
3.102	11.73	-3.174e+05	2995.3	-0.33721	0.04431	0.95345
3.104	11.816	-3.174e+05	2995	-0.3377	0.044896	0.95404
3.106	11.751	-3.1741e+05	2994.8	-0.33721	0.044408	0.95404
3.108	11.617	-3.1743e+05	2994.7	-0.33672	0.04392	0.95404
3.11	11.424	-3.1742e+05	2994.5	-0.33623	0.043432	0.95404
3.112	11.305	-3.1742e+05	2994.3	-0.33574	0.042944	0.95404
3.114	11.325	-3.1742e+05	2994.1	-0.33526	0.042456	0.95404
3.116	11.414	-3.1743e+05	2993.9	-0.33506	0.042261	0.95394
3.118	11.604	-3.1743e+05	2993.7	-0.33487	0.042066	0.95384
3.12	11.743	-3.1744e+05	2993.5	-0.33467	0.04187	0.95375
3.122	11.703	-3.1744e+05	2993.3	-0.33448	0.041675	0.95365
3.124	11.605	-3.1744e+05	2993.1	-0.33428	0.04148	0.95355
3.126	11.428	-3.1744e+05	2992.9	-0.33311	0.041773	0.95306
3.128	11.267	-3.1744e+05	2992.7	-0.33194	0.042066	0.95258
3.13	11.268	-3.1745e+05	2992.6	-0.33077	0.042358	0.95209
3.132	11.34	-3.1746e+05	2992.4	-0.3296	0.042651	0.9516
3.134	11.514	-3.1747e+05	2992.2	-0.32842	0.042944	0.95111
3.136	11.725	-3.1747e+05	2992	-0.3294	0.042456	0.95121
3.138	11.729	-3.1747e+05	2991.9	-0.33038	0.041968	0.95131
3.14	11.655	-3.1747e+05	2991.7	-0.33135	0.04148	0.9514
3.142	11.518	-3.1747e+05	2991.5	-0.33233	0.040992	0.9515
3.144	11.275	-3.1746e+05	2991.3	-0.3333	0.040504	0.9516
3.146	11.208	-3.1747e+05	2991.2	-0.33301	0.040211	0.95111
3.148	11.278	-3.1748e+05	2991	-0.33272	0.039918	0.95062
3.15	11.44	-3.1748e+05	2990.8	-0.33243	0.039626	0.95014
3.152	11.666	-3.1749e+05	2990.7	-0.33213	0.039333	0.94965
3.154	11.734	-3.1749e+05	2990.5	-0.33184	0.03904	0.94916
3.156	11.704	-3.175e+05	2990.4	-0.33135	0.03943	0.94955
3.158	11.573	-3.175e+05	2990.3	-0.33086	0.039821	0.94994
3.16	11.313	-3.175e+05	2990.1	-0.33038	0.040211	0.95033
3.162	11.203	-3.175e+05	2990	-0.32989	0.040602	0.95072
3.164	11.252	-3.175e+05	2989.8	-0.3294	0.040992	0.95111
3.166	11.384	-3.1751e+05	2989.7	-0.32989	0.040894	0.95101
3.168	11.606	-3.1751e+05	2989.5	-0.33038	0.040797	0.95092
3.17	11.731	-3.1752e+05	2989.4	-0.33086	0.040699	0.95082
3.172	11.695	-3.1752e+05	2989.3	-0.33135	0.040602	0.95072
3.174	11.594	-3.1752e+05	2989.1	-0.33184	0.040504	0.95062
3.176	11.413	-3.1753e+05	2989	-0.33233	0.040992	0.95014
3.178	11.258	-3.1753e+05	2988.9	-0.33282	0.04148	0.94965
3.18	11.25	-3.1753e+05	2988.8	-0.3333	0.041968	0.94916
3.182	11.351	-3.1753e+05	2988.7	-0.33379	0.042456	0.94867
3.184	11.532	-3.1753e+05	2988.6	-0.33428	0.042944	0.94818
3.186	11.697	-3.1754e+05	2988.5	-0.33467	0.042749	0.94936
3.188	11.717	-3.1754e+05	2988.4	-0.33506	0.042554	0.95053
3.19	11.626	-3.1755e+05	2988.2	-0.33545	0.042358	0.9517
3.192	11.478	-3.1755e+05	2988.1	-0.33584	0.042163	0.95287
3.194	11.302	-3.1755e+05	2987.9	-0.33623	0.041968	0.95404
3.196	11.224	-3.1755e+05	2987.8	-0.33565	0.04187	0.95326
3.198	11.283	-3.1755e+05	2987.7	-0.33506	0.041773	0.95248
3.2	11.429	-3.1756e+05	2987.6	-0.33448	0.041675	0.9517
3.202	11.672	-3.1756e+05	2987.5	-0.33389	0.041578	0.95092
3.204	11.766	-3.1757e+05	2987.4	-0.3333	0.04148	0.95014
3.206	11.687	-3.1757e+05	2987.3	-0.3335	0.04187	0.94984
3.208	11.578	-3.1757e+05	2987.2	-0.33369	0.042261	0.94955
3.21	11.342	-3.1758e+05	2987.1	-0.33389	0.042651	0.94926
3.212	11.22	-3.1758e+05	2987	-0.33408	0.043042	0.94896
3.214	11.309	-3.1758e+05	2986.9	-0.33428	0.043432	0.94867
3.216	11.397	-3.1758e+05	2986.8	-0.33428	0.042846	0.94799
3.218	11.621	-3.1758e+05	2986.7	-0.33428	0.042261	0.94731
3.22	11.865	-3.1759e+05	2986.6	-0.33428	0.041675	0.94662
3.222	11.86	-3.1759e+05	2986.5	-0.33428	0.04109	0.94594
3.224	11.759	-3.176e+05	2986.5	-0.33428	0.040504	0.94526
3.226	11.558	-3.176e+05	2986.4	-0.33428	0.040211	0.94604
3.228	11.387	-3.1761e+05	2986.3	-0.33428	0.039918	0.94682
3.23	11.39	-3.1761e+05	2986.2	-0.33428	0.039626	0.9476
3.232	11.43	-3.1762e+05	2986.1	-0.33428	0.039333	0.94838
3.234	11.557	-3.1762e+05	2986	-0.33428	0.03904	0.94916
3.236	11.676	-3.1762e+05	2985.9	-0.33369	0.039333	0.94945
3.238	11.609	-3.1762e+05	2985.9	-0.33311	0.039626	0.94975
3.24	11.465	-3.1762e+05	2985.8	-0.33252	0.039918	0.95004
3.242	11.223	-3.1762e+05	2985.6	-0.33194	0.040211	0.95033
3.244	10.95	-3.1763e+05	2985.5	-0.33135	0.040504	0.95062
3.246	10.869	-3.1763e+05	2985.4	-0.33204	0.041578	0.95072
3.248	10.915	-3.1764e+05	2985.3	-0.33272	0.042651	0.95082
3.25	11.068	-3.1765e+05	2985.2	-0.3334	0.043725	0.95092
3.252	11.28	-3.1765e+05	2985	-0.33408	0.044798	0.95101
3.254	11.376	-3.1766e+05	2984.9	-0.33477	0.045872	0.95111
3.256	11.374	-3.1766e+05	2984.8	-0.33496	0.045286	0.95092
3.258	11.261	-3.1766e+05	2984.7	-0.33516	0.044701	0.95072
3.26	11.059	-3.1766e+05	2984.6	-0.33535	0.044115	0.95053
3.262	10.983	-3.1766e+05	2984.4	-0.33555	0.04353	0.95033
3.264	11.034	-3.1767e+05	2984.3	-0.33574	0.042944	0.95014
3.266	11.156	-3.1767e+05	2984.1	-0.33604	0.04392	0.94984
3.268	11.38	-3.1767e+05	2984	-0.33633	0.044896	0.94955
3.27	11.552	-3.1768e+05	2983.9	-0.33662	0.045872	0.94926
3.272	11.563	-3.1768e+05	2983.7	-0.33692	0.046848	0.94896
3.274	11.496	-3.1768e+05	2983.6	-0.33721	0.047824	0.94867
3.276	11.358	-3.1768e+05	2983.4	-0.3374	0.048117	0.94779
3.278	11.213	-3.1768e+05	2983.3	-0.3376	0.04841	0.94692
3.28	11.203	-3.1768e+05	2983.1	-0.33779	0.048702	0.94604
3.282	11.304	-3.1769e+05	2983	-0.33799	0.048995	0.94516
3.284	11.481	-3.1769e+05	2982.8	-0.33818	0.049288	0.94428
3.286	11.666	-3.1769e+05	2982.6	-0.33936	0.0488	0.94438
3.288	11.695	-3.1769e+05	2982.5	-0.34053	0.048312	0.94448
3.29	11.637	-3.177e+05	2982.3	-0.3417	0.047824	0.94457
3.292	11.532	-3.1771e+05	2982.1	-0.34287	0.047336	0.94467
3.294	11.339	-3.1771e+05	2982	-0.34404	0.046848	0.94477
3.296	11.25	-3.1772e+05	2981.8	-0.34326	0.04675	0.94477
3.298	11.296	-3.1772e+05	2981.7	-0.34248	0.046653	0.94477
3.3	11.438	-3.1772e+05	2981.5	-0.3417	0.046555	0.94477
3.302	11.698	-3.1772e+05	2981.3	-0.34092	0.046458	0.94477
3.304	11.796	-3.1772e+05	2981	-0.34014	0.04636	0.94477
3.306	11.725	-3.1773e+05	2980.9	-0.34092	0.04675	0.94438
3.308	11.626	-3.1774e+05	2980.8	-0.3417	0.047141	0.94399
3.31	11.388	-3.1774e+05	2980.6	-0.34248	0.047531	0.9436
3.312	11.258	-3.1774e+05	2980.4	-0.34326	0.047922	0.94321
3.314	11.281	-3.1775e+05	2980.2	-0.34404	0.048312	0.94282
3.316	11.342	-3.1775e+05	2980	-0.34297	0.047922	0.94291
3.318	11.565	-3.1775e+05	2979.8	-0.34189	0.047531	0.94301
3.32	11.814	-3.1775e+05	2979.6	-0.34082	0.047141	0.94311
3.322	11.796	-3.1775e+05	2979.4	-0.33975	0.04675	0.94321
3.324	11.719	-3.1775e+05	2979.3	-0.33867	0.04636	0.9433
3.326	11.526	-3.1776e+05	2979.1	-0.33887	0.047238	0.94252
3.328	11.333	-3.1776e+05	2979	-0.33906	0.048117	0.94174
3.33	11.315	-3.1777e+05	2978.8	-0.33926	0.048995	0.94096
3.332	11.382	-3.1777e+05	2978.6	-0.33945	0.049874	0.94018
3.334	11.57	-3.1778e+05	2978.4	-0.33965	0.050752	0.9394
3.336	11.756	-3.1778e+05	2978.2	-0.34004	0.050752	0.93999
3.338	11.781	-3.1779e+05	2978	-0.34043	0.050752	0.94057
3.34	11.723	-3.1779e+05	2977.9	-0.34082	0.050752	0.94116
3.342	11.556	-3.1779e+05	2977.7	-0.34121	0.050752	0.94174
3.344	11.368	-3.1779e+05	2977.5	-0.3416	0.050752	0.94233
3.346	11.302	-3.1779e+05	2977.4	-0.34082	0.050264	0.94282
3.348	11.343	-3.1779e+05	2977.2	-0.34004	0.049776	0.9433
3.35	11.498	-3.178e+05	2977.1	-0.33926	0.049288	0.94379
3.352	11.705	-3.178e+05	2976.9	-0.33848	0.0488	0.94428
3.354	11.795	-3.1781e+05	2976.8	-0.3377	0.048312	0.94477
3.356	11.759	-3.1781e+05	2976.6	-0.33682	0.046653	0.94584
3.358	11.637	-3.1782e+05	2976.5	-0.33594	0.044994	0.94692
3.36	11.419	-3.1782e+05	2976.4	-0.33506	0.043334	0.94799
3.362	11.283	-3.1782e+05	2976.3	-0.33418	0.041675	0.94906
3.364	11.335	-3.1782e+05	2976.2	-0.3333	0.040016	0.95014
3.366	11.458	-3.1783e+05	2976.2	-0.33418	0.040114	0.94906
3.368	11.658	-3.1783e+05	2976.3	-0.33506	0.040211	0.94799
3.37	11.805	-3.1784e+05	2976.4	-0.33594	0.040309	0.94692
3.372	11.797	-3.1784e+05	2976.7	-0.33682	0.040406	0.94584
3.374	11.706	-3.1784e+05	2976.9	-0.3377	0.040504	0.94477
3.376	11.513	-3.1785e+05	2977.4	-0.33711	0.040309	0.94506
3.378	11.311	-3.1785e+05	2977.9	-0.33652	0.040114	0.94535
3.38	11.313	-3.1785e+05	2978.6	-0.33594	0.039918	0.94565
3.382	11.407	-3.1785e+05	2979.5	-0.33535	0.039723	0.94594
3.384	11.567	-3.1785e+05	2980.4	-0.33477	0.039528	0.94623
3.386	11.786	-3.1785e+05	2981.8	-0.33487	0.040211	0.94652
3.388	11.817	-3.1786e+05	2983.3	-0.33496	0.040894	0.94682
3.39	11.751	-3.1786e+05	2985	-0.33506	0.041578	0.94711
3.392	11.631	-3.1786e+05	2987.1	-0.33516	0.042261	0.9474
3.394	11.387	-3.1787e+05	2989.1	-0.33526	0.042944	0.9477
3.396	11.319	-3.1787e+05	2991.7	-0.33574	0.043042	0.94945
3.398	11.397	-3.1787e+05	2994.3	-0.33623	0.043139	0.95121
3.4	11.547	-3.1788e+05	2997	-0.33672	0.043237	0.95297
3.402	11.756	-3.1788e+05	2999.9	-0.33721	0.043334	0.95472
3.404	11.842	-3.1788e+05	3002.7	-0.3377	0.043432	0.95648
3.406	11.813	-3.1789e+05	3005.6	-0.33945	0.042554	0.95648
3.408	11.709	-3.1789e+05	3008.5	-0.34121	0.041675	0.95648
3.41	11.496	-3.1789e+05	3011.3	-0.34297	0.040797	0.95648
3.412	11.37	-3.1789e+05	3014	-0.34472	0.039918	0.95648
3.414	11.413	-3.1788e+05	3016.7	-0.34648	0.03904	0.95648
3.416	11.523	-3.1788e+05	3019.2	-0.34638	0.03904	0.95668
3.418	11.747	-3.1789e+05	3021.6	-0.34628	0.03904	0.95687
3.42	11.888	-3.179e+05	3023.8	-0.34619	0.03904	0.95707
3.422	11.871	-3.1789e+05	3025.9	-0.34609	0.03904	0.95726
3.424	11.796	-3.1789e+05	3028	-0.34599	0.03904	0.95746
3.426	11.626	-3.1789e+05	3029.6	-0.34521	0.039528	0.95707
3.428	11.475	-3.1789e+05	3031.3	-0.34443	0.040016	0.95668
3.43	11.469	-3.1788e+05	3032.8	-0.34365	0.040504	0.95628
3.432	11.539	-3.1788e+05	3034.1	-0.34287	0.040992	0.95589
3.434	11.703	-3.1788e+05	3035.5	-0.34209	0.04148	0.9555
3.436	11.88	-3.1788e+05	3036.6	-0.34219	0.04187	0.95511
3.438	11.923	-3.1787e+05	3037.7	-0.34228	0.042261	0.95472
3.44	11.868	-3.1786e+05	3038.8	-0.34238	0.042651	0.95433
3.442	11.729	-3.1786e+05	3039.8	-0.34248	0.043042	0.95394
3.444	11.546	-3.1785e+05	3040.9	-0.34258	0.043432	0.95355
3.446	11.482	-3.1785e+05	3041.7	-0.34248	0.043237	0.95336
3.448	11.537	-3.1785e+05	3042.6	-0.34238	0.043042	0.95316
3.45	11.668	-3.1785e+05	3043.4	-0.34228	0.042846	0.95297
3.452	11.871	-3.1784e+05	3044.2	-0.34219	0.042651	0.95277
3.454	11.969	-3.1784e+05	3045	-0.34209	0.042456	0.95258
3.456	11.916	-3.1784e+05	3045.7	-0.34101	0.042749	0.95287
3.458	11.819	-3.1783e+05	3046.4	-0.33994	0.043042	0.95316
3.46	11.638	-3.1783e+05	3047	-0.33887	0.043334	0.95345
3.462	11.501	-3.1782e+05	3047.7	-0.33779	0.043627	0.95375
3.464	11.556	-3.1782e+05	3048.3	-0.33672	0.04392	0.95404
3.466	11.645	-3.1782e+05	3048.9	-0.33652	0.043627	0.95384
3.468	11.832	-3.1781e+05	3049.4	-0.33633	0.043334	0.95365
3.47	11.988	-3.178e+05	3049.9	-0.33613	0.043042	0.95345
3.472	11.958	-3.1779e+05	3050.3	-0.33594	0.042749	0.95326
3.474	11.872	-3.1779e+05	3050.7	-0.33574	0.042456	0.95306
3.476	11.687	-3.1779e+05	3050.9	-0.33389	0.043042	0.95189
3.478	11.498	-3.1778e+05	3051.2	-0.33204	0.043627	0.95072
3.48	11.499	-3.1777e+05	3051.5	-0.33018	0.044213	0.94955
3.482	11.6	-3.1777e+05	3051.8	-0.32833	0.044798	0.94838
3.484	11.697	-3.1777e+05	3052	-0.32647	0.045384	0.94721
3.486	11.903	-3.1777e+05	3052.1	-0.32676	0.044896	0.94731
3.488	11.934	-3.1777e+05	3052.2	-0.32706	0.044408	0.9474
3.49	11.881	-3.1776e+05	3052.3	-0.32735	0.04392	0.9475
3.492	11.727	-3.1775e+05	3052.4	-0.32764	0.043432	0.9476
3.494	11.512	-3.1774e+05	3052.5	-0.32794	0.042944	0.9477
3.496	11.458	-3.1774e+05	3052.6	-0.32911	0.041968	0.94672
3.498	11.481	-3.1774e+05	3052.6	-0.33028	0.040992	0.94574
3.5	11.58	-3.1775e+05	3052.7	-0.33145	0.040016	0.94477
3.502	11.788	-3.1774e+05	3052.7	-0.33262	0.03904	0.94379
3.504	11.864	-3.1774e+05	3052.7	-0.33379	0.038064	0.94282
3.506	11.81	-3.1773e+05	3052.7	-0.33467	0.039821	0.94291
3.508	11.693	-3.1773e+05	3052.6	-0.33555	0.041578	0.94301
3.51	11.488	-3.1772e+05	3052.6	-0.33643	0.043334	0.94311
3.512	11.369	-3.1771e+05	3052.5	-0.33731	0.045091	0.94321
3.514	11.389	-3.1771e+05	3052.4	-0.33818	0.046848	0.9433
3.516	11.478	-3.177e+05	3052.3	-0.33809	0.047531	0.94301
3.518	11.655	-3.177e+05	3052.2	-0.33799	0.048214	0.94272
3.52	11.809	-3.177e+05	3052.1	-0.33789	0.048898	0.94243
3.522	11.815	-3.1769e+05	3051.9	-0.33779	0.049581	0.94213
3.524	11.716	-3.1768e+05	3051.7	-0.3377	0.050264	0.94184
3.526	11.535	-3.1767e+05	3051.5	-0.33857	0.049386	0.94262
3.528	11.368	-3.1765e+05	3051.3	-0.33945	0.048507	0.9434
3.53	11.345	-3.1764e+05	3051.1	-0.34033	0.047629	0.94418
3.532	11.424	-3.1764e+05	3050.9	-0.34121	0.04675	0.94496
3.534	11.588	-3.1764e+05	3050.6	-0.34209	0.045872	0.94574
3.536	11.771	-3.1764e+05	3050.4	-0.34121	0.046165	0.94555
3.538	11.794	-3.1763e+05	3050.2	-0.34033	0.046458	0.94535
3.54	11.701	-3.1762e+05	3049.9	-0.33945	0.04675	0.94516
3.542	11.554	-3.1762e+05	3049.7	-0.33857	0.047043	0.94496
3.544	11.363	-3.1762e+05	3049.4	-0.3377	0.047336	0.94477
3.546	11.309	-3.1762e+05	3049	-0.33828	0.047336	0.94506
3.548	11.376	-3.1761e+05	3048.7	-0.33887	0.047336	0.94535
3.55	11.495	-3.176e+05	3048.4	-0.33945	0.047336	0.94565
3.552	11.704	-3.1759e+05	3048.2	-0.34004	0.047336	0.94594
3.554	11.791	-3.1759e+05	3047.9	-0.34062	0.047336	0.94623
3.556	11.725	-3.1758e+05	3047.6	-0.33984	0.045872	0.9474
3.558	11.617	-3.1758e+05	3047.3	-0.33906	0.044408	0.94857
3.56	11.417	-3.1758e+05	3047	-0.33828	0.042944	0.94975
3.562	11.329	-3.1757e+05	3046.7	-0.3375	0.04148	0.95092
3.564	11.367	-3.1757e+05	3046.4	-0.33672	0.040016	0.95209
3.566	11.419	-3.1757e+05	3046.1	-0.33613	0.040114	0.9518
3.568	11.62	-3.1757e+05	3045.7	-0.33555	0.040211	0.9515
3.57	11.78	-3.1756e+05	3045.4	-0.33496	0.040309	0.95121
3.572	11.768	-3.1756e+05	3045.2	-0.33438	0.040406	0.95092
3.574	11.712	-3.1755e+05	3044.9	-0.33379	0.040504	0.95062
3.576	11.51	-3.1754e+05	3044.6	-0.33399	0.039626	0.94975
3.578	11.32	-3.1754e+05	3044.2	-0.33418	0.038747	0.94887
3.58	11.308	-3.1754e+05	3043.9	-0.33438	0.037869	0.94799
3.582	11.353	-3.1753e+05	3043.6	-0.33457	0.03699	0.94711
3.584	11.535	-3.1753e+05	3043.3	-0.33477	0.036112	0.94623
3.586	11.733	-3.1753e+05	3043	-0.33535	0.036698	0.94731
3.588	11.762	-3.1753e+05	3042.7	-0.33594	0.037283	0.94838
3.59	11.713	-3.1753e+05	3042.4	-0.33652	0.037869	0.94945
3.592	11.579	-3.1752e+05	3042	-0.33711	0.038454	0.95053
3.594	11.38	-3.1752e+05	3041.7	-0.3377	0.03904	0.9516
3.596	11.284	-3.1751e+05	3041.4	-0.33799	0.039235	0.9516
3.598	11.303	-3.1751e+05	3041	-0.33828	0.03943	0.9516
3.6	11.475	-3.175e+05	3040.7	-0.33857	0.039626	0.9516
3.602	11.698	-3.175e+05	3040.3	-0.33887	0.039821	0.9516
3.604	11.786	-3.175e+05	3040	-0.33916	0.040016	0.9516
3.606	11.75	-3.175e+05	3039.7	-0.33965	0.040699	0.95189
3.608	11.627	-3.1749e+05	3039.3	-0.34014	0.041382	0.95219
3.61	11.431	-3.1749e+05	3039	-0.34062	0.042066	0.95248
3.612	11.3	-3.1749e+05	3038.6	-0.34111	0.042749	0.95277
3.614	11.308	-3.1749e+05	3038.2	-0.3416	0.043432	0.95306
3.616	11.405	-3.1748e+05	3037.7	-0.3417	0.043042	0.95355
3.618	11.589	-3.1748e+05	3037.2	-0.3418	0.042651	0.95404
3.62	11.739	-3.1748e+05	3036.7	-0.34189	0.042261	0.95453
3.622	11.724	-3.1748e+05	3036.2	-0.34199	0.04187	0.95502
3.624	11.652	-3.1747e+05	3035.7	-0.34209	0.04148	0.9555
3.626	11.5	-3.1747e+05	3035	-0.3417	0.040894	0.95482
3.628	11.312	-3.1747e+05	3034.4	-0.34131	0.040309	0.95414
3.63	11.281	-3.1747e+05	3033.7	-0.34092	0.039723	0.95345
3.632	11.342	-3.1747e+05	3033.1	-0.34053	0.039138	0.95277
3.634	11.486	-3.1747e+05	3032.4	-0.34014	0.038552	0.95209
3.636	11.703	-3.1746e+05	3031.7	-0.33955	0.038747	0.9518
3.638	11.787	-3.1746e+05	3031	-0.33896	0.038942	0.9515
3.64	11.724	-3.1746e+05	3030.2	-0.33838	0.039138	0.95121
3.642	11.581	-3.1746e+05	3029.5	-0.33779	0.039333	0.95092
3.644	11.356	-3.1746e+05	3028.8	-0.33721	0.039528	0.95062
3.646	11.285	-3.1745e+05	3028.1	-0.3374	0.038162	0.94994
3.648	11.335	-3.1745e+05	3027.5	-0.3376	0.036795	0.94926
3.65	11.446	-3.1745e+05	3026.8	-0.33779	0.035429	0.94857
3.652	11.692	-3.1746e+05	3026.1	-0.33799	0.034062	0.94789
3.654	11.798	-3.1745e+05	3025.4	-0.33818	0.032696	0.94721
3.656	11.717	-3.1744e+05	3024.8	-0.33779	0.03377	0.94779
3.658	11.616	-3.1744e+05	3024.2	-0.3374	0.034843	0.94838
3.66	11.429	-3.1744e+05	3023.6	-0.33701	0.035917	0.94896
3.662	11.294	-3.1744e+05	3023	-0.33662	0.03699	0.94955
3.664	11.296	-3.1744e+05	3022.5	-0.33623	0.038064	0.95014
3.666	11.389	-3.1745e+05	3022	-0.33633	0.037869	0.94936
3.668	11.605	-3.1745e+05	3021.5	-0.33643	0.037674	0.94857
3.67	11.751	-3.1745e+05	3021.1	-0.33652	0.037478	0.94779
3.672	11.742	-3.1745e+05	3020.7	-0.33662	0.037283	0.94701
3.674	11.667	-3.1744e+05	3020.3	-0.33672	0.037088	0.94623
3.676	11.467	-3.1744e+05	3019.9	-0.33594	0.0366	0.94672
3.678	11.302	-3.1744e+05	3019.6	-0.33516	0.036112	0.94721
3.68	11.299	-3.1745e+05	3019.2	-0.33438	0.035624	0.9477
3.682	11.37	-3.1745e+05	3019	-0.3336	0.035136	0.94818
3.684	11.537	-3.1745e+05	3018.7	-0.33282	0.034648	0.94867
3.686	11.715	-3.1745e+05	3018.5	-0.33311	0.035819	0.94887
3.688	11.753	-3.1746e+05	3018.2	-0.3334	0.03699	0.94906
3.69	11.695	-3.1745e+05	3018	-0.33369	0.038162	0.94926
3.692	11.547	-3.1745e+05	3017.8	-0.33399	0.039333	0.94945
3.694	11.359	-3.1745e+05	3017.6	-0.33428	0.040504	0.94965
3.696	11.292	-3.1745e+05	3017.4	-0.33379	0.039723	0.94965
3.698	11.336	-3.1745e+05	3017.3	-0.3333	0.038942	0.94965
3.7	11.461	-3.1746e+05	3017.1	-0.33282	0.038162	0.94965
3.702	11.652	-3.1746e+05	3017	-0.33233	0.037381	0.94965
3.704	11.741	-3.1745e+05	3016.8	-0.33184	0.0366	0.94965
3.706	11.697	-3.1746e+05	3016.7	-0.33174	0.037186	0.94945
3.708	11.617	-3.1746e+05	3016.6	-0.33164	0.037771	0.94926
3.71	11.449	-3.1746e+05	3016.4	-0.33155	0.038357	0.94906
3.712	11.292	-3.1746e+05	3016.3	-0.33145	0.038942	0.94887
3.714	11.302	-3.1746e+05	3016.2	-0.33135	0.039528	0.94867
3.716	11.383	-3.1746e+05	3016.1	-0.33125	0.03904	0.94809
3.718	11.545	-3.1746e+05	3016	-0.33116	0.038552	0.9475
3.72	11.745	-3.1747e+05	3015.9	-0.33106	0.038064	0.94692
3.722	11.755	-3.1747e+05	3015.8	-0.33096	0.037576	0.94633
3.724	11.672	-3.1747e+05	3015.6	-0.33086	0.037088	0.94574
3.726	11.499	-3.1747e+05	3015.5	-0.33155	0.037576	0.94643
3.728	11.306	-3.1747e+05	3015.4	-0.33223	0.038064	0.94711
3.73	11.29	-3.1747e+05	3015.3	-0.33291	0.038552	0.94779
3.732	11.362	-3.1748e+05	3015.1	-0.3336	0.03904	0.94848
3.734	11.505	-3.1748e+05	3015	-0.33428	0.039528	0.94916
3.736	11.741	-3.1748e+05	3014.9	-0.33467	0.03943	0.94838
3.738	11.771	-3.1748e+05	3014.8	-0.33506	0.039333	0.9476
3.74	11.655	-3.1748e+05	3014.6	-0.33545	0.039235	0.94682
3.742	11.563	-3.1748e+05	3014.5	-0.33584	0.039138	0.94604
3.744	11.342	-3.1748e+05	3014.3	-0.33623	0.03904	0.94526
3.746	11.296	-3.1748e+05	3014.2	-0.33623	0.038747	0.94526
3.748	11.325	-3.1747e+05	3014	-0.33623	0.038454	0.94526
3.75	11.422	-3.1748e+05	3013.9	-0.33623	0.038162	0.94526
3.752	11.654	-3.1748e+05	3013.7	-0.33623	0.037869	0.94526
3.754	11.754	-3.1749e+05	3013.6	-0.33623	0.037576	0.94526
3.756	11.707	-3.1749e+05	3013.5	-0.33574	0.037186	0.94584
3.758	11.597	-3.1749e+05	3013.3	-0.33526	0.036795	0.94643
3.76	11.406	-3.1749e+05	3013.2	-0.33477	0.036405	0.94701
3.762	11.287	-3.175e+05	3013.1	-0.33428	0.036014	0.9476
3.764	11.307	-3.175e+05	3012.9	-0.33379	0.035624	0.94818
3.766	11.39	-3.175e+05	3012.8	-0.33379	0.035917	0.9476
3.768	11.577	-3.175e+05	3012.6	-0.33379	0.03621	0.94701
3.77	11.735	-3.175e+05	3012.4	-0.33379	0.036502	0.94643
3.772	11.749	-3.175e+05	3012.2	-0.33379	0.036795	0.94584
3.774	11.666	-3.1749e+05	3012	-0.33379	0.037088	0.94526
3.776	11.495	-3.1749e+05	3011.8	-0.33369	0.037576	0.94633
3.778	11.325	-3.1749e+05	3011.6	-0.3336	0.038064	0.9474
3.78	11.279	-3.1749e+05	3011.4	-0.3335	0.038552	0.94848
3.782	11.337	-3.175e+05	3011.2	-0.3334	0.03904	0.94955
3.784	11.495	-3.175e+05	3011	-0.3333	0.039528	0.95062
3.786	11.688	-3.175e+05	3010.8	-0.3336	0.03943	0.95023
3.788	11.74	-3.1751e+05	3010.5	-0.33389	0.039333	0.94984
3.79	11.674	-3.1751e+05	3010.3	-0.33418	0.039235	0.94945
3.792	11.556	-3.1751e+05	3010.1	-0.33448	0.039138	0.94906
3.794	11.373	-3.1752e+05	3010	-0.33477	0.03904	0.94867
3.796	11.277	-3.1752e+05	3009.8	-0.33506	0.038845	0.9476
3.798	11.31	-3.1752e+05	3009.6	-0.33535	0.03865	0.94652
3.8	11.44	-3.1752e+05	3009.4	-0.33565	0.038454	0.94545
3.802	11.643	-3.1752e+05	3009.2	-0.33594	0.038259	0.94438
3.804	11.756	-3.1753e+05	3009	-0.33623	0.038064	0.9433
3.806	11.715	-3.1752e+05	3008.8	-0.33584	0.038552	0.94496
3.808	11.626	-3.1752e+05	3008.6	-0.33545	0.03904	0.94662
3.81	11.424	-3.1752e+05	3008.4	-0.33506	0.039528	0.94828
3.812	11.267	-3.1752e+05	3008.2	-0.33467	0.040016	0.94994
3.814	11.293	-3.1752e+05	3008	-0.33428	0.040504	0.9516
3.816	11.379	-3.1753e+05	3007.8	-0.33535	0.040699	0.95053
3.818	11.581	-3.1753e+05	3007.6	-0.33643	0.040894	0.94945
3.82	11.765	-3.1753e+05	3007.4	-0.3375	0.04109	0.94838
3.822	11.755	-3.1753e+05	3007.2	-0.33857	0.041285	0.94731
3.824	11.658	-3.1753e+05	3006.9	-0.33965	0.04148	0.94623
3.826	11.478	-3.1753e+05	3006.7	-0.33857	0.040602	0.94672
3.828	11.262	-3.1753e+05	3006.5	-0.3375	0.039723	0.94721
3.83	11.268	-3.1754e+05	3006.2	-0.33643	0.038845	0.9477
3.832	11.357	-3.1754e+05	3006	-0.33535	0.037966	0.94818
3.834	11.544	-3.1754e+05	3005.7	-0.33428	0.037088	0.94867
3.836	11.71	-3.1754e+05	3005.5	-0.33487	0.038259	0.94877
3.838	11.734	-3.1755e+05	3005.2	-0.33545	0.03943	0.94887
3.84	11.695	-3.1755e+05	3005	-0.33604	0.040602	0.94896
3.842	11.559	-3.1755e+05	3004.8	-0.33662	0.041773	0.94906
3.844	11.364	-3.1755e+05	3004.5	-0.33721	0.042944	0.94916
3.846	11.298	-3.1755e+05	3004.3	-0.3374	0.042554	0.94877
3.848	11.338	-3.1755e+05	3004	-0.3376	0.042163	0.94838
3.85	11.466	-3.1755e+05	3003.8	-0.33779	0.041773	0.94799
3.852	11.664	-3.1756e+05	3003.6	-0.33799	0.041382	0.9476
3.854	11.754	-3.1756e+05	3003.4	-0.33818	0.040992	0.94721
3.856	11.727	-3.1756e+05	3003.2	-0.3377	0.040894	0.9474
3.858	11.63	-3.1756e+05	3003	-0.33721	0.040797	0.9476
3.86	11.451	-3.1756e+05	3002.8	-0.33672	0.040699	0.94779
3.862	11.329	-3.1756e+05	3002.5	-0.33623	0.040602	0.94799
3.864	11.334	-3.1756e+05	3002.3	-0.33574	0.040504	0.94818
3.866	11.4	-3.1757e+05	3002	-0.33643	0.04109	0.9476
3.868	11.566	-3.1757e+05	3001.8	-0.33711	0.041675	0.94701
3.87	11.731	-3.1758e+05	3001.6	-0.33779	0.042261	0.94643
3.872	11.751	-3.1758e+05	3001.3	-0.33848	0.042846	0.94584
3.874	11.684	-3.1759e+05	3001.1	-0.33916	0.043432	0.94526
3.876	11.52	-3.1759e+05	3000.8	-0.33838	0.042261	0.94535
3.878	11.341	-3.1759e+05	3000.6	-0.3376	0.04109	0.94545
3.88	11.32	-3.1758e+05	3000.3	-0.33682	0.039918	0.94555
3.882	11.396	-3.1759e+05	3000	-0.33604	0.038747	0.94565
3.884	11.566	-3.1759e+05	2999.7	-0.33526	0.037576	0.94574
3.886	11.782	-3.176e+05	2999.5	-0.33623	0.038259	0.94574
3.888	11.8	-3.176e+05	2999.2	-0.33721	0.038942	0.94574
3.89	11.736	-3.176e+05	2999	-0.33818	0.039626	0.94574
3.892	11.621	-3.176e+05	2998.7	-0.33916	0.040309	0.94574
3.894	11.401	-3.176e+05	2998.5	-0.34014	0.040992	0.94574
3.896	11.292	-3.1761e+05	2998.2	-0.33965	0.040602	0.94555
3.898	11.351	-3.1761e+05	2998	-0.33916	0.040211	0.94535
3.9	11.455	-3.1761e+05	2997.7	-0.33867	0.039821	0.94516
3.902	11.705	-3.1761e+05	2997.4	-0.33818	0.03943	0.94496
3.904	11.847	-3.1761e+05	2997.2	-0.3377	0.03904	0.94477
3.906	11.788	-3.1761e+05	2996.9	-0.33682	0.03865	0.94584
3.908	11.657	-3.1761e+05	2996.6	-0.33594	0.038259	0.94692
3.91	11.452	-3.1761e+05	2996.3	-0.33506	0.037869	0.94799
3.912	11.331	-3.1761e+05	2996.1	-0.33418	0.037478	0.94906
3.914	11.323	-3.1762e+05	2995.9	-0.3333	0.037088	0.95014
3.916	11.391	-3.1762e+05	2995.7	-0.3336	0.037576	0.94984
3.918	11.595	-3.1763e+05	2995.4	-0.33389	0.038064	0.94955
3.92	11.753	-3.1764e+05	2995.2	-0.33418	0.038552	0.94926
3.922	11.736	-3.1763e+05	2994.9	-0.33448	0.03904	0.94896
3.924	11.665	-3.1763e+05	2994.7	-0.33477	0.039528	0.94867
3.926	11.472	-3.1763e+05	2994.4	-0.33448	0.03904	0.94857
3.928	11.297	-3.1764e+05	2994.2	-0.33418	0.038552	0.94848
3.93	11.278	-3.1764e+05	2994	-0.33389	0.038064	0.94838
3.932	11.333	-3.1763e+05	2993.7	-0.3336	0.037576	0.94828
3.934	11.498	-3.1764e+05	2993.5	-0.3333	0.037088	0.94818
3.936	11.698	-3.1766e+05	2993.2	-0.3336	0.036795	0.94789
3.938	11.738	-3.1766e+05	2993	-0.33389	0.036502	0.9476
3.94	11.666	-3.1766e+05	2992.7	-0.33418	0.03621	0.94731
3.942	11.509	-3.1766e+05	2992.4	-0.33448	0.035917	0.94701
3.944	11.318	-3.1765e+05	2992.2	-0.33477	0.035624	0.94672
3.946	11.282	-3.1765e+05	2992	-0.33438	0.036112	0.94701
3.948	11.343	-3.1765e+05	2991.8	-0.33399	0.0366	0.94731
3.95	11.45	-3.1767e+05	2991.5	-0.3336	0.037088	0.9476
3.952	11.628	-3.1768e+05	2991.2	-0.33321	0.037576	0.94789
3.954	11.725	-3.1768e+05	2990.9	-0.33282	0.038064	0.94818
3.956	11.694	-3.1768e+05	2990.7	-0.33389	0.038357	0.94701
3.958	11.598	-3.1768e+05	2990.5	-0.33496	0.03865	0.94584
3.96	11.412	-3.1768e+05	2990.3	-0.33604	0.038942	0.94467
3.962	11.245	-3.1769e+05	2990.1	-0.33711	0.039235	0.9435
3.964	11.242	-3.1769e+05	2989.9	-0.33818	0.039528	0.94233
3.966	11.368	-3.1769e+05	2989.7	-0.3374	0.039138	0.9435
3.968	11.57	-3.1769e+05	2989.6	-0.33662	0.038747	0.94467
3.97	11.716	-3.1769e+05	2989.4	-0.33584	0.038357	0.94584
3.972	11.699	-3.177e+05	2989.2	-0.33506	0.037966	0.94701
3.974	11.625	-3.177e+05	2989	-0.33428	0.037576	0.94818
3.976	11.483	-3.1771e+05	2988.8	-0.33467	0.037869	0.94789
3.978	11.311	-3.1771e+05	2988.5	-0.33506	0.038162	0.9476
3.98	11.281	-3.1771e+05	2988.3	-0.33545	0.038454	0.94731
3.982	11.345	-3.1771e+05	2988.1	-0.33584	0.038747	0.94701
3.984	11.477	-3.1771e+05	2987.9	-0.33623	0.03904	0.94672
3.986	11.69	-3.1772e+05	2987.8	-0.33594	0.039138	0.94701
3.988	11.741	-3.1772e+05	2987.6	-0.33565	0.039235	0.94731
3.99	11.701	-3.1771e+05	2987.5	-0.33535	0.039333	0.9476
3.992	11.569	-3.1771e+05	2987.3	-0.33506	0.03943	0.94789
3.994	11.295	-3.1772e+05	2987.1	-0.33477	0.039528	0.94818
3.996	11.215	-3.1772e+05	2986.9	-0.33565	0.038942	0.94711
3.998	11.295	-3.1773e+05	2986.7	-0.33652	0.038357	0.94604
4	11.414	-3.1773e+05	2986.5	-0.3374	0.037771	0.94496
4.002	11.636	-3.1774e+05	2986.4	-0.33828	0.037186	0.94389
4.004	11.745	-3.1774e+05	2986.3	-0.33916	0.0366	0.94282
4.006	11.704	-3.1774e+05	2986.1	-0.33867	0.03699	0.94389
4.008	11.609	-3.1774e+05	2986	-0.33818	0.037381	0.94496
4.01	11.398	-3.1775e+05	2985.8	-0.3377	0.037771	0.94604
4.012	11.271	-3.1775e+05	2985.7	-0.33721	0.038162	0.94711
4.014	11.297	-3.1775e+05	2985.5	-0.33672	0.038552	0.94818
4.016	11.394	-3.1775e+05	2985.4	-0.33672	0.039333	0.94828
4.018	11.608	-3.1776e+05	2985.3	-0.33672	0.040114	0.94838
4.02	11.781	-3.1776e+05	2985.2	-0.33672	0.040894	0.94848
4.022	11.8	-3.1777e+05	2985	-0.33672	0.041675	0.94857
4.024	11.765	-3.1777e+05	2984.9	-0.33672	0.042456	0.94867
4.026	11.603	-3.1777e+05	2984.7	-0.33633	0.041187	0.94818
4.028	11.42	-3.1776e+05	2984.5	-0.33594	0.039918	0.9477
4.03	11.366	-3.1777e+05	2984.4	-0.33555	0.03865	0.94721
4.032	11.407	-3.1778e+05	2984.3	-0.33516	0.037381	0.94672
4.034	11.515	-3.1778e+05	2984.1	-0.33477	0.036112	0.94623
4.036	11.637	-3.1779e+05	2984	-0.33516	0.036795	0.94692
4.038	11.633	-3.1778e+05	2983.9	-0.33555	0.037478	0.9476
4.04	11.501	-3.1778e+05	2983.7	-0.33594	0.038162	0.94828
4.042	11.289	-3.1778e+05	2983.5	-0.33633	0.038845	0.94896
4.044	11.025	-3.1778e+05	2983.3	-0.33672	0.039528	0.94965
4.046	10.879	-3.1779e+05	2983.2	-0.3374	0.039528	0.94848
4.048	10.918	-3.178e+05	2983	-0.33809	0.039528	0.94731
4.05	11.065	-3.178e+05	2982.9	-0.33877	0.039528	0.94613
4.052	11.282	-3.178e+05	2982.8	-0.33945	0.039528	0.94496
4.054	11.417	-3.1781e+05	2982.6	-0.34014	0.039528	0.94379
4.056	11.39	-3.1781e+05	2982.5	-0.33955	0.039723	0.94496
4.058	11.3	-3.1781e+05	2982.3	-0.33896	0.039918	0.94613
4.06	11.125	-3.1781e+05	2982.1	-0.33838	0.040114	0.94731
4.062	10.995	-3.1781e+05	2982	-0.33779	0.040309	0.94848
4.064	11.05	-3.1781e+05	2981.8	-0.33721	0.040504	0.94965
4.066	11.164	-3.1782e+05	2981.7	-0.33721	0.040504	0.95033
4.068	11.385	-3.1782e+05	2981.5	-0.33721	0.040504	0.95101
4.07	11.584	-3.1783e+05	2981.3	-0.33721	0.040504	0.9517
4.072	11.584	-3.1783e+05	2981.1	-0.33721	0.040504	0.95238
4.074	11.529	-3.1783e+05	2981	-0.33721	0.040504	0.95306
4.076	11.398	-3.1784e+05	2980.8	-0.33779	0.04109	0.95277
4.078	11.189	-3.1784e+05	2980.6	-0.33838	0.041675	0.95248
4.08	11.162	-3.1784e+05	2980.4	-0.33896	0.042261	0.95219
4.082	11.276	-3.1784e+05	2980.2	-0.33955	0.042846	0.95189
4.084	11.449	-3.1785e+05	2980	-0.34014	0.043432	0.9516
4.086	11.669	-3.1785e+05	2979.8	-0.34033	0.043432	0.9517
4.088	11.715	-3.1785e+05	2979.6	-0.34053	0.043432	0.9518
4.09	11.661	-3.1786e+05	2979.4	-0.34072	0.043432	0.95189
4.092	11.544	-3.1786e+05	2979.2	-0.34092	0.043432	0.95199
4.094	11.332	-3.1786e+05	2979	-0.34111	0.043432	0.95209
4.096	11.233	-3.1786e+05	2978.8	-0.34004	0.042749	0.9515
4.098	11.266	-3.1787e+05	2978.6	-0.33896	0.042066	0.95092
4.1	11.418	-3.1787e+05	2978.4	-0.33789	0.041382	0.95033
4.102	11.673	-3.1788e+05	2978.2	-0.33682	0.040699	0.94975
4.104	11.766	-3.1788e+05	2978	-0.33574	0.040016	0.94916
4.106	11.722	-3.1788e+05	2977.7	-0.33613	0.040114	0.94975
4.108	11.649	-3.1789e+05	2977.5	-0.33652	0.040211	0.95033
4.11	11.444	-3.1789e+05	2977.2	-0.33692	0.040309	0.95092
4.112	11.288	-3.1789e+05	2977	-0.33731	0.040406	0.9515
4.114	11.294	-3.179e+05	2976.8	-0.3377	0.040504	0.95209
4.116	11.375	-3.179e+05	2976.6	-0.33818	0.040504	0.95014
4.118	11.537	-3.179e+05	2976.4	-0.33867	0.040504	0.94818
4.12	11.7	-3.179e+05	2976.2	-0.33916	0.040504	0.94623
4.122	11.753	-3.1791e+05	2975.9	-0.33965	0.040504	0.94428
4.124	11.707	-3.1791e+05	2975.7	-0.34014	0.040504	0.94233
4.126	11.533	-3.1792e+05	2975.6	-0.33945	0.041675	0.94301
4.128	11.333	-3.1792e+05	2975.4	-0.33877	0.042846	0.94369
4.13	11.291	-3.1792e+05	2975.2	-0.33809	0.044018	0.94438
4.132	11.349	-3.1793e+05	2975	-0.3374	0.045189	0.94506
4.134	11.499	-3.1793e+05	2974.8	-0.33672	0.04636	0.94574
4.136	11.728	-3.1793e+05	2974.5	-0.33692	0.044896	0.94574
4.138	11.798	-3.1793e+05	2974.3	-0.33711	0.043432	0.94574
4.14	11.731	-3.1793e+05	2974.1	-0.33731	0.041968	0.94574
4.142	11.589	-3.1794e+05	2973.9	-0.3375	0.040504	0.94574
4.144	11.382	-3.1794e+05	2973.6	-0.3377	0.03904	0.94574
4.146	11.281	-3.1795e+05	2973.4	-0.33789	0.038845	0.94555
4.148	11.323	-3.1795e+05	2973.2	-0.33809	0.03865	0.94535
4.15	11.427	-3.1795e+05	2973	-0.33828	0.038454	0.94516
4.152	11.647	-3.1796e+05	2972.7	-0.33848	0.038259	0.94496
4.154	11.778	-3.1796e+05	2972.5	-0.33867	0.038064	0.94477
4.156	11.743	-3.1796e+05	2972.3	-0.33799	0.038357	0.94584
4.158	11.652	-3.1797e+05	2972.1	-0.33731	0.03865	0.94692
4.16	11.436	-3.1797e+05	2971.8	-0.33662	0.038942	0.94799
4.162	11.294	-3.1797e+05	2971.6	-0.33594	0.039235	0.94906
4.164	11.325	-3.1796e+05	2971.3	-0.33526	0.039528	0.95014
4.166	11.372	-3.1797e+05	2971.2	-0.33594	0.040016	0.94945
4.168	11.569	-3.1797e+05	2971.1	-0.33662	0.040504	0.94877
4.17	11.803	-3.1797e+05	2971	-0.33731	0.040992	0.94809
4.172	11.788	-3.1798e+05	2970.9	-0.33799	0.04148	0.9474
4.174	11.713	-3.1799e+05	2970.9	-0.33867	0.041968	0.94672
4.176	11.539	-3.18e+05	2971.1	-0.33857	0.042358	0.94662
4.178	11.341	-3.18e+05	2971.3	-0.33848	0.042749	0.94652
4.18	11.299	-3.18e+05	2971.6	-0.33838	0.043139	0.94643
4.182	11.35	-3.18e+05	2972.1	-0.33828	0.04353	0.94633
4.184	11.515	-3.1801e+05	2972.6	-0.33818	0.04392	0.94623
4.186	11.735	-3.1801e+05	2973.5	-0.33848	0.044701	0.94623
4.188	11.796	-3.1801e+05	2974.4	-0.33877	0.045482	0.94623
4.19	11.743	-3.1801e+05	2975.6	-0.33906	0.046262	0.94623
4.192	11.602	-3.1801e+05	2977.2	-0.33936	0.047043	0.94623
4.194	11.4	-3.1801e+05	2978.7	-0.33965	0.047824	0.94623
4.196	11.33	-3.1802e+05	2980.9	-0.33984	0.047434	0.94623
4.198	11.383	-3.1802e+05	2983.1	-0.34004	0.047043	0.94623
4.2	11.512	-3.1803e+05	2985.5	-0.34023	0.046653	0.94623
4.202	11.714	-3.1803e+05	2988.2	-0.34043	0.046262	0.94623
4.204	11.822	-3.1803e+05	2990.9	-0.34062	0.045872	0.94623
4.206	11.795	-3.1803e+05	2993.8	-0.34062	0.045579	0.9474
