t	ekg	optical	pressure	accel_x	accel_y	accel_z
0	-96.191	-47364	2776.7	-0.12005	0.07564	0.99601
0.002	-96.152	-47368	2780.3	-0.11888	0.074469	0.99542
0.004	-96.11	-47373	2783.9	-0.11771	0.073298	0.99484
0.006	-96.084	-47377	2787.4	-0.11653	0.072126	0.99425
0.008	-96.117	-47379	2790.9	-0.11536	0.070955	0.99367
0.01	-96.15	-47378	2794.5	-0.11419	0.069784	0.99308
0.012	-96.198	-47377	2797.7	-0.11409	0.069296	0.99367
0.014	-96.226	-47376	2800.9	-0.114	0.068808	0.99425
0.016	-96.198	-47382	2803.9	-0.1139	0.06832	0.99484
0.018	-96.166	-47393	2806.8	-0.1138	0.067832	0.99542
0.02	-96.128	-47397	2809.7	-0.1137	0.067344	0.99601
0.022	-96.084	-47396	2812.2	-0.11448	0.068515	0.99689
0.024	-96.119	-47394	2814.7	-0.11527	0.069686	0.99776
0.026	-96.159	-47389	2816.9	-0.11605	0.070858	0.99864
0.028	-96.194	-47388	2818.9	-0.11683	0.072029	0.99952
0.03	-96.238	-47389	2820.9	-0.11761	0.0732	1.0004
0.032	-96.235	-47386	2822.4	-0.11683	0.073688	0.99942
0.034	-96.197	-47378	2823.9	-0.11605	0.074176	0.99845
0.036	-96.16	-47375	2825.2	-0.11527	0.074664	0.99747
0.038	-96.121	-47376	2826.4	-0.11448	0.075152	0.9965
0.04	-96.131	-47375	2827.6	-0.1137	0.07564	0.99552
0.042	-96.169	-47370	2828.4	-0.11468	0.075445	0.99581
0.044	-96.198	-47363	2829.2	-0.11566	0.07525	0.99611
0.046	-96.232	-47352	2829.9	-0.11663	0.075054	0.9964
0.048	-96.242	-47345	2830.5	-0.11761	0.074859	0.99669
0.05	-96.213	-47342	2831	-0.11858	0.074664	0.99698
0.052	-96.182	-47338	2831.4	-0.11771	0.073883	0.99698
0.054	-96.153	-47333	2831.7	-0.11683	0.073102	0.99698
0.056	-96.135	-47327	2831.9	-0.11595	0.072322	0.99698
0.058	-96.157	-47320	2832	-0.11507	0.071541	0.99698
0.06	-96.201	-47314	2832.1	-0.11419	0.07076	0.99698
0.062	-96.244	-47310	2832	-0.11478	0.071053	0.99718
0.064	-96.272	-47306	2831.9	-0.11536	0.071346	0.99737
0.066	-96.249	-47302	2831.7	-0.11595	0.071638	0.99757
0.068	-96.209	-47295	2831.5	-0.11653	0.071931	0.99776
0.07	-96.176	-47284	2831.2	-0.11712	0.072224	0.99796
0.072	-96.133	-47276	2830.8	-0.1179	0.073883	0.9965
0.074	-96.14	-47270	2830.4	-0.11868	0.075542	0.99503
0.076	-96.179	-47268	2830	-0.11946	0.077202	0.99357
0.078	-96.204	-47270	2829.5	-0.12024	0.078861	0.9921
0.08	-96.245	-47263	2829	-0.12102	0.08052	0.99064
0.082	-96.256	-47247	2828.4	-0.12044	0.079837	0.99142
0.084	-96.221	-47238	2827.8	-0.11985	0.079154	0.9922
0.086	-96.182	-47235	2827.1	-0.11927	0.07847	0.99298
0.088	-96.119	-47235	2826.5	-0.11868	0.077787	0.99376
0.09	-96.109	-47236	2825.8	-0.1181	0.077104	0.99454
0.092	-96.148	-47231	2825.2	-0.118	0.07603	0.99454
0.094	-96.163	-47220	2824.5	-0.1179	0.074957	0.99454
0.096	-96.202	-47213	2823.9	-0.1178	0.073883	0.99454
0.098	-96.22	-47210	2823.3	-0.11771	0.07281	0.99454
0.1	-96.19	-47211	2822.7	-0.11761	0.071736	0.99454
0.102	-96.164	-47216	2822.1	-0.11712	0.071834	0.99454
0.104	-96.108	-47212	2821.6	-0.11663	0.071931	0.99454
0.106	-96.077	-47199	2821.1	-0.11614	0.072029	0.99454
0.108	-96.099	-47192	2820.5	-0.11566	0.072126	0.99454
0.11	-96.124	-47191	2820	-0.11517	0.072224	0.99454
0.112	-96.167	-47188	2819.5	-0.11566	0.071931	0.99425
0.114	-96.188	-47185	2819.1	-0.11614	0.071638	0.99396
0.116	-96.169	-47179	2818.6	-0.11663	0.071346	0.99367
0.118	-96.151	-47170	2818	-0.11712	0.071053	0.99337
0.12	-96.118	-47162	2817.5	-0.11761	0.07076	0.99308
0.122	-96.074	-47155	2817	-0.11692	0.069296	0.9923
0.124	-96.066	-47150	2816.4	-0.11624	0.067832	0.99152
0.126	-96.09	-47147	2815.9	-0.11556	0.066368	0.99074
0.128	-96.139	-47145	2815.4	-0.11488	0.064904	0.98996
0.13	-96.192	-47146	2814.8	-0.11419	0.06344	0.98918
0.132	-96.194	-47144	2814.2	-0.11517	0.064416	0.98966
0.134	-96.158	-47141	2813.6	-0.11614	0.065392	0.99015
0.136	-96.124	-47136	2813	-0.11712	0.066368	0.99064
0.138	-96.086	-47130	2812.4	-0.1181	0.067344	0.99113
0.14	-96.079	-47128	2811.8	-0.11907	0.06832	0.99162
0.142	-96.112	-47130	2811.2	-0.11839	0.06793	0.99123
0.144	-96.14	-47130	2810.7	-0.11771	0.067539	0.99084
0.146	-96.175	-47128	2810.1	-0.11702	0.067149	0.99044
0.148	-96.192	-47124	2809.6	-0.11634	0.066758	0.99005
0.15	-96.164	-47119	2809.1	-0.11566	0.066368	0.98966
0.152	-96.139	-47115	2808.6	-0.11644	0.066856	0.99025
0.154	-96.091	-47114	2808.1	-0.11722	0.067344	0.99084
0.156	-96.055	-47109	2807.5	-0.118	0.067832	0.99142
0.158	-96.086	-47100	2807	-0.11878	0.06832	0.99201
0.16	-96.118	-47098	2806.4	-0.11956	0.068808	0.99259
0.162	-96.159	-47103	2805.8	-0.11976	0.069003	0.99269
0.164	-96.199	-47104	2805.2	-0.11995	0.069198	0.99279
0.166	-96.171	-47099	2804.6	-0.12015	0.069394	0.99288
0.168	-96.124	-47097	2803.9	-0.12034	0.069589	0.99298
0.17	-96.088	-47097	2803.2	-0.12054	0.069784	0.99308
0.172	-96.049	-47095	2802.5	-0.12024	0.070955	0.99347
0.174	-96.068	-47089	2801.7	-0.11995	0.072126	0.99386
0.176	-96.111	-47087	2800.9	-0.11966	0.073298	0.99425
0.178	-96.143	-47088	2800	-0.11936	0.074469	0.99464
0.18	-96.196	-47084	2799.2	-0.11907	0.07564	0.99503
0.182	-96.183	-47074	2798.2	-0.11849	0.074469	0.99513
0.184	-96.138	-47071	2797.2	-0.1179	0.073298	0.99523
0.186	-96.112	-47074	2796.1	-0.11732	0.072126	0.99532
0.188	-96.08	-47074	2795	-0.11673	0.070955	0.99542
0.19	-96.066	-47071	2793.9	-0.11614	0.069784	0.99552
0.192	-96.078	-47069	2792.7	-0.11819	0.070955	0.99484
0.194	-96.098	-47066	2791.5	-0.12024	0.072126	0.99415
0.196	-96.174	-47061	2790.3	-0.12229	0.073298	0.99347
0.198	-96.201	-47052	2789	-0.12434	0.074469	0.99279
0.2	-96.156	-47050	2787.7	-0.12639	0.07564	0.9921
0.202	-96.11	-47054	2786.4	-0.12688	0.075933	0.99171
0.204	-96.059	-47056	2785.1	-0.12737	0.076226	0.99132
0.206	-96.044	-47054	2783.8	-0.12786	0.076518	0.99093
0.208	-96.082	-47055	2782.5	-0.12834	0.076811	0.99054
0.21	-96.122	-47058	2781.2	-0.12883	0.077104	0.99015
0.212	-96.152	-47061	2780	-0.12727	0.077494	0.99084
0.214	-96.169	-47063	2778.7	-0.12571	0.077885	0.99152
0.216	-96.16	-47063	2777.5	-0.12415	0.078275	0.9922
0.218	-96.137	-47063	2776.3	-0.12259	0.078666	0.99288
0.22	-96.104	-47064	2775.1	-0.12102	0.079056	0.99357
0.222	-96.068	-47066	2774.1	-0.122	0.078666	0.99328
0.224	-96.073	-47065	2773	-0.12298	0.078275	0.99298
0.226	-96.109	-47061	2771.9	-0.12395	0.077885	0.99269
0.228	-96.143	-47062	2770.9	-0.12493	0.077494	0.9924
0.23	-96.184	-47066	2769.9	-0.1259	0.077104	0.9921
0.232	-96.192	-47068	2769	-0.1262	0.076714	0.99171
0.234	-96.164	-47067	2768.1	-0.12649	0.076323	0.99132
0.236	-96.129	-47067	2767.4	-0.12678	0.075933	0.99093
0.238	-96.095	-47068	2766.7	-0.12708	0.075542	0.99054
0.24	-96.082	-47068	2766	-0.12737	0.075152	0.99015
0.242	-96.112	-47069	2765.5	-0.12649	0.076226	0.99005
0.244	-96.156	-47077	2764.9	-0.12561	0.077299	0.98996
0.246	-96.203	-47092	2764.5	-0.12473	0.078373	0.98986
0.248	-96.207	-47095	2764.1	-0.12385	0.079446	0.98976
0.25	-96.167	-47088	2763.7	-0.12298	0.08052	0.98966
0.252	-96.136	-47085	2763.5	-0.12268	0.080227	0.98966
0.254	-96.09	-47084	2763.2	-0.12239	0.079934	0.98966
0.256	-96.054	-47084	2763.1	-0.1221	0.079642	0.98966
0.258	-96.097	-47084	2763	-0.1218	0.079349	0.98966
0.26	-96.153	-47085	2762.9	-0.12151	0.079056	0.98966
0.262	-96.209	-47088	2762.9	-0.11956	0.076909	0.99035
0.264	-96.241	-47090	2762.8	-0.11761	0.074762	0.99103
0.266	-96.21	-47092	2762.7	-0.11566	0.072614	0.99171
0.268	-96.163	-47095	2762.7	-0.1137	0.070467	0.9924
0.27	-96.109	-47098	2762.6	-0.11175	0.06832	0.99308
0.272	-96.076	-47101	2762.5	-0.11156	0.068906	0.99454
0.274	-96.103	-47103	2762.4	-0.11136	0.069491	0.99601
0.276	-96.161	-47101	2762.3	-0.11117	0.070077	0.99747
0.278	-96.199	-47095	2762.2	-0.11097	0.070662	0.99894
0.28	-96.227	-47094	2762.1	-0.11078	0.071248	1.0004
0.282	-96.212	-47099	2761.9	-0.11029	0.071443	1.0002
0.284	-96.184	-47103	2761.7	-0.1098	0.071638	1
0.286	-96.153	-47108	2761.5	-0.10931	0.071834	0.99981
0.288	-96.114	-47112	2761.5	-0.10882	0.072029	0.99962
0.29	-96.118	-47114	2761.4	-0.10834	0.072224	0.99942
0.292	-96.155	-47116	2761.1	-0.10843	0.072712	0.99923
0.294	-96.18	-47117	2760.9	-0.10853	0.0732	0.99903
0.296	-96.204	-47118	2760.6	-0.10863	0.073688	0.99884
0.298	-96.22	-47119	2760.3	-0.10873	0.074176	0.99864
0.3	-96.204	-47121	2760.1	-0.10882	0.074664	0.99845
0.302	-96.175	-47123	2759.8	-0.11009	0.073298	0.99698
0.304	-96.144	-47123	2759.5	-0.11136	0.071931	0.99552
0.306	-96.124	-47120	2759.1	-0.11263	0.070565	0.99406
0.308	-96.139	-47119	2758.8	-0.1139	0.069198	0.99259
0.31	-96.168	-47120	2758.4	-0.11517	0.067832	0.99113
0.312	-96.195	-47125	2757.9	-0.11556	0.068613	0.99181
0.314	-96.213	-47135	2757.4	-0.11595	0.069394	0.99249
0.316	-96.204	-47140	2757	-0.11634	0.070174	0.99318
0.318	-96.181	-47138	2756.5	-0.11673	0.070955	0.99386
0.32	-96.153	-47136	2756	-0.11712	0.071736	0.99454
0.322	-96.128	-47134	2755.4	-0.11878	0.072419	0.99445
0.324	-96.141	-47135	2754.9	-0.12044	0.073102	0.99435
0.326	-96.169	-47140	2754.4	-0.1221	0.073786	0.99425
0.328	-96.196	-47143	2753.8	-0.12376	0.074469	0.99415
0.33	-96.228	-47144	2753.3	-0.12542	0.075152	0.99406
0.332	-96.219	-47144	2752.8	-0.12668	0.074859	0.99396
0.334	-96.189	-47144	2752.2	-0.12795	0.074566	0.99386
0.336	-96.162	-47147	2751.6	-0.12922	0.074274	0.99376
0.338	-96.119	-47152	2751.1	-0.13049	0.073981	0.99367
0.34	-96.11	-47155	2750.5	-0.13176	0.073688	0.99357
0.342	-96.153	-47155	2750	-0.1303	0.074078	0.99415
0.344	-96.171	-47154	2749.5	-0.12883	0.074469	0.99474
0.346	-96.23	-47153	2749	-0.12737	0.074859	0.99532
0.348	-96.25	-47155	2748.5	-0.1259	0.07525	0.99591
0.35	-96.21	-47162	2748.1	-0.12444	0.07564	0.9965
0.352	-96.174	-47166	2747.6	-0.12464	0.075542	0.9964
0.354	-96.119	-47167	2747.2	-0.12483	0.075445	0.9963
0.356	-96.098	-47168	2746.8	-0.12503	0.075347	0.9962
0.358	-96.131	-47171	2746.4	-0.12522	0.07525	0.99611
0.36	-96.158	-47175	2746	-0.12542	0.075152	0.99601
0.362	-96.214	-47180	2745.7	-0.1261	0.073786	0.99532
0.364	-96.253	-47182	2745.3	-0.12678	0.072419	0.99464
0.366	-96.226	-47182	2745	-0.12747	0.071053	0.99396
0.368	-96.188	-47182	2744.6	-0.12815	0.069686	0.99328
0.37	-96.15	-47184	2744.3	-0.12883	0.06832	0.99259
0.372	-96.124	-47188	2743.9	-0.12747	0.070174	0.99308
0.374	-96.152	-47195	2743.6	-0.1261	0.072029	0.99357
0.376	-96.209	-47199	2743.2	-0.12473	0.073883	0.99406
0.378	-96.29	-47199	2742.8	-0.12337	0.075738	0.99454
0.38	-96.379	-47197	2742.4	-0.122	0.077592	0.99503
0.382	-96.449	-47193	2742.1	-0.12034	0.075835	0.99513
0.384	-96.513	-47192	2741.8	-0.11868	0.074078	0.99523
0.386	-96.577	-47194	2741.5	-0.11702	0.072322	0.99532
0.388	-96.619	-47198	2741.1	-0.11536	0.070565	0.99542
0.39	-96.685	-47203	2740.8	-0.1137	0.068808	0.99552
0.392	-96.79	-47207	2740.5	-0.11361	0.068222	0.99484
0.394	-96.892	-47209	2740.1	-0.11351	0.067637	0.99415
0.396	-96.982	-47212	2739.7	-0.11341	0.067051	0.99347
0.398	-97.001	-47214	2739.4	-0.11331	0.066466	0.99279
0.4	-96.94	-47216	2739	-0.11322	0.06588	0.9921
0.402	-96.869	-47217	2738.6	-0.11351	0.066368	0.99191
0.404	-96.776	-47215	2738.1	-0.1138	0.066856	0.99171
0.406	-96.649	-47212	2737.7	-0.11409	0.067344	0.99152
0.408	-96.497	-47211	2737.3	-0.11439	0.067832	0.99132
0.41	-96.287	-47213	2737	-0.11468	0.06832	0.99113
0.412	-96.106	-47215	2736.5	-0.11292	0.069198	0.9923
0.414	-95.991	-47218	2736.1	-0.11117	0.070077	0.99347
0.416	-95.893	-47222	2735.6	-0.10941	0.070955	0.99464
0.418	-95.811	-47227	2735.2	-0.10765	0.071834	0.99581
0.42	-95.746	-47227	2734.7	-0.1059	0.072712	0.99698
0.422	-95.689	-47224	2734.3	-0.10551	0.073395	0.99776
0.424	-95.701	-47222	2733.8	-0.10512	0.074078	0.99855
0.426	-95.739	-47221	2733.3	-0.10472	0.074762	0.99933
0.428	-95.776	-47223	2732.9	-0.10433	0.075445	1.0001
0.43	-95.822	-47228	2732.4	-0.10394	0.076128	1.0009
0.432	-95.823	-47231	2731.8	-0.10502	0.076714	0.99923
0.434	-95.789	-47233	2731.3	-0.10609	0.077299	0.99757
0.436	-95.768	-47236	2730.8	-0.10716	0.077885	0.99591
0.438	-95.752	-47241	2730.3	-0.10824	0.07847	0.99425
0.44	-95.781	-47245	2729.8	-0.10931	0.079056	0.99259
0.442	-95.852	-47249	2729.3	-0.1097	0.077494	0.99396
0.444	-95.919	-47251	2728.8	-0.11009	0.075933	0.99532
0.446	-95.996	-47251	2728.3	-0.11048	0.074371	0.99669
0.448	-96.035	-47254	2727.7	-0.11087	0.07281	0.99806
0.45	-96.033	-47259	2727.2	-0.11126	0.071248	0.99942
0.452	-96.031	-47261	2726.8	-0.11097	0.071541	0.99903
0.454	-96.001	-47260	2726.3	-0.11068	0.071834	0.99864
0.456	-95.998	-47262	2725.9	-0.11039	0.072126	0.99825
0.458	-96.068	-47267	2725.4	-0.11009	0.072419	0.99786
0.46	-96.135	-47271	2724.9	-0.1098	0.072712	0.99747
0.462	-96.174	-47274	2724.5	-0.11117	0.073493	0.99728
0.464	-96.218	-47277	2724	-0.11253	0.074274	0.99708
0.466	-96.228	-47280	2723.6	-0.1139	0.075054	0.99689
0.468	-96.196	-47281	2723.1	-0.11527	0.075835	0.99669
0.47	-96.156	-47282	2722.6	-0.11663	0.076616	0.9965
0.472	-96.137	-47281	2722.1	-0.11722	0.07603	0.99728
0.474	-96.16	-47280	2721.7	-0.1178	0.075445	0.99806
0.476	-96.203	-47281	2721.3	-0.11839	0.074859	0.99884
0.478	-96.241	-47285	2720.9	-0.11897	0.074274	0.99962
0.48	-96.275	-47287	2720.5	-0.11956	0.073688	1.0004
0.482	-96.271	-47288	2720	-0.12083	0.073688	0.99942
0.484	-96.227	-47286	2719.6	-0.1221	0.073688	0.99845
0.486	-96.177	-47283	2719.2	-0.12337	0.073688	0.99747
0.488	-96.129	-47287	2718.8	-0.12464	0.073688	0.9965
0.49	-96.128	-47296	2718.5	-0.1259	0.073688	0.99552
0.492	-96.182	-47301	2718.1	-0.12639	0.074371	0.99464
0.494	-96.226	-47302	2717.7	-0.12688	0.075054	0.99376
0.496	-96.26	-47301	2717.3	-0.12737	0.075738	0.99288
0.498	-96.279	-47298	2716.9	-0.12786	0.076421	0.99201
0.5	-96.247	-47300	2716.5	-0.12834	0.077104	0.99113
0.502	-96.201	-47306	2716.1	-0.12698	0.076811	0.99181
0.504	-96.157	-47309	2715.8	-0.12561	0.076518	0.99249
0.506	-96.137	-47310	2715.4	-0.12424	0.076226	0.99318
0.508	-96.163	-47312	2715	-0.12288	0.075933	0.99386
0.51	-96.203	-47317	2714.7	-0.12151	0.07564	0.99454
0.512	-96.257	-47320	2714.4	-0.12249	0.075054	0.99396
0.514	-96.295	-47321	2714.1	-0.12346	0.074469	0.99337
0.516	-96.264	-47321	2713.9	-0.12444	0.073883	0.99279
0.518	-96.225	-47321	2713.6	-0.12542	0.073298	0.9922
0.52	-96.181	-47326	2713.4	-0.12639	0.072712	0.99162
0.522	-96.121	-47334	2713.2	-0.12737	0.071541	0.99074
0.524	-96.13	-47341	2713.1	-0.12834	0.07037	0.98986
0.526	-96.19	-47346	2713	-0.12932	0.069198	0.98898
0.528	-96.238	-47348	2712.9	-0.1303	0.068027	0.9881
0.53	-96.265	-47346	2712.8	-0.13127	0.066856	0.98722
0.532	-96.252	-47346	2712.8	-0.13117	0.066563	0.98761
0.534	-96.229	-47348	2712.9	-0.13108	0.06627	0.988
0.536	-96.207	-47349	2712.9	-0.13098	0.065978	0.9884
0.538	-96.156	-47350	2713.1	-0.13088	0.065685	0.98879
0.54	-96.146	-47349	2713.2	-0.13078	0.065392	0.98918
0.542	-96.187	-47347	2713.6	-0.13069	0.06549	0.98918
0.544	-96.223	-47348	2714	-0.13059	0.065587	0.98918
0.546	-96.261	-47352	2714.6	-0.13049	0.065685	0.98918
0.548	-96.277	-47353	2715.3	-0.13039	0.065782	0.98918
0.55	-96.262	-47352	2716	-0.1303	0.06588	0.98918
0.552	-96.238	-47351	2717.2	-0.12717	0.066563	0.99025
0.554	-96.19	-47350	2718.4	-0.12405	0.067246	0.99132
0.556	-96.16	-47352	2719.7	-0.12093	0.06793	0.9924
0.558	-96.203	-47356	2721.3	-0.1178	0.068613	0.99347
0.56	-96.26	-47361	2722.9	-0.11468	0.069296	0.99454
0.562	-96.297	-47367	2724.8	-0.11507	0.069101	0.99406
0.564	-96.319	-47371	2726.8	-0.11546	0.068906	0.99357
0.566	-96.295	-47374	2729	-0.11585	0.06871	0.99308
0.568	-96.263	-47373	2731.2	-0.11624	0.068515	0.99259
0.57	-96.235	-47368	2733.5	-0.11663	0.06832	0.9921
0.572	-96.199	-47367	2735.9	-0.11683	0.068515	0.99152
0.574	-96.218	-47370	2738.4	-0.11702	0.06871	0.99093
0.576	-96.257	-47371	2740.9	-0.11722	0.068906	0.99035
0.578	-96.29	-47372	2743.5	-0.11741	0.069101	0.98976
0.58	-96.323	-47374	2746.1	-0.11761	0.069296	0.98918
0.582	-96.313	-47379	2748.8	-0.11624	0.07037	0.99054
0.584	-96.287	-47378	2751.4	-0.11488	0.071443	0.99191
0.586	-96.271	-47371	2754	-0.11351	0.072517	0.99328
0.588	-96.247	-47367	2756.5	-0.11214	0.07359	0.99464
0.59	-96.243	-47366	2759.1	-0.11078	0.074664	0.99601
0.592	-96.266	-47367	2761.4	-0.11	0.076226	0.99572
0.594	-96.293	-47370	2763.8	-0.10921	0.077787	0.99542
0.596	-96.367	-47368	2766.1	-0.10843	0.079349	0.99513
0.598	-96.392	-47362	2768.2	-0.10765	0.08091	0.99484
0.6	-96.358	-47358	2770.3	-0.10687	0.082472	0.99454
0.602	-96.336	-47357	2772.2	-0.10834	0.080813	0.99513
0.604	-96.279	-47358	2774	-0.1098	0.079154	0.99572
0.606	-96.252	-47359	2775.7	-0.11126	0.077494	0.9963
0.608	-96.304	-47356	2777.2	-0.11273	0.075835	0.99689
0.61	-96.339	-47350	2778.7	-0.11419	0.074176	0.99747
0.612	-96.363	-47348	2779.9	-0.11497	0.074566	0.99689
0.614	-96.416	-47351	2781.1	-0.11575	0.074957	0.9963
0.616	-96.408	-47350	2782.1	-0.11653	0.075347	0.99572
0.618	-96.353	-47345	2782.9	-0.11732	0.075738	0.99513
0.62	-96.308	-47339	2783.7	-0.1181	0.076128	0.99454
0.622	-96.29	-47332	2784.3	-0.11907	0.076909	0.99454
0.624	-96.317	-47326	2784.8	-0.12005	0.07769	0.99454
0.626	-96.356	-47320	2785.3	-0.12102	0.07847	0.99454
0.628	-96.386	-47317	2785.5	-0.122	0.079251	0.99454
0.63	-96.425	-47316	2785.8	-0.12298	0.080032	0.99454
0.632	-96.429	-47310	2785.7	-0.12239	0.079544	0.99513
0.634	-96.396	-47298	2785.7	-0.1218	0.079056	0.99572
0.636	-96.35	-47294	2785.5	-0.12122	0.078568	0.9963
0.638	-96.293	-47297	2785.2	-0.12063	0.07808	0.99689
0.64	-96.278	-47295	2784.8	-0.12005	0.077592	0.99747
0.642	-96.315	-47288	2784.2	-0.12102	0.077006	0.99669
0.644	-96.359	-47280	2783.7	-0.122	0.076421	0.99591
0.646	-96.401	-47271	2783	-0.12298	0.075835	0.99513
0.648	-96.414	-47265	2782.2	-0.12395	0.07525	0.99435
0.65	-96.379	-47263	2781.4	-0.12493	0.074664	0.99357
0.652	-96.334	-47256	2780.4	-0.12366	0.074859	0.99406
0.654	-96.28	-47244	2779.5	-0.12239	0.075054	0.99454
0.656	-96.247	-47238	2778.4	-0.12112	0.07525	0.99503
0.658	-96.272	-47237	2777.3	-0.11985	0.075445	0.99552
0.66	-96.3	-47235	2776.1	-0.11858	0.07564	0.99601
0.662	-96.33	-47231	2774.9	-0.11761	0.074274	0.99572
0.664	-96.365	-47227	2773.6	-0.11663	0.072907	0.99542
0.666	-96.342	-47224	2772.3	-0.11566	0.071541	0.99513
0.668	-96.302	-47220	2771	-0.11468	0.070174	0.99484
0.67	-96.268	-47215	2769.7	-0.1137	0.068808	0.99454
0.672	-96.214	-47209	2768.4	-0.11429	0.06832	0.99367
0.674	-96.22	-47203	2767.2	-0.11488	0.067832	0.99279
0.676	-96.249	-47196	2765.9	-0.11546	0.067344	0.99191
0.678	-96.259	-47189	2764.6	-0.11605	0.066856	0.99103
0.68	-96.311	-47185	2763.2	-0.11663	0.066368	0.99015
0.682	-96.324	-47186	2761.9	-0.11497	0.067637	0.9923
0.684	-96.256	-47186	2760.5	-0.11331	0.068906	0.99445
0.686	-96.231	-47185	2759.2	-0.11165	0.070174	0.99659
0.688	-96.205	-47178	2758	-0.11	0.071443	0.99874
0.69	-96.208	-47164	2756.7	-0.10834	0.072712	1.0009
0.692	-96.243	-47157	2755.6	-0.11068	0.072712	0.99894
0.694	-96.26	-47156	2754.5	-0.11302	0.072712	0.99698
0.696	-96.29	-47157	2753.3	-0.11536	0.072712	0.99503
0.698	-96.302	-47158	2752.1	-0.11771	0.072712	0.99308
0.7	-96.279	-47153	2751	-0.12005	0.072712	0.99113
0.702	-96.242	-47143	2749.9	-0.11966	0.072517	0.99093
0.704	-96.195	-47138	2748.9	-0.11927	0.072322	0.99074
0.706	-96.176	-47138	2747.9	-0.11888	0.072126	0.99054
0.708	-96.214	-47136	2747	-0.11849	0.071931	0.99035
0.71	-96.254	-47131	2746	-0.1181	0.071736	0.99015
0.712	-96.297	-47124	2745.2	-0.11712	0.070565	0.99064
0.714	-96.329	-47115	2744.4	-0.11614	0.069394	0.99113
0.716	-96.307	-47108	2743.5	-0.11517	0.068222	0.99162
0.718	-96.256	-47103	2742.7	-0.11419	0.067051	0.9921
0.72	-96.21	-47098	2741.9	-0.11322	0.06588	0.99259
0.722	-96.183	-47093	2741.1	-0.1139	0.065685	0.99288
0.724	-96.203	-47090	2740.2	-0.11458	0.06549	0.99318
0.726	-96.247	-47090	2739.3	-0.11527	0.065294	0.99347
0.728	-96.287	-47087	2738.2	-0.11595	0.065099	0.99376
0.73	-96.322	-47082	2737.2	-0.11663	0.064904	0.99406
0.732	-96.317	-47079	2736.2	-0.11614	0.065099	0.99328
0.734	-96.277	-47079	2735.1	-0.11566	0.065294	0.99249
0.736	-96.245	-47073	2734.1	-0.11517	0.06549	0.99171
0.738	-96.225	-47064	2733.1	-0.11468	0.065685	0.99093
0.74	-96.22	-47057	2732.1	-0.11419	0.06588	0.99015
0.742	-96.242	-47052	2731	-0.118	0.066173	0.98937
0.744	-96.267	-47050	2729.9	-0.1218	0.066466	0.98859
0.746	-96.299	-47049	2728.9	-0.12561	0.066758	0.98781
0.748	-96.309	-47048	2727.9	-0.12942	0.067051	0.98703
0.75	-96.262	-47046	2726.9	-0.13322	0.067344	0.98625
0.752	-96.239	-47044	2726	-0.13147	0.067442	0.98605
0.754	-96.218	-47041	2725	-0.12971	0.067539	0.98586
0.756	-96.203	-47037	2724.1	-0.12795	0.067637	0.98566
0.758	-96.224	-47033	2723.1	-0.1262	0.067734	0.98547
0.76	-96.273	-47029	2722.2	-0.12444	0.067832	0.98527
0.762	-96.31	-47024	2721.2	-0.12424	0.068808	0.98703
0.764	-96.328	-47022	2720.2	-0.12405	0.069784	0.98879
0.766	-96.316	-47023	2719.2	-0.12385	0.07076	0.99054
0.768	-96.28	-47024	2718	-0.12366	0.071736	0.9923
0.77	-96.241	-47023	2716.9	-0.12346	0.072712	0.99406
0.772	-96.21	-47017	2715.6	-0.12356	0.0732	0.99435
0.774	-96.224	-47005	2714.4	-0.12366	0.073688	0.99464
0.776	-96.241	-46999	2713	-0.12376	0.074176	0.99493
0.778	-96.27	-46999	2711.6	-0.12385	0.074664	0.99523
0.78	-96.326	-46998	2710.1	-0.12395	0.075152	0.99552
0.782	-96.321	-46996	2708.8	-0.12395	0.074859	0.99572
0.784	-96.287	-46992	2707.5	-0.12395	0.074566	0.99591
0.786	-96.271	-46987	2706.2	-0.12395	0.074274	0.99611
0.788	-96.229	-46983	2705	-0.12395	0.073981	0.9963
0.79	-96.229	-46981	2703.7	-0.12395	0.073688	0.9965
0.792	-96.247	-46982	2702.7	-0.12395	0.07359	0.9965
0.794	-96.26	-46985	2701.7	-0.12395	0.073493	0.9965
0.796	-96.314	-46987	2700.7	-0.12395	0.073395	0.9965
0.798	-96.345	-46987	2699.7	-0.12395	0.073298	0.9965
0.8	-96.317	-46986	2698.7	-0.12395	0.0732	0.9965
0.802	-96.287	-46985	2697.9	-0.12307	0.073688	0.99689
0.804	-96.25	-46982	2697	-0.1222	0.074176	0.99728
0.806	-96.238	-46978	2696.3	-0.12132	0.074664	0.99767
0.808	-96.256	-46974	2695.6	-0.12044	0.075152	0.99806
0.81	-96.284	-46969	2695	-0.11956	0.07564	0.99845
0.812	-96.322	-46965	2694.4	-0.118	0.074274	0.99796
0.814	-96.349	-46963	2693.9	-0.11644	0.072907	0.99747
0.816	-96.334	-46962	2693.4	-0.11488	0.071541	0.99698
0.818	-96.295	-46964	2692.9	-0.11331	0.070174	0.9965
0.82	-96.26	-46964	2692.5	-0.11175	0.068808	0.99601
0.822	-96.243	-46962	2692.2	-0.11253	0.069589	0.9962
0.824	-96.266	-46961	2691.8	-0.11331	0.07037	0.9964
0.826	-96.306	-46962	2691.5	-0.11409	0.07115	0.99659
0.828	-96.336	-46962	2691.3	-0.11488	0.071931	0.99679
0.83	-96.364	-46963	2691	-0.11566	0.072712	0.99698
0.832	-96.355	-46963	2690.9	-0.11419	0.073005	0.99708
0.834	-96.317	-46960	2690.9	-0.11273	0.073298	0.99718
0.836	-96.262	-46958	2690.9	-0.11126	0.07359	0.99728
0.838	-96.217	-46956	2690.9	-0.1098	0.073883	0.99737
0.84	-96.237	-46957	2691	-0.10834	0.074176	0.99747
0.842	-96.265	-46962	2691.1	-0.10795	0.074762	0.9965
0.844	-96.286	-46963	2691.2	-0.10756	0.075347	0.99552
0.846	-96.338	-46961	2691.3	-0.10716	0.075933	0.99454
0.848	-96.358	-46959	2691.4	-0.10677	0.076518	0.99357
0.85	-96.316	-46957	2691.5	-0.10638	0.077104	0.99259
0.852	-96.283	-46958	2691.7	-0.10726	0.07603	0.99396
0.854	-96.239	-46960	2691.8	-0.10814	0.074957	0.99532
0.856	-96.229	-46961	2691.9	-0.10902	0.073883	0.99669
0.858	-96.271	-46960	2692.1	-0.1099	0.07281	0.99806
0.86	-96.307	-46960	2692.2	-0.11078	0.071736	0.99942
0.862	-96.335	-46960	2692.3	-0.1099	0.072614	0.99952
0.864	-96.358	-46961	2692.3	-0.10902	0.073493	0.99962
0.866	-96.331	-46962	2692.4	-0.10814	0.074371	0.99972
0.868	-96.283	-46961	2692.4	-0.10726	0.07525	0.99981
0.87	-96.242	-46959	2692.4	-0.10638	0.076128	0.99991
0.872	-96.201	-46957	2692.4	-0.10795	0.074371	0.99962
0.874	-96.222	-46956	2692.3	-0.10951	0.072614	0.99933
0.876	-96.278	-46954	2692.3	-0.11107	0.070858	0.99903
0.878	-96.324	-46952	2692.2	-0.11263	0.069101	0.99874
0.88	-96.358	-46951	2692.1	-0.11419	0.067344	0.99845
0.882	-96.339	-46951	2691.9	-0.11361	0.068027	0.99864
0.884	-96.303	-46951	2691.7	-0.11302	0.06871	0.99884
0.886	-96.26	-46951	2691.5	-0.11244	0.069394	0.99903
0.888	-96.233	-46949	2691.3	-0.11185	0.070077	0.99923
0.89	-96.252	-46945	2691.1	-0.11126	0.07076	0.99942
0.892	-96.279	-46945	2690.9	-0.11126	0.07037	0.99855
0.894	-96.296	-46947	2690.6	-0.11126	0.069979	0.99767
0.896	-96.333	-46945	2690.4	-0.11126	0.069589	0.99679
0.898	-96.362	-46938	2690.2	-0.11126	0.069198	0.99591
0.9	-96.354	-46934	2689.9	-0.11126	0.068808	0.99503
0.902	-96.323	-46931	2689.7	-0.11234	0.069003	0.99435
0.904	-96.277	-46935	2689.5	-0.11341	0.069198	0.99367
0.906	-96.251	-46945	2689.2	-0.11448	0.069394	0.99298
0.908	-96.268	-46947	2688.9	-0.11556	0.069589	0.9923
0.91	-96.295	-46941	2688.6	-0.11663	0.069784	0.99162
0.912	-96.331	-46939	2688.3	-0.11771	0.069979	0.99142
0.914	-96.357	-46940	2688	-0.11878	0.070174	0.99123
0.916	-96.33	-46942	2687.7	-0.11985	0.07037	0.99103
0.918	-96.29	-46945	2687.5	-0.12093	0.070565	0.99084
0.92	-96.262	-46944	2687.3	-0.122	0.07076	0.99064
0.922	-96.239	-46940	2687.1	-0.12132	0.070467	0.99162
0.924	-96.257	-46937	2686.8	-0.12063	0.070174	0.99259
0.926	-96.285	-46936	2686.6	-0.11995	0.069882	0.99357
0.928	-96.313	-46933	2686.4	-0.11927	0.069589	0.99454
0.93	-96.372	-46929	2686.2	-0.11858	0.069296	0.99552
0.932	-96.368	-46930	2686	-0.11868	0.069979	0.99572
0.934	-96.327	-46937	2685.8	-0.11878	0.070662	0.99591
0.936	-96.279	-46940	2685.6	-0.11888	0.071346	0.99611
0.938	-96.226	-46939	2685.4	-0.11897	0.072029	0.9963
0.94	-96.23	-46937	2685.2	-0.11907	0.072712	0.9965
0.942	-96.265	-46932	2685	-0.12005	0.072224	0.99513
0.944	-96.297	-46935	2684.8	-0.12102	0.071736	0.99376
0.946	-96.338	-46945	2684.6	-0.122	0.071248	0.9924
0.948	-96.346	-46951	2684.3	-0.12298	0.07076	0.99103
0.95	-96.332	-46953	2684.1	-0.12395	0.070272	0.98966
0.952	-96.297	-46954	2683.8	-0.12278	0.070662	0.99132
0.954	-96.233	-46953	2683.5	-0.12161	0.071053	0.99298
0.956	-96.231	-46956	2683.2	-0.12044	0.071443	0.99464
0.958	-96.264	-46963	2682.8	-0.11927	0.071834	0.9963
0.96	-96.283	-46966	2682.4	-0.1181	0.072224	0.99796
0.962	-96.326	-46966	2682.1	-0.11839	0.071053	0.99659
0.964	-96.364	-46960	2681.8	-0.11868	0.069882	0.99523
0.966	-96.353	-46949	2681.3	-0.11897	0.06871	0.99386
0.968	-96.32	-46945	2680.9	-0.11927	0.067539	0.99249
0.97	-96.269	-46947	2680.4	-0.11956	0.066368	0.99113
0.972	-96.224	-46950	2679.8	-0.11819	0.066466	0.99152
0.974	-96.232	-46953	2679.3	-0.11683	0.066563	0.99191
0.976	-96.271	-46952	2678.7	-0.11546	0.066661	0.9923
0.978	-96.316	-46947	2678.3	-0.11409	0.066758	0.99269
0.98	-96.352	-46942	2677.8	-0.11273	0.066856	0.99308
0.982	-96.339	-46937	2677.3	-0.11361	0.067246	0.99269
0.984	-96.3	-46936	2676.8	-0.11448	0.067637	0.9923
0.986	-96.272	-46937	2676.3	-0.11536	0.068027	0.99191
0.988	-96.249	-46938	2675.7	-0.11624	0.068418	0.99152
0.99	-96.262	-46938	2675.1	-0.11712	0.068808	0.99113
0.992	-96.299	-46937	2674.6	-0.11761	0.069003	0.99093
0.994	-96.325	-46934	2674	-0.1181	0.069198	0.99074
0.996	-96.366	-46935	2673.4	-0.11858	0.069394	0.99054
0.998	-96.388	-46939	2672.9	-0.11907	0.069589	0.99035
1	-96.348	-46941	2672.3	-0.11956	0.069784	0.99015
1.002	-96.313	-46939	2671.8	-0.1178	0.069686	0.99113
1.004	-96.274	-46938	2671.2	-0.11605	0.069589	0.9921
1.006	-96.239	-46939	2670.7	-0.11429	0.069491	0.99308
1.008	-96.271	-46941	2670.2	-0.11253	0.069394	0.99406
1.01	-96.312	-46946	2669.7	-0.11078	0.069296	0.99503
1.012	-96.356	-46945	2669.1	-0.11078	0.069979	0.99542
1.014	-96.389	-46939	2668.5	-0.11078	0.070662	0.99581
1.016	-96.346	-46936	2668	-0.11078	0.071346	0.9962
1.018	-96.289	-46935	2667.5	-0.11078	0.072029	0.99659
1.02	-96.272	-46935	2667	-0.11078	0.072712	0.99698
1.022	-96.227	-46938	2666.4	-0.11087	0.07281	0.99796
1.024	-96.233	-46945	2665.9	-0.11097	0.072907	0.99894
1.026	-96.297	-46957	2665.3	-0.11107	0.073005	0.99991
1.028	-96.354	-46957	2664.6	-0.11117	0.073102	1.0009
1.03	-96.411	-46945	2664	-0.11126	0.0732	1.0019
1.032	-96.401	-46940	2663.1	-0.11097	0.071541	1.0031
1.034	-96.359	-46943	2662.2	-0.11068	0.069882	1.0044
1.036	-96.352	-46946	2661.3	-0.11039	0.068222	1.0057
1.038	-96.337	-46949	2660.4	-0.11009	0.066563	1.0069
1.04	-96.392	-46950	2659.5	-0.1098	0.064904	1.0082
1.042	-96.502	-46949	2658.1	-0.11283	0.068613	1.0036
1.044	-96.618	-46948	2656.8	-0.11585	0.072322	0.99903
1.046	-96.739	-46947	2655.6	-0.11888	0.07603	0.99445
1.048	-96.823	-46948	2654.7	-0.1219	0.079739	0.98986
1.05	-96.856	-46950	2653.7	-0.12493	0.083448	0.98527
1.052	-96.89	-46948	2653.4	-0.12668	0.08091	0.98625
1.054	-96.893	-46942	2653.2	-0.12844	0.078373	0.98722
1.056	-96.892	-46939	2652.9	-0.1302	0.075835	0.9882
1.058	-96.901	-46938	2652.5	-0.13196	0.073298	0.98918
1.06	-96.923	-46936	2652.1	-0.13371	0.07076	0.99015
1.062	-96.942	-46931	2651.5	-0.12961	0.070565	0.99113
1.064	-96.912	-46930	2650.9	-0.12551	0.07037	0.9921
1.066	-96.788	-46932	2650.5	-0.12141	0.070174	0.99308
1.068	-96.573	-46936	2650.1	-0.11732	0.069979	0.99406
1.07	-96.319	-46943	2649.7	-0.11322	0.069784	0.99503
1.072	-96.116	-46944	2649.6	-0.1178	0.070662	0.99376
1.074	-96.032	-46941	2649.6	-0.12239	0.071541	0.99249
1.076	-96.029	-46939	2649.6	-0.12698	0.072419	0.99123
1.078	-96.04	-46937	2649.7	-0.13156	0.073298	0.98996
1.08	-96.045	-46936	2649.8	-0.13615	0.074176	0.98869
1.082	-96.023	-46939	2649.9	-0.13547	0.074078	0.98898
1.084	-95.986	-46939	2650	-0.13479	0.073981	0.98927
1.086	-95.948	-46938	2650.2	-0.1341	0.073883	0.98957
1.088	-95.891	-46939	2650.5	-0.13342	0.073786	0.98986
1.09	-95.878	-46942	2650.7	-0.13274	0.073688	0.99015
1.092	-95.919	-46943	2650.9	-0.13088	0.074078	0.99152
1.094	-95.952	-46942	2651.1	-0.12903	0.074469	0.99288
1.096	-96.002	-46943	2651.3	-0.12717	0.074859	0.99425
1.098	-96.045	-46944	2651.3	-0.12532	0.07525	0.99562
1.1	-96.032	-46942	2651.4	-0.12346	0.07564	0.99698
1.102	-96.018	-46937	2651.5	-0.1218	0.075054	0.99708
1.104	-96.022	-46934	2651.5	-0.12015	0.074469	0.99718
1.106	-96.043	-46934	2651.6	-0.11849	0.073883	0.99728
1.108	-96.127	-46935	2651.6	-0.11683	0.073298	0.99737
1.11	-96.165	-46938	2651.6	-0.11517	0.072712	0.99747
1.112	-96.203	-46940	2651.7	-0.11644	0.073493	0.99737
1.114	-96.259	-46941	2651.7	-0.11771	0.074274	0.99728
1.116	-96.252	-46939	2651.8	-0.11897	0.075054	0.99718
1.118	-96.247	-46935	2651.8	-0.12024	0.075835	0.99708
1.12	-96.24	-46933	2651.8	-0.12151	0.076616	0.99698
1.122	-96.225	-46934	2652	-0.122	0.077006	0.99591
1.124	-96.264	-46934	2652.1	-0.12249	0.077397	0.99484
1.126	-96.299	-46933	2652.2	-0.12298	0.077787	0.99376
1.128	-96.335	-46934	2652.3	-0.12346	0.078178	0.99269
1.13	-96.38	-46936	2652.4	-0.12395	0.078568	0.99162
1.132	-96.387	-46935	2652.6	-0.12522	0.077494	0.99162
1.134	-96.345	-46929	2652.7	-0.12649	0.076421	0.99162
1.136	-96.302	-46929	2652.9	-0.12776	0.075347	0.99162
1.138	-96.256	-46936	2653.1	-0.12903	0.074274	0.99162
1.14	-96.269	-46939	2653.4	-0.1303	0.0732	0.99162
1.142	-96.324	-46938	2653.5	-0.12815	0.074371	0.99191
1.144	-96.368	-46935	2653.6	-0.126	0.075542	0.9922
1.146	-96.401	-46928	2653.7	-0.12385	0.076714	0.99249
1.148	-96.405	-46928	2653.8	-0.12171	0.077885	0.99279
1.15	-96.38	-46935	2654	-0.11956	0.079056	0.99308
1.152	-96.351	-46936	2654	-0.11995	0.079154	0.99298
1.154	-96.311	-46932	2654.1	-0.12034	0.079251	0.99288
1.156	-96.289	-46930	2654.2	-0.12073	0.079349	0.99279
1.158	-96.305	-46929	2654.2	-0.12112	0.079446	0.99269
1.16	-96.336	-46930	2654.2	-0.12151	0.079544	0.99259
1.162	-96.379	-46934	2654.2	-0.1221	0.079446	0.99279
1.164	-96.404	-46934	2654.2	-0.12268	0.079349	0.99298
1.166	-96.388	-46930	2654.3	-0.12327	0.079251	0.99318
1.168	-96.364	-46930	2654.3	-0.12385	0.079154	0.99337
1.17	-96.334	-46935	2654.3	-0.12444	0.079056	0.99357
1.172	-96.299	-46938	2654.4	-0.12298	0.077982	0.99425
1.174	-96.305	-46938	2654.4	-0.12151	0.076909	0.99493
1.176	-96.346	-46936	2654.6	-0.12005	0.075835	0.99562
1.178	-96.375	-46933	2654.7	-0.11858	0.074762	0.9963
1.18	-96.409	-46930	2654.9	-0.11712	0.073688	0.99698
1.182	-96.396	-46929	2655.1	-0.11732	0.073005	0.9965
1.184	-96.353	-46929	2655.4	-0.11751	0.072322	0.99601
1.186	-96.334	-46930	2655.6	-0.11771	0.071638	0.99552
1.188	-96.288	-46934	2656	-0.1179	0.070955	0.99503
1.19	-96.277	-46940	2656.3	-0.1181	0.070272	0.99454
1.192	-96.33	-46942	2657	-0.11771	0.069882	0.99435
1.194	-96.366	-46942	2657.6	-0.11732	0.069491	0.99415
1.196	-96.419	-46939	2658.4	-0.11692	0.069101	0.99396
1.198	-96.43	-46933	2659.5	-0.11653	0.06871	0.99376
1.2	-96.398	-46930	2660.5	-0.11614	0.06832	0.99357
1.202	-96.372	-46931	2662.1	-0.11683	0.06832	0.99328
1.204	-96.324	-46932	2663.7	-0.11751	0.06832	0.99298
1.206	-96.296	-46932	2665.7	-0.11819	0.06832	0.99269
1.208	-96.31	-46931	2667.9	-0.11888	0.06832	0.9924
1.21	-96.359	-46930	2670.1	-0.11956	0.06832	0.9921
1.212	-96.416	-46930	2672.9	-0.11985	0.068515	0.99201
1.214	-96.459	-46934	2675.7	-0.12015	0.06871	0.99191
1.216	-96.432	-46934	2678.8	-0.12044	0.068906	0.99181
1.218	-96.406	-46930	2682	-0.12073	0.069101	0.99171
1.22	-96.363	-46928	2685.3	-0.12102	0.069296	0.99162
1.222	-96.322	-46928	2688.9	-0.12151	0.069003	0.99162
1.224	-96.342	-46928	2692.4	-0.122	0.06871	0.99162
1.226	-96.384	-46929	2696.1	-0.12249	0.068418	0.99162
1.228	-96.428	-46930	2699.8	-0.12298	0.068125	0.99162
1.23	-96.464	-46931	2703.5	-0.12346	0.067832	0.99162
1.232	-96.456	-46931	2707.3	-0.12259	0.068515	0.99259
1.234	-96.423	-46931	2711.1	-0.12171	0.069198	0.99357
1.236	-96.387	-46929	2714.9	-0.12083	0.069882	0.99454
1.238	-96.348	-46926	2718.6	-0.11995	0.070565	0.99552
1.24	-96.349	-46922	2722.3	-0.11907	0.071248	0.9965
1.242	-96.388	-46917	2725.8	-0.11849	0.070174	0.99523
1.244	-96.427	-46912	2729.3	-0.1179	0.069101	0.99396
1.246	-96.464	-46907	2732.7	-0.11732	0.068027	0.99269
1.248	-96.473	-46904	2735.9	-0.11673	0.066954	0.99142
1.25	-96.451	-46902	2739.2	-0.11614	0.06588	0.99015
1.252	-96.417	-46899	2742.1	-0.11624	0.065978	0.99074
1.254	-96.376	-46893	2745	-0.11634	0.066075	0.99132
1.256	-96.367	-46889	2747.6	-0.11644	0.066173	0.99191
1.258	-96.409	-46886	2750.1	-0.11653	0.06627	0.99249
1.26	-96.444	-46881	2752.5	-0.11663	0.066368	0.99308
1.262	-96.472	-46874	2754.5	-0.11683	0.067734	0.99357
1.264	-96.508	-46868	2756.5	-0.11702	0.069101	0.99406
1.266	-96.503	-46861	2758.4	-0.11722	0.070467	0.99454
1.268	-96.458	-46854	2760	-0.11741	0.071834	0.99503
1.27	-96.421	-46848	2761.6	-0.11761	0.0732	0.99552
1.272	-96.404	-46842	2762.7	-0.11771	0.072712	0.99581
1.274	-96.43	-46836	2763.9	-0.1178	0.072224	0.99611
1.276	-96.47	-46829	2764.9	-0.1179	0.071736	0.9964
1.278	-96.492	-46820	2765.8	-0.118	0.071248	0.99669
1.28	-96.537	-46815	2766.6	-0.1181	0.07076	0.99698
1.282	-96.53	-46816	2767.2	-0.11819	0.071736	0.99689
1.284	-96.495	-46812	2767.7	-0.11829	0.072712	0.99679
1.286	-96.46	-46802	2768.2	-0.11839	0.073688	0.99669
1.288	-96.388	-46795	2768.6	-0.11849	0.074664	0.99659
1.29	-96.402	-46791	2769	-0.11858	0.07564	0.9965
1.292	-96.451	-46788	2769.2	-0.11936	0.076226	0.99552
1.294	-96.491	-46786	2769.4	-0.12015	0.076811	0.99454
1.296	-96.547	-46779	2769.6	-0.12093	0.077397	0.99357
1.298	-96.55	-46767	2769.7	-0.12171	0.077982	0.99259
1.3	-96.524	-46758	2769.9	-0.12249	0.078568	0.99162
1.302	-96.481	-46751	2769.9	-0.1221	0.078568	0.9922
1.304	-96.416	-46745	2769.9	-0.12171	0.078568	0.99279
1.306	-96.401	-46740	2770	-0.12132	0.078568	0.99337
1.308	-96.433	-46733	2770	-0.12093	0.078568	0.99396
1.31	-96.466	-46724	2770	-0.12054	0.078568	0.99454
1.312	-96.497	-46716	2769.8	-0.12161	0.077397	0.99474
1.314	-96.517	-46711	2769.7	-0.12268	0.076226	0.99493
1.316	-96.505	-46706	2769.5	-0.12376	0.075054	0.99513
1.318	-96.464	-46703	2769.3	-0.12483	0.073883	0.99532
1.32	-96.42	-46697	2769.2	-0.1259	0.072712	0.99552
1.322	-96.394	-46690	2768.9	-0.12551	0.074664	0.99425
1.324	-96.398	-46682	2768.7	-0.12512	0.076616	0.99298
1.326	-96.421	-46674	2768.4	-0.12473	0.078568	0.99171
1.328	-96.458	-46666	2768.1	-0.12434	0.08052	0.99044
1.33	-96.492	-46659	2767.9	-0.12395	0.082472	0.98918
1.332	-96.474	-46652	2767.6	-0.12327	0.081984	0.99054
1.334	-96.423	-46645	2767.3	-0.12259	0.081496	0.99191
1.336	-96.383	-46640	2767.1	-0.1219	0.081008	0.99328
1.338	-96.345	-46637	2766.8	-0.12122	0.08052	0.99464
1.34	-96.347	-46635	2766.6	-0.12054	0.080032	0.99601
1.342	-96.381	-46633	2766.2	-0.11976	0.077592	0.99503
1.344	-96.418	-46628	2765.9	-0.11897	0.075152	0.99406
1.346	-96.459	-46620	2765.5	-0.11819	0.072712	0.99308
1.348	-96.456	-46612	2765.2	-0.11741	0.070272	0.9921
1.35	-96.41	-46605	2764.9	-0.11663	0.067832	0.99113
1.352	-96.375	-46598	2764.6	-0.11546	0.068418	0.99191
1.354	-96.327	-46590	2764.3	-0.11429	0.069003	0.99269
1.356	-96.299	-46584	2763.9	-0.11312	0.069589	0.99347
1.358	-96.329	-46579	2763.6	-0.11195	0.070174	0.99425
1.36	-96.353	-46577	2763.3	-0.11078	0.07076	0.99503
1.362	-96.389	-46575	2762.9	-0.11097	0.069784	0.99464
1.364	-96.426	-46574	2762.6	-0.11117	0.068808	0.99425
1.366	-96.415	-46573	2762.3	-0.11136	0.067832	0.99386
1.368	-96.376	-46570	2761.8	-0.11156	0.066856	0.99347
1.37	-96.325	-46564	2761.4	-0.11175	0.06588	0.99308
1.372	-96.277	-46559	2761	-0.1137	0.066466	0.99249
1.374	-96.297	-46553	2760.6	-0.11566	0.067051	0.99191
1.376	-96.337	-46547	2760.2	-0.11761	0.067637	0.99132
1.378	-96.373	-46542	2759.7	-0.11956	0.068222	0.99074
1.38	-96.42	-46536	2759.2	-0.12151	0.068808	0.99015
1.382	-96.394	-46530	2758.7	-0.11917	0.067637	0.99103
1.384	-96.358	-46526	2758.2	-0.11683	0.066466	0.99191
1.386	-96.327	-46524	2757.6	-0.11448	0.065294	0.99279
1.388	-96.293	-46522	2757.1	-0.11214	0.064123	0.99367
1.39	-96.304	-46519	2756.5	-0.1098	0.062952	0.99454
1.392	-96.345	-46514	2756	-0.11029	0.062757	0.99396
1.394	-96.377	-46505	2755.4	-0.11078	0.062562	0.99337
1.396	-96.411	-46498	2754.9	-0.11126	0.062366	0.99279
1.398	-96.424	-46493	2754.3	-0.11175	0.062171	0.9922
1.4	-96.414	-46490	2753.7	-0.11224	0.061976	0.99162
1.402	-96.38	-46491	2753.1	-0.11234	0.061293	0.9924
1.404	-96.335	-46493	2752.5	-0.11244	0.06061	0.99318
1.406	-96.32	-46497	2751.9	-0.11253	0.059926	0.99396
1.408	-96.346	-46496	2751.2	-0.11263	0.059243	0.99474
1.41	-96.374	-46490	2750.5	-0.11273	0.05856	0.99552
1.412	-96.409	-46485	2749.7	-0.11312	0.059341	0.99493
1.414	-96.439	-46480	2749	-0.11351	0.060122	0.99435
1.416	-96.417	-46476	2748.2	-0.1139	0.060902	0.99376
1.418	-96.37	-46474	2747.3	-0.11429	0.061683	0.99318
1.42	-96.332	-46472	2746.4	-0.11468	0.062464	0.99259
1.422	-96.314	-46471	2745.4	-0.11507	0.063635	0.99249
1.424	-96.342	-46471	2744.4	-0.11546	0.064806	0.9924
1.426	-96.375	-46471	2743.3	-0.11585	0.065978	0.9923
1.428	-96.41	-46470	2742.2	-0.11624	0.067149	0.9922
1.43	-96.459	-46469	2741.1	-0.11663	0.06832	0.9921
1.432	-96.45	-46466	2739.8	-0.11683	0.068613	0.99298
1.434	-96.408	-46460	2738.5	-0.11702	0.068906	0.99386
1.436	-96.372	-46459	2737.2	-0.11722	0.069198	0.99474
1.438	-96.334	-46464	2736	-0.11741	0.069491	0.99562
1.44	-96.332	-46465	2734.7	-0.11761	0.069784	0.9965
1.442	-96.372	-46462	2733.3	-0.11771	0.07037	0.99659
1.444	-96.402	-46460	2731.9	-0.1178	0.070955	0.99669
1.446	-96.446	-46457	2730.6	-0.1179	0.071541	0.99679
1.448	-96.471	-46456	2729.4	-0.118	0.072126	0.99689
1.45	-96.438	-46457	2728.1	-0.1181	0.072712	0.99698
1.452	-96.407	-46458	2727	-0.11839	0.0732	0.9965
1.454	-96.346	-46461	2725.9	-0.11868	0.073688	0.99601
1.456	-96.312	-46463	2724.8	-0.11897	0.074176	0.99552
1.458	-96.351	-46465	2723.7	-0.11927	0.074664	0.99503
1.46	-96.386	-46464	2722.7	-0.11956	0.075152	0.99454
1.462	-96.429	-46460	2721.9	-0.12044	0.075347	0.99474
1.464	-96.459	-46459	2721	-0.12132	0.075542	0.99493
1.466	-96.447	-46463	2720.2	-0.1222	0.075738	0.99513
1.468	-96.417	-46463	2719.6	-0.12307	0.075933	0.99532
1.47	-96.384	-46460	2718.9	-0.12395	0.076128	0.99552
1.472	-96.356	-46458	2718.4	-0.1222	0.075054	0.99601
1.474	-96.381	-46457	2717.9	-0.12044	0.073981	0.9965
1.476	-96.415	-46458	2717.4	-0.11868	0.072907	0.99698
1.478	-96.433	-46460	2717.1	-0.11692	0.071834	0.99747
1.48	-96.46	-46464	2716.7	-0.11517	0.07076	0.99796
1.482	-96.46	-46467	2716.5	-0.11546	0.071248	0.99776
1.484	-96.426	-46468	2716.4	-0.11575	0.071736	0.99757
1.486	-96.389	-46465	2716.3	-0.11605	0.072224	0.99737
1.488	-96.36	-46466	2716.3	-0.11634	0.072712	0.99718
1.49	-96.37	-46469	2716.2	-0.11663	0.0732	0.99698
1.492	-96.394	-46473	2716.3	-0.11644	0.072322	0.99591
1.494	-96.411	-46478	2716.4	-0.11624	0.071443	0.99484
1.496	-96.452	-46477	2716.5	-0.11605	0.070565	0.99376
1.498	-96.48	-46471	2716.6	-0.11585	0.069686	0.99269
1.5	-96.455	-46470	2716.7	-0.11566	0.068808	0.99162
1.502	-96.412	-46472	2716.7	-0.11546	0.068808	0.99269
1.504	-96.369	-46474	2716.8	-0.11527	0.068808	0.99376
1.506	-96.351	-46474	2716.9	-0.11507	0.068808	0.99484
1.508	-96.393	-46474	2717.1	-0.11488	0.068808	0.99591
1.51	-96.437	-46475	2717.4	-0.11468	0.068808	0.99698
1.512	-96.474	-46476	2717.5	-0.11448	0.068906	0.99679
1.514	-96.493	-46477	2717.7	-0.11429	0.069003	0.99659
1.516	-96.464	-46479	2717.9	-0.11409	0.069101	0.9964
1.518	-96.417	-46481	2718.2	-0.1139	0.069198	0.9962
1.52	-96.368	-46479	2718.4	-0.1137	0.069296	0.99601
1.522	-96.325	-46474	2718.6	-0.11458	0.069686	0.99601
1.524	-96.359	-46474	2718.8	-0.11546	0.070077	0.99601
1.526	-96.404	-46479	2718.9	-0.11634	0.070467	0.99601
1.528	-96.425	-46483	2719.1	-0.11722	0.070858	0.99601
1.53	-96.464	-46484	2719.3	-0.1181	0.071248	0.99601
1.532	-96.465	-46486	2719.3	-0.11839	0.071638	0.99581
1.534	-96.43	-46491	2719.4	-0.11868	0.072029	0.99562
1.536	-96.401	-46495	2719.5	-0.11897	0.072419	0.99542
1.538	-96.35	-46498	2719.6	-0.11927	0.07281	0.99523
1.54	-96.337	-46501	2719.6	-0.11956	0.0732	0.99503
1.542	-96.384	-46502	2719.7	-0.1181	0.072614	0.99542
1.544	-96.408	-46498	2719.7	-0.11663	0.072029	0.99581
1.546	-96.453	-46488	2719.7	-0.11517	0.071443	0.9962
1.548	-96.465	-46485	2719.7	-0.1137	0.070858	0.99659
1.55	-96.437	-46488	2719.7	-0.11224	0.070272	0.99698
1.552	-96.41	-46489	2719.7	-0.11312	0.069491	0.99601
1.554	-96.358	-46488	2719.8	-0.114	0.06871	0.99503
1.556	-96.356	-46491	2719.8	-0.11488	0.06793	0.99406
1.558	-96.385	-46499	2719.7	-0.11575	0.067149	0.99308
1.56	-96.421	-46502	2719.6	-0.11663	0.066368	0.9921
1.562	-96.475	-46498	2719.4	-0.11653	0.067149	0.99298
1.564	-96.489	-46498	2719.2	-0.11644	0.06793	0.99386
1.566	-96.459	-46500	2719	-0.11634	0.06871	0.99474
1.568	-96.428	-46501	2718.8	-0.11624	0.069491	0.99562
1.57	-96.38	-46502	2718.6	-0.11614	0.070272	0.9965
1.572	-96.345	-46500	2718.4	-0.11683	0.07037	0.9964
1.574	-96.373	-46495	2718.1	-0.11751	0.070467	0.9963
1.576	-96.422	-46498	2717.8	-0.11819	0.070565	0.9962
1.578	-96.459	-46507	2717.5	-0.11888	0.070662	0.99611
1.58	-96.48	-46512	2717.2	-0.11956	0.07076	0.99601
1.582	-96.473	-46511	2716.8	-0.12005	0.070955	0.99542
1.584	-96.451	-46512	2716.4	-0.12054	0.07115	0.99484
1.586	-96.414	-46513	2716.1	-0.12102	0.071346	0.99425
1.588	-96.376	-46516	2715.8	-0.12151	0.071541	0.99367
1.59	-96.371	-46519	2715.4	-0.122	0.071736	0.99308
1.592	-96.399	-46522	2715.1	-0.1219	0.07281	0.99328
1.594	-96.451	-46527	2714.8	-0.1218	0.073883	0.99347
1.596	-96.502	-46527	2714.4	-0.12171	0.074957	0.99367
1.598	-96.516	-46521	2714.1	-0.12161	0.07603	0.99386
1.6	-96.481	-46523	2713.7	-0.12151	0.077104	0.99406
1.602	-96.436	-46532	2713.4	-0.12278	0.076323	0.99376
1.604	-96.395	-46539	2713.1	-0.12405	0.075542	0.99347
1.606	-96.382	-46546	2712.7	-0.12532	0.074762	0.99318
1.608	-96.422	-46547	2712.2	-0.12659	0.073981	0.99288
1.61	-96.467	-46544	2711.8	-0.12786	0.0732	0.99259
1.612	-96.513	-46540	2711.3	-0.12581	0.073005	0.99347
1.614	-96.544	-46534	2710.9	-0.12376	0.07281	0.99435
1.616	-96.528	-46534	2710.5	-0.12171	0.072614	0.99523
1.618	-96.547	-46539	2710	-0.11966	0.072419	0.99611
1.62	-96.569	-46541	2709.6	-0.11761	0.072224	0.99698
1.622	-96.59	-46542	2709.1	-0.11839	0.072029	0.99601
1.624	-96.693	-46544	2708.7	-0.11917	0.071834	0.99503
1.626	-96.81	-46549	2708.2	-0.11995	0.071638	0.99406
1.628	-96.935	-46556	2707.8	-0.12073	0.071443	0.99308
1.63	-97.071	-46565	2707.4	-0.12151	0.071248	0.9921
1.632	-97.137	-46567	2707	-0.12063	0.07115	0.99347
1.634	-97.158	-46564	2706.5	-0.11976	0.071053	0.99484
1.636	-97.162	-46564	2706.2	-0.11888	0.070955	0.9962
1.638	-97.115	-46569	2705.8	-0.118	0.070858	0.99757
1.64	-97.129	-46573	2705.4	-0.11712	0.07076	0.99894
1.642	-97.144	-46575	2705.1	-0.11732	0.07076	0.99757
1.644	-97.11	-46576	2704.7	-0.11751	0.07076	0.9962
1.646	-97.048	-46577	2704.3	-0.11771	0.07076	0.99484
1.648	-96.868	-46578	2703.9	-0.1179	0.07076	0.99347
1.65	-96.623	-46578	2703.5	-0.1181	0.07076	0.9921
1.652	-96.397	-46584	2703.2	-0.11771	0.070955	0.99269
1.654	-96.215	-46596	2702.8	-0.11732	0.07115	0.99328
1.656	-96.122	-46598	2702.5	-0.11692	0.071346	0.99386
1.658	-96.089	-46590	2702.1	-0.11653	0.071541	0.99445
1.66	-96.064	-46589	2701.7	-0.11614	0.071736	0.99503
1.662	-96.062	-46595	2701.4	-0.11595	0.071346	0.99474
1.664	-96.066	-46600	2701	-0.11575	0.070955	0.99445
1.666	-96.054	-46605	2700.6	-0.11556	0.070565	0.99415
1.668	-96.032	-46605	2700.3	-0.11536	0.070174	0.99386
1.67	-95.993	-46598	2700	-0.11517	0.069784	0.99357
1.672	-95.967	-46599	2699.6	-0.11468	0.069589	0.99425
1.674	-95.998	-46607	2699.3	-0.11419	0.069394	0.99493
1.676	-96.056	-46613	2698.9	-0.1137	0.069198	0.99562
1.678	-96.121	-46616	2698.6	-0.11322	0.069003	0.9963
1.68	-96.194	-46618	2698.2	-0.11273	0.068808	0.99698
1.682	-96.218	-46619	2697.8	-0.1137	0.069686	0.99659
1.684	-96.201	-46624	2697.5	-0.11468	0.070565	0.9962
1.686	-96.191	-46631	2697.1	-0.11566	0.071443	0.99581
1.688	-96.17	-46635	2696.8	-0.11663	0.072322	0.99542
1.69	-96.178	-46634	2696.4	-0.11761	0.0732	0.99503
1.692	-96.249	-46636	2696.2	-0.11741	0.07281	0.99591
1.694	-96.325	-46639	2696	-0.11722	0.072419	0.99679
1.696	-96.394	-46643	2695.7	-0.11702	0.072029	0.99767
1.698	-96.425	-46648	2695.5	-0.11683	0.071638	0.99855
1.7	-96.394	-46649	2695.2	-0.11663	0.071248	0.99942
1.702	-96.37	-46648	2694.9	-0.11673	0.070955	0.99884
1.704	-96.337	-46650	2694.7	-0.11683	0.070662	0.99825
1.706	-96.317	-46656	2694.4	-0.11692	0.07037	0.99767
1.708	-96.356	-46657	2694	-0.11702	0.070077	0.99708
1.71	-96.396	-46654	2693.7	-0.11712	0.069784	0.9965
1.712	-96.449	-46655	2693.4	-0.11722	0.069491	0.99552
1.714	-96.48	-46661	2693.1	-0.11732	0.069198	0.99454
1.716	-96.448	-46666	2692.9	-0.11741	0.068906	0.99357
1.718	-96.408	-46670	2692.7	-0.11751	0.068613	0.99259
1.72	-96.376	-46676	2692.4	-0.11761	0.06832	0.99162
1.722	-96.342	-46684	2692.2	-0.11741	0.068613	0.99191
1.724	-96.374	-46687	2692	-0.11722	0.068906	0.9922
1.726	-96.417	-46685	2691.8	-0.11702	0.069198	0.99249
1.728	-96.452	-46687	2691.6	-0.11683	0.069491	0.99279
1.73	-96.492	-46692	2691.4	-0.11663	0.069784	0.99308
1.732	-96.486	-46698	2691.2	-0.11692	0.070662	0.99367
1.734	-96.454	-46705	2691	-0.11722	0.071541	0.99425
1.736	-96.427	-46708	2690.8	-0.11751	0.072419	0.99484
1.738	-96.391	-46707	2690.6	-0.1178	0.073298	0.99542
1.74	-96.393	-46707	2690.5	-0.1181	0.074176	0.99601
1.742	-96.42	-46708	2690.3	-0.11868	0.074469	0.99601
1.744	-96.451	-46710	2690.2	-0.11927	0.074762	0.99601
1.746	-96.497	-46713	2690	-0.11985	0.075054	0.99601
1.748	-96.525	-46716	2689.9	-0.12044	0.075347	0.99601
1.75	-96.506	-46719	2689.7	-0.12102	0.07564	0.99601
1.752	-96.466	-46726	2689.6	-0.12073	0.074859	0.9965
1.754	-96.427	-46736	2689.5	-0.12044	0.074078	0.99698
1.756	-96.416	-46741	2689.4	-0.12015	0.073298	0.99747
1.758	-96.444	-46741	2689.3	-0.11985	0.072517	0.99796
1.76	-96.486	-46742	2689.2	-0.11956	0.071736	0.99845
1.762	-96.534	-46743	2689.3	-0.11917	0.071736	0.99835
1.764	-96.553	-46744	2689.3	-0.11878	0.071736	0.99825
1.766	-96.527	-46745	2689.4	-0.11839	0.071736	0.99816
1.768	-96.499	-46748	2689.4	-0.118	0.071736	0.99806
1.77	-96.463	-46753	2689.5	-0.11761	0.071736	0.99796
1.772	-96.419	-46757	2689.7	-0.11897	0.072322	0.99689
1.774	-96.429	-46760	2689.9	-0.12034	0.072907	0.99581
1.776	-96.479	-46763	2690.2	-0.12171	0.073493	0.99474
1.778	-96.526	-46766	2690.5	-0.12307	0.074078	0.99367
1.78	-96.563	-46769	2690.8	-0.12444	0.074664	0.99259
1.782	-96.551	-46771	2691.4	-0.12337	0.073981	0.99328
1.784	-96.512	-46773	2692	-0.12229	0.073298	0.99396
1.786	-96.481	-46775	2692.8	-0.12122	0.072614	0.99464
1.788	-96.443	-46778	2693.7	-0.12015	0.071931	0.99532
1.79	-96.441	-46782	2694.7	-0.11907	0.071248	0.99601
1.792	-96.474	-46784	2696	-0.11888	0.071931	0.9965
1.794	-96.504	-46786	2697.3	-0.11868	0.072614	0.99698
1.796	-96.571	-46788	2698.9	-0.11849	0.073298	0.99747
1.798	-96.594	-46791	2700.6	-0.11829	0.073981	0.99796
1.8	-96.551	-46794	2702.4	-0.1181	0.074664	0.99845
1.802	-96.504	-46797	2704.5	-0.118	0.074469	0.99864
1.804	-96.456	-46800	2706.6	-0.1179	0.074274	0.99884
1.806	-96.44	-46804	2708.9	-0.1178	0.074078	0.99903
1.808	-96.475	-46808	2711.3	-0.11771	0.073883	0.99923
1.81	-96.518	-46813	2713.8	-0.11761	0.073688	0.99942
1.812	-96.567	-46816	2716.4	-0.11644	0.072029	0.99825
1.814	-96.587	-46817	2719.1	-0.11527	0.07037	0.99708
1.816	-96.551	-46819	2721.8	-0.11409	0.06871	0.99591
1.818	-96.515	-46822	2724.6	-0.11292	0.067051	0.99474
1.82	-96.48	-46823	2727.5	-0.11175	0.065392	0.99357
1.822	-96.463	-46824	2730.3	-0.11273	0.065685	0.99298
1.824	-96.5	-46823	2733.2	-0.1137	0.065978	0.9924
1.826	-96.529	-46822	2736	-0.11468	0.06627	0.99181
1.828	-96.552	-46825	2738.8	-0.11566	0.066563	0.99123
1.83	-96.582	-46830	2741.6	-0.11663	0.066856	0.99064
1.832	-96.585	-46833	2744.3	-0.11683	0.067051	0.99123
1.834	-96.571	-46835	2747	-0.11702	0.067246	0.99181
1.836	-96.538	-46833	2749.6	-0.11722	0.067442	0.9924
1.838	-96.488	-46827	2752.1	-0.11741	0.067637	0.99298
1.84	-96.482	-46823	2754.5	-0.11761	0.067832	0.99357
1.842	-96.523	-46822	2756.8	-0.11741	0.068515	0.99367
1.844	-96.561	-46823	2759	-0.11722	0.069198	0.99376
1.846	-96.599	-46825	2761.1	-0.11702	0.069882	0.99386
1.848	-96.615	-46825	2763.1	-0.11683	0.070565	0.99396
1.85	-96.584	-46825	2765.1	-0.11663	0.071248	0.99406
1.852	-96.541	-46825	2766.7	-0.11595	0.070858	0.99435
1.854	-96.492	-46827	2768.3	-0.11527	0.070467	0.99464
1.856	-96.467	-46828	2769.7	-0.11458	0.070077	0.99493
1.858	-96.497	-46829	2770.9	-0.1139	0.069686	0.99523
1.86	-96.552	-46826	2772.2	-0.11322	0.069296	0.99552
1.862	-96.592	-46819	2773.1	-0.1137	0.069101	0.99493
1.864	-96.601	-46815	2774.1	-0.11419	0.068906	0.99435
1.866	-96.565	-46813	2774.9	-0.11468	0.06871	0.99376
1.868	-96.538	-46811	2775.5	-0.11517	0.068515	0.99318
1.87	-96.498	-46810	2776.1	-0.11566	0.06832	0.99259
1.872	-96.458	-46809	2776.5	-0.11575	0.06832	0.99318
1.874	-96.487	-46810	2776.9	-0.11585	0.06832	0.99376
1.876	-96.529	-46808	2777.2	-0.11595	0.06832	0.99435
1.878	-96.559	-46803	2777.4	-0.11605	0.06832	0.99493
1.88	-96.615	-46797	2777.6	-0.11614	0.06832	0.99552
1.882	-96.604	-46790	2777.5	-0.11722	0.070565	0.99503
1.884	-96.556	-46784	2777.5	-0.11829	0.07281	0.99454
1.886	-96.525	-46780	2777.4	-0.11936	0.075054	0.99406
1.888	-96.479	-46779	2777.3	-0.12044	0.077299	0.99357
1.89	-96.489	-46782	2777.1	-0.12151	0.079544	0.99308
1.892	-96.528	-46784	2776.8	-0.12259	0.07847	0.99269
1.894	-96.55	-46786	2776.5	-0.12366	0.077397	0.9923
1.896	-96.587	-46786	2776.2	-0.12473	0.076323	0.99191
1.898	-96.593	-46784	2775.8	-0.12581	0.07525	0.99152
1.9	-96.567	-46782	2775.5	-0.12688	0.074176	0.99113
1.902	-96.526	-46780	2775.1	-0.12776	0.074176	0.99152
1.904	-96.475	-46777	2774.6	-0.12864	0.074176	0.99191
1.906	-96.47	-46772	2774.1	-0.12952	0.074176	0.9923
1.908	-96.498	-46768	2773.6	-0.13039	0.074176	0.99269
1.91	-96.532	-46765	2773.1	-0.13127	0.074176	0.99308
1.912	-96.58	-46763	2772.5	-0.12873	0.074176	0.99318
1.914	-96.598	-46762	2772	-0.1262	0.074176	0.99328
1.916	-96.557	-46758	2771.5	-0.12366	0.074176	0.99337
1.918	-96.506	-46752	2770.9	-0.12112	0.074176	0.99347
1.92	-96.486	-46745	2770.4	-0.11858	0.074176	0.99357
1.922	-96.479	-46736	2769.8	-0.11839	0.074078	0.99415
1.924	-96.497	-46730	2769.3	-0.11819	0.073981	0.99474
1.926	-96.531	-46727	2768.8	-0.118	0.073883	0.99532
1.928	-96.556	-46724	2768.2	-0.1178	0.073786	0.99591
1.93	-96.579	-46720	2767.6	-0.11761	0.073688	0.9965
1.932	-96.574	-46719	2767.1	-0.11732	0.0732	0.9963
1.934	-96.539	-46720	2766.6	-0.11702	0.072712	0.99611
1.936	-96.502	-46719	2766.1	-0.11673	0.072224	0.99591
1.938	-96.464	-46716	2765.6	-0.11644	0.071736	0.99572
1.94	-96.463	-46710	2765.1	-0.11614	0.071248	0.99552
1.942	-96.506	-46701	2764.6	-0.11702	0.071541	0.99493
1.944	-96.534	-46695	2764.1	-0.1179	0.071834	0.99435
1.946	-96.574	-46690	2763.6	-0.11878	0.072126	0.99376
1.948	-96.602	-46687	2763.1	-0.11966	0.072419	0.99318
1.95	-96.575	-46686	2762.6	-0.12054	0.072712	0.99259
1.952	-96.518	-46684	2762.1	-0.11917	0.071248	0.9923
1.954	-96.436	-46681	2761.6	-0.1178	0.069784	0.99201
1.956	-96.408	-46682	2761.2	-0.11644	0.06832	0.99171
1.958	-96.457	-46687	2760.7	-0.11507	0.066856	0.99142
1.96	-96.48	-46690	2760.2	-0.1137	0.065392	0.99113
1.962	-96.534	-46691	2759.7	-0.11322	0.06549	0.99162
1.964	-96.593	-46687	2759.2	-0.11273	0.065587	0.9921
1.966	-96.563	-46676	2758.7	-0.11224	0.065685	0.99259
1.968	-96.51	-46671	2758.2	-0.11175	0.065782	0.99308
1.97	-96.462	-46673	2757.7	-0.11126	0.06588	0.99357
1.972	-96.43	-46674	2757.2	-0.11136	0.065978	0.99318
1.974	-96.459	-46675	2756.6	-0.11146	0.066075	0.99279
1.976	-96.492	-46672	2756.1	-0.11156	0.066173	0.9924
1.978	-96.534	-46666	2755.5	-0.11165	0.06627	0.99201
1.98	-96.579	-46662	2754.9	-0.11175	0.066368	0.99162
1.982	-96.56	-46661	2754.2	-0.11312	0.066563	0.99171
1.984	-96.517	-46662	2753.6	-0.11448	0.066758	0.99181
1.986	-96.474	-46665	2752.9	-0.11585	0.066954	0.99191
1.988	-96.426	-46665	2752.1	-0.11722	0.067149	0.99201
1.99	-96.438	-46660	2751.3	-0.11858	0.067344	0.9921
1.992	-96.472	-46658	2750.4	-0.11849	0.067832	0.99259
1.994	-96.508	-46659	2749.6	-0.11839	0.06832	0.99308
1.996	-96.56	-46659	2748.6	-0.11829	0.068808	0.99357
1.998	-96.567	-46658	2747.6	-0.11819	0.069296	0.99406
2	-96.533	-46656	2746.6	-0.1181	0.069784	0.99454
2.002	-96.499	-46651	2745.5	-0.11751	0.069101	0.99425
2.004	-96.457	-46648	2744.4	-0.11692	0.068418	0.99396
2.006	-96.436	-46645	2743.3	-0.11634	0.067734	0.99367
2.008	-96.459	-46644	2742.1	-0.11575	0.067051	0.99337
2.01	-96.49	-46645	2740.9	-0.11517	0.066368	0.99308
2.012	-96.517	-46645	2739.6	-0.11546	0.067442	0.99454
2.014	-96.537	-46644	2738.3	-0.11575	0.068515	0.99601
2.016	-96.525	-46644	2737	-0.11605	0.069589	0.99747
2.018	-96.49	-46646	2735.7	-0.11634	0.070662	0.99894
2.02	-96.454	-46650	2734.4	-0.11663	0.071736	1.0004
2.022	-96.423	-46655	2733	-0.11702	0.071736	0.99894
2.024	-96.431	-46658	2731.7	-0.11741	0.071736	0.99747
2.026	-96.457	-46661	2730.4	-0.1178	0.071736	0.99601
2.028	-96.489	-46661	2729.2	-0.11819	0.071736	0.99454
2.03	-96.526	-46660	2728.1	-0.11858	0.071736	0.99308
2.032	-96.519	-46658	2726.9	-0.11868	0.071248	0.99308
2.034	-96.479	-46655	2725.7	-0.11878	0.07076	0.99308
2.036	-96.441	-46652	2724.6	-0.11888	0.070272	0.99308
2.038	-96.4	-46651	2723.5	-0.11897	0.069784	0.99308
2.04	-96.395	-46654	2722.4	-0.11907	0.069296	0.99308
2.042	-96.424	-46661	2721.5	-0.11985	0.069589	0.99318
2.044	-96.455	-46664	2720.5	-0.12063	0.069882	0.99328
2.046	-96.503	-46661	2719.6	-0.12141	0.070174	0.99337
2.048	-96.518	-46661	2718.7	-0.1222	0.070467	0.99347
2.05	-96.49	-46663	2717.9	-0.12298	0.07076	0.99357
2.052	-96.478	-46665	2717.2	-0.12249	0.071443	0.99328
2.054	-96.443	-46666	2716.5	-0.122	0.072126	0.99298
2.056	-96.419	-46666	2715.9	-0.12151	0.07281	0.99269
2.058	-96.448	-46662	2715.5	-0.12102	0.073493	0.9924
2.06	-96.463	-46662	2715.1	-0.12054	0.074176	0.9921
2.062	-96.512	-46666	2714.7	-0.12054	0.07359	0.9921
2.064	-96.552	-46672	2714.4	-0.12054	0.073005	0.9921
2.066	-96.519	-46677	2714.1	-0.12054	0.072419	0.9921
2.068	-96.48	-46680	2714	-0.12054	0.071834	0.9921
2.07	-96.45	-46681	2713.8	-0.12054	0.071248	0.9921
2.072	-96.421	-46683	2713.7	-0.12005	0.070858	0.99259
2.074	-96.443	-46687	2713.5	-0.11956	0.070467	0.99308
2.076	-96.478	-46688	2713.4	-0.11907	0.070077	0.99357
2.078	-96.509	-46686	2713.4	-0.11858	0.069686	0.99406
2.08	-96.54	-46687	2713.3	-0.1181	0.069296	0.99454
2.082	-96.549	-46692	2713.3	-0.11829	0.069198	0.99376
2.084	-96.529	-46693	2713.4	-0.11849	0.069101	0.99298
2.086	-96.487	-46689	2713.3	-0.11868	0.069003	0.9922
2.088	-96.449	-46691	2713.2	-0.11888	0.068906	0.99142
2.09	-96.451	-46700	2713.1	-0.11907	0.068808	0.99064
2.092	-96.476	-46700	2713	-0.11888	0.068222	0.99064
2.094	-96.518	-46693	2712.9	-0.11868	0.067637	0.99064
2.096	-96.571	-46698	2712.8	-0.11849	0.067051	0.99064
2.098	-96.581	-46713	2712.7	-0.11829	0.066466	0.99064
2.1	-96.538	-46721	2712.6	-0.1181	0.06588	0.99064
2.102	-96.5	-46720	2712.5	-0.11702	0.066075	0.99113
2.104	-96.481	-46719	2712.5	-0.11595	0.06627	0.99162
2.106	-96.461	-46718	2712.3	-0.11488	0.066466	0.9921
2.108	-96.489	-46721	2712.1	-0.1138	0.066661	0.99259
2.11	-96.535	-46727	2711.8	-0.11273	0.066856	0.99308
2.112	-96.587	-46729	2711.7	-0.11214	0.068125	0.99357
2.114	-96.614	-46728	2711.6	-0.11156	0.069394	0.99406
2.116	-96.583	-46728	2711.5	-0.11097	0.070662	0.99454
2.118	-96.53	-46731	2711.3	-0.11039	0.071931	0.99503
2.12	-96.483	-46735	2711.1	-0.1098	0.0732	0.99552
2.122	-96.445	-46741	2710.8	-0.11058	0.073102	0.99591
2.124	-96.467	-46745	2710.5	-0.11136	0.073005	0.9963
2.126	-96.519	-46746	2710.3	-0.11214	0.072907	0.99669
2.128	-96.568	-46745	2710.1	-0.11292	0.07281	0.99708
2.13	-96.593	-46744	2709.9	-0.1137	0.072712	0.99747
2.132	-96.573	-46746	2709.7	-0.11341	0.072126	0.99698
2.134	-96.541	-46750	2709.5	-0.11312	0.071541	0.9965
2.136	-96.511	-46752	2709.3	-0.11283	0.070955	0.99601
2.138	-96.464	-46752	2709.1	-0.11253	0.07037	0.99552
2.14	-96.488	-46755	2708.9	-0.11224	0.069784	0.99503
2.142	-96.529	-46762	2708.7	-0.114	0.071638	0.99435
2.144	-96.539	-46764	2708.5	-0.11575	0.073493	0.99367
2.146	-96.576	-46762	2708.3	-0.11751	0.075347	0.99298
2.148	-96.577	-46765	2708.1	-0.11927	0.077202	0.9923
2.15	-96.54	-46774	2708	-0.12102	0.079056	0.99162
2.152	-96.51	-46775	2707.7	-0.12122	0.079837	0.99162
2.154	-96.477	-46771	2707.5	-0.12141	0.080618	0.99162
2.156	-96.48	-46770	2707.3	-0.12161	0.081398	0.99162
2.158	-96.502	-46772	2707	-0.1218	0.082179	0.99162
2.16	-96.533	-46778	2706.7	-0.122	0.08296	0.99162
2.162	-96.58	-46788	2706.5	-0.1219	0.081789	0.99171
2.164	-96.592	-46791	2706.2	-0.1218	0.080618	0.99181
2.166	-96.564	-46789	2706	-0.12171	0.079446	0.99191
2.168	-96.532	-46791	2705.7	-0.12161	0.078275	0.99201
2.17	-96.485	-46796	2705.5	-0.12151	0.077104	0.9921
2.172	-96.452	-46799	2705.2	-0.12161	0.077104	0.99249
2.174	-96.468	-46799	2704.9	-0.12171	0.077104	0.99288
2.176	-96.513	-46800	2704.6	-0.1218	0.077104	0.99328
2.178	-96.561	-46803	2704.2	-0.1219	0.077104	0.99367
2.18	-96.603	-46809	2703.9	-0.122	0.077104	0.99406
2.182	-96.603	-46819	2703.6	-0.12171	0.077104	0.99425
2.184	-96.563	-46824	2703.3	-0.12141	0.077104	0.99445
2.186	-96.512	-46824	2703	-0.12112	0.077104	0.99464
2.188	-96.455	-46825	2702.6	-0.12083	0.077104	0.99484
2.19	-96.444	-46826	2702.3	-0.12054	0.077104	0.99503
2.192	-96.498	-46828	2702	-0.11946	0.07525	0.99513
2.194	-96.562	-46830	2701.6	-0.11839	0.073395	0.99523
2.196	-96.601	-46833	2701.3	-0.11732	0.071541	0.99532
2.198	-96.61	-46835	2701	-0.11624	0.069686	0.99542
2.2	-96.584	-46840	2700.6	-0.11517	0.067832	0.99552
2.202	-96.562	-46847	2700.3	-0.11536	0.067832	0.99523
2.204	-96.542	-46848	2700	-0.11556	0.067832	0.99493
2.206	-96.566	-46843	2699.7	-0.11575	0.067832	0.99464
2.208	-96.67	-46846	2699.4	-0.11595	0.067832	0.99435
2.21	-96.789	-46855	2699	-0.11614	0.067832	0.99406
2.212	-96.93	-46859	2698.7	-0.11566	0.068027	0.99415
2.214	-97.056	-46859	2698.4	-0.11517	0.068222	0.99425
2.216	-97.118	-46859	2698	-0.11468	0.068418	0.99435
2.218	-97.165	-46860	2697.6	-0.11419	0.068613	0.99445
2.22	-97.196	-46863	2697.3	-0.1137	0.068808	0.99454
2.222	-97.21	-46867	2696.9	-0.11497	0.069394	0.99454
2.224	-97.268	-46869	2696.6	-0.11624	0.069979	0.99454
2.226	-97.298	-46869	2696.2	-0.11751	0.070565	0.99454
2.228	-97.319	-46874	2695.8	-0.11878	0.07115	0.99454
2.23	-97.323	-46885	2695.5	-0.12005	0.071736	0.99454
2.232	-97.242	-46887	2695.1	-0.11907	0.071443	0.99425
2.234	-97.068	-46881	2694.7	-0.1181	0.07115	0.99396
2.236	-96.786	-46882	2694.3	-0.11712	0.070858	0.99367
2.238	-96.489	-46889	2694	-0.11614	0.070565	0.99337
2.24	-96.315	-46893	2693.6	-0.11517	0.070272	0.99308
2.242	-96.245	-46896	2693.3	-0.11478	0.069882	0.99337
2.244	-96.214	-46899	2692.9	-0.11439	0.069491	0.99367
2.246	-96.212	-46903	2692.6	-0.114	0.069101	0.99396
2.248	-96.171	-46904	2692.3	-0.11361	0.06871	0.99425
2.25	-96.115	-46903	2691.9	-0.11322	0.06832	0.99454
2.252	-96.077	-46903	2691.6	-0.11361	0.069101	0.99474
2.254	-96.041	-46906	2691.3	-0.114	0.069882	0.99493
2.256	-96.026	-46910	2690.9	-0.11439	0.070662	0.99513
2.258	-96.05	-46913	2690.6	-0.11478	0.071443	0.99532
2.26	-96.085	-46923	2690.3	-0.11517	0.072224	0.99552
2.262	-96.134	-46938	2689.9	-0.11585	0.072224	0.99503
2.264	-96.19	-46943	2689.6	-0.11653	0.072224	0.99454
2.266	-96.223	-46936	2689.2	-0.11722	0.072224	0.99406
2.268	-96.234	-46934	2688.9	-0.1179	0.072224	0.99357
2.27	-96.225	-46936	2688.6	-0.11858	0.072224	0.99308
2.272	-96.22	-46940	2688.3	-0.118	0.07115	0.99337
2.274	-96.266	-46945	2687.9	-0.11741	0.070077	0.99367
2.276	-96.332	-46946	2687.6	-0.11683	0.069003	0.99396
2.278	-96.395	-46944	2687.2	-0.11624	0.06793	0.99425
2.28	-96.457	-46945	2686.8	-0.11566	0.066856	0.99454
2.282	-96.483	-46949	2686.5	-0.11527	0.068027	0.99513
2.284	-96.477	-46950	2686.1	-0.11488	0.069198	0.99572
2.286	-96.457	-46950	2685.7	-0.11448	0.07037	0.9963
2.288	-96.423	-46951	2685.4	-0.11409	0.071541	0.99689
2.29	-96.442	-46952	2685	-0.1137	0.072712	0.99747
2.292	-96.495	-46958	2684.7	-0.114	0.072224	0.99698
2.294	-96.532	-46969	2684.3	-0.11429	0.071736	0.9965
2.296	-96.581	-46979	2683.9	-0.11458	0.071248	0.99601
2.298	-96.605	-46986	2683.4	-0.11488	0.07076	0.99552
2.3	-96.555	-46989	2683	-0.11517	0.070272	0.99503
2.302	-96.523	-46986	2682.6	-0.11634	0.071638	0.99552
2.304	-96.473	-46987	2682.2	-0.11751	0.073005	0.99601
2.306	-96.46	-46992	2681.7	-0.11868	0.074371	0.9965
2.308	-96.51	-46998	2681.3	-0.11985	0.075738	0.99698
2.31	-96.552	-47004	2680.8	-0.12102	0.077104	0.99747
2.312	-96.606	-47005	2680.3	-0.12151	0.076616	0.99728
2.314	-96.638	-47001	2679.7	-0.122	0.076128	0.99708
2.316	-96.602	-47002	2679.2	-0.12249	0.07564	0.99689
2.318	-96.568	-47007	2678.7	-0.12298	0.075152	0.99669
2.32	-96.523	-47015	2678.2	-0.12346	0.074664	0.9965
2.322	-96.501	-47024	2677.7	-0.12483	0.074762	0.99572
2.324	-96.532	-47030	2677.1	-0.1262	0.074859	0.99493
2.326	-96.561	-47033	2676.6	-0.12756	0.074957	0.99415
2.328	-96.598	-47033	2676.1	-0.12893	0.075054	0.99337
2.33	-96.622	-47031	2675.6	-0.1303	0.075152	0.99259
2.332	-96.593	-47031	2675.2	-0.12952	0.075542	0.99201
2.334	-96.559	-47033	2674.9	-0.12873	0.075933	0.99142
2.336	-96.543	-47036	2674.5	-0.12795	0.076323	0.99084
2.338	-96.516	-47042	2674.2	-0.12717	0.076714	0.99025
2.34	-96.519	-47047	2673.9	-0.12639	0.077104	0.98966
2.342	-96.568	-47051	2673.8	-0.12434	0.075347	0.99113
2.344	-96.623	-47055	2673.6	-0.12229	0.07359	0.99259
2.346	-96.655	-47057	2673.5	-0.12024	0.071834	0.99406
2.348	-96.639	-47061	2673.4	-0.11819	0.070077	0.99552
2.35	-96.596	-47065	2673.3	-0.11614	0.06832	0.99698
2.352	-96.553	-47067	2673.3	-0.11673	0.068808	0.99611
2.354	-96.507	-47067	2673.4	-0.11732	0.069296	0.99523
2.356	-96.49	-47070	2673.5	-0.1179	0.069784	0.99435
2.358	-96.531	-47076	2673.7	-0.11849	0.070272	0.99347
2.36	-96.593	-47081	2673.9	-0.11907	0.07076	0.99259
2.362	-96.642	-47086	2674.4	-0.11849	0.070662	0.99328
2.364	-96.663	-47087	2674.8	-0.1179	0.070565	0.99396
2.366	-96.622	-47085	2675.5	-0.11732	0.070467	0.99464
2.368	-96.564	-47087	2676.3	-0.11673	0.07037	0.99532
2.37	-96.52	-47093	2677.1	-0.11614	0.070272	0.99601
2.372	-96.513	-47098	2678.5	-0.11683	0.070174	0.99523
2.374	-96.555	-47103	2679.9	-0.11751	0.070077	0.99445
2.376	-96.584	-47107	2681.5	-0.11819	0.069979	0.99367
2.378	-96.613	-47110	2683.4	-0.11888	0.069882	0.99288
2.38	-96.658	-47113	2685.3	-0.11956	0.069784	0.9921
2.382	-96.638	-47116	2687.8	-0.11976	0.069784	0.99191
2.384	-96.597	-47119	2690.2	-0.11995	0.069784	0.99171
2.386	-96.568	-47123	2692.8	-0.12015	0.069784	0.99152
2.388	-96.529	-47126	2695.7	-0.12034	0.069784	0.99132
2.39	-96.534	-47129	2698.6	-0.12054	0.069784	0.99113
2.392	-96.585	-47130	2701.7	-0.12015	0.068418	0.99093
2.394	-96.616	-47129	2704.9	-0.11976	0.067051	0.99074
2.396	-96.654	-47131	2708.1	-0.11936	0.065685	0.99054
2.398	-96.661	-47135	2711.4	-0.11897	0.064318	0.99035
2.4	-96.633	-47138	2714.7	-0.11858	0.062952	0.99015
2.402	-96.603	-47139	2718	-0.11956	0.063245	0.99005
2.404	-96.554	-47140	2721.3	-0.12054	0.063538	0.98996
2.406	-96.544	-47142	2724.5	-0.12151	0.06383	0.98986
2.408	-96.576	-47145	2727.7	-0.12249	0.064123	0.98976
2.41	-96.607	-47150	2730.9	-0.12346	0.064416	0.98966
2.412	-96.654	-47152	2733.8	-0.12327	0.065392	0.98986
2.414	-96.659	-47151	2736.7	-0.12307	0.066368	0.99005
2.416	-96.635	-47150	2739.5	-0.12288	0.067344	0.99025
2.418	-96.623	-47150	2742.2	-0.12268	0.06832	0.99044
2.42	-96.589	-47150	2744.9	-0.12249	0.069296	0.99064
2.422	-96.555	-47151	2747.1	-0.1218	0.069101	0.99015
2.424	-96.569	-47151	2749.4	-0.12112	0.068906	0.98966
2.426	-96.607	-47152	2751.4	-0.12044	0.06871	0.98918
2.428	-96.648	-47152	2753.3	-0.11976	0.068515	0.98869
2.43	-96.682	-47151	2755.1	-0.11907	0.06832	0.9882
2.432	-96.681	-47149	2756.6	-0.1178	0.068613	0.98986
2.434	-96.652	-47145	2758	-0.11653	0.068906	0.99152
2.436	-96.625	-47143	2759.3	-0.11527	0.069198	0.99318
2.438	-96.605	-47141	2760.4	-0.114	0.069491	0.99484
2.44	-96.609	-47137	2761.6	-0.11273	0.069784	0.9965
2.442	-96.642	-47132	2762.4	-0.11361	0.070955	0.99679
2.444	-96.687	-47127	2763.3	-0.11448	0.072126	0.99708
2.446	-96.738	-47123	2763.9	-0.11536	0.073298	0.99737
2.448	-96.746	-47121	2764.3	-0.11624	0.074469	0.99767
2.45	-96.7	-47121	2764.7	-0.11712	0.07564	0.99796
2.452	-96.655	-47117	2765	-0.1181	0.076616	0.99786
2.454	-96.625	-47108	2765.2	-0.11907	0.077592	0.99776
2.456	-96.622	-47102	2765.4	-0.12005	0.078568	0.99767
2.458	-96.667	-47098	2765.4	-0.12102	0.079544	0.99757
2.46	-96.701	-47094	2765.4	-0.122	0.08052	0.99747
2.462	-96.728	-47089	2765.2	-0.12532	0.080618	0.99542
2.464	-96.764	-47086	2765.1	-0.12864	0.080715	0.99337
2.466	-96.749	-47083	2764.9	-0.13196	0.080813	0.99132
2.468	-96.701	-47079	2764.6	-0.13527	0.08091	0.98927
2.47	-96.659	-47074	2764.4	-0.13859	0.081008	0.98722
2.472	-96.612	-47069	2764	-0.13762	0.081008	0.98791
2.474	-96.647	-47063	2763.6	-0.13664	0.081008	0.98859
2.476	-96.678	-47061	2763.2	-0.13566	0.081008	0.98927
2.478	-96.716	-47062	2762.8	-0.13469	0.081008	0.98996
2.48	-96.766	-47059	2762.3	-0.13371	0.081008	0.99064
2.482	-96.733	-47051	2761.8	-0.1341	0.081301	0.99015
2.484	-96.684	-47044	2761.3	-0.13449	0.081594	0.98966
2.486	-96.637	-47038	2760.8	-0.13488	0.081886	0.98918
2.488	-96.585	-47036	2760.3	-0.13527	0.082179	0.98869
2.49	-96.599	-47037	2759.8	-0.13566	0.082472	0.9882
2.492	-96.633	-47033	2759.3	-0.13479	0.081398	0.98859
2.494	-96.672	-47026	2758.7	-0.13391	0.080325	0.98898
2.496	-96.718	-47019	2758.2	-0.13303	0.079251	0.98937
2.498	-96.717	-47013	2757.7	-0.13215	0.078178	0.98976
2.5	-96.674	-47011	2757.2	-0.13127	0.077104	0.99015
2.502	-96.616	-47012	2756.7	-0.13	0.078178	0.99054
2.504	-96.558	-47006	2756.2	-0.12873	0.079251	0.99093
2.506	-96.574	-46995	2755.7	-0.12747	0.080325	0.99132
2.508	-96.617	-46988	2755.2	-0.1262	0.081398	0.99171
2.51	-96.634	-46985	2754.7	-0.12493	0.082472	0.9921
2.512	-96.667	-46981	2754.2	-0.12366	0.081398	0.99249
2.514	-96.695	-46978	2753.7	-0.12239	0.080325	0.99288
2.516	-96.668	-46973	2753.2	-0.12112	0.079251	0.99328
2.518	-96.614	-46966	2752.7	-0.11985	0.078178	0.99367
2.52	-96.566	-46959	2752.1	-0.11858	0.077104	0.99406
2.522	-96.539	-46952	2751.6	-0.11653	0.076226	0.99493
2.524	-96.546	-46949	2751	-0.11448	0.075347	0.99581
2.526	-96.568	-46950	2750.4	-0.11244	0.074469	0.99669
2.528	-96.595	-46947	2749.8	-0.11039	0.07359	0.99757
2.53	-96.629	-46938	2749.2	-0.10834	0.072712	0.99845
2.532	-96.621	-46932	2748.7	-0.10756	0.072419	0.99884
2.534	-96.575	-46928	2748.2	-0.10677	0.072126	0.99923
2.536	-96.537	-46925	2747.6	-0.10599	0.071834	0.99962
2.538	-96.514	-46923	2747.1	-0.10521	0.071541	1
2.54	-96.519	-46923	2746.5	-0.10443	0.071248	1.0004
2.542	-96.548	-46924	2746	-0.10385	0.069686	0.99874
2.544	-96.566	-46924	2745.4	-0.10326	0.068125	0.99708
2.546	-96.597	-46921	2744.8	-0.10268	0.066563	0.99542
2.548	-96.6	-46919	2744.1	-0.10209	0.065002	0.99376
2.55	-96.571	-46918	2743.5	-0.1015	0.06344	0.9921
2.552	-96.541	-46916	2742.8	-0.10453	0.063635	0.99171
2.554	-96.499	-46915	2742.2	-0.10756	0.06383	0.99132
2.556	-96.48	-46909	2741.5	-0.11058	0.064026	0.99093
2.558	-96.506	-46898	2740.7	-0.11361	0.064221	0.99054
2.56	-96.527	-46889	2740	-0.11663	0.064416	0.99015
2.562	-96.576	-46883	2739.2	-0.11741	0.065002	0.98957
2.564	-96.621	-46882	2738.5	-0.11819	0.065587	0.98898
2.566	-96.584	-46885	2737.7	-0.11897	0.066173	0.9884
2.568	-96.567	-46888	2737	-0.11976	0.066758	0.98781
2.57	-96.531	-46892	2736.2	-0.12054	0.067344	0.98722
2.572	-96.49	-46892	2735.3	-0.12112	0.067344	0.98732
2.574	-96.508	-46887	2734.5	-0.12171	0.067344	0.98742
2.576	-96.541	-46881	2733.6	-0.12229	0.067344	0.98752
2.578	-96.583	-46874	2732.8	-0.12288	0.067344	0.98761
2.58	-96.616	-46869	2731.9	-0.12346	0.067344	0.98771
2.582	-96.595	-46867	2730.9	-0.12385	0.066758	0.98713
2.584	-96.556	-46861	2729.9	-0.12424	0.066173	0.98654
2.586	-96.509	-46852	2728.9	-0.12464	0.065587	0.98596
2.588	-96.466	-46852	2727.7	-0.12503	0.065002	0.98537
2.59	-96.488	-46860	2726.6	-0.12542	0.064416	0.98478
2.592	-96.534	-46862	2725.3	-0.1261	0.064709	0.98508
2.594	-96.574	-46857	2724	-0.12678	0.065002	0.98537
2.596	-96.623	-46856	2722.7	-0.12747	0.065294	0.98566
2.598	-96.629	-46858	2721.2	-0.12815	0.065587	0.98596
2.6	-96.587	-46854	2719.8	-0.12883	0.06588	0.98625
2.602	-96.553	-46843	2718.3	-0.12922	0.066368	0.98713
2.604	-96.527	-46837	2716.9	-0.12961	0.066856	0.988
2.606	-96.522	-46835	2715.4	-0.13	0.067344	0.98888
2.608	-96.548	-46835	2714	-0.13039	0.067832	0.98976
2.61	-96.577	-46836	2712.5	-0.13078	0.06832	0.99064
2.612	-96.613	-46836	2711.2	-0.13127	0.068222	0.99044
2.614	-96.645	-46834	2709.8	-0.13176	0.068125	0.99025
2.616	-96.63	-46833	2708.5	-0.13225	0.068027	0.99005
2.618	-96.598	-46834	2707.2	-0.13274	0.06793	0.98986
2.62	-96.56	-46834	2705.8	-0.13322	0.067832	0.98966
2.622	-96.521	-46835	2704.6	-0.13381	0.068125	0.98966
2.624	-96.535	-46837	2703.3	-0.1344	0.068418	0.98966
2.626	-96.587	-46838	2702.2	-0.13498	0.06871	0.98966
2.628	-96.649	-46839	2701.2	-0.13557	0.069003	0.98966
2.63	-96.68	-46840	2700.2	-0.13615	0.069296	0.98966
2.632	-96.654	-46840	2699.3	-0.13488	0.069296	0.99035
2.634	-96.611	-46839	2698.4	-0.13361	0.069296	0.99103
2.636	-96.574	-46836	2697.6	-0.13235	0.069296	0.99171
2.638	-96.525	-46833	2696.8	-0.13108	0.069296	0.9924
2.64	-96.531	-46832	2696	-0.12981	0.069296	0.99308
2.642	-96.58	-46831	2695.5	-0.12932	0.068906	0.99123
2.644	-96.627	-46832	2695	-0.12883	0.068515	0.98937
2.646	-96.701	-46833	2694.5	-0.12834	0.068125	0.98752
2.648	-96.708	-46835	2694.2	-0.12786	0.067734	0.98566
2.65	-96.647	-46838	2693.9	-0.12737	0.067344	0.98381
2.652	-96.618	-46842	2693.8	-0.12473	0.06832	0.98605
2.654	-96.563	-46846	2693.6	-0.1221	0.069296	0.9883
2.656	-96.553	-46845	2693.6	-0.11946	0.070272	0.99054
2.658	-96.592	-46839	2693.6	-0.11683	0.071248	0.99279
2.66	-96.638	-46838	2693.6	-0.11419	0.072224	0.99503
2.662	-96.672	-46841	2693.7	-0.11468	0.071053	0.99376
2.664	-96.67	-46844	2693.8	-0.11517	0.069882	0.99249
2.666	-96.643	-46845	2693.9	-0.11566	0.06871	0.99123
2.668	-96.634	-46845	2694	-0.11614	0.067539	0.98996
2.67	-96.599	-46843	2694.1	-0.11663	0.066368	0.98869
2.672	-96.573	-46842	2694.2	-0.11663	0.066661	0.98918
2.674	-96.589	-46842	2694.3	-0.11663	0.066954	0.98966
2.676	-96.62	-46843	2694.3	-0.11663	0.067246	0.99015
2.678	-96.668	-46844	2694.3	-0.11663	0.067539	0.99064
2.68	-96.734	-46845	2694.3	-0.11663	0.067832	0.99113
2.682	-96.8	-46845	2694.4	-0.11527	0.068906	0.99269
2.684	-96.855	-46843	2694.4	-0.1139	0.069979	0.99425
2.686	-96.902	-46839	2694.4	-0.11253	0.071053	0.99581
2.688	-96.944	-46837	2694.3	-0.11117	0.072126	0.99737
2.69	-97.018	-46837	2694.3	-0.1098	0.0732	0.99894
2.692	-97.131	-46840	2694.2	-0.1099	0.072322	0.99894
2.694	-97.256	-46845	2694.1	-0.11	0.071443	0.99894
2.696	-97.35	-46847	2694	-0.11009	0.070565	0.99894
2.698	-97.355	-46846	2693.8	-0.11019	0.069686	0.99894
2.7	-97.283	-46846	2693.6	-0.11029	0.068808	0.99894
2.702	-97.197	-46848	2693.4	-0.11	0.071443	0.99757
2.704	-97.113	-46851	2693.1	-0.1097	0.074078	0.9962
2.706	-97.027	-46854	2692.9	-0.10941	0.076714	0.99484
2.708	-96.919	-46853	2692.7	-0.10912	0.079349	0.99347
2.71	-96.738	-46848	2692.4	-0.10882	0.081984	0.9921
2.712	-96.55	-46847	2692.1	-0.1098	0.080227	0.99318
2.714	-96.432	-46853	2691.7	-0.11078	0.07847	0.99425
2.716	-96.314	-46855	2691.3	-0.11175	0.076714	0.99532
2.718	-96.193	-46855	2690.9	-0.11273	0.074957	0.9964
2.72	-96.101	-46854	2690.5	-0.1137	0.0732	0.99747
2.722	-96.046	-46852	2690.1	-0.114	0.07359	0.99708
2.724	-96.066	-46852	2689.7	-0.11429	0.073981	0.99669
2.726	-96.105	-46855	2689.3	-0.11458	0.074371	0.9963
2.728	-96.149	-46855	2688.8	-0.11488	0.074762	0.99591
2.73	-96.207	-46854	2688.4	-0.11517	0.075152	0.99552
2.732	-96.199	-46855	2687.9	-0.11829	0.074664	0.99503
2.734	-96.164	-46858	2687.4	-0.12141	0.074176	0.99454
2.736	-96.146	-46860	2686.9	-0.12454	0.073688	0.99406
2.738	-96.127	-46861	2686.4	-0.12766	0.0732	0.99357
2.74	-96.183	-46862	2685.8	-0.13078	0.072712	0.99308
2.742	-96.259	-46861	2685.3	-0.12991	0.073298	0.99298
2.744	-96.343	-46861	2684.8	-0.12903	0.073883	0.99288
2.746	-96.442	-46860	2684.3	-0.12815	0.074469	0.99279
2.748	-96.462	-46860	2683.6	-0.12727	0.075054	0.99269
2.75	-96.444	-46860	2683	-0.12639	0.07564	0.99259
2.752	-96.432	-46860	2682.5	-0.1261	0.075445	0.99279
2.754	-96.386	-46859	2682	-0.12581	0.07525	0.99298
2.756	-96.396	-46861	2681.5	-0.12551	0.075054	0.99318
2.758	-96.49	-46865	2681	-0.12522	0.074859	0.99337
2.76	-96.543	-46867	2680.6	-0.12493	0.074664	0.99357
2.762	-96.587	-46868	2680.2	-0.12503	0.074957	0.99367
2.764	-96.62	-46870	2679.8	-0.12512	0.07525	0.99376
2.766	-96.607	-46874	2679.4	-0.12522	0.075542	0.99386
2.768	-96.576	-46876	2679	-0.12532	0.075835	0.99396
2.77	-96.532	-46876	2678.6	-0.12542	0.076128	0.99406
2.772	-96.502	-46879	2678.3	-0.1261	0.073981	0.99249
2.774	-96.525	-46885	2677.9	-0.12678	0.071834	0.99093
2.776	-96.577	-46886	2677.6	-0.12747	0.069686	0.98937
2.778	-96.626	-46883	2677.3	-0.12815	0.067539	0.98781
2.78	-96.656	-46883	2677	-0.12883	0.065392	0.98625
2.782	-96.644	-46884	2676.6	-0.12717	0.064318	0.98761
2.784	-96.609	-46887	2676.3	-0.12551	0.063245	0.98898
2.786	-96.572	-46890	2675.9	-0.12385	0.062171	0.99035
2.788	-96.528	-46892	2675.6	-0.1222	0.061098	0.99171
2.79	-96.54	-46893	2675.3	-0.12054	0.060024	0.99308
2.792	-96.595	-46893	2674.9	-0.11927	0.059634	0.99376
2.794	-96.628	-46893	2674.5	-0.118	0.059243	0.99445
2.796	-96.647	-46892	2674.1	-0.11673	0.058853	0.99513
2.798	-96.656	-46892	2673.6	-0.11546	0.058462	0.99581
2.8	-96.63	-46891	2673.2	-0.11419	0.058072	0.9965
2.802	-96.593	-46889	2672.6	-0.1138	0.058658	0.9965
2.804	-96.543	-46888	2672.1	-0.11341	0.059243	0.9965
2.806	-96.525	-46888	2671.5	-0.11302	0.059829	0.9965
2.808	-96.556	-46887	2670.9	-0.11263	0.060414	0.9965
2.81	-96.588	-46886	2670.3	-0.11224	0.061	0.9965
2.812	-96.635	-46887	2669.7	-0.1138	0.062269	0.99503
2.814	-96.647	-46889	2669.2	-0.11536	0.063538	0.99357
2.816	-96.621	-46890	2668.7	-0.11692	0.064806	0.9921
2.818	-96.632	-46890	2668.2	-0.11849	0.066075	0.99064
2.82	-96.604	-46892	2667.7	-0.12005	0.067344	0.98918
2.822	-96.55	-46896	2667.3	-0.11966	0.067539	0.98957
2.824	-96.583	-46898	2666.8	-0.11927	0.067734	0.98996
2.826	-96.612	-46899	2666.4	-0.11888	0.06793	0.99035
2.828	-96.65	-46899	2666.1	-0.11849	0.068125	0.99074
2.83	-96.698	-46898	2665.7	-0.1181	0.06832	0.99113
2.832	-96.679	-46899	2665.5	-0.1179	0.068613	0.99152
2.834	-96.65	-46902	2665.2	-0.11771	0.068906	0.99191
2.836	-96.609	-46905	2665	-0.11751	0.069198	0.9923
2.838	-96.565	-46910	2664.8	-0.11732	0.069491	0.99269
2.84	-96.582	-46913	2664.6	-0.11712	0.069784	0.99308
2.842	-96.624	-46913	2664.6	-0.11527	0.070272	0.99386
2.844	-96.664	-46912	2664.6	-0.11341	0.07076	0.99464
2.846	-96.699	-46911	2664.7	-0.11156	0.071248	0.99542
2.848	-96.686	-46913	2664.9	-0.1097	0.071736	0.9962
2.85	-96.641	-46917	2665.1	-0.10785	0.072224	0.99698
2.852	-96.604	-46919	2665.5	-0.10931	0.071736	0.99708
2.854	-96.565	-46919	2666	-0.11078	0.071248	0.99718
2.856	-96.56	-46920	2666.5	-0.11224	0.07076	0.99728
2.858	-96.598	-46921	2667.3	-0.1137	0.070272	0.99737
2.86	-96.639	-46923	2668	-0.11517	0.069784	0.99747
2.862	-96.678	-46926	2669.2	-0.11517	0.069198	0.99737
2.864	-96.687	-46927	2670.3	-0.11517	0.068613	0.99728
2.866	-96.657	-46927	2671.6	-0.11517	0.068027	0.99718
2.868	-96.63	-46926	2673	-0.11517	0.067442	0.99708
2.87	-96.592	-46924	2674.5	-0.11517	0.066856	0.99698
2.872	-96.557	-46926	2676.3	-0.11517	0.067734	0.99689
2.874	-96.569	-46931	2678	-0.11517	0.068613	0.99679
2.876	-96.615	-46938	2679.9	-0.11517	0.069491	0.99669
2.878	-96.682	-46947	2681.9	-0.11517	0.07037	0.99659
2.88	-96.726	-46955	2683.9	-0.11517	0.071248	0.9965
2.882	-96.702	-46961	2686.2	-0.11536	0.071053	0.99562
2.884	-96.667	-46964	2688.4	-0.11556	0.070858	0.99474
2.886	-96.634	-46963	2690.7	-0.11575	0.070662	0.99386
2.888	-96.586	-46961	2693	-0.11595	0.070467	0.99298
2.89	-96.599	-46958	2695.4	-0.11614	0.070272	0.9921
2.892	-96.663	-46956	2697.7	-0.11575	0.07037	0.99337
2.894	-96.722	-46955	2700	-0.11536	0.070467	0.99464
2.896	-96.767	-46956	2702.3	-0.11497	0.070565	0.99591
2.898	-96.781	-46957	2704.5	-0.11458	0.070662	0.99718
2.9	-96.736	-46957	2706.7	-0.11419	0.07076	0.99845
2.902	-96.682	-46955	2708.8	-0.11497	0.071443	0.99864
2.904	-96.639	-46951	2710.9	-0.11575	0.072126	0.99884
2.906	-96.637	-46946	2712.8	-0.11653	0.07281	0.99903
2.908	-96.693	-46941	2714.6	-0.11732	0.073493	0.99923
2.91	-96.734	-46938	2716.4	-0.1181	0.074176	0.99942
2.912	-96.772	-46934	2718	-0.11839	0.074176	0.99933
2.914	-96.79	-46931	2719.5	-0.11868	0.074176	0.99923
2.916	-96.748	-46922	2720.9	-0.11897	0.074176	0.99913
2.918	-96.72	-46909	2722.2	-0.11927	0.074176	0.99903
2.92	-96.693	-46902	2723.5	-0.11956	0.074176	0.99894
2.922	-96.669	-46901	2724.4	-0.11946	0.074274	0.99864
2.924	-96.711	-46901	2725.4	-0.11936	0.074371	0.99835
2.926	-96.744	-46903	2726.2	-0.11927	0.074469	0.99806
2.928	-96.774	-46901	2726.9	-0.11917	0.074566	0.99776
2.93	-96.808	-46896	2727.6	-0.11907	0.074664	0.99747
2.932	-96.79	-46892	2728.2	-0.12005	0.075542	0.99708
2.934	-96.742	-46889	2728.7	-0.12102	0.076421	0.99669
2.936	-96.673	-46886	2729.1	-0.122	0.077299	0.9963
2.938	-96.622	-46885	2729.4	-0.12298	0.078178	0.99591
2.94	-96.667	-46881	2729.7	-0.12395	0.079056	0.99552
2.942	-96.728	-46876	2729.8	-0.12405	0.078763	0.99523
2.944	-96.747	-46871	2729.9	-0.12415	0.07847	0.99493
2.946	-96.767	-46864	2729.9	-0.12424	0.078178	0.99464
2.948	-96.756	-46856	2729.9	-0.12434	0.077885	0.99435
2.95	-96.71	-46848	2729.9	-0.12444	0.077592	0.99406
2.952	-96.671	-46842	2729.7	-0.12395	0.077299	0.99464
2.954	-96.63	-46838	2729.5	-0.12346	0.077006	0.99523
2.956	-96.615	-46837	2729.2	-0.12298	0.076714	0.99581
2.958	-96.649	-46839	2728.9	-0.12249	0.076421	0.9964
2.96	-96.678	-46838	2728.7	-0.122	0.076128	0.99698
2.962	-96.699	-46835	2728.3	-0.12083	0.075445	0.99698
2.964	-96.712	-46828	2727.9	-0.11966	0.074762	0.99698
2.966	-96.685	-46818	2727.5	-0.11849	0.074078	0.99698
2.968	-96.636	-46810	2727	-0.11732	0.073395	0.99698
2.97	-96.594	-46806	2726.6	-0.11614	0.072712	0.99698
2.972	-96.556	-46803	2726.1	-0.11653	0.072126	0.99659
2.974	-96.579	-46801	2725.5	-0.11692	0.071541	0.9962
2.976	-96.626	-46799	2725	-0.11732	0.070955	0.99581
2.978	-96.659	-46798	2724.4	-0.11771	0.07037	0.99542
2.98	-96.684	-46796	2723.8	-0.1181	0.069784	0.99503
2.982	-96.655	-46792	2723.2	-0.1178	0.069784	0.99445
2.984	-96.618	-46783	2722.5	-0.11751	0.069784	0.99386
2.986	-96.575	-46769	2721.9	-0.11722	0.069784	0.99328
2.988	-96.523	-46763	2721.3	-0.11692	0.069784	0.99269
2.99	-96.539	-46763	2720.6	-0.11663	0.069784	0.9921
2.992	-96.587	-46762	2719.9	-0.11653	0.069491	0.9923
2.994	-96.622	-46759	2719.2	-0.11644	0.069198	0.99249
2.996	-96.666	-46753	2718.5	-0.11634	0.068906	0.99269
2.998	-96.647	-46742	2717.7	-0.11624	0.068613	0.99288
3	-96.62	-46734	2717	-0.11614	0.06832	0.99308
3.002	-96.616	-46728	2716.3	-0.11605	0.067832	0.9924
3.004	-96.561	-46724	2715.5	-0.11595	0.067344	0.99171
3.006	-96.54	-46723	2714.8	-0.11585	0.066856	0.99103
3.008	-96.572	-46721	2714	-0.11575	0.066368	0.99035
3.01	-96.609	-46719	2713.3	-0.11566	0.06588	0.98966
3.012	-96.66	-46717	2712.6	-0.11624	0.066563	0.98976
3.014	-96.667	-46713	2711.9	-0.11683	0.067246	0.98986
3.016	-96.625	-46712	2711.3	-0.11741	0.06793	0.98996
3.018	-96.591	-46713	2710.6	-0.118	0.068613	0.99005
3.02	-96.559	-46708	2709.9	-0.11858	0.069296	0.99015
3.022	-96.534	-46695	2709.2	-0.11858	0.068222	0.99005
3.024	-96.548	-46689	2708.6	-0.11858	0.067149	0.98996
3.026	-96.574	-46690	2707.9	-0.11858	0.066075	0.98986
3.028	-96.625	-46690	2707.2	-0.11858	0.065002	0.98976
3.03	-96.673	-46689	2706.6	-0.11858	0.063928	0.98966
3.032	-96.652	-46686	2705.9	-0.1178	0.064123	0.98996
3.034	-96.599	-46681	2705.2	-0.11702	0.064318	0.99025
3.036	-96.564	-46676	2704.5	-0.11624	0.064514	0.99054
3.038	-96.547	-46670	2703.7	-0.11546	0.064709	0.99084
3.04	-96.557	-46666	2702.9	-0.11468	0.064904	0.99113
3.042	-96.578	-46666	2702	-0.11585	0.065978	0.99132
3.044	-96.603	-46663	2701.1	-0.11702	0.067051	0.99152
3.046	-96.649	-46658	2700.2	-0.11819	0.068125	0.99171
3.048	-96.671	-46653	2699.1	-0.11936	0.069198	0.99191
3.05	-96.637	-46647	2698.1	-0.12054	0.070272	0.9921
3.052	-96.604	-46642	2697	-0.11907	0.068418	0.9924
3.054	-96.572	-46638	2695.8	-0.11761	0.066563	0.99269
3.056	-96.551	-46635	2694.6	-0.11614	0.064709	0.99298
3.058	-96.571	-46634	2693.3	-0.11468	0.062854	0.99328
3.06	-96.605	-46632	2692	-0.11322	0.061	0.99357
3.062	-96.652	-46628	2690.6	-0.11331	0.061	0.99425
3.064	-96.685	-46624	2689.2	-0.11341	0.061	0.99493
3.066	-96.663	-46620	2687.8	-0.11351	0.061	0.99562
3.068	-96.625	-46617	2686.3	-0.11361	0.061	0.9963
3.07	-96.583	-46615	2684.9	-0.1137	0.061	0.99698
3.072	-96.556	-46615	2683.4	-0.1138	0.060707	0.9962
3.074	-96.587	-46619	2682	-0.1139	0.060414	0.99542
3.076	-96.616	-46619	2680.6	-0.114	0.060122	0.99464
3.078	-96.642	-46615	2679.2	-0.11409	0.059829	0.99386
3.08	-96.673	-46612	2677.9	-0.11419	0.059536	0.99308
3.082	-96.668	-46610	2676.6	-0.11702	0.060414	0.9922
3.084	-96.654	-46611	2675.4	-0.11985	0.061293	0.99132
3.086	-96.636	-46614	2674.2	-0.12268	0.062171	0.99044
3.088	-96.58	-46616	2673.1	-0.12551	0.06305	0.98957
3.09	-96.582	-46617	2672	-0.12834	0.063928	0.98869
3.092	-96.627	-46615	2671.1	-0.12815	0.063928	0.9882
3.094	-96.67	-46608	2670.1	-0.12795	0.063928	0.98771
3.096	-96.705	-46606	2669.2	-0.12776	0.063928	0.98722
3.098	-96.703	-46609	2668.4	-0.12756	0.063928	0.98674
3.1	-96.674	-46612	2667.5	-0.12737	0.063928	0.98625
3.102	-96.63	-46616	2666.9	-0.12815	0.064318	0.98596
3.104	-96.583	-46616	2666.2	-0.12893	0.064709	0.98566
3.106	-96.581	-46613	2665.6	-0.12971	0.065099	0.98537
3.108	-96.604	-46613	2665	-0.13049	0.06549	0.98508
3.11	-96.639	-46617	2664.4	-0.13127	0.06588	0.98478
3.112	-96.69	-46615	2664.1	-0.13059	0.06588	0.98488
3.114	-96.709	-46608	2663.8	-0.12991	0.06588	0.98498
3.116	-96.683	-46604	2663.6	-0.12922	0.06588	0.98508
3.118	-96.637	-46601	2663.4	-0.12854	0.06588	0.98517
3.12	-96.583	-46601	2663.1	-0.12786	0.06588	0.98527
3.122	-96.561	-46602	2663.1	-0.12571	0.067246	0.98771
3.124	-96.595	-46605	2663	-0.12356	0.068613	0.99015
3.126	-96.651	-46611	2663.1	-0.12141	0.069979	0.99259
3.128	-96.694	-46612	2663.2	-0.11927	0.071346	0.99503
3.13	-96.703	-46608	2663.3	-0.11712	0.072712	0.99747
3.132	-96.68	-46606	2663.5	-0.1179	0.072614	0.99689
3.134	-96.646	-46605	2663.7	-0.11868	0.072517	0.9963
3.136	-96.616	-46605	2663.9	-0.11946	0.072419	0.99572
3.138	-96.574	-46606	2664.2	-0.12024	0.072322	0.99513
3.14	-96.583	-46608	2664.4	-0.12102	0.072224	0.99454
3.142	-96.626	-46610	2664.7	-0.12073	0.071053	0.99367
3.144	-96.647	-46611	2664.9	-0.12044	0.069882	0.99279
3.146	-96.687	-46612	2665.2	-0.12015	0.06871	0.99191
3.148	-96.687	-46611	2665.4	-0.11985	0.067539	0.99103
3.15	-96.634	-46610	2665.6	-0.11956	0.066368	0.99015
3.152	-96.6	-46609	2665.8	-0.11819	0.066954	0.99142
3.154	-96.586	-46608	2666	-0.11683	0.067539	0.99269
3.156	-96.583	-46608	2666.2	-0.11546	0.068125	0.99396
3.158	-96.623	-46607	2666.4	-0.11409	0.06871	0.99523
3.16	-96.638	-46607	2666.6	-0.11273	0.069296	0.9965
3.162	-96.689	-46606	2666.7	-0.11292	0.068418	0.99532
3.164	-96.727	-46606	2666.8	-0.11312	0.067539	0.99415
3.166	-96.697	-46609	2666.8	-0.11331	0.066661	0.99298
3.168	-96.637	-46607	2666.9	-0.11351	0.065782	0.99181
3.17	-96.602	-46600	2667	-0.1137	0.064904	0.99064
3.172	-96.628	-46599	2667	-0.11361	0.065782	0.99132
3.174	-96.745	-46603	2667	-0.11351	0.066661	0.99201
3.176	-96.895	-46606	2667	-0.11341	0.067539	0.99269
3.178	-97.002	-46609	2667	-0.11331	0.068418	0.99337
3.18	-97.096	-46610	2667	-0.11322	0.069296	0.99406
3.182	-97.14	-46608	2667.1	-0.1138	0.069882	0.99435
3.184	-97.167	-46606	2667.1	-0.11439	0.070467	0.99464
3.186	-97.168	-46603	2667.2	-0.11497	0.071053	0.99493
3.188	-97.141	-46604	2667.2	-0.11556	0.071638	0.99523
3.19	-97.144	-46608	2667.2	-0.11614	0.072224	0.99552
3.192	-97.166	-46610	2667.2	-0.11624	0.072224	0.99552
3.194	-97.171	-46607	2667.1	-0.11634	0.072224	0.99552
3.196	-97.154	-46610	2667.1	-0.11644	0.072224	0.99552
3.198	-97.064	-46617	2667	-0.11653	0.072224	0.99552
3.2	-96.884	-46618	2666.8	-0.11663	0.072224	0.99552
3.202	-96.654	-46611	2666.7	-0.11771	0.072907	0.9963
3.204	-96.43	-46609	2666.5	-0.11878	0.07359	0.99708
3.206	-96.285	-46611	2666.3	-0.11985	0.074274	0.99786
3.208	-96.234	-46611	2666.1	-0.12093	0.074957	0.99864
3.21	-96.239	-46607	2665.9	-0.122	0.07564	0.99942
3.212	-96.27	-46606	2665.7	-0.12229	0.075738	0.99816
3.214	-96.272	-46608	2665.5	-0.12259	0.075835	0.99689
3.216	-96.231	-46609	2665.3	-0.12288	0.075933	0.99562
3.218	-96.18	-46609	2665.1	-0.12317	0.07603	0.99435
3.22	-96.128	-46608	2665	-0.12346	0.076128	0.99308
3.222	-96.1	-46607	2664.8	-0.122	0.074957	0.99357
3.224	-96.13	-46608	2664.6	-0.12054	0.073786	0.99406
3.226	-96.161	-46613	2664.5	-0.11907	0.072614	0.99454
3.228	-96.202	-46613	2664.4	-0.11761	0.071443	0.99503
3.23	-96.271	-46608	2664.3	-0.11614	0.070272	0.99552
3.232	-96.303	-46606	2664.2	-0.11712	0.070662	0.99532
3.234	-96.316	-46607	2664.1	-0.1181	0.071053	0.99513
3.236	-96.314	-46610	2664	-0.11907	0.071443	0.99493
3.238	-96.311	-46614	2663.9	-0.12005	0.071834	0.99474
3.24	-96.346	-46615	2663.7	-0.12102	0.072224	0.99454
3.242	-96.4	-46613	2663.7	-0.12063	0.071443	0.99415
3.244	-96.466	-46614	2663.6	-0.12024	0.070662	0.99376
3.246	-96.552	-46617	2663.5	-0.11985	0.069882	0.99337
3.248	-96.562	-46619	2663.5	-0.11946	0.069101	0.99298
3.25	-96.539	-46620	2663.4	-0.11907	0.06832	0.99259
3.252	-96.536	-46619	2663.3	-0.12024	0.06832	0.9922
3.254	-96.505	-46617	2663.2	-0.12141	0.06832	0.99181
3.256	-96.509	-46617	2663.1	-0.12259	0.06832	0.99142
3.258	-96.541	-46618	2663	-0.12376	0.06832	0.99103
3.26	-96.583	-46618	2662.9	-0.12493	0.06832	0.99064
3.262	-96.645	-46616	2662.8	-0.12415	0.06832	0.99054
3.264	-96.679	-46616	2662.6	-0.12337	0.06832	0.99044
3.266	-96.647	-46620	2662.5	-0.12259	0.06832	0.99035
3.268	-96.614	-46623	2662.4	-0.1218	0.06832	0.99025
3.27	-96.566	-46624	2662.2	-0.12102	0.06832	0.99015
3.272	-96.549	-46626	2662	-0.12073	0.068515	0.99044
3.274	-96.586	-46629	2661.8	-0.12044	0.06871	0.99074
3.276	-96.629	-46631	2661.7	-0.12015	0.068906	0.99103
3.278	-96.667	-46633	2661.6	-0.11985	0.069101	0.99132
3.28	-96.686	-46634	2661.5	-0.11956	0.069296	0.99162
3.282	-96.667	-46636	2661.3	-0.12024	0.068906	0.99093
3.284	-96.637	-46635	2661.1	-0.12093	0.068515	0.99025
3.286	-96.608	-46631	2660.9	-0.12161	0.068125	0.98957
3.288	-96.577	-46630	2660.7	-0.12229	0.067734	0.98888
3.29	-96.576	-46631	2660.5	-0.12298	0.067344	0.9882
3.292	-96.607	-46636	2660.2	-0.12259	0.067637	0.9884
3.294	-96.653	-46645	2660	-0.1222	0.06793	0.98859
3.296	-96.703	-46648	2659.7	-0.1218	0.068222	0.98879
3.298	-96.702	-46647	2659.5	-0.12141	0.068515	0.98898
3.3	-96.664	-46645	2659.3	-0.12102	0.068808	0.98918
3.302	-96.635	-46643	2659	-0.12141	0.068222	0.98859
3.304	-96.597	-46644	2658.8	-0.1218	0.067637	0.988
3.306	-96.582	-46650	2658.6	-0.1222	0.067051	0.98742
3.308	-96.61	-46650	2658.5	-0.12259	0.066466	0.98683
3.31	-96.634	-46644	2658.4	-0.12298	0.06588	0.98625
3.312	-96.672	-46642	2658.4	-0.12249	0.066661	0.98781
3.314	-96.696	-46647	2658.4	-0.122	0.067442	0.98937
3.316	-96.669	-46649	2658.5	-0.12151	0.068222	0.99093
3.318	-96.63	-46650	2658.7	-0.12102	0.069003	0.99249
3.32	-96.591	-46653	2658.8	-0.12054	0.069784	0.99406
3.322	-96.561	-46658	2659.2	-0.12151	0.069882	0.99337
3.324	-96.584	-46656	2659.6	-0.12249	0.069979	0.99269
3.326	-96.625	-46648	2660.1	-0.12346	0.070077	0.99201
3.328	-96.662	-46648	2660.8	-0.12444	0.070174	0.99132
3.33	-96.71	-46655	2661.5	-0.12542	0.070272	0.99064
3.332	-96.675	-46658	2662.6	-0.12424	0.069394	0.99025
3.334	-96.628	-46657	2663.7	-0.12307	0.068515	0.98986
3.336	-96.601	-46658	2665	-0.1219	0.067637	0.98947
3.338	-96.562	-46661	2666.6	-0.12073	0.066758	0.98908
3.34	-96.6	-46661	2668.2	-0.11956	0.06588	0.98869
3.342	-96.639	-46659	2670.3	-0.11839	0.066856	0.99054
3.344	-96.658	-46661	2672.5	-0.11722	0.067832	0.9924
3.346	-96.7	-46666	2674.9	-0.11605	0.068808	0.99425
3.348	-96.701	-46671	2677.6	-0.11488	0.069784	0.99611
3.35	-96.663	-46676	2680.2	-0.1137	0.07076	0.99796
3.352	-96.634	-46679	2683.3	-0.11497	0.071541	0.99855
3.354	-96.59	-46680	2686.3	-0.11624	0.072322	0.99913
3.356	-96.582	-46680	2689.5	-0.11751	0.073102	0.99972
3.358	-96.616	-46677	2692.8	-0.11878	0.073883	1.0003
3.36	-96.651	-46675	2696	-0.12005	0.074664	1.0009
3.362	-96.689	-46674	2699.4	-0.12054	0.075738	0.99923
3.364	-96.704	-46674	2702.7	-0.12102	0.076811	0.99757
3.366	-96.682	-46675	2706.1	-0.12151	0.077885	0.99591
3.368	-96.648	-46675	2709.4	-0.122	0.078958	0.99425
3.37	-96.61	-46675	2712.7	-0.12249	0.080032	0.99259
3.372	-96.587	-46674	2715.9	-0.12385	0.079251	0.9922
3.374	-96.603	-46674	2719.1	-0.12522	0.07847	0.99181
3.376	-96.645	-46674	2722.2	-0.12659	0.07769	0.99142
3.378	-96.699	-46673	2725.2	-0.12795	0.076909	0.99103
3.38	-96.734	-46672	2728.2	-0.12932	0.076128	0.99064
3.382	-96.716	-46671	2730.9	-0.12815	0.076518	0.99103
3.384	-96.674	-46669	2733.6	-0.12698	0.076909	0.99142
3.386	-96.65	-46666	2736.2	-0.12581	0.077299	0.99181
3.388	-96.64	-46664	2738.6	-0.12464	0.07769	0.9922
3.39	-96.647	-46662	2741	-0.12346	0.07808	0.99259
3.392	-96.683	-46661	2743	-0.12395	0.078568	0.99249
3.394	-96.724	-46661	2745	-0.12444	0.079056	0.9924
3.396	-96.767	-46660	2746.8	-0.12493	0.079544	0.9923
3.398	-96.759	-46658	2748.5	-0.12542	0.080032	0.9922
3.4	-96.721	-46655	2750.1	-0.1259	0.08052	0.9921
3.402	-96.69	-46651	2751.4	-0.12503	0.080618	0.99269
3.404	-96.656	-46645	2752.6	-0.12415	0.080715	0.99328
3.406	-96.654	-46638	2753.7	-0.12327	0.080813	0.99386
3.408	-96.685	-46632	2754.7	-0.12239	0.08091	0.99445
3.41	-96.718	-46627	2755.6	-0.12151	0.081008	0.99503
3.412	-96.76	-46622	2756.3	-0.12141	0.080715	0.99484
3.414	-96.799	-46618	2756.9	-0.12132	0.080422	0.99464
3.416	-96.793	-46612	2757.4	-0.12122	0.08013	0.99445
3.418	-96.761	-46603	2757.6	-0.12112	0.079837	0.99425
3.42	-96.718	-46593	2757.9	-0.12102	0.079544	0.99406
3.422	-96.657	-46583	2757.9	-0.12015	0.077982	0.99454
3.424	-96.665	-46577	2758	-0.11927	0.076421	0.99503
3.426	-96.711	-46575	2758	-0.11839	0.074859	0.99552
3.428	-96.771	-46573	2757.9	-0.11751	0.073298	0.99601
3.43	-96.805	-46571	2757.9	-0.11663	0.071736	0.9965
3.432	-96.776	-46564	2757.7	-0.11917	0.071931	0.99552
3.434	-96.734	-46554	2757.5	-0.12171	0.072126	0.99454
3.436	-96.686	-46548	2757.2	-0.12424	0.072322	0.99357
3.438	-96.632	-46547	2757	-0.12678	0.072517	0.99259
3.44	-96.652	-46544	2756.8	-0.12932	0.072712	0.99162
3.442	-96.709	-46540	2756.5	-0.12825	0.073493	0.99191
3.444	-96.749	-46530	2756.3	-0.12717	0.074274	0.9922
3.446	-96.782	-46517	2756	-0.1261	0.075054	0.99249
3.448	-96.773	-46508	2755.6	-0.12503	0.075835	0.99279
3.45	-96.731	-46505	2755.3	-0.12395	0.076616	0.99308
3.452	-96.682	-46501	2754.9	-0.12415	0.075933	0.99298
3.454	-96.634	-46495	2754.6	-0.12434	0.07525	0.99288
3.456	-96.63	-46490	2754.3	-0.12454	0.074566	0.99279
3.458	-96.674	-46485	2753.9	-0.12473	0.073883	0.99269
3.46	-96.712	-46482	2753.5	-0.12493	0.0732	0.99259
3.462	-96.731	-46481	2753.1	-0.12395	0.072029	0.99171
3.464	-96.733	-46478	2752.7	-0.12298	0.070858	0.99084
3.466	-96.709	-46475	2752.4	-0.122	0.069686	0.98996
3.468	-96.674	-46469	2752	-0.12102	0.068515	0.98908
3.47	-96.624	-46460	2751.6	-0.12005	0.067344	0.9882
3.472	-96.596	-46453	2751.2	-0.12015	0.067442	0.98898
3.474	-96.629	-46447	2750.7	-0.12024	0.067539	0.98976
3.476	-96.657	-46441	2750.2	-0.12034	0.067637	0.99054
3.478	-96.682	-46433	2749.8	-0.12044	0.067734	0.99132
3.48	-96.728	-46429	2749.4	-0.12054	0.067832	0.9921
3.482	-96.72	-46428	2748.8	-0.11976	0.066466	0.99201
3.484	-96.675	-46424	2748.3	-0.11897	0.065099	0.99191
3.486	-96.63	-46419	2747.7	-0.11819	0.063733	0.99181
3.488	-96.577	-46414	2747.2	-0.11741	0.062366	0.99171
3.49	-96.589	-46408	2746.7	-0.11663	0.061	0.99162
3.492	-96.62	-46405	2746.2	-0.11517	0.061293	0.9922
3.494	-96.649	-46406	2745.7	-0.1137	0.061586	0.99279
3.496	-96.701	-46404	2745.2	-0.11224	0.061878	0.99337
3.498	-96.703	-46401	2744.7	-0.11078	0.062171	0.99396
3.5	-96.658	-46396	2744.1	-0.10931	0.062464	0.99454
3.502	-96.619	-46390	2743.6	-0.11136	0.062952	0.99347
3.504	-96.549	-46387	2743.1	-0.11341	0.06344	0.9924
3.506	-96.54	-46387	2742.6	-0.11546	0.063928	0.99132
3.508	-96.586	-46386	2742.1	-0.11751	0.064416	0.99025
3.51	-96.613	-46383	2741.7	-0.11956	0.064904	0.98918
3.512	-96.673	-46380	2741.2	-0.11966	0.065392	0.98918
3.514	-96.694	-46376	2740.6	-0.11976	0.06588	0.98918
3.516	-96.642	-46371	2740.1	-0.11985	0.066368	0.98918
3.518	-96.602	-46363	2739.6	-0.11995	0.066856	0.98918
3.52	-96.57	-46359	2739.1	-0.12005	0.067344	0.98918
3.522	-96.552	-46358	2738.5	-0.11985	0.067637	0.99005
3.524	-96.587	-46358	2737.9	-0.11966	0.06793	0.99093
3.526	-96.617	-46359	2737.3	-0.11946	0.068222	0.99181
3.528	-96.652	-46359	2736.7	-0.11927	0.068515	0.99269
3.53	-96.674	-46360	2736.1	-0.11907	0.068808	0.99357
3.532	-96.654	-46363	2735.4	-0.11868	0.068515	0.99308
3.534	-96.619	-46368	2734.6	-0.11829	0.068222	0.99259
3.536	-96.581	-46364	2733.8	-0.1179	0.06793	0.9921
3.538	-96.552	-46351	2733	-0.11751	0.067637	0.99162
3.54	-96.561	-46345	2732.1	-0.11712	0.067344	0.99113
3.542	-96.592	-46345	2731.1	-0.11741	0.067637	0.99123
3.544	-96.631	-46344	2730.1	-0.11771	0.06793	0.99132
3.546	-96.669	-46341	2729.1	-0.118	0.068222	0.99142
3.548	-96.667	-46342	2727.9	-0.11829	0.068515	0.99152
3.55	-96.626	-46347	2726.8	-0.11858	0.068808	0.99162
3.552	-96.58	-46346	2725.5	-0.11985	0.070077	0.99152
3.554	-96.545	-46341	2724.2	-0.12112	0.071346	0.99142
3.556	-96.546	-46337	2722.9	-0.12239	0.072614	0.99132
3.558	-96.579	-46336	2721.6	-0.12366	0.073883	0.99123
3.56	-96.616	-46334	2720.3	-0.12493	0.075152	0.99113
3.562	-96.658	-46331	2719	-0.12356	0.075542	0.99191
3.564	-96.673	-46334	2717.7	-0.1222	0.075933	0.99269
3.566	-96.641	-46341	2716.4	-0.12083	0.076323	0.99347
3.568	-96.611	-46342	2715.2	-0.11946	0.076714	0.99425
3.57	-96.585	-46337	2714	-0.1181	0.077104	0.99503
3.572	-96.542	-46336	2712.9	-0.11936	0.077787	0.99454
3.574	-96.575	-46340	2711.7	-0.12063	0.07847	0.99406
3.576	-96.644	-46340	2710.7	-0.1219	0.079154	0.99357
3.578	-96.681	-46335	2709.6	-0.12317	0.079837	0.99308
3.58	-96.711	-46332	2708.6	-0.12444	0.08052	0.99259
3.582	-96.698	-46331	2707.6	-0.12395	0.08013	0.99288
3.584	-96.661	-46331	2706.7	-0.12346	0.079739	0.99318
3.586	-96.608	-46333	2705.8	-0.12298	0.079349	0.99347
3.588	-96.572	-46335	2705	-0.12249	0.078958	0.99376
3.59	-96.597	-46335	2704.1	-0.122	0.078568	0.99406
3.592	-96.64	-46335	2703.5	-0.12327	0.077787	0.99347
3.594	-96.665	-46335	2702.8	-0.12454	0.077006	0.99288
3.596	-96.706	-46337	2702.2	-0.12581	0.076226	0.9923
3.598	-96.701	-46340	2701.8	-0.12708	0.075445	0.99171
3.6	-96.673	-46342	2701.3	-0.12834	0.074664	0.99113
3.602	-96.648	-46345	2701.1	-0.12629	0.073493	0.99123
3.604	-96.59	-46348	2700.9	-0.12424	0.072322	0.99132
3.606	-96.566	-46351	2700.7	-0.1222	0.07115	0.99142
3.608	-96.612	-46351	2700.6	-0.12015	0.069979	0.99152
3.61	-96.678	-46348	2700.5	-0.1181	0.068808	0.99162
3.612	-96.722	-46347	2700.7	-0.11858	0.069296	0.99123
3.614	-96.727	-46346	2700.8	-0.11907	0.069784	0.99084
3.616	-96.697	-46346	2700.9	-0.11956	0.070272	0.99044
3.618	-96.666	-46348	2701.1	-0.12005	0.07076	0.99005
3.62	-96.628	-46350	2701.3	-0.12054	0.071248	0.98966
3.622	-96.608	-46351	2701.5	-0.11839	0.07115	0.99123
3.624	-96.625	-46352	2701.7	-0.11624	0.071053	0.99279
3.626	-96.655	-46354	2701.9	-0.11409	0.070955	0.99435
3.628	-96.7	-46355	2702.1	-0.11195	0.070858	0.99591
3.63	-96.727	-46358	2702.4	-0.1098	0.07076	0.99747
3.632	-96.707	-46362	2702.6	-0.1098	0.070955	0.99747
3.634	-96.68	-46369	2702.7	-0.1098	0.07115	0.99747
3.636	-96.653	-46372	2702.9	-0.1098	0.071346	0.99747
3.638	-96.619	-46373	2703	-0.1098	0.071541	0.99747
3.64	-96.623	-46374	2703.1	-0.1098	0.071736	0.99747
3.642	-96.656	-46374	2703.2	-0.1099	0.072126	0.99786
3.644	-96.68	-46370	2703.3	-0.11	0.072517	0.99825
3.646	-96.726	-46362	2703.3	-0.11009	0.072907	0.99864
3.648	-96.745	-46362	2703.4	-0.11019	0.073298	0.99903
3.65	-96.709	-46369	2703.4	-0.11029	0.073688	0.99942
3.652	-96.66	-46374	2703.4	-0.10931	0.074469	0.99884
3.654	-96.6	-46377	2703.5	-0.10834	0.07525	0.99825
3.656	-96.597	-46382	2703.4	-0.10736	0.07603	0.99767
3.658	-96.636	-46388	2703.4	-0.10638	0.076811	0.99708
3.66	-96.659	-46390	2703.3	-0.10541	0.077592	0.9965
3.662	-96.711	-46389	2703.2	-0.10619	0.077202	0.99698
3.664	-96.743	-46386	2703.1	-0.10697	0.076811	0.99747
3.666	-96.708	-46381	2703	-0.10775	0.076421	0.99796
3.668	-96.675	-46384	2702.8	-0.10853	0.07603	0.99845
3.67	-96.617	-46394	2702.7	-0.10931	0.07564	0.99894
3.672	-96.569	-46398	2702.4	-0.10951	0.074469	0.99855
3.674	-96.607	-46398	2702.2	-0.1097	0.073298	0.99816
3.676	-96.643	-46398	2701.9	-0.1099	0.072126	0.99776
3.678	-96.683	-46401	2701.6	-0.11009	0.070955	0.99737
3.68	-96.728	-46402	2701.4	-0.11029	0.069784	0.99698
3.682	-96.706	-46403	2701.1	-0.11273	0.069198	0.99552
3.684	-96.673	-46403	2700.9	-0.11517	0.068613	0.99406
3.686	-96.631	-46403	2700.5	-0.11761	0.068027	0.99259
3.688	-96.574	-46404	2700.2	-0.12005	0.067442	0.99113
3.69	-96.583	-46408	2699.8	-0.12249	0.066856	0.98966
3.692	-96.626	-46408	2699.4	-0.12366	0.066563	0.98957
3.694	-96.668	-46405	2699	-0.12483	0.06627	0.98947
3.696	-96.711	-46403	2698.5	-0.126	0.065978	0.98937
3.698	-96.72	-46404	2698.2	-0.12717	0.065685	0.98927
3.7	-96.681	-46407	2697.8	-0.12834	0.065392	0.98918
3.702	-96.631	-46413	2697.4	-0.12893	0.065197	0.98859
3.704	-96.587	-46419	2697	-0.12952	0.065002	0.988
3.706	-96.584	-46425	2696.6	-0.1301	0.064806	0.98742
3.708	-96.617	-46430	2696.1	-0.13069	0.064611	0.98683
3.71	-96.645	-46432	2695.7	-0.13127	0.064416	0.98625
3.712	-96.672	-46435	2695.3	-0.13186	0.065392	0.98674
3.714	-96.689	-46440	2694.9	-0.13244	0.066368	0.98722
3.716	-96.68	-46443	2694.6	-0.13303	0.067344	0.98771
3.718	-96.667	-46444	2694.2	-0.13361	0.06832	0.9882
3.72	-96.634	-46442	2693.8	-0.1342	0.069296	0.98869
3.722	-96.6	-46439	2693.4	-0.134	0.069394	0.98869
3.724	-96.617	-46441	2693.1	-0.13381	0.069491	0.98869
3.726	-96.644	-46449	2692.8	-0.13361	0.069589	0.98869
3.728	-96.686	-46453	2692.5	-0.13342	0.069686	0.98869
3.73	-96.713	-46453	2692.1	-0.13322	0.069784	0.98869
3.732	-96.686	-46455	2691.9	-0.13244	0.069394	0.98908
3.734	-96.653	-46459	2691.6	-0.13166	0.069003	0.98947
3.736	-96.637	-46462	2691.3	-0.13088	0.068613	0.98986
3.738	-96.6	-46464	2691	-0.1301	0.068222	0.99025
3.74	-96.602	-46467	2690.7	-0.12932	0.067832	0.99064
3.742	-96.638	-46471	2690.4	-0.12942	0.067539	0.99005
3.744	-96.664	-46473	2690.1	-0.12952	0.067246	0.98947
3.746	-96.712	-46472	2689.8	-0.12961	0.066954	0.98888
3.748	-96.711	-46471	2689.5	-0.12971	0.066661	0.9883
3.75	-96.663	-46472	2689.3	-0.12981	0.066368	0.98771
3.752	-96.633	-46474	2689	-0.12991	0.06627	0.9882
3.754	-96.587	-46475	2688.7	-0.13	0.066173	0.98869
3.756	-96.579	-46478	2688.4	-0.1301	0.066075	0.98918
3.758	-96.623	-46482	2688.2	-0.1302	0.065978	0.98966
3.76	-96.656	-46487	2687.9	-0.1303	0.06588	0.99015
3.762	-96.697	-46492	2687.6	-0.12815	0.066856	0.99074
3.764	-96.717	-46497	2687.2	-0.126	0.067832	0.99132
3.766	-96.683	-46501	2686.9	-0.12385	0.068808	0.99191
3.768	-96.648	-46501	2686.6	-0.12171	0.069784	0.99249
3.77	-96.611	-46499	2686.3	-0.11956	0.07076	0.99308
3.772	-96.597	-46500	2686	-0.11849	0.069979	0.99288
3.774	-96.648	-46504	2685.7	-0.11741	0.069198	0.99269
3.776	-96.671	-46507	2685.3	-0.11634	0.068418	0.99249
3.778	-96.699	-46510	2685	-0.11527	0.067637	0.9923
3.78	-96.726	-46516	2684.7	-0.11419	0.066856	0.9921
3.782	-96.695	-46524	2684.4	-0.11448	0.066856	0.9923
3.784	-96.657	-46524	2684	-0.11478	0.066856	0.99249
3.786	-96.632	-46517	2683.7	-0.11507	0.066856	0.99269
3.788	-96.618	-46515	2683.4	-0.11536	0.066856	0.99288
3.79	-96.632	-46519	2683.1	-0.11566	0.066856	0.99308
3.792	-96.654	-46526	2682.7	-0.11546	0.066563	0.99288
3.794	-96.679	-46535	2682.4	-0.11527	0.06627	0.99269
3.796	-96.727	-46538	2682	-0.11507	0.065978	0.99249
3.798	-96.757	-46535	2681.7	-0.11488	0.065685	0.9923
3.8	-96.735	-46534	2681.3	-0.11468	0.065392	0.9921
3.802	-96.68	-46535	2681	-0.11527	0.065978	0.99171
3.804	-96.622	-46536	2680.6	-0.11585	0.066563	0.99132
3.806	-96.622	-46539	2680.3	-0.11644	0.067149	0.99093
3.808	-96.674	-46544	2679.9	-0.11702	0.067734	0.99054
3.81	-96.709	-46549	2679.6	-0.11761	0.06832	0.99015
3.812	-96.736	-46552	2679.2	-0.11575	0.069394	0.99162
3.814	-96.746	-46551	2678.8	-0.1139	0.070467	0.99308
3.816	-96.716	-46555	2678.5	-0.11204	0.071541	0.99454
3.818	-96.689	-46561	2678.1	-0.11019	0.072614	0.99601
3.82	-96.658	-46566	2677.8	-0.10834	0.073688	0.99747
3.822	-96.628	-46568	2677.4	-0.10912	0.0732	0.99767
3.824	-96.652	-46569	2677.1	-0.1099	0.072712	0.99786
3.826	-96.685	-46569	2676.7	-0.11068	0.072224	0.99806
3.828	-96.72	-46570	2676.4	-0.11146	0.071736	0.99825
3.83	-96.756	-46570	2676.1	-0.11224	0.071248	0.99845
3.832	-96.732	-46577	2675.7	-0.1137	0.071346	0.99689
3.834	-96.692	-46589	2675.3	-0.11517	0.071443	0.99532
3.836	-96.657	-46595	2675	-0.11663	0.071541	0.99376
3.838	-96.607	-46594	2674.7	-0.1181	0.071638	0.9922
3.84	-96.614	-46594	2674.3	-0.11956	0.071736	0.99064
3.842	-96.658	-46595	2674	-0.11976	0.0732	0.99074
3.844	-96.683	-46599	2673.7	-0.11995	0.074664	0.99084
3.846	-96.731	-46605	2673.4	-0.12015	0.076128	0.99093
3.848	-96.722	-46609	2673.1	-0.12034	0.077592	0.99103
3.85	-96.692	-46611	2672.8	-0.12054	0.079056	0.99113
3.852	-96.674	-46615	2672.4	-0.11956	0.077982	0.9921
3.854	-96.646	-46621	2672.1	-0.11858	0.076909	0.99308
3.856	-96.63	-46624	2671.8	-0.11761	0.075835	0.99406
3.858	-96.657	-46623	2671.4	-0.11663	0.074762	0.99503
3.86	-96.687	-46623	2671.1	-0.11566	0.073688	0.99601
3.862	-96.727	-46625	2670.8	-0.11702	0.074371	0.99532
3.864	-96.746	-46634	2670.5	-0.11839	0.075054	0.99464
3.866	-96.723	-46652	2670.3	-0.11976	0.075738	0.99396
3.868	-96.694	-46661	2670	-0.12112	0.076421	0.99328
3.87	-96.638	-46663	2669.8	-0.12249	0.077104	0.99259
3.872	-96.605	-46663	2669.5	-0.12288	0.07769	0.99249
3.874	-96.627	-46663	2669.3	-0.12327	0.078275	0.9924
3.876	-96.672	-46665	2669	-0.12366	0.078861	0.9923
3.878	-96.72	-46668	2668.8	-0.12405	0.079446	0.9922
3.88	-96.746	-46673	2668.5	-0.12444	0.080032	0.9921
3.882	-96.738	-46679	2668.3	-0.12434	0.078958	0.99249
3.884	-96.707	-46682	2668	-0.12424	0.077885	0.99288
3.886	-96.654	-46682	2667.8	-0.12415	0.076811	0.99328
3.888	-96.606	-46681	2667.6	-0.12405	0.075738	0.99367
3.89	-96.619	-46679	2667.4	-0.12395	0.074664	0.99406
3.892	-96.669	-46680	2667.2	-0.12307	0.074469	0.99435
3.894	-96.706	-46684	2667	-0.1222	0.074274	0.99464
3.896	-96.742	-46686	2666.9	-0.12132	0.074078	0.99493
3.898	-96.755	-46687	2666.7	-0.12044	0.073883	0.99523
3.9	-96.737	-46690	2666.6	-0.11956	0.073688	0.99552
3.902	-96.725	-46696	2666.4	-0.11995	0.073395	0.99484
3.904	-96.729	-46700	2666.3	-0.12034	0.073102	0.99415
3.906	-96.784	-46703	2666.2	-0.12073	0.07281	0.99347
3.908	-96.892	-46705	2666.1	-0.12112	0.072517	0.99279
3.91	-97.005	-46706	2665.9	-0.12151	0.072224	0.9921
3.912	-97.142	-46711	2665.7	-0.12141	0.071834	0.9922
3.914	-97.253	-46719	2665.5	-0.12132	0.071443	0.9923
3.916	-97.304	-46722	2665.4	-0.12122	0.071053	0.9924
3.918	-97.339	-46719	2665.2	-0.12112	0.070662	0.99249
3.92	-97.335	-46717	2665	-0.12102	0.070272	0.99259
3.922	-97.303	-46716	2664.8	-0.12073	0.070174	0.99249
3.924	-97.34	-46720	2664.6	-0.12044	0.070077	0.9924
3.926	-97.398	-46729	2664.4	-0.12015	0.069979	0.9923
3.928	-97.403	-46734	2664.2	-0.11985	0.069882	0.9922
3.93	-97.396	-46735	2664	-0.11956	0.069784	0.9921
3.932	-97.285	-46737	2663.7	-0.11858	0.069589	0.9921
3.934	-97.013	-46738	2663.4	-0.11761	0.069394	0.9921
3.936	-96.718	-46743	2663.2	-0.11663	0.069198	0.9921
3.938	-96.486	-46750	2662.9	-0.11566	0.069003	0.9921
3.94	-96.4	-46756	2662.7	-0.11468	0.068808	0.9921
3.942	-96.376	-46760	2662.5	-0.11458	0.068808	0.99318
3.944	-96.369	-46764	2662.2	-0.11448	0.068808	0.99425
3.946	-96.366	-46767	2662	-0.11439	0.068808	0.99532
3.948	-96.318	-46769	2661.7	-0.11429	0.068808	0.9964
3.95	-96.276	-46770	2661.5	-0.11419	0.068808	0.99747
3.952	-96.256	-46772	2661.2	-0.11546	0.069394	0.9962
3.954	-96.215	-46776	2660.9	-0.11673	0.069979	0.99493
3.956	-96.224	-46780	2660.6	-0.118	0.070565	0.99367
3.958	-96.274	-46785	2660.3	-0.11927	0.07115	0.9924
3.96	-96.321	-46792	2660	-0.12054	0.071736	0.99113
3.962	-96.385	-46802	2659.7	-0.12015	0.070955	0.99113
3.964	-96.439	-46806	2659.4	-0.11976	0.070174	0.99113
3.966	-96.447	-46807	2659.1	-0.11936	0.069394	0.99113
3.968	-96.437	-46806	2658.8	-0.11897	0.068613	0.99113
3.97	-96.427	-46804	2658.5	-0.11858	0.067832	0.99113
3.972	-96.435	-46807	2658.3	-0.1181	0.067539	0.99123
3.974	-96.482	-46814	2658	-0.11761	0.067246	0.99132
3.976	-96.542	-46818	2657.8	-0.11712	0.066954	0.99142
3.978	-96.595	-46817	2657.5	-0.11663	0.066661	0.99152
3.98	-96.646	-46817	2657.2	-0.11614	0.066368	0.99162
3.982	-96.669	-46818	2656.9	-0.11556	0.06627	0.9921
3.984	-96.66	-46824	2656.7	-0.11497	0.066173	0.99259
3.986	-96.624	-46835	2656.4	-0.11439	0.066075	0.99308
3.988	-96.593	-46841	2656.2	-0.1138	0.065978	0.99357
3.99	-96.612	-46843	2656	-0.11322	0.06588	0.99406
3.992	-96.663	-46846	2655.7	-0.11439	0.067246	0.99454
3.994	-96.7	-46850	2655.5	-0.11556	0.068613	0.99503
3.996	-96.739	-46854	2655.2	-0.11673	0.069979	0.99552
3.998	-96.744	-46860	2655	-0.1179	0.071346	0.99601
4	-96.706	-46860	2654.7	-0.11907	0.072712	0.9965
4.002	-96.681	-46855	2654.5	-0.11849	0.072419	0.99659
4.004	-96.64	-46857	2654.3	-0.1179	0.072126	0.99669
4.006	-96.633	-46865	2654.1	-0.11732	0.071834	0.99679
4.008	-96.677	-46872	2653.9	-0.11673	0.071541	0.99689
4.01	-96.707	-46876	2653.7	-0.11614	0.071248	0.99698
4.012	-96.754	-46880	2653.4	-0.11702	0.072126	0.99591
4.014	-96.764	-46882	2653.2	-0.1179	0.073005	0.99484
4.016	-96.735	-46886	2652.9	-0.11878	0.073883	0.99376
4.018	-96.697	-46892	2652.6	-0.11966	0.074762	0.99269
4.02	-96.646	-46895	2652.3	-0.12054	0.07564	0.99162
4.022	-96.628	-46896	2652.1	-0.12063	0.075152	0.9922
4.024	-96.682	-46899	2651.8	-0.12073	0.074664	0.99279
4.026	-96.735	-46902	2651.6	-0.12083	0.074176	0.99337
4.028	-96.775	-46905	2651.5	-0.12093	0.073688	0.99396
4.03	-96.777	-46907	2651.4	-0.12102	0.0732	0.99454
4.032	-96.742	-46907	2651.3	-0.12034	0.0732	0.99503
4.034	-96.725	-46905	2651.3	-0.11966	0.0732	0.99552
4.036	-96.715	-46903	2651.3	-0.11897	0.0732	0.99601
4.038	-96.667	-46902	2651.5	-0.11829	0.0732	0.9965
4.04	-96.65	-46906	2651.6	-0.11761	0.0732	0.99698
4.042	-96.683	-46916	2651.9	-0.11907	0.07281	0.9962
4.044	-96.742	-46925	2652.2	-0.12054	0.072419	0.99542
4.046	-96.791	-46933	2652.6	-0.122	0.072029	0.99464
4.048	-96.773	-46938	2653.2	-0.12346	0.071638	0.99386
4.05	-96.729	-46941	2653.7	-0.12493	0.071248	0.99308
4.052	-96.687	-46942	2654.8	-0.12288	0.070467	0.99298
4.054	-96.639	-46941	2655.9	-0.12083	0.069686	0.99288
4.056	-96.639	-46941	2657.3	-0.11878	0.068906	0.99279
4.058	-96.677	-46942	2659	-0.11673	0.068125	0.99269
4.06	-96.703	-46944	2660.7	-0.11468	0.067344	0.99259
4.062	-96.746	-46949	2663.2	-0.11478	0.067442	0.99298
4.064	-96.779	-46957	2665.7	-0.11488	0.067539	0.99337
4.066	-96.752	-46968	2668.5	-0.11497	0.067637	0.99376
4.068	-96.707	-46975	2671.7	-0.11507	0.067734	0.99415
4.07	-96.666	-46978	2674.9	-0.11517	0.067832	0.99454
4.072	-96.649	-46982	2678.6	-0.11585	0.068222	0.99435
4.074	-96.685	-46987	2682.3	-0.11653	0.068613	0.99415
4.076	-96.722	-46986	2686.1	-0.11722	0.069003	0.99396
4.078	-96.761	-46980	2690.2	-0.1179	0.069394	0.99376
4.08	-96.795	-46980	2694.3	-0.11858	0.069784	0.99357
4.082	-96.775	-46987	2698.6	-0.11858	0.07037	0.99337
4.084	-96.738	-46990	2702.9	-0.11858	0.070955	0.99318
4.086	-96.697	-46988	2707.2	-0.11858	0.071541	0.99298
4.088	-96.653	-46990	2711.5	-0.11858	0.072126	0.99279
4.09	-96.66	-46995	2715.8	-0.11858	0.072712	0.99259
4.092	-96.707	-46999	2719.9	-0.11917	0.072029	0.9924
4.094	-96.756	-47000	2724.1	-0.11976	0.071346	0.9922
4.096	-96.792	-46999	2728.1	-0.12034	0.070662	0.99201
4.098	-96.79	-46995	2732	-0.12093	0.069979	0.99181
4.1	-96.76	-46994	2735.9	-0.12151	0.069296	0.99162
4.102	-96.735	-46997	2739.3	-0.12015	0.069003	0.99132
4.104	-96.673	-46997	2742.8	-0.11878	0.06871	0.99103
4.106	-96.661	-46996	2746	-0.11741	0.068418	0.99074
4.108	-96.693	-46996	2749	-0.11605	0.068125	0.99044
4.11	-96.735	-46997	2752	-0.11468	0.067832	0.99015
4.112	-96.814	-46996	2754.4	-0.11527	0.068613	0.99093
4.114	-96.842	-46991	2756.8	-0.11585	0.069394	0.99171
4.116	-96.782	-46989	2759	-0.11644	0.070174	0.99249
4.118	-96.752	-46990	2760.9	-0.11702	0.070955	0.99328
4.12	-96.706	-46987	2762.8	-0.11761	0.071736	0.99406
4.122	-96.675	-46979	2764.2	-0.11761	0.071248	0.99406
4.124	-96.707	-46976	2765.6	-0.11761	0.07076	0.99406
4.126	-96.744	-46977	2766.8	-0.11761	0.070272	0.99406
4.128	-96.788	-46977	2767.8	-0.11761	0.069784	0.99406
4.13	-96.823	-46975	2768.9	-0.11761	0.069296	0.99406
4.132	-96.818	-46970	2769.5	-0.11819	0.070467	0.99435
4.134	-96.799	-46963	2770.1	-0.11878	0.071638	0.99464
4.136	-96.757	-46956	2770.6	-0.11936	0.07281	0.99493
4.138	-96.71	-46950	2771	-0.11995	0.073981	0.99523
4.14	-96.724	-46947	2771.3	-0.12054	0.075152	0.99552
4.142	-96.771	-46946	2771.4	-0.12161	0.076226	0.99445
4.144	-96.818	-46942	2771.6	-0.12268	0.077299	0.99337
4.146	-96.856	-46935	2771.6	-0.12376	0.078373	0.9923
4.148	-96.848	-46927	2771.6	-0.12483	0.079446	0.99123
4.15	-96.805	-46919	2771.5	-0.1259	0.08052	0.99015
4.152	-96.759	-46915	2771.3	-0.1262	0.080422	0.98966
4.154	-96.717	-46915	2771.2	-0.12649	0.080325	0.98918
4.156	-96.717	-46913	2770.9	-0.12678	0.080227	0.98869
4.158	-96.765	-46911	2770.7	-0.12708	0.08013	0.9882
4.16	-96.801	-46906	2770.5	-0.12737	0.080032	0.98771
4.162	-96.836	-46898	2770.1	-0.12571	0.079349	0.98918
4.164	-96.855	-46890	2769.7	-0.12405	0.078666	0.99064
4.166	-96.832	-46884	2769.3	-0.12239	0.077982	0.9921
4.168	-96.8	-46877	2768.9	-0.12073	0.077299	0.99357
4.17	-96.754	-46870	2768.5	-0.11907	0.076616	0.99503
4.172	-96.718	-46863	2768	-0.11985	0.076616	0.99591
4.174	-96.75	-46857	2767.6	-0.12063	0.076616	0.99679
4.176	-96.792	-46852	2767.1	-0.12141	0.076616	0.99767
4.178	-96.847	-46850	2766.6	-0.1222	0.076616	0.99855
4.18	-96.888	-46847	2766.1	-0.12298	0.076616	0.99942
4.182	-96.847	-46843	2765.5	-0.1219	0.075054	0.99923
4.184	-96.787	-46837	2765	-0.12083	0.073493	0.99903
4.186	-96.74	-46828	2764.5	-0.11976	0.071931	0.99884
4.188	-96.687	-46823	2764	-0.11868	0.07037	0.99864
4.19	-96.717	-46821	2763.5	-0.11761	0.068808	0.99845
4.192	-96.764	-46814	2763	-0.11966	0.068808	0.9965
4.194	-96.797	-46803	2762.5	-0.12171	0.068808	0.99454
4.196	-96.833	-46799	2762	-0.12376	0.068808	0.99259
4.198	-96.823	-46804	2761.5	-0.12581	0.068808	0.99064
4.2	-96.782	-46804	2761	-0.12786	0.068808	0.98869
4.202	-96.755	-46801	2760.5	-0.12668	0.06871	0.98927
4.204	-96.703	-46792	2760	-0.12551	0.068613	0.98986
4.206	-96.688	-46778	2759.6	-0.12434	0.068515	0.99044
4.208	-96.724	-46771	2759.1	-0.12317	0.068418	0.99103
4.21	-96.759	-46771	2758.7	-0.122	0.06832	0.99162
4.212	-96.797	-46771	2758.2	-0.122	0.068222	0.99132
4.214	-96.805	-46770	2757.8	-0.122	0.068125	0.99103
4.216	-96.792	-46766	2757.4	-0.122	0.068027	0.99074
4.218	-96.776	-46758	2757	-0.122	0.06793	0.99044
4.22	-96.728	-46755	2756.7	-0.122	0.067832	0.99015
4.222	-96.699	-46758	2756.3	-0.12083	0.067344	0.99064
4.224	-96.72	-46758	2756	-0.11966	0.066856	0.99113
4.226	-96.751	-46754	2755.7	-0.11849	0.066368	0.99162
4.228	-96.796	-46750	2755.3	-0.11732	0.06588	0.9921
4.23	-96.83	-46747	2755	-0.11614	0.065392	0.99259
4.232	-96.798	-46742	2754.5	-0.11566	0.064611	0.99279
4.234	-96.744	-46736	2754.1	-0.11517	0.06383	0.99298
4.236	-96.703	-46733	2753.7	-0.11468	0.06305	0.99318
4.238	-96.664	-46732	2753.2	-0.11419	0.062269	0.99337
4.24	-96.674	-46730	2752.7	-0.1137	0.061488	0.99357
4.242	-96.718	-46725	2752.1	-0.11351	0.06139	0.99367
4.244	-96.75	-46717	2751.5	-0.11331	0.061293	0.99376
4.246	-96.788	-46706	2750.9	-0.11312	0.061195	0.99386
4.248	-96.806	-46701	2750.3	-0.11292	0.061098	0.99396
4.25	-96.772	-46701	2749.6	-0.11273	0.061	0.99406
4.252	-96.725	-46702	2748.9	-0.11429	0.062757	0.99328
4.254	-96.683	-46702	2748.1	-0.11585	0.064514	0.99249
4.256	-96.675	-46700	2747.3	-0.11741	0.06627	0.99171
4.258	-96.705	-46696	2746.5	-0.11897	0.068027	0.99093
4.26	-96.737	-46696	2745.7	-0.12054	0.069784	0.99015
4.262	-96.788	-46699	2744.8	-0.12005	0.070272	0.99171
4.264	-96.826	-46698	2743.9	-0.11956	0.07076	0.99328
4.266	-96.777	-46693	2742.9	-0.11907	0.071248	0.99484
4.268	-96.734	-46688	2741.9	-0.11858	0.071736	0.9964
4.27	-96.687	-46682	2740.8	-0.1181	0.072224	0.99796
4.272	-96.669	-46680	2739.6	-0.11868	0.072517	0.99776
4.274	-96.72	-46680	2738.4	-0.11927	0.07281	0.99757
4.276	-96.75	-46679	2737.2	-0.11985	0.073102	0.99737
4.278	-96.775	-46677	2735.9	-0.12044	0.073395	0.99718
4.28	-96.804	-46675	2734.6	-0.12102	0.073688	0.99698
4.282	-96.788	-46673	2733.1	-0.12161	0.075152	0.99591
4.284	-96.755	-46674	2731.6	-0.1222	0.076616	0.99484
4.286	-96.708	-46675	2730	-0.12278	0.07808	0.99376
4.288	-96.675	-46674	2728.5	-0.12337	0.079544	0.99269
4.29	-96.696	-46670	2726.9	-0.12395	0.081008	0.99162
4.292	-96.733	-46669	2725.4	-0.12249	0.079934	0.9923
4.294	-96.793	-46672	2723.8	-0.12102	0.078861	0.99298
4.296	-96.832	-46672	2722.2	-0.11956	0.077787	0.99367
4.298	-96.818	-46669	2720.6	-0.1181	0.076714	0.99435
4.3	-96.785	-46671	2719	-0.11663	0.07564	0.99503
4.302	-96.743	-46678	2717.5	-0.11712	0.075542	0.99552
4.304	-96.698	-46679	2716.1	-0.11761	0.075445	0.99601
4.306	-96.695	-46674	2714.6	-0.1181	0.075347	0.9965
4.308	-96.72	-46671	2713.3	-0.11858	0.07525	0.99698
4.31	-96.749	-46671	2712	-0.11907	0.075152	0.99747
4.312	-96.795	-46671	2710.7	-0.12102	0.07603	0.99572
4.314	-96.816	-46673	2709.4	-0.12298	0.076909	0.99396
4.316	-96.79	-46675	2708.2	-0.12493	0.077787	0.9922
4.318	-96.759	-46676	2707.1	-0.12688	0.078666	0.99044
4.32	-96.716	-46676	2705.9	-0.12883	0.079544	0.98869
4.322	-96.681	-46675	2704.9	-0.12756	0.079056	0.98947
4.324	-96.702	-46677	2703.9	-0.12629	0.078568	0.99025
4.326	-96.756	-46680	2703	-0.12503	0.07808	0.99103
4.328	-96.82	-46680	2702.2	-0.12376	0.077592	0.99181
4.33	-96.841	-46676	2701.4	-0.12249	0.077104	0.99259
4.332	-96.811	-46675	2700.8	-0.12278	0.076811	0.9923
4.334	-96.77	-46677	2700.3	-0.12307	0.076518	0.99201
4.336	-96.722	-46679	2699.7	-0.12337	0.076226	0.99171
4.338	-96.674	-46683	2699.3	-0.12366	0.075933	0.99142
4.34	-96.7	-46686	2698.9	-0.12395	0.07564	0.99113
4.342	-96.746	-46688	2698.6	-0.12239	0.073102	0.99074
4.344	-96.765	-46691	2698.3	-0.12083	0.070565	0.99035
4.346	-96.804	-46695	2698.1	-0.11927	0.068027	0.98996
4.348	-96.809	-46696	2697.9	-0.11771	0.06549	0.98957
4.35	-96.771	-46694	2697.8	-0.11614	0.062952	0.98918
4.352	-96.738	-46692	2697.8	-0.11614	0.064904	0.99005
4.354	-96.686	-46691	2697.8	-0.11614	0.066856	0.99093
4.356	-96.689	-46696	2697.8	-0.11614	0.068808	0.99181
4.358	-96.737	-46706	2697.9	-0.11614	0.07076	0.99269
4.36	-96.763	-46707	2697.9	-0.11614	0.072712	0.99357
4.362	-96.815	-46698	2698	-0.1137	0.070955	0.99415
4.364	-96.829	-46695	2698	-0.11126	0.069198	0.99474
4.366	-96.792	-46696	2698	-0.10882	0.067442	0.99532
4.368	-96.776	-46697	2698	-0.10638	0.065685	0.99591
4.37	-96.723	-46699	2698	-0.10394	0.063928	0.9965
4.372	-96.696	-46701	2698	-0.10463	0.064026	0.99542
4.374	-96.732	-46701	2697.9	-0.10531	0.064123	0.99435
4.376	-96.76	-46702	2697.8	-0.10599	0.064221	0.99328
4.378	-96.812	-46703	2697.7	-0.10668	0.064318	0.9922
4.38	-96.839	-46707	2697.5	-0.10736	0.064416	0.99113
4.382	-96.816	-46713	2697.2	-0.10873	0.063733	0.99152
4.384	-96.78	-46715	2697	-0.11009	0.06305	0.99191
4.386	-96.724	-46714	2696.7	-0.11146	0.062366	0.9923
4.388	-96.686	-46713	2696.4	-0.11283	0.061683	0.99269
4.39	-96.725	-46711	2696.1	-0.11419	0.061	0.99308
4.392	-96.765	-46713	2695.8	-0.11527	0.062464	0.9921
4.394	-96.792	-46719	2695.4	-0.11634	0.063928	0.99113
4.396	-96.829	-46723	2695	-0.11741	0.065392	0.99015
4.398	-96.828	-46724	2694.6	-0.11849	0.066856	0.98918
4.4	-96.802	-46724	2694.2	-0.11956	0.06832	0.9882
4.402	-96.78	-46722	2693.7	-0.11966	0.069296	0.98957
4.404	-96.745	-46724	2693.2	-0.11976	0.070272	0.99093
4.406	-96.733	-46729	2692.8	-0.11985	0.071248	0.9923
4.408	-96.762	-46732	2692.3	-0.11995	0.072224	0.99367
4.41	-96.795	-46735	2691.9	-0.12005	0.0732	0.99503
4.412	-96.835	-46735	2691.4	-0.11946	0.0732	0.99581
4.414	-96.856	-46734	2690.9	-0.11888	0.0732	0.99659
4.416	-96.823	-46735	2690.3	-0.11829	0.0732	0.99737
4.418	-96.78	-46739	2689.7	-0.11771	0.0732	0.99816
4.42	-96.734	-46742	2689.2	-0.11712	0.0732	0.99894
4.422	-96.692	-46745	2688.7	-0.12024	0.074078	0.99737
4.424	-96.733	-46747	2688.1	-0.12337	0.074957	0.99581
4.426	-96.795	-46749	2687.6	-0.12649	0.075835	0.99425
4.428	-96.841	-46749	2687	-0.12961	0.076714	0.99269
4.43	-96.855	-46748	2686.5	-0.13274	0.077592	0.99113
4.432	-96.829	-46747	2686	-0.13137	0.077104	0.99191
4.434	-96.794	-46748	2685.6	-0.13	0.076616	0.99269
4.436	-96.754	-46750	2685.1	-0.12864	0.076128	0.99347
4.438	-96.704	-46754	2684.6	-0.12727	0.07564	0.99425
4.44	-96.709	-46757	2684.1	-0.1259	0.075152	0.99503
4.442	-96.757	-46760	2683.6	-0.12795	0.076226	0.99396
4.444	-96.792	-46762	2683.2	-0.13	0.077299	0.99288
4.446	-96.839	-46763	2682.7	-0.13205	0.078373	0.99181
4.448	-96.832	-46767	2682.3	-0.1341	0.079446	0.99074
4.45	-96.801	-46773	2681.9	-0.13615	0.08052	0.98966
4.452	-96.769	-46775	2681.5	-0.13693	0.080715	0.98957
4.454	-96.697	-46774	2681.1	-0.13771	0.08091	0.98947
4.456	-96.694	-46773	2680.8	-0.13849	0.081106	0.98937
4.458	-96.726	-46771	2680.4	-0.13928	0.081301	0.98927
4.46	-96.769	-46771	2680.1	-0.14006	0.081496	0.98918
4.462	-96.834	-46773	2679.7	-0.13898	0.081301	0.98879
4.464	-96.849	-46776	2679.4	-0.13791	0.081106	0.9884
4.466	-96.799	-46782	2679.1	-0.13684	0.08091	0.988
4.468	-96.749	-46785	2678.8	-0.13576	0.080715	0.98761
4.47	-96.705	-46787	2678.5	-0.13469	0.08052	0.98722
4.472	-96.701	-46788	2678.2	-0.13088	0.078958	0.98898
4.474	-96.74	-46788	2677.9	-0.12708	0.077397	0.99074
4.476	-96.768	-46791	2677.7	-0.12327	0.075835	0.99249
4.478	-96.803	-46795	2677.5	-0.11946	0.074274	0.99425
4.48	-96.832	-46797	2677.3	-0.11566	0.072712	0.99601
4.482	-96.811	-46797	2677	-0.11409	0.073005	0.99611
4.484	-96.773	-46796	2676.8	-0.11253	0.073298	0.9962
4.486	-96.734	-46795	2676.6	-0.11097	0.07359	0.9963
4.488	-96.706	-46796	2676.4	-0.10941	0.073883	0.9964
4.49	-96.725	-46800	2676.1	-0.10785	0.074176	0.9965
4.492	-96.754	-46803	2675.9	-0.10804	0.073395	0.99698
4.494	-96.777	-46805	2675.6	-0.10824	0.072614	0.99747
4.496	-96.811	-46806	2675.3	-0.10843	0.071834	0.99796
4.498	-96.805	-46807	2675	-0.10863	0.071053	0.99845
4.5	-96.753	-46812	2674.8	-0.10882	0.070272	0.99894
4.502	-96.727	-46822	2674.4	-0.10824	0.069882	0.99825
4.504	-96.705	-46827	2674.1	-0.10765	0.069491	0.99757
4.506	-96.696	-46826	2673.7	-0.10707	0.069101	0.99689
4.508	-96.724	-46825	2673.4	-0.10648	0.06871	0.9962
4.51	-96.75	-46824	2673	-0.1059	0.06832	0.99552
4.512	-96.793	-46825	2672.6	-0.10551	0.068906	0.99572
4.514	-96.838	-46827	2672.1	-0.10512	0.069491	0.99591
4.516	-96.796	-46827	2671.7	-0.10472	0.070077	0.99611
4.518	-96.747	-46827	2671.2	-0.10433	0.070662	0.9963
4.52	-96.716	-46827	2670.7	-0.10394	0.071248	0.9965
4.522	-96.706	-46828	2670.2	-0.10375	0.07115	0.99689
