t	ekg	optical	pressure	accel_x	accel_y	accel_z
4.5475e-13	-83.624	-3.1034e+05	3044	-0.10687	0.059048	0.9965
0.002	-83.462	-3.1034e+05	3043.6	-0.10736	0.058365	0.99718
0.004	-83.319	-3.1034e+05	3043.2	-0.10785	0.057682	0.99786
0.006	-83.228	-3.1034e+05	3042.8	-0.10834	0.056998	0.99855
0.008	-83.211	-3.1034e+05	3042.3	-0.10882	0.056315	0.99923
0.01	-83.225	-3.1034e+05	3041.8	-0.10931	0.055632	0.99991
0.012	-83.267	-3.1034e+05	3041.3	-0.10921	0.055339	0.99903
0.014	-83.323	-3.1035e+05	3040.7	-0.10912	0.055046	0.99816
0.016	-83.341	-3.1035e+05	3040.2	-0.10902	0.054754	0.99728
0.018	-83.322	-3.1036e+05	3039.5	-0.10892	0.054461	0.9964
0.02	-83.272	-3.1037e+05	3038.9	-0.10882	0.054168	0.99552
0.022	-83.222	-3.1038e+05	3038.3	-0.10814	0.054754	0.99611
0.024	-83.242	-3.1038e+05	3037.6	-0.10746	0.055339	0.99669
0.026	-83.319	-3.1038e+05	3037	-0.10677	0.055925	0.99728
0.028	-83.4	-3.1038e+05	3036.3	-0.10609	0.05651	0.99786
0.03	-83.485	-3.1038e+05	3035.6	-0.10541	0.057096	0.99845
0.032	-83.54	-3.1038e+05	3034.9	-0.10795	0.05612	0.99689
0.034	-83.554	-3.1038e+05	3034.3	-0.11048	0.055144	0.99532
0.036	-83.553	-3.1039e+05	3033.7	-0.11302	0.054168	0.99376
0.038	-83.527	-3.1039e+05	3033	-0.11556	0.053192	0.9922
0.04	-83.514	-3.1039e+05	3032.3	-0.1181	0.052216	0.99064
0.042	-83.535	-3.104e+05	3031.7	-0.1178	0.051533	0.99093
0.044	-83.587	-3.1041e+05	3031	-0.11751	0.05085	0.99123
0.046	-83.684	-3.1041e+05	3030.3	-0.11722	0.050166	0.99152
0.048	-83.747	-3.1041e+05	3029.6	-0.11692	0.049483	0.99181
0.05	-83.738	-3.104e+05	3028.9	-0.11663	0.0488	0.9921
0.052	-83.721	-3.1041e+05	3028.1	-0.11566	0.048702	0.99259
0.054	-83.663	-3.1042e+05	3027.4	-0.11468	0.048605	0.99308
0.056	-83.615	-3.1042e+05	3026.6	-0.1137	0.048507	0.99357
0.058	-83.638	-3.1042e+05	3025.8	-0.11273	0.04841	0.99406
0.06	-83.678	-3.1042e+05	3024.9	-0.11175	0.048312	0.99454
0.062	-83.743	-3.1042e+05	3024.1	-0.11273	0.049483	0.99484
0.064	-83.806	-3.1043e+05	3023.4	-0.1137	0.050654	0.99513
0.066	-83.806	-3.1043e+05	3022.5	-0.11468	0.051826	0.99542
0.068	-83.771	-3.1043e+05	3021.7	-0.11566	0.052997	0.99572
0.07	-83.719	-3.1044e+05	3020.8	-0.11663	0.054168	0.99601
0.072	-83.662	-3.1045e+05	3019.9	-0.11722	0.055046	0.99562
0.074	-83.649	-3.1045e+05	3019	-0.1178	0.055925	0.99523
0.076	-83.676	-3.1045e+05	3018.1	-0.11839	0.056803	0.99484
0.078	-83.74	-3.1045e+05	3017.2	-0.11897	0.057682	0.99445
0.08	-83.812	-3.1045e+05	3016.3	-0.11956	0.05856	0.99406
0.082	-83.827	-3.1045e+05	3015.4	-0.11966	0.058072	0.99367
0.084	-83.811	-3.1046e+05	3014.5	-0.11976	0.057584	0.99328
0.086	-83.771	-3.1047e+05	3013.6	-0.11985	0.057096	0.99288
0.088	-83.703	-3.1047e+05	3012.8	-0.11995	0.056608	0.99249
0.09	-83.667	-3.1047e+05	3011.9	-0.12005	0.05612	0.9921
0.092	-83.688	-3.1047e+05	3011.4	-0.11927	0.05612	0.99249
0.094	-83.735	-3.1047e+05	3010.8	-0.11849	0.05612	0.99288
0.096	-83.809	-3.1048e+05	3010.4	-0.11771	0.05612	0.99328
0.098	-83.859	-3.1049e+05	3010.3	-0.11692	0.05612	0.99367
0.1	-83.84	-3.1049e+05	3010.1	-0.11614	0.05612	0.99406
0.102	-83.795	-3.1049e+05	3010	-0.11692	0.054949	0.99328
0.104	-83.742	-3.105e+05	3010	-0.11771	0.053778	0.99249
0.106	-83.692	-3.105e+05	3010.1	-0.11849	0.052606	0.99171
0.108	-83.692	-3.105e+05	3010.5	-0.11927	0.051435	0.99093
0.11	-83.726	-3.1051e+05	3010.9	-0.12005	0.050264	0.99015
0.112	-83.79	-3.1051e+05	3011.3	-0.1181	0.049581	0.99132
0.114	-83.855	-3.1052e+05	3011.7	-0.11614	0.048898	0.99249
0.116	-83.849	-3.1052e+05	3012.4	-0.11419	0.048214	0.99367
0.118	-83.811	-3.1052e+05	3013.4	-0.11224	0.047531	0.99484
0.12	-83.768	-3.1052e+05	3014.4	-0.11029	0.046848	0.99601
0.122	-83.708	-3.1052e+05	3016.1	-0.11185	0.047336	0.99532
0.124	-83.693	-3.1053e+05	3017.7	-0.11341	0.047824	0.99464
0.126	-83.726	-3.1053e+05	3019.7	-0.11497	0.048312	0.99396
0.128	-83.785	-3.1053e+05	3022.1	-0.11653	0.0488	0.99328
0.13	-83.859	-3.1053e+05	3024.5	-0.1181	0.049288	0.99259
0.132	-83.877	-3.1054e+05	3027.6	-0.11741	0.048702	0.99279
0.134	-83.85	-3.1055e+05	3030.7	-0.11673	0.048117	0.99298
0.136	-83.813	-3.1055e+05	3034.2	-0.11605	0.047531	0.99318
0.138	-83.735	-3.1055e+05	3038	-0.11536	0.046946	0.99337
0.14	-83.714	-3.1055e+05	3041.8	-0.11468	0.04636	0.99357
0.142	-83.746	-3.1055e+05	3046	-0.1139	0.045774	0.99464
0.144	-83.772	-3.1056e+05	3050.1	-0.11312	0.045189	0.99572
0.146	-83.844	-3.1057e+05	3054.5	-0.11234	0.044603	0.99679
0.148	-83.876	-3.1056e+05	3059	-0.11156	0.044018	0.99786
0.15	-83.856	-3.1056e+05	3063.5	-0.11078	0.043432	0.99894
0.152	-83.832	-3.1056e+05	3068	-0.1098	0.045091	0.99757
0.154	-83.78	-3.1057e+05	3072.6	-0.10882	0.04675	0.9962
0.156	-83.756	-3.1057e+05	3077.1	-0.10785	0.04841	0.99484
0.158	-83.772	-3.1057e+05	3081.5	-0.10687	0.050069	0.99347
0.16	-83.799	-3.1057e+05	3086	-0.1059	0.051728	0.9921
0.162	-83.861	-3.1057e+05	3090.1	-0.1056	0.052899	0.99308
0.164	-83.931	-3.1057e+05	3094.2	-0.10531	0.05407	0.99406
0.166	-83.937	-3.1058e+05	3098.2	-0.10502	0.055242	0.99503
0.168	-83.899	-3.1058e+05	3102	-0.10472	0.056413	0.99601
0.17	-83.841	-3.1058e+05	3105.7	-0.10443	0.057584	0.99698
0.172	-83.797	-3.1058e+05	3109.1	-0.1058	0.056998	0.99757
0.174	-83.798	-3.1058e+05	3112.4	-0.10716	0.056413	0.99816
0.176	-83.822	-3.1058e+05	3115.5	-0.10853	0.055827	0.99874
0.178	-83.869	-3.1058e+05	3118.2	-0.1099	0.055242	0.99933
0.18	-83.93	-3.1057e+05	3121	-0.11126	0.054656	0.99991
0.182	-83.952	-3.1057e+05	3123.3	-0.11165	0.054168	0.99874
0.184	-83.937	-3.1057e+05	3125.5	-0.11204	0.05368	0.99757
0.186	-83.897	-3.1057e+05	3127.4	-0.11244	0.053192	0.9964
0.188	-83.835	-3.1057e+05	3129.2	-0.11283	0.052704	0.99523
0.19	-83.806	-3.1056e+05	3130.9	-0.11322	0.052216	0.99406
0.192	-83.828	-3.1055e+05	3132.1	-0.11292	0.053094	0.99445
0.194	-83.864	-3.1055e+05	3133.3	-0.11263	0.053973	0.99484
0.196	-83.921	-3.1055e+05	3134.3	-0.11234	0.054851	0.99523
0.198	-83.977	-3.1055e+05	3135.3	-0.11204	0.05573	0.99562
0.2	-83.984	-3.1055e+05	3136.3	-0.11175	0.056608	0.99601
0.202	-83.944	-3.1054e+05	3136.9	-0.11263	0.056803	0.99689
0.204	-83.884	-3.1053e+05	3137.5	-0.11351	0.056998	0.99776
0.206	-83.825	-3.1053e+05	3138	-0.11439	0.057194	0.99864
0.208	-83.839	-3.1053e+05	3138.4	-0.11527	0.057389	0.99952
0.21	-83.881	-3.1053e+05	3138.7	-0.11614	0.057584	1.0004
0.212	-83.933	-3.1053e+05	3138.8	-0.11605	0.057682	0.99923
0.214	-83.994	-3.1052e+05	3139	-0.11595	0.057779	0.99806
0.216	-83.99	-3.1051e+05	3138.9	-0.11585	0.057877	0.99689
0.218	-83.956	-3.1051e+05	3138.8	-0.11575	0.057974	0.99572
0.22	-83.92	-3.1051e+05	3138.7	-0.11566	0.058072	0.99454
0.222	-83.848	-3.1051e+05	3138.4	-0.11653	0.059048	0.99552
0.224	-83.835	-3.105e+05	3138.2	-0.11741	0.060024	0.9965
0.226	-83.854	-3.1049e+05	3137.8	-0.11829	0.061	0.99747
0.228	-83.889	-3.1048e+05	3137.5	-0.11917	0.061976	0.99845
0.23	-83.965	-3.1047e+05	3137.1	-0.12005	0.062952	0.99942
0.232	-83.99	-3.1047e+05	3136.7	-0.12161	0.062074	0.99825
0.234	-83.953	-3.1046e+05	3136.3	-0.12317	0.061195	0.99708
0.236	-83.911	-3.1046e+05	3135.9	-0.12473	0.060317	0.99591
0.238	-83.833	-3.1046e+05	3135.4	-0.12629	0.059438	0.99474
0.24	-83.805	-3.1045e+05	3134.9	-0.12786	0.05856	0.99357
0.242	-83.823	-3.1044e+05	3134.4	-0.12795	0.058755	0.99249
0.244	-83.848	-3.1044e+05	3133.9	-0.12805	0.05895	0.99142
0.246	-83.9	-3.1043e+05	3133.4	-0.12815	0.059146	0.99035
0.248	-83.93	-3.1043e+05	3132.8	-0.12825	0.059341	0.98927
0.25	-83.925	-3.1042e+05	3132.2	-0.12834	0.059536	0.9882
0.252	-83.892	-3.1042e+05	3131.5	-0.12512	0.058462	0.98996
0.254	-83.819	-3.1041e+05	3130.8	-0.1219	0.057389	0.99171
0.256	-83.768	-3.1041e+05	3130.2	-0.11868	0.056315	0.99347
0.258	-83.768	-3.1041e+05	3129.4	-0.11546	0.055242	0.99523
0.26	-83.805	-3.104e+05	3128.7	-0.11224	0.054168	0.99698
0.262	-83.872	-3.104e+05	3128	-0.11117	0.054363	0.99747
0.264	-83.929	-3.104e+05	3127.2	-0.11009	0.054558	0.99796
0.266	-83.932	-3.1039e+05	3126.4	-0.10902	0.054754	0.99845
0.268	-83.896	-3.1039e+05	3125.5	-0.10795	0.054949	0.99894
0.27	-83.827	-3.1039e+05	3124.7	-0.10687	0.055144	0.99942
0.272	-83.757	-3.1038e+05	3123.7	-0.10638	0.055339	0.99894
0.274	-83.754	-3.1038e+05	3122.8	-0.1059	0.055534	0.99845
0.276	-83.791	-3.1037e+05	3121.9	-0.10541	0.05573	0.99796
0.278	-83.841	-3.1036e+05	3120.9	-0.10492	0.055925	0.99747
0.28	-83.909	-3.1036e+05	3120	-0.10443	0.05612	0.99698
0.282	-83.928	-3.1036e+05	3119	-0.10375	0.054656	0.99659
0.284	-83.898	-3.1035e+05	3118	-0.10307	0.053192	0.9962
0.286	-83.853	-3.1034e+05	3117	-0.10238	0.051728	0.99581
0.288	-83.786	-3.1034e+05	3116	-0.1017	0.050264	0.99542
0.29	-83.75	-3.1033e+05	3115	-0.10102	0.0488	0.99503
0.292	-83.771	-3.1033e+05	3114	-0.10102	0.047629	0.99572
0.294	-83.815	-3.1033e+05	3113	-0.10102	0.046458	0.9964
0.296	-83.879	-3.1033e+05	3111.9	-0.10102	0.045286	0.99708
0.298	-83.922	-3.1033e+05	3110.9	-0.10102	0.044115	0.99776
0.3	-83.89	-3.1033e+05	3109.8	-0.10102	0.042944	0.99845
0.302	-83.857	-3.1033e+05	3108.7	-0.10199	0.044018	0.99718
0.304	-83.805	-3.1032e+05	3107.5	-0.10297	0.045091	0.99591
0.306	-83.756	-3.1032e+05	3106.3	-0.10394	0.046165	0.99464
0.308	-83.776	-3.1032e+05	3105	-0.10492	0.047238	0.99337
0.31	-83.811	-3.1031e+05	3103.8	-0.1059	0.048312	0.9921
0.312	-83.85	-3.1031e+05	3102.4	-0.10697	0.047336	0.99259
0.314	-83.898	-3.103e+05	3101	-0.10804	0.04636	0.99308
0.316	-83.893	-3.1029e+05	3099.5	-0.10912	0.045384	0.99357
0.318	-83.862	-3.1029e+05	3098.1	-0.11019	0.044408	0.99406
0.32	-83.805	-3.1029e+05	3096.6	-0.11126	0.043432	0.99454
0.322	-83.746	-3.1029e+05	3095	-0.11117	0.045482	0.99464
0.324	-83.749	-3.103e+05	3093.5	-0.11107	0.047531	0.99474
0.326	-83.773	-3.103e+05	3091.8	-0.11097	0.049581	0.99484
0.328	-83.811	-3.103e+05	3090	-0.11087	0.05163	0.99493
0.33	-83.879	-3.1029e+05	3088.1	-0.11078	0.05368	0.99503
0.332	-83.905	-3.1029e+05	3086.2	-0.11156	0.052118	0.99464
0.334	-83.892	-3.1028e+05	3084.3	-0.11234	0.050557	0.99425
0.336	-83.853	-3.1027e+05	3082.3	-0.11312	0.048995	0.99386
0.338	-83.785	-3.1027e+05	3080.2	-0.1139	0.047434	0.99347
0.34	-83.758	-3.1027e+05	3078	-0.11468	0.045872	0.99308
0.342	-83.77	-3.1027e+05	3075.9	-0.11566	0.04675	0.99288
0.344	-83.799	-3.1027e+05	3073.8	-0.11663	0.047629	0.99269
0.346	-83.868	-3.1027e+05	3071.7	-0.11761	0.048507	0.99249
0.348	-83.916	-3.1027e+05	3069.6	-0.11858	0.049386	0.9923
0.35	-83.904	-3.1027e+05	3067.5	-0.11956	0.050264	0.9921
0.352	-83.868	-3.1027e+05	3065.5	-0.11936	0.05124	0.9924
0.354	-83.809	-3.1027e+05	3063.5	-0.11917	0.052216	0.99269
0.356	-83.757	-3.1027e+05	3061.5	-0.11897	0.053192	0.99298
0.358	-83.758	-3.1027e+05	3059.7	-0.11878	0.054168	0.99328
0.36	-83.79	-3.1027e+05	3057.8	-0.11858	0.055144	0.99357
0.362	-83.843	-3.1027e+05	3056	-0.11829	0.054851	0.99415
0.364	-83.887	-3.1027e+05	3054.3	-0.118	0.054558	0.99474
0.366	-83.889	-3.1027e+05	3052.7	-0.11771	0.054266	0.99532
0.368	-83.88	-3.1027e+05	3051.1	-0.11741	0.053973	0.99591
0.37	-83.837	-3.1027e+05	3049.6	-0.11712	0.05368	0.9965
0.372	-83.764	-3.1027e+05	3048.1	-0.1179	0.054168	0.99581
0.374	-83.751	-3.1027e+05	3046.7	-0.11868	0.054656	0.99513
0.376	-83.784	-3.1027e+05	3045.3	-0.11946	0.055144	0.99445
0.378	-83.826	-3.1027e+05	3044.1	-0.12024	0.055632	0.99376
0.38	-83.894	-3.1027e+05	3042.9	-0.12102	0.05612	0.99308
0.382	-83.928	-3.1027e+05	3041.8	-0.12034	0.055534	0.99298
0.384	-83.907	-3.1027e+05	3040.7	-0.11966	0.054949	0.99288
0.386	-83.867	-3.1027e+05	3039.7	-0.11897	0.054363	0.99279
0.388	-83.798	-3.1027e+05	3038.8	-0.11829	0.053778	0.99269
0.39	-83.779	-3.1027e+05	3037.9	-0.11761	0.053192	0.99259
0.392	-83.806	-3.1028e+05	3037.1	-0.11712	0.051533	0.99308
0.394	-83.833	-3.1028e+05	3036.4	-0.11663	0.049874	0.99357
0.396	-83.891	-3.1028e+05	3035.7	-0.11614	0.048214	0.99406
0.398	-83.933	-3.1028e+05	3035	-0.11566	0.046555	0.99454
0.4	-83.916	-3.1028e+05	3034.3	-0.11517	0.044896	0.99503
0.402	-83.879	-3.1028e+05	3033.7	-0.1139	0.04675	0.99552
0.404	-83.821	-3.1028e+05	3033.1	-0.11263	0.048605	0.99601
0.406	-83.791	-3.1028e+05	3032.5	-0.11136	0.050459	0.9965
0.408	-83.813	-3.1028e+05	3031.9	-0.11009	0.052314	0.99698
0.41	-83.845	-3.1028e+05	3031.3	-0.10882	0.054168	0.99747
0.412	-83.906	-3.1028e+05	3030.8	-0.10775	0.054266	0.99708
0.414	-83.951	-3.1029e+05	3030.2	-0.10668	0.054363	0.99669
0.416	-83.927	-3.1029e+05	3029.7	-0.1056	0.054461	0.9963
0.418	-83.891	-3.1029e+05	3029	-0.10453	0.054558	0.99591
0.42	-83.855	-3.1029e+05	3028.4	-0.10346	0.054656	0.99552
0.422	-83.818	-3.1029e+05	3027.7	-0.10365	0.054949	0.99572
0.424	-83.815	-3.1029e+05	3027.1	-0.10385	0.055242	0.99591
0.426	-83.846	-3.1029e+05	3026.4	-0.10404	0.055534	0.99611
0.428	-83.912	-3.1029e+05	3025.7	-0.10424	0.055827	0.9963
0.43	-83.984	-3.1029e+05	3024.9	-0.10443	0.05612	0.9965
0.432	-84.007	-3.103e+05	3024.2	-0.10433	0.057486	0.99679
0.434	-84.013	-3.103e+05	3023.6	-0.10424	0.058853	0.99708
0.436	-84.015	-3.103e+05	3023.2	-0.10414	0.060219	0.99737
0.438	-84.028	-3.103e+05	3023.1	-0.10404	0.061586	0.99767
0.44	-84.095	-3.103e+05	3023	-0.10394	0.062952	0.99796
0.442	-84.193	-3.103e+05	3023	-0.10365	0.061293	0.99757
0.444	-84.305	-3.103e+05	3023	-0.10336	0.059634	0.99718
0.446	-84.44	-3.103e+05	3023	-0.10307	0.057974	0.99679
0.448	-84.548	-3.1031e+05	3023	-0.10277	0.056315	0.9964
0.45	-84.595	-3.1031e+05	3023	-0.10248	0.054656	0.99601
0.452	-84.576	-3.103e+05	3022.9	-0.10424	0.054656	0.99659
0.454	-84.487	-3.103e+05	3022.8	-0.10599	0.054656	0.99718
0.456	-84.397	-3.103e+05	3022.7	-0.10775	0.054656	0.99776
0.458	-84.358	-3.103e+05	3022.6	-0.10951	0.054656	0.99835
0.46	-84.31	-3.103e+05	3022.6	-0.11126	0.054656	0.99894
0.462	-84.236	-3.1031e+05	3022.4	-0.11253	0.055046	0.99796
0.464	-84.112	-3.1031e+05	3022.2	-0.1138	0.055437	0.99698
0.466	-83.897	-3.1031e+05	3021.9	-0.11507	0.055827	0.99601
0.468	-83.7	-3.1031e+05	3021.6	-0.11634	0.056218	0.99503
0.47	-83.555	-3.1031e+05	3021.3	-0.11761	0.056608	0.99406
0.472	-83.433	-3.1032e+05	3021	-0.11614	0.055925	0.99376
0.474	-83.419	-3.1032e+05	3020.6	-0.11468	0.055242	0.99347
0.476	-83.437	-3.1032e+05	3020.2	-0.11322	0.054558	0.99318
0.478	-83.477	-3.1032e+05	3019.8	-0.11175	0.053875	0.99288
0.48	-83.543	-3.1032e+05	3019.4	-0.11029	0.053192	0.99259
0.482	-83.538	-3.1033e+05	3019	-0.11146	0.05407	0.99328
0.484	-83.525	-3.1033e+05	3018.5	-0.11263	0.054949	0.99396
0.486	-83.478	-3.1033e+05	3018	-0.1138	0.055827	0.99464
0.488	-83.397	-3.1033e+05	3017.6	-0.11497	0.056706	0.99532
0.49	-83.388	-3.1033e+05	3017.1	-0.11614	0.057584	0.99601
0.492	-83.432	-3.1033e+05	3016.7	-0.11585	0.05612	0.99552
0.494	-83.494	-3.1033e+05	3016.2	-0.11556	0.054656	0.99503
0.496	-83.593	-3.1033e+05	3015.8	-0.11527	0.053192	0.99454
0.498	-83.671	-3.1033e+05	3015.4	-0.11497	0.051728	0.99406
0.5	-83.7	-3.1033e+05	3015	-0.11468	0.050264	0.99357
0.502	-83.695	-3.1033e+05	3014.6	-0.11429	0.05124	0.99415
0.504	-83.655	-3.1033e+05	3014.1	-0.1139	0.052216	0.99474
0.506	-83.638	-3.1033e+05	3013.7	-0.11351	0.053192	0.99532
0.508	-83.676	-3.1034e+05	3013.3	-0.11312	0.054168	0.99591
0.51	-83.734	-3.1034e+05	3012.8	-0.11273	0.055144	0.9965
0.512	-83.813	-3.1034e+05	3012.4	-0.11527	0.054363	0.99474
0.514	-83.886	-3.1034e+05	3012	-0.1178	0.053582	0.99298
0.516	-83.9	-3.1034e+05	3011.5	-0.12034	0.052802	0.99123
0.518	-83.887	-3.1034e+05	3011	-0.12288	0.052021	0.98947
0.52	-83.85	-3.1034e+05	3010.5	-0.12542	0.05124	0.98771
0.522	-83.8	-3.1035e+05	3010.1	-0.12346	0.051045	0.98791
0.524	-83.79	-3.1035e+05	3009.7	-0.12151	0.05085	0.9881
0.526	-83.82	-3.1035e+05	3009.2	-0.11956	0.050654	0.9883
0.528	-83.87	-3.1035e+05	3008.7	-0.11761	0.050459	0.98849
0.53	-83.925	-3.1035e+05	3008.2	-0.11566	0.050264	0.98869
0.532	-83.945	-3.1035e+05	3007.7	-0.11722	0.050947	0.98927
0.534	-83.923	-3.1036e+05	3007.1	-0.11878	0.05163	0.98986
0.536	-83.879	-3.1036e+05	3006.6	-0.12034	0.052314	0.99044
0.538	-83.818	-3.1036e+05	3006	-0.1219	0.052997	0.99103
0.54	-83.797	-3.1036e+05	3005.5	-0.12346	0.05368	0.99162
0.542	-83.827	-3.1036e+05	3004.9	-0.12268	0.052509	0.99152
0.544	-83.865	-3.1036e+05	3004.2	-0.1219	0.051338	0.99142
0.546	-83.923	-3.1036e+05	3003.5	-0.12112	0.050166	0.99132
0.548	-83.965	-3.1036e+05	3002.8	-0.12034	0.048995	0.99123
0.55	-83.948	-3.1036e+05	3002.1	-0.11956	0.047824	0.99113
0.552	-83.919	-3.1036e+05	3001.3	-0.11751	0.047922	0.99201
0.554	-83.863	-3.1036e+05	3000.6	-0.11546	0.048019	0.99288
0.556	-83.819	-3.1036e+05	2999.9	-0.11341	0.048117	0.99376
0.558	-83.835	-3.1036e+05	2999.3	-0.11136	0.048214	0.99464
0.56	-83.862	-3.1036e+05	2998.7	-0.10931	0.048312	0.99552
0.562	-83.942	-3.1036e+05	2998.3	-0.1096	0.04919	0.99591
0.564	-83.998	-3.1037e+05	2998	-0.1099	0.050069	0.9963
0.566	-83.976	-3.1038e+05	2997.6	-0.11019	0.050947	0.99669
0.568	-83.956	-3.1038e+05	2997.3	-0.11048	0.051826	0.99708
0.57	-83.907	-3.1038e+05	2997	-0.11078	0.052704	0.99747
0.572	-83.85	-3.1038e+05	2996.9	-0.11048	0.053485	0.99757
0.574	-83.869	-3.1038e+05	2996.8	-0.11019	0.054266	0.99767
0.576	-83.896	-3.1038e+05	2996.8	-0.1099	0.055046	0.99776
0.578	-83.932	-3.1038e+05	2996.9	-0.1096	0.055827	0.99786
0.58	-84.002	-3.1038e+05	2997.1	-0.10931	0.056608	0.99796
0.582	-84.022	-3.1038e+05	2997.5	-0.10951	0.05612	0.99806
0.584	-84	-3.1038e+05	2998	-0.1097	0.055632	0.99816
0.586	-83.955	-3.1038e+05	2998.6	-0.1099	0.055144	0.99825
0.588	-83.899	-3.1038e+05	2999.5	-0.11009	0.054656	0.99835
0.59	-83.878	-3.1038e+05	3000.3	-0.11029	0.054168	0.99845
0.592	-83.886	-3.1038e+05	3001.7	-0.11214	0.053875	0.99659
0.594	-83.919	-3.1038e+05	3003	-0.114	0.053582	0.99474
0.596	-83.989	-3.1039e+05	3004.7	-0.11585	0.05329	0.99288
0.598	-84.034	-3.1038e+05	3006.6	-0.11771	0.052997	0.99103
0.6	-84.033	-3.1038e+05	3008.6	-0.11956	0.052704	0.98918
0.602	-83.996	-3.1038e+05	3011.2	-0.1178	0.052314	0.99044
0.604	-83.927	-3.1039e+05	3013.7	-0.11605	0.051923	0.99171
0.606	-83.886	-3.1039e+05	3016.6	-0.11429	0.051533	0.99298
0.608	-83.897	-3.1039e+05	3019.8	-0.11253	0.051142	0.99425
0.61	-83.934	-3.104e+05	3022.9	-0.11078	0.050752	0.99552
0.612	-83.995	-3.104e+05	3026.5	-0.11	0.051728	0.99601
0.614	-84.05	-3.104e+05	3030	-0.10921	0.052704	0.9965
0.616	-84.048	-3.104e+05	3033.6	-0.10843	0.05368	0.99698
0.618	-84.018	-3.104e+05	3037.4	-0.10765	0.054656	0.99747
0.62	-83.972	-3.104e+05	3041.1	-0.10687	0.055632	0.99796
0.622	-83.917	-3.104e+05	3045	-0.10697	0.056706	0.99806
0.624	-83.915	-3.104e+05	3048.8	-0.10707	0.057779	0.99816
0.626	-83.953	-3.1041e+05	3052.7	-0.10716	0.058853	0.99825
0.628	-84.009	-3.1042e+05	3056.4	-0.10726	0.059926	0.99835
0.63	-84.07	-3.1043e+05	3060.2	-0.10736	0.061	0.99845
0.632	-84.084	-3.1042e+05	3063.8	-0.10756	0.060707	0.99825
0.634	-84.07	-3.1042e+05	3067.3	-0.10775	0.060414	0.99806
0.636	-84.063	-3.1041e+05	3070.7	-0.10795	0.060122	0.99786
0.638	-84.007	-3.1041e+05	3073.9	-0.10814	0.059829	0.99767
0.64	-83.961	-3.1041e+05	3077.2	-0.10834	0.059536	0.99747
0.642	-83.975	-3.1041e+05	3080	-0.10873	0.058853	0.99747
0.644	-84.014	-3.1042e+05	3082.8	-0.10912	0.05817	0.99747
0.646	-84.093	-3.1041e+05	3085.4	-0.10951	0.057486	0.99747
0.648	-84.146	-3.104e+05	3087.7	-0.1099	0.056803	0.99747
0.65	-84.128	-3.104e+05	3090.1	-0.11029	0.05612	0.99747
0.652	-84.095	-3.104e+05	3091.9	-0.11058	0.056315	0.99776
0.654	-84.02	-3.104e+05	3093.8	-0.11087	0.05651	0.99806
0.656	-83.974	-3.1039e+05	3095.4	-0.11117	0.056706	0.99835
0.658	-83.983	-3.1038e+05	3096.7	-0.11146	0.056901	0.99864
0.66	-84.01	-3.1037e+05	3098.1	-0.11175	0.057096	0.99894
0.662	-84.092	-3.1036e+05	3099.1	-0.11312	0.057877	0.99933
0.664	-84.157	-3.1036e+05	3100.1	-0.11448	0.058658	0.99972
0.666	-84.143	-3.1035e+05	3100.9	-0.11585	0.059438	1.0001
0.668	-84.122	-3.1034e+05	3101.5	-0.11722	0.060219	1.0005
0.67	-84.068	-3.1033e+05	3102.1	-0.11858	0.061	1.0009
0.672	-84.012	-3.1033e+05	3102.4	-0.11966	0.061781	0.99864
0.674	-84.011	-3.1033e+05	3102.7	-0.12073	0.062562	0.9964
0.676	-84.027	-3.1033e+05	3102.9	-0.1218	0.063342	0.99415
0.678	-84.076	-3.1032e+05	3102.9	-0.12288	0.064123	0.99191
0.68	-84.151	-3.1031e+05	3102.8	-0.12395	0.064904	0.98966
0.682	-84.174	-3.103e+05	3102.6	-0.12454	0.064318	0.99025
0.684	-84.149	-3.103e+05	3102.3	-0.12512	0.063733	0.99084
0.686	-84.101	-3.103e+05	3101.9	-0.12571	0.063147	0.99142
0.688	-84.034	-3.1029e+05	3101.5	-0.12629	0.062562	0.99201
0.69	-83.995	-3.1028e+05	3101.1	-0.12688	0.061976	0.99259
0.692	-84.021	-3.1027e+05	3100.9	-0.12766	0.060317	0.9922
0.694	-84.068	-3.1026e+05	3100.7	-0.12844	0.058658	0.99181
0.696	-84.117	-3.1026e+05	3100.5	-0.12922	0.056998	0.99142
0.698	-84.143	-3.1025e+05	3100.2	-0.13	0.055339	0.99103
0.7	-84.122	-3.1025e+05	3100	-0.13078	0.05368	0.99064
0.702	-84.076	-3.1024e+05	3099.8	-0.13	0.05368	0.99025
0.704	-84.009	-3.1024e+05	3099.7	-0.12922	0.05368	0.98986
0.706	-83.977	-3.1023e+05	3099.4	-0.12844	0.05368	0.98947
0.708	-84.004	-3.1022e+05	3099.2	-0.12766	0.05368	0.98908
0.71	-84.026	-3.102e+05	3098.9	-0.12688	0.05368	0.98869
0.712	-84.068	-3.102e+05	3098.7	-0.12454	0.052411	0.98957
0.714	-84.128	-3.102e+05	3098.4	-0.1222	0.051142	0.99044
0.716	-84.125	-3.102e+05	3098.1	-0.11985	0.049874	0.99132
0.718	-84.087	-3.1019e+05	3097.6	-0.11751	0.048605	0.9922
0.72	-84.023	-3.1018e+05	3097.2	-0.11517	0.047336	0.99308
0.722	-83.941	-3.1017e+05	3096.7	-0.11409	0.047629	0.99318
0.724	-83.95	-3.1017e+05	3096.2	-0.11302	0.047922	0.99328
0.726	-83.997	-3.1016e+05	3095.6	-0.11195	0.048214	0.99337
0.728	-84.026	-3.1015e+05	3095	-0.11087	0.048507	0.99347
0.73	-84.088	-3.1015e+05	3094.4	-0.1098	0.0488	0.99357
0.732	-84.102	-3.1014e+05	3093.7	-0.11097	0.048117	0.99288
0.734	-84.074	-3.1014e+05	3093	-0.11214	0.047434	0.9922
0.736	-84.027	-3.1013e+05	3092.3	-0.11331	0.04675	0.99152
0.738	-83.945	-3.1012e+05	3091.5	-0.11448	0.046067	0.99084
0.74	-83.926	-3.1012e+05	3090.7	-0.11566	0.045384	0.99015
0.742	-83.957	-3.1011e+05	3089.9	-0.11429	0.046653	0.99093
0.744	-84.001	-3.1011e+05	3089.2	-0.11292	0.047922	0.99171
0.746	-84.076	-3.1011e+05	3088.3	-0.11156	0.04919	0.99249
0.748	-84.103	-3.101e+05	3087.5	-0.11019	0.050459	0.99328
0.75	-84.077	-3.1009e+05	3086.7	-0.10882	0.051728	0.99406
0.752	-84.039	-3.1009e+05	3085.8	-0.10902	0.050654	0.99367
0.754	-83.976	-3.1008e+05	3085	-0.10921	0.049581	0.99328
0.756	-83.938	-3.1006e+05	3084.1	-0.10941	0.048507	0.99288
0.758	-83.956	-3.1006e+05	3083.3	-0.1096	0.047434	0.99249
0.76	-83.995	-3.1005e+05	3082.4	-0.1098	0.04636	0.9921
0.762	-84.038	-3.1005e+05	3081.5	-0.10941	0.046946	0.99191
0.764	-84.068	-3.1006e+05	3080.6	-0.10902	0.047531	0.99171
0.766	-84.065	-3.1005e+05	3079.8	-0.10863	0.048117	0.99152
0.768	-84.037	-3.1005e+05	3078.9	-0.10824	0.048702	0.99132
0.77	-83.982	-3.1005e+05	3078	-0.10785	0.049288	0.99113
0.772	-83.946	-3.1004e+05	3076.9	-0.10668	0.049093	0.99171
0.774	-83.959	-3.1003e+05	3075.9	-0.10551	0.048898	0.9923
0.776	-83.984	-3.1003e+05	3074.8	-0.10433	0.048702	0.99288
0.778	-84.019	-3.1003e+05	3073.6	-0.10316	0.048507	0.99347
0.78	-84.067	-3.1003e+05	3072.4	-0.10199	0.048312	0.99406
0.782	-84.083	-3.1002e+05	3071	-0.10346	0.048702	0.99347
0.784	-84.074	-3.1002e+05	3069.6	-0.10492	0.049093	0.99288
0.786	-84.051	-3.1001e+05	3068.1	-0.10638	0.049483	0.9923
0.788	-83.992	-3.1001e+05	3066.5	-0.10785	0.049874	0.99171
0.79	-83.948	-3.1e+05	3065	-0.10931	0.050264	0.99113
0.792	-83.963	-3.1e+05	3063.2	-0.10951	0.049678	0.99171
0.794	-84.007	-3.0999e+05	3061.4	-0.1097	0.049093	0.9923
0.796	-84.073	-3.0998e+05	3059.6	-0.1099	0.048507	0.99288
0.798	-84.122	-3.0998e+05	3057.7	-0.11009	0.047922	0.99347
0.8	-84.107	-3.0999e+05	3055.7	-0.11029	0.047336	0.99406
0.802	-84.058	-3.0999e+05	3053.6	-0.11019	0.046848	0.99474
0.804	-84.002	-3.0998e+05	3051.4	-0.11009	0.04636	0.99542
0.806	-83.973	-3.0997e+05	3049.3	-0.11	0.045872	0.99611
0.808	-83.996	-3.0997e+05	3047.1	-0.1099	0.045384	0.99679
0.81	-84.023	-3.0997e+05	3045	-0.1098	0.044896	0.99747
0.812	-84.059	-3.0996e+05	3042.9	-0.11195	0.045677	0.99562
0.814	-84.113	-3.0996e+05	3040.8	-0.11409	0.046458	0.99376
0.816	-84.118	-3.0996e+05	3038.8	-0.11624	0.047238	0.99191
0.818	-84.076	-3.0996e+05	3036.9	-0.11839	0.048019	0.99005
0.82	-84.006	-3.0996e+05	3034.9	-0.12054	0.0488	0.9882
0.822	-83.937	-3.0996e+05	3033.1	-0.122	0.049874	0.98898
0.824	-83.948	-3.0995e+05	3031.3	-0.12346	0.050947	0.98976
0.826	-83.986	-3.0995e+05	3029.6	-0.12493	0.052021	0.99054
0.828	-84.014	-3.0995e+05	3027.9	-0.12639	0.053094	0.99132
0.83	-84.081	-3.0995e+05	3026.2	-0.12786	0.054168	0.9921
0.832	-84.109	-3.0995e+05	3024.7	-0.1259	0.053875	0.99337
0.834	-84.1	-3.0995e+05	3023.3	-0.12395	0.053582	0.99464
0.836	-84.06	-3.0995e+05	3021.9	-0.122	0.05329	0.99591
0.838	-83.983	-3.0994e+05	3020.7	-0.12005	0.052997	0.99718
0.84	-83.974	-3.0994e+05	3019.6	-0.1181	0.052704	0.99845
0.842	-84.003	-3.0994e+05	3018.5	-0.11771	0.052802	0.99728
0.844	-84.047	-3.0993e+05	3017.4	-0.11732	0.052899	0.99611
0.846	-84.11	-3.0994e+05	3016.4	-0.11692	0.052997	0.99493
0.848	-84.117	-3.0995e+05	3015.5	-0.11653	0.053094	0.99376
0.85	-84.087	-3.0995e+05	3014.6	-0.11614	0.053192	0.99259
0.852	-84.046	-3.0995e+05	3013.9	-0.11702	0.053582	0.9923
0.854	-83.985	-3.0995e+05	3013.2	-0.1179	0.053973	0.99201
0.856	-83.962	-3.0995e+05	3012.6	-0.11878	0.054363	0.99171
0.858	-83.972	-3.0995e+05	3012	-0.11966	0.054754	0.99142
0.86	-83.993	-3.0995e+05	3011.5	-0.12054	0.055144	0.99113
0.862	-84.046	-3.0995e+05	3011.1	-0.12063	0.055437	0.99171
0.864	-84.096	-3.0995e+05	3010.7	-0.12073	0.05573	0.9923
0.866	-84.099	-3.0995e+05	3010.4	-0.12083	0.056022	0.99288
0.868	-84.077	-3.0996e+05	3010.1	-0.12093	0.056315	0.99347
0.87	-84.04	-3.0995e+05	3009.8	-0.12102	0.056608	0.99406
0.872	-83.995	-3.0995e+05	3009.7	-0.12112	0.05612	0.99357
0.874	-83.988	-3.0994e+05	3009.6	-0.12122	0.055632	0.99308
0.876	-84.012	-3.0995e+05	3009.5	-0.12132	0.055144	0.99259
0.878	-84.063	-3.0995e+05	3009.4	-0.12141	0.054656	0.9921
0.88	-84.143	-3.0995e+05	3009.3	-0.12151	0.054168	0.99162
0.882	-84.159	-3.0995e+05	3009.2	-0.12005	0.05329	0.99142
0.884	-84.126	-3.0995e+05	3009.2	-0.11858	0.052411	0.99123
0.886	-84.086	-3.0995e+05	3009.1	-0.11712	0.051533	0.99103
0.888	-84.031	-3.0995e+05	3008.9	-0.11566	0.050654	0.99084
0.89	-84.022	-3.0995e+05	3008.7	-0.11419	0.049776	0.99064
0.892	-84.058	-3.0995e+05	3008.4	-0.11419	0.050069	0.99074
0.894	-84.091	-3.0995e+05	3008.1	-0.11419	0.050362	0.99084
0.896	-84.153	-3.0995e+05	3007.8	-0.11419	0.050654	0.99093
0.898	-84.187	-3.0995e+05	3007.4	-0.11419	0.050947	0.99103
0.9	-84.161	-3.0994e+05	3007.1	-0.11419	0.05124	0.99113
0.902	-84.105	-3.0994e+05	3007	-0.1137	0.052021	0.99191
0.904	-84.058	-3.0995e+05	3006.8	-0.11322	0.052802	0.99269
0.906	-84.027	-3.0995e+05	3006.8	-0.11273	0.053582	0.99347
0.908	-84.022	-3.0995e+05	3006.8	-0.11224	0.054363	0.99425
0.91	-84.056	-3.0995e+05	3006.8	-0.11175	0.055144	0.99503
0.912	-84.119	-3.0995e+05	3006.7	-0.11175	0.054656	0.99523
0.914	-84.161	-3.0995e+05	3006.6	-0.11175	0.054168	0.99542
0.916	-84.145	-3.0995e+05	3006.4	-0.11175	0.05368	0.99562
0.918	-84.137	-3.0995e+05	3006.3	-0.11175	0.053192	0.99581
0.92	-84.101	-3.0995e+05	3006.1	-0.11175	0.052704	0.99601
0.922	-84.037	-3.0995e+05	3006	-0.11214	0.051728	0.99523
0.924	-84.018	-3.0995e+05	3005.9	-0.11253	0.050752	0.99445
0.926	-84.034	-3.0995e+05	3005.6	-0.11292	0.049776	0.99367
0.928	-84.114	-3.0995e+05	3005.3	-0.11331	0.0488	0.99288
0.93	-84.203	-3.0995e+05	3005	-0.1137	0.047824	0.9921
0.932	-84.206	-3.0995e+05	3004.7	-0.11312	0.048995	0.9923
0.934	-84.169	-3.0995e+05	3004.4	-0.11253	0.050166	0.99249
0.936	-84.115	-3.0995e+05	3004	-0.11195	0.051338	0.99269
0.938	-84.055	-3.0995e+05	3003.6	-0.11136	0.052509	0.99288
0.94	-84.034	-3.0995e+05	3003.3	-0.11078	0.05368	0.99308
0.942	-84.059	-3.0995e+05	3002.8	-0.11283	0.054168	0.99298
0.944	-84.104	-3.0995e+05	3002.4	-0.11488	0.054656	0.99288
0.946	-84.162	-3.0995e+05	3001.9	-0.11692	0.055144	0.99279
0.948	-84.194	-3.0995e+05	3001.5	-0.11897	0.055632	0.99269
0.95	-84.194	-3.0995e+05	3001.1	-0.12102	0.05612	0.99259
0.952	-84.165	-3.0994e+05	3000.7	-0.12093	0.05573	0.9923
0.954	-84.095	-3.0994e+05	3000.3	-0.12083	0.055339	0.99201
0.956	-84.044	-3.0994e+05	3000	-0.12073	0.054949	0.99171
0.958	-84.052	-3.0994e+05	2999.6	-0.12063	0.054558	0.99142
0.96	-84.087	-3.0995e+05	2999.3	-0.12054	0.054168	0.99113
0.962	-84.148	-3.0995e+05	2999	-0.11946	0.053094	0.99142
0.964	-84.208	-3.0995e+05	2998.7	-0.11839	0.052021	0.99171
0.966	-84.206	-3.0995e+05	2998.5	-0.11732	0.050947	0.99201
0.968	-84.172	-3.0995e+05	2998.3	-0.11624	0.049874	0.9923
0.97	-84.121	-3.0995e+05	2998	-0.11517	0.0488	0.99259
0.972	-84.056	-3.0995e+05	2997.8	-0.11683	0.049581	0.9921
0.974	-84.05	-3.0995e+05	2997.5	-0.11849	0.050362	0.99162
0.976	-84.086	-3.0996e+05	2997.3	-0.12015	0.051142	0.99113
0.978	-84.121	-3.0996e+05	2997.1	-0.1218	0.051923	0.99064
0.98	-84.179	-3.0996e+05	2996.8	-0.12346	0.052704	0.99015
0.982	-84.204	-3.0995e+05	2996.6	-0.12102	0.051923	0.99103
0.984	-84.163	-3.0995e+05	2996.3	-0.11858	0.051142	0.99191
0.986	-84.122	-3.0995e+05	2996.1	-0.11614	0.050362	0.99279
0.988	-84.056	-3.0994e+05	2995.9	-0.1137	0.049581	0.99367
0.99	-84.044	-3.0995e+05	2995.6	-0.11126	0.0488	0.99454
0.992	-84.07	-3.0995e+05	2995.4	-0.11322	0.049776	0.99376
0.994	-84.102	-3.0995e+05	2995.1	-0.11517	0.050752	0.99298
0.996	-84.185	-3.0995e+05	2994.8	-0.11712	0.051728	0.9922
0.998	-84.22	-3.0994e+05	2994.6	-0.11907	0.052704	0.99142
1	-84.185	-3.0994e+05	2994.3	-0.12102	0.05368	0.99064
1.002	-84.15	-3.0994e+05	2994	-0.11976	0.052314	0.99084
1.004	-84.08	-3.0995e+05	2993.7	-0.11849	0.050947	0.99103
1.006	-84.038	-3.0995e+05	2993.4	-0.11722	0.049581	0.99123
1.008	-84.058	-3.0996e+05	2993	-0.11595	0.048214	0.99142
1.01	-84.084	-3.0996e+05	2992.7	-0.11468	0.046848	0.99162
1.012	-84.153	-3.0995e+05	2992.4	-0.11448	0.046946	0.99142
1.014	-84.207	-3.0994e+05	2992.1	-0.11429	0.047043	0.99123
1.016	-84.192	-3.0994e+05	2991.8	-0.11409	0.047141	0.99103
1.018	-84.16	-3.0994e+05	2991.4	-0.1139	0.047238	0.99084
1.02	-84.114	-3.0995e+05	2991.1	-0.1137	0.047336	0.99064
1.022	-84.069	-3.0995e+05	2990.7	-0.11488	0.048214	0.99103
1.024	-84.073	-3.0995e+05	2990.4	-0.11605	0.049093	0.99142
1.026	-84.101	-3.0995e+05	2990	-0.11722	0.049971	0.99181
1.028	-84.14	-3.0995e+05	2989.6	-0.11839	0.05085	0.9922
1.03	-84.179	-3.0995e+05	2989.3	-0.11956	0.051728	0.99259
1.032	-84.2	-3.0995e+05	2989.2	-0.12024	0.051728	0.9923
1.034	-84.201	-3.0995e+05	2989	-0.12093	0.051728	0.99201
1.036	-84.17	-3.0995e+05	2988.9	-0.12161	0.051728	0.99171
1.038	-84.112	-3.0994e+05	2988.8	-0.12229	0.051728	0.99142
1.04	-84.088	-3.0994e+05	2988.7	-0.12298	0.051728	0.99113
1.042	-84.107	-3.0994e+05	2988.5	-0.1221	0.051826	0.99123
1.044	-84.142	-3.0994e+05	2988.4	-0.12122	0.051923	0.99132
1.046	-84.195	-3.0995e+05	2988.2	-0.12034	0.052021	0.99142
1.048	-84.224	-3.0994e+05	2988	-0.11946	0.052118	0.99152
1.05	-84.202	-3.0995e+05	2987.8	-0.11858	0.052216	0.99162
1.052	-84.168	-3.0995e+05	2987.5	-0.11819	0.051435	0.99142
1.054	-84.115	-3.0995e+05	2987.2	-0.1178	0.050654	0.99123
1.056	-84.071	-3.0995e+05	2986.9	-0.11741	0.049874	0.99103
1.058	-84.092	-3.0995e+05	2986.7	-0.11702	0.049093	0.99084
1.06	-84.138	-3.0995e+05	2986.5	-0.11663	0.048312	0.99064
1.062	-84.191	-3.0995e+05	2986.3	-0.11673	0.048995	0.99084
1.064	-84.246	-3.0995e+05	2986.2	-0.11683	0.049678	0.99103
1.066	-84.242	-3.0995e+05	2986	-0.11692	0.050362	0.99123
1.068	-84.214	-3.0995e+05	2985.8	-0.11702	0.051045	0.99142
1.07	-84.157	-3.0995e+05	2985.7	-0.11712	0.051728	0.99162
1.072	-84.085	-3.0995e+05	2985.5	-0.11624	0.051142	0.99181
1.074	-84.082	-3.0995e+05	2985.4	-0.11536	0.050557	0.99201
1.076	-84.13	-3.0995e+05	2985.3	-0.11448	0.049971	0.9922
1.078	-84.193	-3.0995e+05	2985.2	-0.11361	0.049386	0.9924
1.08	-84.259	-3.0996e+05	2985.1	-0.11273	0.0488	0.99259
1.082	-84.254	-3.0996e+05	2985	-0.1138	0.049386	0.99191
1.084	-84.222	-3.0996e+05	2984.8	-0.11488	0.049971	0.99123
1.086	-84.202	-3.0995e+05	2984.7	-0.11595	0.050557	0.99054
1.088	-84.139	-3.0995e+05	2984.5	-0.11702	0.051142	0.98986
1.09	-84.103	-3.0996e+05	2984.4	-0.1181	0.051728	0.98918
1.092	-84.116	-3.0996e+05	2984.2	-0.11663	0.05124	0.99035
1.094	-84.156	-3.0996e+05	2984.1	-0.11517	0.050752	0.99152
1.096	-84.226	-3.0996e+05	2983.9	-0.1137	0.050264	0.99269
1.098	-84.251	-3.0996e+05	2983.7	-0.11224	0.049776	0.99386
1.1	-84.238	-3.0996e+05	2983.5	-0.11078	0.049288	0.99503
1.102	-84.211	-3.0997e+05	2983.3	-0.11185	0.049288	0.99435
1.104	-84.146	-3.0997e+05	2983.1	-0.11292	0.049288	0.99367
1.106	-84.124	-3.0997e+05	2982.9	-0.114	0.049288	0.99298
1.108	-84.146	-3.0997e+05	2982.7	-0.11507	0.049288	0.9923
1.11	-84.168	-3.0997e+05	2982.5	-0.11614	0.049288	0.99162
1.112	-84.22	-3.0997e+05	2982.2	-0.11595	0.049678	0.99132
1.114	-84.266	-3.0997e+05	2982	-0.11575	0.050069	0.99103
1.116	-84.264	-3.0997e+05	2981.8	-0.11556	0.050459	0.99074
1.118	-84.236	-3.0998e+05	2981.6	-0.11536	0.05085	0.99044
1.12	-84.179	-3.0997e+05	2981.3	-0.11517	0.05124	0.99015
1.122	-84.126	-3.0997e+05	2981.1	-0.11458	0.052509	0.99181
1.124	-84.132	-3.0997e+05	2980.9	-0.114	0.053778	0.99347
1.126	-84.166	-3.0997e+05	2980.6	-0.11341	0.055046	0.99513
1.128	-84.204	-3.0998e+05	2980.3	-0.11283	0.056315	0.99679
1.13	-84.259	-3.0998e+05	2980	-0.11224	0.057584	0.99845
1.132	-84.277	-3.0998e+05	2979.8	-0.11165	0.056901	0.99737
1.134	-84.243	-3.0998e+05	2979.6	-0.11107	0.056218	0.9963
1.136	-84.187	-3.0998e+05	2979.4	-0.11048	0.055534	0.99523
1.138	-84.132	-3.0999e+05	2979.2	-0.1099	0.054851	0.99415
1.14	-84.127	-3.0999e+05	2979	-0.10931	0.054168	0.99308
1.142	-84.148	-3.0999e+05	2978.9	-0.11048	0.053485	0.99288
1.144	-84.176	-3.0999e+05	2978.8	-0.11165	0.052802	0.99269
1.146	-84.241	-3.0999e+05	2978.7	-0.11283	0.052118	0.99249
1.148	-84.284	-3.0999e+05	2978.7	-0.114	0.051435	0.9923
1.15	-84.269	-3.0999e+05	2978.6	-0.11517	0.050752	0.9921
1.152	-84.255	-3.0999e+05	2978.6	-0.11468	0.05124	0.99259
1.154	-84.207	-3.1e+05	2978.6	-0.11419	0.051728	0.99308
1.156	-84.17	-3.1e+05	2978.6	-0.1137	0.052216	0.99357
1.158	-84.23	-3.1e+05	2978.4	-0.11322	0.052704	0.99406
1.16	-84.319	-3.1e+05	2978.3	-0.11273	0.053192	0.99454
1.162	-84.448	-3.1e+05	2978.3	-0.11419	0.053387	0.99386
1.164	-84.588	-3.0999e+05	2978.2	-0.11566	0.053582	0.99318
1.166	-84.653	-3.0999e+05	2978.1	-0.11712	0.053778	0.99249
1.168	-84.708	-3.1e+05	2977.9	-0.11858	0.053973	0.99181
1.17	-84.733	-3.1e+05	2977.8	-0.12005	0.054168	0.99113
1.172	-84.727	-3.1001e+05	2977.7	-0.11936	0.052704	0.99142
1.174	-84.757	-3.1001e+05	2977.6	-0.11868	0.05124	0.99171
1.176	-84.789	-3.1e+05	2977.5	-0.118	0.049776	0.99201
1.178	-84.829	-3.1001e+05	2977.4	-0.11732	0.048312	0.9923
1.18	-84.879	-3.1001e+05	2977.3	-0.11663	0.046848	0.99259
1.182	-84.842	-3.1001e+05	2977.1	-0.11536	0.046848	0.99328
1.184	-84.763	-3.1e+05	2977	-0.11409	0.046848	0.99396
1.186	-84.594	-3.1e+05	2976.8	-0.11283	0.046848	0.99464
1.188	-84.343	-3.1001e+05	2976.7	-0.11156	0.046848	0.99532
1.19	-84.144	-3.1001e+05	2976.5	-0.11029	0.046848	0.99601
1.192	-84.028	-3.1001e+05	2976.3	-0.11058	0.046555	0.99601
1.194	-83.982	-3.1002e+05	2976.1	-0.11087	0.046262	0.99601
1.196	-83.994	-3.1002e+05	2975.9	-0.11117	0.04597	0.99601
1.198	-83.996	-3.1002e+05	2975.7	-0.11146	0.045677	0.99601
1.2	-83.958	-3.1002e+05	2975.5	-0.11175	0.045384	0.99601
1.202	-83.911	-3.1001e+05	2975.2	-0.11224	0.045872	0.99562
1.204	-83.854	-3.1001e+05	2974.9	-0.11273	0.04636	0.99523
1.206	-83.816	-3.1002e+05	2974.7	-0.11322	0.046848	0.99484
1.208	-83.819	-3.1002e+05	2974.4	-0.1137	0.047336	0.99445
1.21	-83.841	-3.1003e+05	2974.1	-0.11419	0.047824	0.99406
1.212	-83.892	-3.1003e+05	2973.7	-0.11351	0.0488	0.99376
1.214	-83.941	-3.1003e+05	2973.4	-0.11283	0.049776	0.99347
1.216	-83.944	-3.1003e+05	2973	-0.11214	0.050752	0.99318
1.218	-83.935	-3.1003e+05	2972.7	-0.11146	0.051728	0.99288
1.22	-83.912	-3.1004e+05	2972.3	-0.11078	0.052704	0.99259
1.222	-83.886	-3.1004e+05	2971.9	-0.11224	0.052899	0.9924
1.224	-83.912	-3.1004e+05	2971.5	-0.1137	0.053094	0.9922
1.226	-83.966	-3.1004e+05	2971.1	-0.11517	0.05329	0.99201
1.228	-84.032	-3.1005e+05	2970.8	-0.11663	0.053485	0.99181
1.23	-84.114	-3.1005e+05	2970.5	-0.1181	0.05368	0.99162
1.232	-84.147	-3.1005e+05	2970.6	-0.118	0.054558	0.9922
1.234	-84.165	-3.1005e+05	2970.6	-0.1179	0.055437	0.99279
1.236	-84.14	-3.1004e+05	2970.7	-0.1178	0.056315	0.99337
1.238	-84.086	-3.1004e+05	2970.7	-0.11771	0.057194	0.99396
1.24	-84.09	-3.1005e+05	2970.8	-0.11761	0.058072	0.99454
1.242	-84.138	-3.1005e+05	2970.9	-0.11761	0.057096	0.99406
1.244	-84.177	-3.1005e+05	2971	-0.11761	0.05612	0.99357
1.246	-84.263	-3.1005e+05	2971.1	-0.11761	0.055144	0.99308
1.248	-84.293	-3.1006e+05	2971.2	-0.11761	0.054168	0.99259
1.25	-84.27	-3.1006e+05	2971.3	-0.11761	0.053192	0.9921
1.252	-84.253	-3.1006e+05	2971.5	-0.11741	0.052997	0.9921
1.254	-84.198	-3.1006e+05	2971.6	-0.11722	0.052802	0.9921
1.256	-84.175	-3.1007e+05	2971.7	-0.11702	0.052606	0.9921
1.258	-84.189	-3.1007e+05	2971.8	-0.11683	0.052411	0.9921
1.26	-84.212	-3.1007e+05	2971.8	-0.11663	0.052216	0.9921
1.262	-84.285	-3.1008e+05	2971.8	-0.11653	0.052509	0.99298
1.264	-84.335	-3.1007e+05	2971.8	-0.11644	0.052802	0.99386
1.266	-84.319	-3.1007e+05	2971.8	-0.11634	0.053094	0.99474
1.268	-84.297	-3.1008e+05	2971.7	-0.11624	0.053387	0.99562
1.27	-84.24	-3.1008e+05	2971.6	-0.11614	0.05368	0.9965
1.272	-84.186	-3.1007e+05	2971.5	-0.11614	0.054266	0.99669
1.274	-84.192	-3.1008e+05	2971.4	-0.11614	0.054851	0.99689
1.276	-84.227	-3.1008e+05	2971.4	-0.11614	0.055437	0.99708
1.278	-84.292	-3.1008e+05	2971.3	-0.11614	0.056022	0.99728
1.28	-84.341	-3.1008e+05	2971.3	-0.11614	0.056608	0.99747
1.282	-84.33	-3.1009e+05	2971.3	-0.11653	0.056315	0.99679
1.284	-84.309	-3.1009e+05	2971.4	-0.11692	0.056022	0.99611
1.286	-84.278	-3.101e+05	2971.5	-0.11732	0.05573	0.99542
1.288	-84.221	-3.1009e+05	2971.7	-0.11771	0.055437	0.99474
1.29	-84.193	-3.1009e+05	2971.8	-0.1181	0.055144	0.99406
1.292	-84.211	-3.1009e+05	2972.3	-0.118	0.054461	0.99386
1.294	-84.259	-3.1009e+05	2972.7	-0.1179	0.053778	0.99367
1.296	-84.325	-3.101e+05	2973.4	-0.1178	0.053094	0.99347
1.298	-84.354	-3.101e+05	2974.2	-0.11771	0.052411	0.99328
1.3	-84.332	-3.1011e+05	2975.1	-0.11761	0.051728	0.99308
1.302	-84.294	-3.1011e+05	2976.6	-0.11751	0.052314	0.99357
1.304	-84.245	-3.1011e+05	2978	-0.11741	0.052899	0.99406
1.306	-84.219	-3.1011e+05	2980	-0.11732	0.053485	0.99454
1.308	-84.228	-3.1011e+05	2982.4	-0.11722	0.05407	0.99503
1.31	-84.256	-3.1011e+05	2984.8	-0.11712	0.054656	0.99552
1.312	-84.315	-3.1012e+05	2988.3	-0.11614	0.053485	0.99484
1.314	-84.369	-3.1012e+05	2991.8	-0.11517	0.052314	0.99415
1.316	-84.35	-3.1012e+05	2995.9	-0.11419	0.051142	0.99347
1.318	-84.321	-3.1012e+05	3000.6	-0.11322	0.049971	0.99279
1.32	-84.288	-3.1012e+05	3005.2	-0.11224	0.0488	0.9921
1.322	-84.235	-3.1012e+05	3010.7	-0.11195	0.048898	0.99191
1.324	-84.236	-3.1012e+05	3016.3	-0.11165	0.048995	0.99171
1.326	-84.265	-3.1012e+05	3022	-0.11136	0.049093	0.99152
1.328	-84.313	-3.1012e+05	3027.9	-0.11107	0.04919	0.99132
1.33	-84.379	-3.1012e+05	3033.9	-0.11078	0.049288	0.99113
1.332	-84.368	-3.1012e+05	3040.1	-0.11068	0.048995	0.99181
1.334	-84.368	-3.1012e+05	3046.4	-0.11058	0.048702	0.99249
1.336	-84.34	-3.1012e+05	3052.6	-0.11048	0.04841	0.99318
1.338	-84.254	-3.1012e+05	3058.7	-0.11039	0.048117	0.99386
1.34	-84.22	-3.1012e+05	3064.9	-0.11029	0.047824	0.99454
1.342	-84.246	-3.1012e+05	3070.7	-0.11078	0.047141	0.99454
1.344	-84.297	-3.1012e+05	3076.5	-0.11126	0.046458	0.99454
1.346	-84.382	-3.1012e+05	3082.1	-0.11175	0.045774	0.99454
1.348	-84.407	-3.1012e+05	3087.5	-0.11224	0.045091	0.99454
1.35	-84.387	-3.1012e+05	3092.8	-0.11273	0.044408	0.99454
1.352	-84.343	-3.1012e+05	3097.6	-0.11204	0.04597	0.99425
1.354	-84.27	-3.1012e+05	3102.4	-0.11136	0.047531	0.99396
1.356	-84.236	-3.1012e+05	3106.8	-0.11068	0.049093	0.99367
1.358	-84.263	-3.1011e+05	3110.8	-0.11	0.050654	0.99337
1.36	-84.295	-3.1011e+05	3114.9	-0.10931	0.052216	0.99308
1.362	-84.358	-3.101e+05	3118.2	-0.1097	0.052314	0.99347
1.364	-84.409	-3.101e+05	3121.6	-0.11009	0.052411	0.99386
1.366	-84.407	-3.101e+05	3124.5	-0.11048	0.052509	0.99425
1.368	-84.379	-3.1009e+05	3127.1	-0.11087	0.052606	0.99464
1.37	-84.314	-3.1009e+05	3129.7	-0.11126	0.052704	0.99503
1.372	-84.253	-3.1007e+05	3131.7	-0.11136	0.053387	0.99591
1.374	-84.254	-3.1006e+05	3133.6	-0.11146	0.05407	0.99679
1.376	-84.304	-3.1006e+05	3135.2	-0.11156	0.054754	0.99767
1.378	-84.372	-3.1005e+05	3136.5	-0.11165	0.055437	0.99855
1.38	-84.432	-3.1005e+05	3137.7	-0.11175	0.05612	0.99942
1.382	-84.449	-3.1004e+05	3138.5	-0.11312	0.056022	0.99845
1.384	-84.421	-3.1003e+05	3139.4	-0.11448	0.055925	0.99747
1.386	-84.37	-3.1003e+05	3140	-0.11585	0.055827	0.9965
1.388	-84.305	-3.1002e+05	3140.5	-0.11722	0.05573	0.99552
1.39	-84.278	-3.1002e+05	3140.9	-0.11858	0.055632	0.99454
1.392	-84.314	-3.1001e+05	3141.1	-0.11868	0.05573	0.99445
1.394	-84.367	-3.1e+05	3141.2	-0.11878	0.055827	0.99435
1.396	-84.437	-3.1e+05	3141.3	-0.11888	0.055925	0.99425
1.398	-84.473	-3.0999e+05	3141.2	-0.11897	0.056022	0.99415
1.4	-84.446	-3.0998e+05	3141.1	-0.11907	0.05612	0.99406
1.402	-84.406	-3.0997e+05	3141	-0.11995	0.057096	0.99376
1.404	-84.349	-3.0997e+05	3140.8	-0.12083	0.058072	0.99347
1.406	-84.308	-3.0996e+05	3140.6	-0.12171	0.059048	0.99318
1.408	-84.336	-3.0995e+05	3140.3	-0.12259	0.060024	0.99288
1.41	-84.376	-3.0994e+05	3140	-0.12346	0.061	0.99259
1.412	-84.433	-3.0993e+05	3139.6	-0.12424	0.06139	0.9921
1.414	-84.485	-3.0992e+05	3139.2	-0.12503	0.061781	0.99162
1.416	-84.467	-3.0992e+05	3138.7	-0.12581	0.062171	0.99113
1.418	-84.445	-3.0991e+05	3138.2	-0.12659	0.062562	0.99064
1.42	-84.393	-3.099e+05	3137.8	-0.12737	0.062952	0.99015
1.422	-84.326	-3.099e+05	3137.2	-0.12698	0.06305	0.99005
1.424	-84.323	-3.0989e+05	3136.6	-0.12659	0.063147	0.98996
1.426	-84.349	-3.0988e+05	3135.9	-0.1262	0.063245	0.98986
1.428	-84.41	-3.0988e+05	3135.3	-0.12581	0.063342	0.98976
1.43	-84.475	-3.0987e+05	3134.7	-0.12542	0.06344	0.98966
1.432	-84.483	-3.0985e+05	3134	-0.12327	0.061195	0.99064
1.434	-84.455	-3.0984e+05	3133.3	-0.12112	0.05895	0.99162
1.436	-84.393	-3.0983e+05	3132.6	-0.11897	0.056706	0.99259
1.438	-84.311	-3.0983e+05	3131.8	-0.11683	0.054461	0.99357
1.44	-84.294	-3.0983e+05	3131.1	-0.11468	0.052216	0.99454
1.442	-84.324	-3.0982e+05	3130.5	-0.11527	0.052509	0.99396
1.444	-84.374	-3.0981e+05	3129.8	-0.11585	0.052802	0.99337
1.446	-84.437	-3.098e+05	3129.2	-0.11644	0.053094	0.99279
1.448	-84.452	-3.098e+05	3128.7	-0.11702	0.053387	0.9922
1.45	-84.43	-3.0979e+05	3128.1	-0.11761	0.05368	0.99162
1.452	-84.401	-3.0979e+05	3127.5	-0.11683	0.052411	0.99181
1.454	-84.343	-3.0978e+05	3126.9	-0.11605	0.051142	0.99201
1.456	-84.294	-3.0977e+05	3126.3	-0.11527	0.049874	0.9922
1.458	-84.295	-3.0976e+05	3125.8	-0.11448	0.048605	0.9924
1.46	-84.323	-3.0976e+05	3125.2	-0.1137	0.047336	0.99259
1.462	-84.384	-3.0976e+05	3124.6	-0.11351	0.047238	0.99259
1.464	-84.446	-3.0976e+05	3123.9	-0.11331	0.047141	0.99259
1.466	-84.446	-3.0975e+05	3123.3	-0.11312	0.047043	0.99259
1.468	-84.396	-3.0974e+05	3122.7	-0.11292	0.046946	0.99259
1.47	-84.33	-3.0973e+05	3122	-0.11273	0.046848	0.99259
1.472	-84.282	-3.0973e+05	3121.3	-0.11	0.04636	0.99337
1.474	-84.282	-3.0972e+05	3120.6	-0.10726	0.045872	0.99415
1.476	-84.308	-3.0971e+05	3120	-0.10453	0.045384	0.99493
1.478	-84.347	-3.0971e+05	3119.4	-0.1018	0.044896	0.99572
1.48	-84.393	-3.097e+05	3118.8	-0.099064	0.044408	0.9965
1.482	-84.41	-3.097e+05	3118.5	-0.10004	0.045286	0.99581
1.484	-84.399	-3.0969e+05	3118.1	-0.10102	0.046165	0.99513
1.486	-84.369	-3.0969e+05	3117.8	-0.10199	0.047043	0.99445
1.488	-84.293	-3.0968e+05	3117.5	-0.10297	0.047922	0.99376
1.49	-84.257	-3.0968e+05	3117.2	-0.10394	0.0488	0.99308
1.492	-84.281	-3.0967e+05	3116.7	-0.10512	0.049581	0.99288
1.494	-84.325	-3.0967e+05	3116.3	-0.10629	0.050362	0.99269
1.496	-84.394	-3.0966e+05	3115.8	-0.10746	0.051142	0.99249
1.498	-84.424	-3.0965e+05	3115.2	-0.10863	0.051923	0.9923
1.5	-84.397	-3.0965e+05	3114.7	-0.1098	0.052704	0.9921
1.502	-84.374	-3.0965e+05	3114	-0.1099	0.05163	0.9921
1.504	-84.301	-3.0965e+05	3113.4	-0.11	0.050557	0.9921
1.506	-84.255	-3.0964e+05	3112.6	-0.11009	0.049483	0.9921
1.508	-84.275	-3.0964e+05	3111.7	-0.11019	0.04841	0.9921
1.51	-84.301	-3.0963e+05	3110.8	-0.11029	0.047336	0.9921
1.512	-84.377	-3.0963e+05	3109.7	-0.11048	0.047336	0.9922
1.514	-84.446	-3.0962e+05	3108.7	-0.11068	0.047336	0.9923
1.516	-84.43	-3.0962e+05	3107.6	-0.11087	0.047336	0.9924
1.518	-84.389	-3.0962e+05	3106.5	-0.11107	0.047336	0.99249
1.52	-84.327	-3.0962e+05	3105.3	-0.11126	0.047336	0.99259
1.522	-84.268	-3.0962e+05	3103.9	-0.11263	0.048507	0.99269
1.524	-84.271	-3.0962e+05	3102.5	-0.114	0.049678	0.99279
1.526	-84.306	-3.0962e+05	3101.1	-0.11536	0.05085	0.99288
1.528	-84.38	-3.0962e+05	3099.5	-0.11673	0.052021	0.99298
1.53	-84.448	-3.0961e+05	3097.9	-0.1181	0.053192	0.99308
1.532	-84.459	-3.0961e+05	3096.3	-0.11858	0.053875	0.99337
1.534	-84.43	-3.0961e+05	3094.7	-0.11907	0.054558	0.99367
1.536	-84.364	-3.0961e+05	3093	-0.11956	0.055242	0.99396
1.538	-84.295	-3.0961e+05	3091.3	-0.12005	0.055925	0.99425
1.54	-84.285	-3.0961e+05	3089.5	-0.12054	0.056608	0.99454
1.542	-84.317	-3.0961e+05	3087.9	-0.12005	0.05612	0.99454
1.544	-84.37	-3.0961e+05	3086.2	-0.11956	0.055632	0.99454
1.546	-84.437	-3.0961e+05	3084.6	-0.11907	0.055144	0.99454
1.548	-84.459	-3.096e+05	3083	-0.11858	0.054656	0.99454
1.55	-84.431	-3.096e+05	3081.4	-0.1181	0.054168	0.99454
1.552	-84.392	-3.096e+05	3079.9	-0.11829	0.054851	0.99552
1.554	-84.333	-3.096e+05	3078.4	-0.11849	0.055534	0.9965
1.556	-84.284	-3.096e+05	3077	-0.11868	0.056218	0.99747
1.558	-84.301	-3.0959e+05	3075.7	-0.11888	0.056901	0.99845
1.56	-84.349	-3.0959e+05	3074.4	-0.11907	0.057584	0.99942
1.562	-84.423	-3.0959e+05	3073.2	-0.11936	0.057194	0.99816
1.564	-84.479	-3.0959e+05	3072	-0.11966	0.056803	0.99689
1.566	-84.456	-3.0959e+05	3070.9	-0.11995	0.056413	0.99562
1.568	-84.412	-3.0958e+05	3069.9	-0.12024	0.056022	0.99435
1.57	-84.363	-3.0958e+05	3068.8	-0.12054	0.055632	0.99308
1.572	-84.305	-3.0958e+05	3068	-0.11995	0.055827	0.99396
1.574	-84.307	-3.0958e+05	3067.1	-0.11936	0.056022	0.99484
1.576	-84.342	-3.0959e+05	3066.4	-0.11878	0.056218	0.99572
1.578	-84.386	-3.0959e+05	3065.9	-0.11819	0.056413	0.99659
1.58	-84.477	-3.0958e+05	3065.5	-0.11761	0.056608	0.99747
1.582	-84.504	-3.0958e+05	3065.3	-0.11644	0.054949	0.99659
1.584	-84.452	-3.0959e+05	3065.1	-0.11527	0.05329	0.99572
1.586	-84.413	-3.0958e+05	3065	-0.11409	0.05163	0.99484
1.588	-84.33	-3.0958e+05	3065	-0.11292	0.049971	0.99396
1.59	-84.304	-3.0958e+05	3065	-0.11175	0.048312	0.99308
1.592	-84.346	-3.0958e+05	3065.3	-0.11185	0.048702	0.99318
1.594	-84.388	-3.0959e+05	3065.5	-0.11195	0.049093	0.99328
1.596	-84.461	-3.0959e+05	3065.8	-0.11204	0.049483	0.99337
1.598	-84.483	-3.0959e+05	3066	-0.11214	0.049874	0.99347
1.6	-84.453	-3.096e+05	3066.3	-0.11224	0.050264	0.99357
1.602	-84.422	-3.096e+05	3066.5	-0.11351	0.050459	0.99328
1.604	-84.357	-3.096e+05	3066.8	-0.11478	0.050654	0.99298
1.606	-84.321	-3.096e+05	3067	-0.11605	0.05085	0.99269
1.608	-84.334	-3.096e+05	3067.3	-0.11732	0.051045	0.9924
1.61	-84.363	-3.096e+05	3067.5	-0.11858	0.05124	0.9921
1.612	-84.432	-3.096e+05	3067.7	-0.1181	0.050654	0.9922
1.614	-84.475	-3.096e+05	3067.9	-0.11761	0.050069	0.9923
1.616	-84.471	-3.096e+05	3068	-0.11712	0.049483	0.9924
1.618	-84.449	-3.096e+05	3068.2	-0.11663	0.048898	0.99249
1.62	-84.385	-3.096e+05	3068.3	-0.11614	0.048312	0.99259
1.622	-84.323	-3.096e+05	3068.3	-0.114	0.049971	0.99357
1.624	-84.321	-3.096e+05	3068.3	-0.11185	0.05163	0.99454
1.626	-84.349	-3.0961e+05	3068.3	-0.1097	0.05329	0.99552
1.628	-84.405	-3.0961e+05	3068.2	-0.10756	0.054949	0.9965
1.63	-84.464	-3.0961e+05	3068.2	-0.10541	0.056608	0.99747
1.632	-84.476	-3.0963e+05	3068.1	-0.10648	0.05651	0.99786
1.634	-84.454	-3.0963e+05	3068	-0.10756	0.056413	0.99825
1.636	-84.413	-3.0963e+05	3067.8	-0.10863	0.056315	0.99864
1.638	-84.358	-3.0963e+05	3067.6	-0.1097	0.056218	0.99903
1.64	-84.333	-3.0963e+05	3067.4	-0.11078	0.05612	0.99942
1.642	-84.356	-3.0963e+05	3067.2	-0.11029	0.056706	0.99972
1.644	-84.404	-3.0963e+05	3067	-0.1098	0.057291	1
1.646	-84.464	-3.0963e+05	3066.7	-0.10931	0.057877	1.0003
1.648	-84.491	-3.0964e+05	3066.4	-0.10882	0.058462	1.0006
1.65	-84.467	-3.0964e+05	3066.1	-0.10834	0.059048	1.0009
1.652	-84.424	-3.0964e+05	3065.7	-0.10824	0.05895	0.99972
1.654	-84.358	-3.0964e+05	3065.3	-0.10814	0.058853	0.99855
1.656	-84.315	-3.0964e+05	3064.9	-0.10804	0.058755	0.99737
1.658	-84.34	-3.0964e+05	3064.5	-0.10795	0.058658	0.9962
1.66	-84.382	-3.0964e+05	3064.1	-0.10785	0.05856	0.99503
1.662	-84.431	-3.0964e+05	3063.6	-0.10863	0.057584	0.99523
1.664	-84.48	-3.0963e+05	3063.2	-0.10941	0.056608	0.99542
1.666	-84.474	-3.0963e+05	3062.7	-0.11019	0.055632	0.99562
1.668	-84.444	-3.0963e+05	3062.3	-0.11097	0.054656	0.99581
1.67	-84.396	-3.0962e+05	3061.9	-0.11175	0.05368	0.99601
1.672	-84.327	-3.0962e+05	3061.4	-0.11156	0.053192	0.99591
1.674	-84.329	-3.0962e+05	3060.9	-0.11136	0.052704	0.99581
1.676	-84.36	-3.0962e+05	3060.4	-0.11117	0.052216	0.99572
1.678	-84.419	-3.0963e+05	3059.9	-0.11097	0.051728	0.99562
1.68	-84.497	-3.0964e+05	3059.4	-0.11078	0.05124	0.99552
1.682	-84.498	-3.0965e+05	3058.9	-0.11146	0.050752	0.99552
1.684	-84.478	-3.0965e+05	3058.5	-0.11214	0.050264	0.99552
1.686	-84.417	-3.0965e+05	3058.1	-0.11283	0.049776	0.99552
1.688	-84.336	-3.0964e+05	3057.7	-0.11351	0.049288	0.99552
1.69	-84.337	-3.0965e+05	3057.3	-0.11419	0.0488	0.99552
1.692	-84.371	-3.0965e+05	3056.9	-0.11517	0.049971	0.99581
1.694	-84.413	-3.0965e+05	3056.4	-0.11614	0.051142	0.99611
1.696	-84.48	-3.0964e+05	3056.1	-0.11712	0.052314	0.9964
1.698	-84.497	-3.0964e+05	3055.8	-0.1181	0.053485	0.99669
1.7	-84.505	-3.0965e+05	3055.5	-0.11907	0.054656	0.99698
1.702	-84.466	-3.0966e+05	3055.3	-0.11917	0.054656	0.9964
1.704	-84.361	-3.0966e+05	3055.2	-0.11927	0.054656	0.99581
1.706	-84.313	-3.0966e+05	3055	-0.11936	0.054656	0.99523
1.708	-84.334	-3.0966e+05	3054.9	-0.11946	0.054656	0.99464
1.71	-84.394	-3.0966e+05	3054.8	-0.11956	0.054656	0.99406
1.712	-84.47	-3.0966e+05	3054.6	-0.11956	0.054754	0.99415
1.714	-84.511	-3.0966e+05	3054.5	-0.11956	0.054851	0.99425
1.716	-84.5	-3.0967e+05	3054.4	-0.11956	0.054949	0.99435
1.718	-84.465	-3.0968e+05	3054.2	-0.11956	0.055046	0.99445
1.72	-84.412	-3.0967e+05	3054	-0.11956	0.055144	0.99454
1.722	-84.364	-3.0967e+05	3053.8	-0.11985	0.055339	0.99415
1.724	-84.36	-3.0968e+05	3053.6	-0.12015	0.055534	0.99376
1.726	-84.388	-3.0968e+05	3053.5	-0.12044	0.05573	0.99337
1.728	-84.442	-3.0968e+05	3053.3	-0.12073	0.055925	0.99298
1.73	-84.504	-3.0968e+05	3053.1	-0.12102	0.05612	0.99259
1.732	-84.521	-3.0968e+05	3052.9	-0.12034	0.055242	0.9924
1.734	-84.492	-3.0968e+05	3052.7	-0.11966	0.054363	0.9922
1.736	-84.44	-3.0969e+05	3052.5	-0.11897	0.053485	0.99201
1.738	-84.365	-3.0969e+05	3052.3	-0.11829	0.052606	0.99181
1.74	-84.343	-3.097e+05	3052.1	-0.11761	0.051728	0.99162
1.742	-84.374	-3.097e+05	3051.8	-0.11732	0.052216	0.9922
1.744	-84.419	-3.097e+05	3051.5	-0.11702	0.052704	0.99279
1.746	-84.487	-3.0971e+05	3051.2	-0.11673	0.053192	0.99337
1.748	-84.514	-3.0971e+05	3051	-0.11644	0.05368	0.99396
1.75	-84.494	-3.0971e+05	3050.7	-0.11614	0.054168	0.99454
1.752	-84.457	-3.097e+05	3050.3	-0.11624	0.053192	0.99376
1.754	-84.379	-3.097e+05	3050	-0.11634	0.052216	0.99298
1.756	-84.343	-3.097e+05	3049.6	-0.11644	0.05124	0.9922
1.758	-84.375	-3.0971e+05	3049.2	-0.11653	0.050264	0.99142
1.76	-84.392	-3.0971e+05	3048.8	-0.11663	0.049288	0.99064
1.762	-84.453	-3.0971e+05	3048.4	-0.11653	0.049776	0.99103
1.764	-84.507	-3.0971e+05	3048	-0.11644	0.050264	0.99142
1.766	-84.495	-3.0971e+05	3047.6	-0.11634	0.050752	0.99181
1.768	-84.483	-3.0972e+05	3047.1	-0.11624	0.05124	0.9922
1.77	-84.409	-3.0973e+05	3046.6	-0.11614	0.051728	0.99259
1.772	-84.345	-3.0972e+05	3046.1	-0.11614	0.052411	0.99288
1.774	-84.354	-3.0972e+05	3045.7	-0.11614	0.053094	0.99318
1.776	-84.379	-3.0973e+05	3045.2	-0.11614	0.053778	0.99347
1.778	-84.429	-3.0974e+05	3044.8	-0.11614	0.054461	0.99376
1.78	-84.492	-3.0975e+05	3044.4	-0.11614	0.055144	0.99406
1.782	-84.5	-3.0975e+05	3044	-0.11566	0.054558	0.99406
1.784	-84.479	-3.0975e+05	3043.7	-0.11517	0.053973	0.99406
1.786	-84.428	-3.0975e+05	3043.3	-0.11468	0.053387	0.99406
1.788	-84.362	-3.0975e+05	3043	-0.11419	0.052802	0.99406
1.79	-84.345	-3.0975e+05	3042.7	-0.1137	0.052216	0.99406
1.792	-84.356	-3.0975e+05	3042.3	-0.11409	0.052216	0.99308
1.794	-84.393	-3.0976e+05	3041.9	-0.11448	0.052216	0.9921
1.796	-84.474	-3.0976e+05	3041.4	-0.11488	0.052216	0.99113
1.798	-84.512	-3.0977e+05	3041	-0.11527	0.052216	0.99015
1.8	-84.485	-3.0977e+05	3040.5	-0.11566	0.052216	0.98918
1.802	-84.434	-3.0977e+05	3040	-0.114	0.053485	0.99044
1.804	-84.37	-3.0977e+05	3039.5	-0.11234	0.054754	0.99171
1.806	-84.339	-3.0977e+05	3039	-0.11068	0.056022	0.99298
1.808	-84.356	-3.0977e+05	3038.4	-0.10902	0.057291	0.99425
1.81	-84.388	-3.0977e+05	3037.9	-0.10736	0.05856	0.99552
1.812	-84.447	-3.0977e+05	3037.4	-0.10795	0.057779	0.99532
1.814	-84.497	-3.0977e+05	3036.8	-0.10853	0.056998	0.99513
1.816	-84.488	-3.0978e+05	3036.3	-0.10912	0.056218	0.99493
1.818	-84.455	-3.0979e+05	3035.7	-0.1097	0.055437	0.99474
1.82	-84.403	-3.098e+05	3035.2	-0.11029	0.054656	0.99454
1.822	-84.351	-3.098e+05	3034.9	-0.1096	0.05612	0.99464
1.824	-84.346	-3.098e+05	3034.5	-0.10892	0.057584	0.99474
1.826	-84.379	-3.098e+05	3034.2	-0.10824	0.059048	0.99484
1.828	-84.443	-3.0981e+05	3034	-0.10756	0.060512	0.99493
1.83	-84.507	-3.0981e+05	3033.8	-0.10687	0.061976	0.99503
1.832	-84.512	-3.0982e+05	3033.6	-0.10843	0.060122	0.99445
1.834	-84.48	-3.0982e+05	3033.4	-0.11	0.058267	0.99386
1.836	-84.43	-3.0982e+05	3033.2	-0.11156	0.056413	0.99328
1.838	-84.353	-3.0982e+05	3033.1	-0.11312	0.054558	0.99269
1.84	-84.335	-3.0982e+05	3032.9	-0.11468	0.052704	0.9921
1.842	-84.361	-3.0982e+05	3032.7	-0.11448	0.052606	0.99201
1.844	-84.409	-3.0982e+05	3032.5	-0.11429	0.052509	0.99191
1.846	-84.512	-3.0982e+05	3032.3	-0.11409	0.052411	0.99181
1.848	-84.533	-3.0982e+05	3032.1	-0.1139	0.052314	0.99171
1.85	-84.484	-3.0983e+05	3031.9	-0.1137	0.052216	0.99162
1.852	-84.457	-3.0984e+05	3031.7	-0.11507	0.052802	0.9924
1.854	-84.405	-3.0985e+05	3031.6	-0.11644	0.053387	0.99318
1.856	-84.384	-3.0985e+05	3031.4	-0.1178	0.053973	0.99396
1.858	-84.394	-3.0985e+05	3031.2	-0.11917	0.054558	0.99474
1.86	-84.412	-3.0984e+05	3031	-0.12054	0.055144	0.99552
1.862	-84.494	-3.0984e+05	3030.7	-0.11897	0.054558	0.99503
1.864	-84.544	-3.0985e+05	3030.5	-0.11741	0.053973	0.99454
1.866	-84.525	-3.0986e+05	3030.2	-0.11585	0.053387	0.99406
1.868	-84.49	-3.0987e+05	3029.9	-0.11429	0.052802	0.99357
1.87	-84.424	-3.0987e+05	3029.5	-0.11273	0.052216	0.99308
1.872	-84.364	-3.0987e+05	3029.2	-0.11341	0.052606	0.99298
1.874	-84.386	-3.0987e+05	3028.8	-0.11409	0.052997	0.99288
1.876	-84.454	-3.0988e+05	3028.5	-0.11478	0.053387	0.99279
1.878	-84.562	-3.0988e+05	3028.2	-0.11546	0.053778	0.99269
1.88	-84.658	-3.0988e+05	3027.9	-0.11614	0.054168	0.99259
1.882	-84.706	-3.0988e+05	3027.6	-0.11605	0.052899	0.99191
1.884	-84.763	-3.0988e+05	3027.2	-0.11595	0.05163	0.99123
1.886	-84.814	-3.0989e+05	3026.9	-0.11585	0.050362	0.99054
1.888	-84.84	-3.099e+05	3026.5	-0.11575	0.049093	0.98986
1.89	-84.908	-3.099e+05	3026.2	-0.11566	0.047824	0.98918
1.892	-85.015	-3.099e+05	3025.8	-0.11585	0.048995	0.98957
1.894	-85.123	-3.099e+05	3025.5	-0.11605	0.050166	0.98996
1.896	-85.224	-3.099e+05	3025.1	-0.11624	0.051338	0.99035
1.898	-85.259	-3.0991e+05	3024.7	-0.11644	0.052509	0.99074
1.9	-85.223	-3.0992e+05	3024.3	-0.11663	0.05368	0.99113
1.902	-85.17	-3.0992e+05	3023.9	-0.11653	0.053582	0.99181
1.904	-85.076	-3.0993e+05	3023.5	-0.11644	0.053485	0.99249
1.906	-84.959	-3.0993e+05	3023.1	-0.11634	0.053387	0.99318
1.908	-84.826	-3.0993e+05	3022.6	-0.11624	0.05329	0.99386
1.91	-84.636	-3.0993e+05	3022.1	-0.11614	0.053192	0.99454
1.912	-84.479	-3.0993e+05	3021.6	-0.11595	0.053094	0.99474
1.914	-84.376	-3.0993e+05	3021.2	-0.11575	0.052997	0.99493
1.916	-84.28	-3.0994e+05	3020.7	-0.11556	0.052899	0.99513
1.918	-84.208	-3.0994e+05	3020.2	-0.11536	0.052802	0.99532
1.92	-84.106	-3.0994e+05	3019.7	-0.11517	0.052704	0.99552
1.922	-83.995	-3.0995e+05	3019.3	-0.11566	0.05368	0.99562
1.924	-83.967	-3.0995e+05	3018.9	-0.11614	0.054656	0.99572
1.926	-83.993	-3.0996e+05	3018.5	-0.11663	0.055632	0.99581
1.928	-84.062	-3.0996e+05	3018	-0.11712	0.056608	0.99591
1.93	-84.16	-3.0996e+05	3017.5	-0.11761	0.057584	0.99601
1.932	-84.169	-3.0997e+05	3017	-0.11839	0.057486	0.99532
1.934	-84.141	-3.0997e+05	3016.5	-0.11917	0.057389	0.99464
1.936	-84.107	-3.0998e+05	3016	-0.11995	0.057291	0.99396
1.938	-84.04	-3.0998e+05	3015.6	-0.12073	0.057194	0.99328
1.94	-84.075	-3.0998e+05	3015.1	-0.12151	0.057096	0.99259
1.942	-84.146	-3.0999e+05	3014.8	-0.11976	0.055534	0.99308
1.944	-84.21	-3.0999e+05	3014.5	-0.118	0.053973	0.99357
1.946	-84.313	-3.0999e+05	3014.2	-0.11624	0.052411	0.99406
1.948	-84.353	-3.0999e+05	3013.8	-0.11448	0.05085	0.99454
1.95	-84.349	-3.0999e+05	3013.4	-0.11273	0.049288	0.99503
1.952	-84.342	-3.0999e+05	3013	-0.11341	0.049483	0.99435
1.954	-84.303	-3.1e+05	3012.6	-0.11409	0.049678	0.99367
1.956	-84.294	-3.1e+05	3012.2	-0.11478	0.049874	0.99298
1.958	-84.328	-3.1001e+05	3011.8	-0.11546	0.050069	0.9923
1.96	-84.388	-3.1001e+05	3011.3	-0.11614	0.050264	0.99162
1.962	-84.481	-3.1002e+05	3011	-0.11653	0.051142	0.99191
1.964	-84.538	-3.1003e+05	3010.7	-0.11692	0.052021	0.9922
1.966	-84.533	-3.1004e+05	3010.5	-0.11732	0.052899	0.99249
1.968	-84.496	-3.1004e+05	3010.2	-0.11771	0.053778	0.99279
1.97	-84.438	-3.1004e+05	3009.9	-0.1181	0.054656	0.99308
1.972	-84.395	-3.1004e+05	3009.6	-0.11849	0.055242	0.99367
1.974	-84.404	-3.1004e+05	3009.3	-0.11888	0.055827	0.99425
1.976	-84.446	-3.1004e+05	3008.9	-0.11927	0.056413	0.99484
1.978	-84.509	-3.1004e+05	3008.6	-0.11966	0.056998	0.99542
1.98	-84.566	-3.1004e+05	3008.2	-0.12005	0.057584	0.99601
1.982	-84.578	-3.1005e+05	3007.9	-0.11878	0.056413	0.99523
1.984	-84.552	-3.1006e+05	3007.7	-0.11751	0.055242	0.99445
1.986	-84.501	-3.1006e+05	3007.3	-0.11624	0.05407	0.99367
1.988	-84.438	-3.1006e+05	3007	-0.11497	0.052899	0.99288
1.99	-84.432	-3.1006e+05	3006.7	-0.1137	0.051728	0.9921
1.992	-84.467	-3.1007e+05	3006.4	-0.1137	0.052118	0.99269
1.994	-84.492	-3.1007e+05	3006.1	-0.1137	0.052509	0.99328
1.996	-84.555	-3.1007e+05	3005.8	-0.1137	0.052899	0.99386
1.998	-84.592	-3.1007e+05	3005.5	-0.1137	0.05329	0.99445
2	-84.557	-3.1008e+05	3005.2	-0.1137	0.05368	0.99503
2.002	-84.523	-3.1008e+05	3004.9	-0.11448	0.05368	0.99415
2.004	-84.481	-3.1009e+05	3004.7	-0.11527	0.05368	0.99328
2.006	-84.45	-3.1009e+05	3004.5	-0.11605	0.05368	0.9924
2.008	-84.47	-3.101e+05	3004.3	-0.11683	0.05368	0.99152
2.01	-84.499	-3.101e+05	3004.2	-0.11761	0.05368	0.99064
2.012	-84.577	-3.101e+05	3004.2	-0.11761	0.053094	0.99035
2.014	-84.642	-3.101e+05	3004.2	-0.11761	0.052509	0.99005
2.016	-84.615	-3.101e+05	3004.2	-0.11761	0.051923	0.98976
2.018	-84.573	-3.101e+05	3004.4	-0.11761	0.051338	0.98947
2.02	-84.516	-3.1011e+05	3004.5	-0.11761	0.050752	0.98918
2.022	-84.46	-3.1012e+05	3004.8	-0.11614	0.050654	0.98976
2.024	-84.477	-3.1012e+05	3005.2	-0.11468	0.050557	0.99035
2.026	-84.494	-3.1012e+05	3005.7	-0.11322	0.050459	0.99093
2.028	-84.55	-3.1012e+05	3006.3	-0.11175	0.050362	0.99152
2.03	-84.616	-3.1013e+05	3007	-0.11029	0.050264	0.9921
2.032	-84.616	-3.1014e+05	3008.1	-0.1099	0.050362	0.99249
2.034	-84.587	-3.1014e+05	3009.3	-0.10951	0.050459	0.99288
2.036	-84.534	-3.1015e+05	3010.8	-0.10912	0.050557	0.99328
2.038	-84.469	-3.1015e+05	3012.7	-0.10873	0.050654	0.99367
2.04	-84.447	-3.1015e+05	3014.6	-0.10834	0.050752	0.99406
2.042	-84.462	-3.1015e+05	3017.3	-0.10941	0.050264	0.99328
2.044	-84.532	-3.1016e+05	3020.1	-0.11048	0.049776	0.99249
2.046	-84.625	-3.1016e+05	3023.2	-0.11156	0.049288	0.99171
2.048	-84.643	-3.1016e+05	3026.8	-0.11263	0.0488	0.99093
2.05	-84.605	-3.1016e+05	3030.3	-0.1137	0.048312	0.99015
2.052	-84.563	-3.1016e+05	3034.5	-0.11263	0.0488	0.99084
2.054	-84.504	-3.1016e+05	3038.7	-0.11156	0.049288	0.99152
2.056	-84.471	-3.1017e+05	3043.1	-0.11048	0.049776	0.9922
2.058	-84.487	-3.1017e+05	3047.7	-0.10941	0.050264	0.99288
2.06	-84.534	-3.1017e+05	3052.4	-0.10834	0.050752	0.99357
2.062	-84.602	-3.1018e+05	3057.3	-0.10873	0.050166	0.99347
2.064	-84.641	-3.1018e+05	3062.2	-0.10912	0.049581	0.99337
2.066	-84.628	-3.1018e+05	3067.1	-0.10951	0.048995	0.99328
2.068	-84.599	-3.1017e+05	3072.1	-0.1099	0.04841	0.99318
2.07	-84.548	-3.1017e+05	3077.1	-0.11029	0.047824	0.99308
2.072	-84.486	-3.1018e+05	3082	-0.11195	0.048995	0.9923
2.074	-84.476	-3.1018e+05	3086.9	-0.11361	0.050166	0.99152
2.076	-84.531	-3.1019e+05	3091.7	-0.11527	0.051338	0.99074
2.078	-84.605	-3.1019e+05	3096.4	-0.11692	0.052509	0.98996
2.08	-84.664	-3.1019e+05	3101.1	-0.11858	0.05368	0.98918
2.082	-84.664	-3.1019e+05	3105.4	-0.11732	0.052118	0.98947
2.084	-84.628	-3.1019e+05	3109.6	-0.11605	0.050557	0.98976
2.086	-84.582	-3.1019e+05	3113.6	-0.11478	0.048995	0.99005
2.088	-84.516	-3.1018e+05	3117.4	-0.11351	0.047434	0.99035
2.09	-84.504	-3.1018e+05	3121.1	-0.11224	0.045872	0.99064
2.092	-84.548	-3.1018e+05	3124.3	-0.11214	0.046946	0.99103
2.094	-84.598	-3.1019e+05	3127.4	-0.11204	0.048019	0.99142
2.096	-84.679	-3.1019e+05	3130.3	-0.11195	0.049093	0.99181
2.098	-84.709	-3.1019e+05	3132.9	-0.11185	0.050166	0.9922
2.1	-84.676	-3.1018e+05	3135.5	-0.11175	0.05124	0.99259
2.102	-84.638	-3.1017e+05	3137.6	-0.11312	0.051826	0.99269
2.104	-84.552	-3.1017e+05	3139.7	-0.11448	0.052411	0.99279
2.106	-84.503	-3.1017e+05	3141.4	-0.11585	0.052997	0.99288
2.108	-84.545	-3.1017e+05	3142.9	-0.11722	0.053582	0.99298
2.11	-84.616	-3.1016e+05	3144.3	-0.11858	0.054168	0.99308
2.112	-84.687	-3.1016e+05	3145.7	-0.11732	0.05407	0.99328
2.114	-84.716	-3.1015e+05	3147.1	-0.11605	0.053973	0.99347
2.116	-84.69	-3.1015e+05	3148.3	-0.11478	0.053875	0.99367
2.118	-84.666	-3.1014e+05	3149.2	-0.11351	0.053778	0.99386
2.12	-84.614	-3.1014e+05	3150.1	-0.11224	0.05368	0.99406
2.122	-84.568	-3.1013e+05	3150.7	-0.11478	0.054168	0.99425
2.124	-84.585	-3.1014e+05	3151.2	-0.11732	0.054656	0.99445
2.126	-84.612	-3.1014e+05	3151.7	-0.11985	0.055144	0.99464
2.128	-84.664	-3.1013e+05	3152	-0.12239	0.055632	0.99484
2.13	-84.713	-3.1012e+05	3152.4	-0.12493	0.05612	0.99503
2.132	-84.708	-3.1012e+05	3152.5	-0.12307	0.056315	0.99572
2.134	-84.681	-3.1012e+05	3152.6	-0.12122	0.05651	0.9964
2.136	-84.635	-3.1011e+05	3152.6	-0.11936	0.056706	0.99708
2.138	-84.58	-3.101e+05	3152.6	-0.11751	0.056901	0.99776
2.14	-84.572	-3.1009e+05	3152.5	-0.11566	0.057096	0.99845
2.142	-84.614	-3.1009e+05	3152.5	-0.11517	0.056608	0.99776
2.144	-84.675	-3.1008e+05	3152.4	-0.11468	0.05612	0.99708
2.146	-84.733	-3.1008e+05	3152.4	-0.11419	0.055632	0.9964
2.148	-84.739	-3.1008e+05	3152.3	-0.1137	0.055144	0.99572
2.15	-84.697	-3.1008e+05	3152.2	-0.11322	0.054656	0.99503
2.152	-84.642	-3.1008e+05	3152.1	-0.11478	0.054558	0.99415
2.154	-84.572	-3.1008e+05	3151.9	-0.11634	0.054461	0.99328
2.156	-84.54	-3.1007e+05	3151.7	-0.1179	0.054363	0.9924
2.158	-84.569	-3.1006e+05	3151.4	-0.11946	0.054266	0.99152
2.16	-84.609	-3.1005e+05	3151.2	-0.12102	0.054168	0.99064
2.162	-84.669	-3.1005e+05	3150.8	-0.11897	0.053582	0.99132
2.164	-84.709	-3.1005e+05	3150.5	-0.11692	0.052997	0.99201
2.166	-84.68	-3.1004e+05	3150.1	-0.11488	0.052411	0.99269
2.168	-84.647	-3.1003e+05	3149.7	-0.11283	0.051826	0.99337
2.17	-84.588	-3.1003e+05	3149.3	-0.11078	0.05124	0.99406
2.172	-84.521	-3.1003e+05	3148.9	-0.11156	0.051045	0.99376
2.174	-84.521	-3.1002e+05	3148.4	-0.11234	0.05085	0.99347
2.176	-84.553	-3.1002e+05	3147.9	-0.11312	0.050654	0.99318
2.178	-84.607	-3.1002e+05	3147.3	-0.1139	0.050459	0.99288
2.18	-84.687	-3.1001e+05	3146.8	-0.11468	0.050264	0.99259
2.182	-84.692	-3.1e+05	3146.2	-0.11458	0.050362	0.99249
2.184	-84.65	-3.1e+05	3145.7	-0.11448	0.050459	0.9924
2.186	-84.596	-3.0999e+05	3145.1	-0.11439	0.050557	0.9923
2.188	-84.511	-3.0999e+05	3144.5	-0.11429	0.050654	0.9922
2.19	-84.496	-3.0999e+05	3143.8	-0.11419	0.050752	0.9921
2.192	-84.53	-3.0999e+05	3143.2	-0.1139	0.050557	0.99191
2.194	-84.581	-3.0998e+05	3142.7	-0.11361	0.050362	0.99171
2.196	-84.663	-3.0997e+05	3142	-0.11331	0.050166	0.99152
2.198	-84.683	-3.0996e+05	3141.3	-0.11302	0.049971	0.99132
2.2	-84.647	-3.0996e+05	3140.7	-0.11273	0.049776	0.99113
2.202	-84.607	-3.0996e+05	3140	-0.11302	0.049581	0.99152
2.204	-84.538	-3.0995e+05	3139.3	-0.11331	0.049386	0.99191
2.206	-84.509	-3.0995e+05	3138.6	-0.11361	0.04919	0.9923
2.208	-84.527	-3.0994e+05	3137.9	-0.1139	0.048995	0.99269
2.21	-84.56	-3.0994e+05	3137.2	-0.11419	0.0488	0.99308
2.212	-84.625	-3.0994e+05	3136.4	-0.11351	0.049288	0.99259
2.214	-84.662	-3.0994e+05	3135.7	-0.11283	0.049776	0.9921
2.216	-84.642	-3.0993e+05	3135	-0.11214	0.050264	0.99162
2.218	-84.607	-3.0993e+05	3134.2	-0.11146	0.050752	0.99113
2.22	-84.553	-3.0992e+05	3133.4	-0.11078	0.05124	0.99064
2.222	-84.522	-3.0992e+05	3132.6	-0.11214	0.050557	0.99103
2.224	-84.527	-3.0992e+05	3131.8	-0.11351	0.049874	0.99142
2.226	-84.535	-3.0992e+05	3131	-0.11488	0.04919	0.99181
2.228	-84.575	-3.0991e+05	3130.2	-0.11624	0.048507	0.9922
2.23	-84.623	-3.0991e+05	3129.4	-0.11761	0.047824	0.99259
2.232	-84.631	-3.099e+05	3128.7	-0.11653	0.048019	0.9924
2.234	-84.625	-3.099e+05	3128.1	-0.11546	0.048214	0.9922
2.236	-84.582	-3.099e+05	3127.4	-0.11439	0.04841	0.99201
2.238	-84.503	-3.099e+05	3126.7	-0.11331	0.048605	0.99181
2.24	-84.471	-3.0991e+05	3126	-0.11224	0.0488	0.99162
2.242	-84.49	-3.099e+05	3125.1	-0.11224	0.048898	0.99162
2.244	-84.548	-3.099e+05	3124.3	-0.11224	0.048995	0.99162
2.246	-84.626	-3.0989e+05	3123.4	-0.11224	0.049093	0.99162
2.248	-84.642	-3.0988e+05	3122.3	-0.11224	0.04919	0.99162
2.25	-84.605	-3.0987e+05	3121.2	-0.11224	0.049288	0.99162
2.252	-84.558	-3.0988e+05	3120	-0.11322	0.048898	0.99162
2.254	-84.486	-3.0988e+05	3118.8	-0.11419	0.048507	0.99162
2.256	-84.455	-3.0988e+05	3117.5	-0.11517	0.048117	0.99162
2.258	-84.477	-3.0987e+05	3116	-0.11614	0.047726	0.99162
2.26	-84.516	-3.0988e+05	3114.5	-0.11712	0.047336	0.99162
2.262	-84.6	-3.0988e+05	3112.8	-0.1178	0.049386	0.99201
2.264	-84.646	-3.0988e+05	3111.2	-0.11849	0.051435	0.9924
2.266	-84.625	-3.0988e+05	3109.5	-0.11917	0.053485	0.99279
2.268	-84.574	-3.0987e+05	3107.7	-0.11985	0.055534	0.99318
2.27	-84.494	-3.0987e+05	3106	-0.12054	0.057584	0.99357
2.272	-84.439	-3.0987e+05	3104.2	-0.12034	0.057291	0.99376
2.274	-84.456	-3.0987e+05	3102.5	-0.12015	0.056998	0.99396
2.276	-84.484	-3.0987e+05	3100.7	-0.11995	0.056706	0.99415
2.278	-84.54	-3.0987e+05	3099	-0.11976	0.056413	0.99435
2.28	-84.604	-3.0987e+05	3097.2	-0.11956	0.05612	0.99454
2.282	-84.594	-3.0987e+05	3095.5	-0.11907	0.056218	0.99503
2.284	-84.559	-3.0987e+05	3093.9	-0.11858	0.056315	0.99552
2.286	-84.519	-3.0987e+05	3092.3	-0.1181	0.056413	0.99601
2.288	-84.461	-3.0987e+05	3090.7	-0.11761	0.05651	0.9965
2.29	-84.459	-3.0987e+05	3089.1	-0.11712	0.056608	0.99698
2.292	-84.495	-3.0987e+05	3087.7	-0.11819	0.056706	0.99728
2.294	-84.541	-3.0987e+05	3086.2	-0.11927	0.056803	0.99757
2.296	-84.615	-3.0987e+05	3084.8	-0.12034	0.056901	0.99786
2.298	-84.636	-3.0987e+05	3083.4	-0.12141	0.056998	0.99816
2.3	-84.602	-3.0987e+05	3082	-0.12249	0.057096	0.99845
2.302	-84.555	-3.0987e+05	3080.7	-0.12151	0.05817	0.99776
2.304	-84.484	-3.0988e+05	3079.4	-0.12054	0.059243	0.99708
2.306	-84.457	-3.0988e+05	3078.2	-0.11956	0.060317	0.9964
2.308	-84.488	-3.0989e+05	3077.1	-0.11858	0.06139	0.99572
2.31	-84.541	-3.0988e+05	3075.9	-0.11761	0.062464	0.99503
2.312	-84.605	-3.0987e+05	3075	-0.11819	0.060219	0.99435
2.314	-84.634	-3.0987e+05	3074	-0.11878	0.057974	0.99367
2.316	-84.618	-3.0989e+05	3073.2	-0.11936	0.05573	0.99298
2.318	-84.589	-3.0989e+05	3072.4	-0.11995	0.053485	0.9923
2.32	-84.532	-3.0989e+05	3071.6	-0.12054	0.05124	0.99162
2.322	-84.476	-3.0989e+05	3071	-0.11985	0.052411	0.9921
2.324	-84.478	-3.0989e+05	3070.4	-0.11917	0.053582	0.99259
2.326	-84.519	-3.0989e+05	3069.8	-0.11849	0.054754	0.99308
2.328	-84.581	-3.0989e+05	3069.4	-0.1178	0.055925	0.99357
2.33	-84.647	-3.0989e+05	3069	-0.11712	0.057096	0.99406
2.332	-84.665	-3.0989e+05	3068.7	-0.11741	0.05651	0.99337
2.334	-84.635	-3.099e+05	3068.3	-0.11771	0.055925	0.99269
2.336	-84.577	-3.099e+05	3068	-0.118	0.055339	0.99201
2.338	-84.514	-3.099e+05	3067.6	-0.11829	0.054754	0.99132
2.34	-84.494	-3.099e+05	3067.3	-0.11858	0.054168	0.99064
2.342	-84.523	-3.099e+05	3067	-0.11634	0.054656	0.9921
2.344	-84.57	-3.099e+05	3066.6	-0.11409	0.055144	0.99357
2.346	-84.634	-3.0991e+05	3066.3	-0.11185	0.055632	0.99503
2.348	-84.661	-3.0991e+05	3065.9	-0.1096	0.05612	0.9965
2.35	-84.64	-3.0991e+05	3065.6	-0.10736	0.056608	0.99796
2.352	-84.608	-3.0991e+05	3065.2	-0.10697	0.055827	0.99767
2.354	-84.535	-3.0991e+05	3064.9	-0.10658	0.055046	0.99737
2.356	-84.51	-3.0991e+05	3064.5	-0.10619	0.054266	0.99708
2.358	-84.534	-3.0992e+05	3064.2	-0.1058	0.053485	0.99679
2.36	-84.539	-3.0992e+05	3063.9	-0.10541	0.052704	0.9965
2.362	-84.623	-3.0992e+05	3063.4	-0.10619	0.053192	0.99669
2.364	-84.699	-3.0992e+05	3062.9	-0.10697	0.05368	0.99689
2.366	-84.663	-3.0992e+05	3062.4	-0.10775	0.054168	0.99708
2.368	-84.616	-3.0992e+05	3061.9	-0.10853	0.054656	0.99728
2.37	-84.547	-3.0993e+05	3061.4	-0.10931	0.055144	0.99747
2.372	-84.508	-3.0993e+05	3060.8	-0.10804	0.056022	0.99718
2.374	-84.52	-3.0994e+05	3060.2	-0.10677	0.056901	0.99689
2.376	-84.554	-3.0994e+05	3059.5	-0.10551	0.057779	0.99659
2.378	-84.616	-3.0994e+05	3058.8	-0.10424	0.058658	0.9963
2.38	-84.665	-3.0994e+05	3058.2	-0.10297	0.059536	0.99601
2.382	-84.663	-3.0995e+05	3057.5	-0.10375	0.060122	0.99611
2.384	-84.642	-3.0995e+05	3056.9	-0.10453	0.060707	0.9962
2.386	-84.594	-3.0995e+05	3056.2	-0.10531	0.061293	0.9963
2.388	-84.541	-3.0995e+05	3055.5	-0.10609	0.061878	0.9964
2.39	-84.527	-3.0995e+05	3054.7	-0.10687	0.062464	0.9965
2.392	-84.545	-3.0995e+05	3053.9	-0.10785	0.061293	0.99708
2.394	-84.602	-3.0995e+05	3053.2	-0.10882	0.060122	0.99767
2.396	-84.673	-3.0995e+05	3052.3	-0.1098	0.05895	0.99825
2.398	-84.69	-3.0995e+05	3051.5	-0.11078	0.057779	0.99884
2.4	-84.661	-3.0996e+05	3050.6	-0.11175	0.056608	0.99942
2.402	-84.615	-3.0996e+05	3049.7	-0.11224	0.055925	0.99796
2.404	-84.552	-3.0996e+05	3048.8	-0.11273	0.055242	0.9965
2.406	-84.522	-3.0997e+05	3047.8	-0.11322	0.054558	0.99503
2.408	-84.542	-3.0997e+05	3046.8	-0.1137	0.053875	0.99357
2.41	-84.581	-3.0997e+05	3045.8	-0.11419	0.053192	0.9921
2.412	-84.655	-3.0997e+05	3044.8	-0.11478	0.053387	0.99269
2.414	-84.724	-3.0997e+05	3043.7	-0.11536	0.053582	0.99328
2.416	-84.731	-3.0998e+05	3042.6	-0.11595	0.053778	0.99386
2.418	-84.718	-3.0998e+05	3041.5	-0.11653	0.053973	0.99445
2.42	-84.721	-3.0997e+05	3040.5	-0.11712	0.054168	0.99503
2.422	-84.743	-3.0997e+05	3039.3	-0.11692	0.053582	0.99406
2.424	-84.831	-3.0997e+05	3038.2	-0.11673	0.052997	0.99308
2.426	-84.967	-3.0998e+05	3037.1	-0.11653	0.052411	0.9921
2.428	-85.122	-3.0998e+05	3036	-0.11634	0.051826	0.99113
2.43	-85.26	-3.0998e+05	3034.9	-0.11614	0.05124	0.99015
2.432	-85.329	-3.0998e+05	3033.8	-0.11644	0.052118	0.99084
2.434	-85.348	-3.0998e+05	3032.7	-0.11673	0.052997	0.99152
2.436	-85.317	-3.0999e+05	3031.5	-0.11702	0.053875	0.9922
2.438	-85.211	-3.0999e+05	3030.4	-0.11732	0.054754	0.99288
2.44	-85.159	-3.0999e+05	3029.3	-0.11761	0.055632	0.99357
2.442	-85.137	-3.0999e+05	3028.3	-0.11732	0.054754	0.99386
2.444	-85.121	-3.0999e+05	3027.2	-0.11702	0.053875	0.99415
2.446	-85.071	-3.0999e+05	3026.2	-0.11673	0.052997	0.99445
2.448	-84.849	-3.0999e+05	3025.4	-0.11644	0.052118	0.99474
2.45	-84.596	-3.1e+05	3024.5	-0.11614	0.05124	0.99503
2.452	-84.394	-3.1001e+05	3023.6	-0.11634	0.050752	0.99415
2.454	-84.227	-3.1001e+05	3022.8	-0.11653	0.050264	0.99328
2.456	-84.143	-3.1001e+05	3021.9	-0.11673	0.049776	0.9924
2.458	-84.122	-3.1001e+05	3021.1	-0.11692	0.049288	0.99152
2.46	-84.141	-3.1001e+05	3020.2	-0.11712	0.0488	0.99064
2.462	-84.211	-3.1001e+05	3019.3	-0.11644	0.04841	0.99123
2.464	-84.252	-3.1001e+05	3018.5	-0.11575	0.048019	0.99181
2.466	-84.235	-3.1001e+05	3017.6	-0.11507	0.047629	0.9924
2.468	-84.201	-3.1001e+05	3016.6	-0.11439	0.047238	0.99298
2.47	-84.144	-3.1001e+05	3015.7	-0.1137	0.046848	0.99357
2.472	-84.104	-3.1002e+05	3014.8	-0.1137	0.047043	0.99318
2.474	-84.113	-3.1002e+05	3013.8	-0.1137	0.047238	0.99279
2.476	-84.167	-3.1002e+05	3012.9	-0.1137	0.047434	0.9924
2.478	-84.251	-3.1002e+05	3012	-0.1137	0.047629	0.99201
2.48	-84.327	-3.1003e+05	3011	-0.1137	0.047824	0.99162
2.482	-84.376	-3.1003e+05	3010.1	-0.11468	0.048995	0.99201
2.484	-84.401	-3.1003e+05	3009.1	-0.11566	0.050166	0.9924
2.486	-84.388	-3.1004e+05	3008.2	-0.11663	0.051338	0.99279
2.488	-84.359	-3.1004e+05	3007.3	-0.11761	0.052509	0.99318
2.49	-84.371	-3.1004e+05	3006.5	-0.11858	0.05368	0.99357
2.492	-84.425	-3.1005e+05	3005.6	-0.11761	0.052509	0.99318
2.494	-84.495	-3.1005e+05	3004.7	-0.11663	0.051338	0.99279
2.496	-84.573	-3.1005e+05	3003.9	-0.11566	0.050166	0.9924
2.498	-84.614	-3.1005e+05	3003.1	-0.11468	0.048995	0.99201
2.5	-84.615	-3.1005e+05	3002.3	-0.1137	0.047824	0.99162
2.502	-84.588	-3.1006e+05	3001.4	-0.11409	0.048312	0.99113
2.504	-84.528	-3.1006e+05	3000.6	-0.11448	0.0488	0.99064
2.506	-84.5	-3.1006e+05	2999.8	-0.11488	0.049288	0.99015
2.508	-84.526	-3.1006e+05	2999	-0.11527	0.049776	0.98966
2.51	-84.557	-3.1007e+05	2998.2	-0.11566	0.050264	0.98918
2.512	-84.626	-3.1007e+05	2997.4	-0.11448	0.050459	0.98966
2.514	-84.684	-3.1007e+05	2996.6	-0.11331	0.050654	0.99015
2.516	-84.675	-3.1008e+05	2995.8	-0.11214	0.05085	0.99064
2.518	-84.658	-3.1008e+05	2995	-0.11097	0.051045	0.99113
2.52	-84.592	-3.1008e+05	2994.2	-0.1098	0.05124	0.99162
2.522	-84.517	-3.1008e+05	2993.4	-0.11	0.05124	0.99171
2.524	-84.532	-3.1007e+05	2992.7	-0.11019	0.05124	0.99181
2.526	-84.574	-3.1007e+05	2991.9	-0.11039	0.05124	0.99191
2.528	-84.627	-3.1007e+05	2991.2	-0.11058	0.05124	0.99201
2.53	-84.702	-3.1007e+05	2990.5	-0.11078	0.05124	0.9921
2.532	-84.71	-3.1007e+05	2989.9	-0.11009	0.052118	0.99249
2.534	-84.667	-3.1007e+05	2989.3	-0.10941	0.052997	0.99288
2.536	-84.61	-3.1007e+05	2988.8	-0.10873	0.053875	0.99328
2.538	-84.546	-3.1007e+05	2988.3	-0.10804	0.054754	0.99367
2.54	-84.56	-3.1007e+05	2987.8	-0.10736	0.055632	0.99406
2.542	-84.574	-3.1008e+05	2987.4	-0.10775	0.055534	0.99464
2.544	-84.6	-3.1009e+05	2987.1	-0.10814	0.055437	0.99523
2.546	-84.68	-3.1009e+05	2986.7	-0.10853	0.055339	0.99581
2.548	-84.703	-3.1009e+05	2986.4	-0.10892	0.055242	0.9964
2.55	-84.685	-3.101e+05	2986.1	-0.10931	0.055144	0.99698
2.552	-84.654	-3.101e+05	2985.9	-0.1096	0.055437	0.99757
2.554	-84.582	-3.101e+05	2985.6	-0.1099	0.05573	0.99816
2.556	-84.545	-3.1011e+05	2985.4	-0.11019	0.056022	0.99874
2.558	-84.555	-3.1011e+05	2985.2	-0.11048	0.056315	0.99933
2.56	-84.588	-3.1012e+05	2985	-0.11078	0.056608	0.99991
2.562	-84.651	-3.1012e+05	2985	-0.11078	0.055242	0.99845
2.564	-84.67	-3.1011e+05	2984.9	-0.11078	0.053875	0.99698
2.566	-84.651	-3.1011e+05	2984.8	-0.11078	0.052509	0.99552
2.568	-84.636	-3.1011e+05	2984.7	-0.11078	0.051142	0.99406
2.57	-84.592	-3.1011e+05	2984.6	-0.11078	0.049776	0.99259
2.572	-84.551	-3.1012e+05	2984.7	-0.11185	0.051142	0.99249
2.574	-84.553	-3.1012e+05	2984.7	-0.11292	0.052509	0.9924
2.576	-84.582	-3.1013e+05	2985	-0.114	0.053875	0.9923
2.578	-84.656	-3.1013e+05	2985.5	-0.11507	0.055242	0.9922
2.58	-84.729	-3.1013e+05	2986	-0.11614	0.056608	0.9921
2.582	-84.717	-3.1013e+05	2987	-0.11566	0.054851	0.99181
2.584	-84.675	-3.1013e+05	2987.9	-0.11517	0.053094	0.99152
2.586	-84.622	-3.1013e+05	2989.1	-0.11468	0.051338	0.99123
2.588	-84.562	-3.1013e+05	2990.5	-0.11419	0.049581	0.99093
2.59	-84.553	-3.1013e+05	2991.8	-0.1137	0.047824	0.99064
2.592	-84.578	-3.1014e+05	2993.7	-0.11497	0.049093	0.99113
2.594	-84.627	-3.1014e+05	2995.6	-0.11624	0.050362	0.99162
2.596	-84.706	-3.1015e+05	2997.7	-0.11751	0.05163	0.9921
2.598	-84.737	-3.1015e+05	3000	-0.11878	0.052899	0.99259
2.6	-84.708	-3.1016e+05	3002.3	-0.12005	0.054168	0.99308
2.602	-84.662	-3.1016e+05	3005.2	-0.12102	0.053485	0.9921
2.604	-84.583	-3.1016e+05	3008	-0.122	0.052802	0.99113
2.606	-84.565	-3.1016e+05	3011	-0.12298	0.052118	0.99015
2.608	-84.627	-3.1016e+05	3014.3	-0.12395	0.051435	0.98918
2.61	-84.671	-3.1016e+05	3017.5	-0.12493	0.050752	0.9882
2.612	-84.738	-3.1016e+05	3020.9	-0.12278	0.051045	0.98986
2.614	-84.784	-3.1016e+05	3024.4	-0.12063	0.051338	0.99152
2.616	-84.754	-3.1016e+05	3027.8	-0.11849	0.05163	0.99318
2.618	-84.708	-3.1017e+05	3031.4	-0.11634	0.051923	0.99484
2.62	-84.641	-3.1017e+05	3034.9	-0.11419	0.052216	0.9965
2.622	-84.588	-3.1017e+05	3038.4	-0.11468	0.051533	0.99532
2.624	-84.625	-3.1017e+05	3041.9	-0.11517	0.05085	0.99415
2.626	-84.683	-3.1017e+05	3045.4	-0.11566	0.050166	0.99298
2.628	-84.753	-3.1015e+05	3048.7	-0.11614	0.049483	0.99181
2.63	-84.81	-3.1015e+05	3052	-0.11663	0.0488	0.99064
2.632	-84.801	-3.1015e+05	3055.2	-0.11702	0.049483	0.99123
2.634	-84.765	-3.1015e+05	3058.4	-0.11741	0.050166	0.99181
2.636	-84.701	-3.1015e+05	3061.5	-0.1178	0.05085	0.9924
2.638	-84.657	-3.1015e+05	3064.4	-0.11819	0.051533	0.99298
2.64	-84.659	-3.1015e+05	3067.3	-0.11858	0.052216	0.99357
2.642	-84.681	-3.1015e+05	3070	-0.1179	0.051338	0.99318
2.644	-84.743	-3.1015e+05	3072.6	-0.11722	0.050459	0.99279
2.646	-84.819	-3.1015e+05	3075.1	-0.11653	0.049581	0.9924
2.648	-84.843	-3.1015e+05	3077.3	-0.11585	0.048702	0.99201
2.65	-84.816	-3.1015e+05	3079.6	-0.11517	0.047824	0.99162
2.652	-84.761	-3.1014e+05	3081.4	-0.11575	0.04841	0.99191
2.654	-84.705	-3.1013e+05	3083.2	-0.11634	0.048995	0.9922
2.656	-84.691	-3.1013e+05	3084.9	-0.11692	0.049581	0.99249
2.658	-84.71	-3.1013e+05	3086.3	-0.11751	0.050166	0.99279
2.66	-84.751	-3.1013e+05	3087.7	-0.1181	0.050752	0.99308
2.662	-84.82	-3.1013e+05	3088.8	-0.1181	0.052509	0.99376
2.664	-84.858	-3.1012e+05	3089.8	-0.1181	0.054266	0.99445
2.666	-84.842	-3.1012e+05	3090.7	-0.1181	0.056022	0.99513
2.668	-84.803	-3.1012e+05	3091.4	-0.1181	0.057779	0.99581
2.67	-84.742	-3.1011e+05	3092.1	-0.1181	0.059536	0.9965
2.672	-84.695	-3.1011e+05	3092.6	-0.11702	0.058462	0.99611
2.674	-84.703	-3.1011e+05	3093.1	-0.11595	0.057389	0.99572
2.676	-84.736	-3.101e+05	3093.4	-0.11488	0.056315	0.99532
2.678	-84.781	-3.101e+05	3093.6	-0.1138	0.055242	0.99493
2.68	-84.827	-3.1009e+05	3093.8	-0.11273	0.054168	0.99454
2.682	-84.831	-3.1009e+05	3093.8	-0.11234	0.054168	0.99474
2.684	-84.818	-3.1008e+05	3093.9	-0.11195	0.054168	0.99493
2.686	-84.756	-3.1008e+05	3093.8	-0.11156	0.054168	0.99513
2.688	-84.663	-3.1008e+05	3093.6	-0.11117	0.054168	0.99532
2.69	-84.652	-3.1007e+05	3093.3	-0.11078	0.054168	0.99552
2.692	-84.681	-3.1006e+05	3092.9	-0.11	0.055437	0.99601
2.694	-84.717	-3.1005e+05	3092.5	-0.10921	0.056706	0.9965
2.696	-84.789	-3.1005e+05	3092.1	-0.10843	0.057974	0.99698
2.698	-84.802	-3.1004e+05	3091.6	-0.10765	0.059243	0.99747
2.7	-84.753	-3.1004e+05	3091	-0.10687	0.060512	0.99796
2.702	-84.702	-3.1003e+05	3090.3	-0.10736	0.060805	0.99718
2.704	-84.639	-3.1003e+05	3089.6	-0.10785	0.061098	0.9964
2.706	-84.614	-3.1003e+05	3088.9	-0.10834	0.06139	0.99562
2.708	-84.635	-3.1002e+05	3088	-0.10882	0.061683	0.99484
2.71	-84.641	-3.1001e+05	3087.2	-0.10931	0.061976	0.99406
2.712	-84.692	-3.1001e+05	3086.3	-0.10931	0.06139	0.99425
2.714	-84.726	-3.1e+05	3085.4	-0.10931	0.060805	0.99445
2.716	-84.725	-3.1e+05	3084.4	-0.10931	0.060219	0.99464
2.718	-84.694	-3.0999e+05	3083.4	-0.10931	0.059634	0.99484
2.72	-84.619	-3.0999e+05	3082.3	-0.10931	0.059048	0.99503
2.722	-84.565	-3.0998e+05	3081.2	-0.10882	0.059146	0.99484
2.724	-84.57	-3.0997e+05	3080.1	-0.10834	0.059243	0.99464
2.726	-84.597	-3.0997e+05	3079	-0.10785	0.059341	0.99445
2.728	-84.656	-3.0997e+05	3077.7	-0.10736	0.059438	0.99425
2.73	-84.708	-3.0996e+05	3076.5	-0.10687	0.059536	0.99406
2.732	-84.705	-3.0996e+05	3075.3	-0.10658	0.059536	0.99513
2.734	-84.672	-3.0996e+05	3074	-0.10629	0.059536	0.9962
2.736	-84.613	-3.0995e+05	3072.8	-0.10599	0.059536	0.99728
2.738	-84.562	-3.0995e+05	3071.5	-0.1057	0.059536	0.99835
2.74	-84.56	-3.0994e+05	3070.3	-0.10541	0.059536	0.99942
2.742	-84.58	-3.0994e+05	3069.1	-0.1057	0.05856	0.99845
2.744	-84.617	-3.0994e+05	3067.8	-0.10599	0.057584	0.99747
2.746	-84.674	-3.0994e+05	3066.6	-0.10629	0.056608	0.9965
2.748	-84.686	-3.0993e+05	3065.4	-0.10658	0.055632	0.99552
2.75	-84.65	-3.0992e+05	3064.2	-0.10687	0.054656	0.99454
2.752	-84.613	-3.0991e+05	3063	-0.10756	0.054656	0.99532
2.754	-84.556	-3.0991e+05	3061.7	-0.10824	0.054656	0.99611
2.756	-84.507	-3.0991e+05	3060.6	-0.10892	0.054656	0.99689
2.758	-84.529	-3.0991e+05	3059.7	-0.1096	0.054656	0.99767
2.76	-84.587	-3.0991e+05	3058.7	-0.11029	0.054656	0.99845
2.762	-84.64	-3.099e+05	3057.8	-0.1096	0.054656	0.99806
2.764	-84.671	-3.099e+05	3056.9	-0.10892	0.054656	0.99767
2.766	-84.646	-3.0989e+05	3056.1	-0.10824	0.054656	0.99728
2.768	-84.599	-3.0989e+05	3055.2	-0.10756	0.054656	0.99689
2.77	-84.542	-3.0988e+05	3054.4	-0.10687	0.054656	0.9965
2.772	-84.504	-3.0988e+05	3053.6	-0.10707	0.054363	0.9965
2.774	-84.539	-3.0988e+05	3052.7	-0.10726	0.05407	0.9965
2.776	-84.581	-3.0987e+05	3051.9	-0.10746	0.053778	0.9965
2.778	-84.621	-3.0987e+05	3051	-0.10765	0.053485	0.9965
2.78	-84.685	-3.0987e+05	3050.1	-0.10785	0.053192	0.9965
2.782	-84.666	-3.0987e+05	3049.3	-0.10951	0.051728	0.99611
2.784	-84.623	-3.0985e+05	3048.4	-0.11117	0.050264	0.99572
2.786	-84.575	-3.0985e+05	3047.5	-0.11283	0.0488	0.99532
2.788	-84.498	-3.0985e+05	3046.6	-0.11448	0.047336	0.99493
2.79	-84.485	-3.0985e+05	3045.6	-0.11614	0.045872	0.99454
2.792	-84.535	-3.0985e+05	3044.5	-0.11702	0.047043	0.99386
2.794	-84.601	-3.0985e+05	3043.4	-0.1179	0.048214	0.99318
2.796	-84.662	-3.0985e+05	3042.2	-0.11878	0.049386	0.99249
2.798	-84.661	-3.0985e+05	3041	-0.11966	0.050557	0.99181
2.8	-84.637	-3.0984e+05	3039.8	-0.12054	0.051728	0.99113
2.802	-84.59	-3.0983e+05	3038.4	-0.11878	0.050264	0.9924
2.804	-84.535	-3.0983e+05	3036.9	-0.11702	0.0488	0.99367
2.806	-84.516	-3.0983e+05	3035.4	-0.11527	0.047336	0.99493
2.808	-84.534	-3.0983e+05	3033.8	-0.11351	0.045872	0.9962
2.81	-84.561	-3.0983e+05	3032.3	-0.11175	0.044408	0.99747
2.812	-84.626	-3.0982e+05	3030.6	-0.11214	0.044701	0.9964
2.814	-84.66	-3.0982e+05	3028.9	-0.11253	0.044994	0.99532
2.816	-84.647	-3.0982e+05	3027.2	-0.11292	0.045286	0.99425
2.818	-84.621	-3.0982e+05	3025.5	-0.11331	0.045579	0.99318
2.82	-84.569	-3.0982e+05	3023.8	-0.1137	0.045872	0.9921
2.822	-84.527	-3.0982e+05	3022	-0.11536	0.047238	0.99191
2.824	-84.532	-3.0981e+05	3020.3	-0.11702	0.048605	0.99171
2.826	-84.562	-3.0981e+05	3018.7	-0.11868	0.049971	0.99152
2.828	-84.619	-3.0981e+05	3017.1	-0.12034	0.051338	0.99132
2.83	-84.672	-3.0981e+05	3015.6	-0.122	0.052704	0.99113
2.832	-84.667	-3.0981e+05	3014.2	-0.12102	0.052314	0.99123
2.834	-84.629	-3.0982e+05	3012.8	-0.12005	0.051923	0.99132
2.836	-84.587	-3.0981e+05	3011.6	-0.11907	0.051533	0.99142
2.838	-84.541	-3.0982e+05	3010.4	-0.1181	0.051142	0.99152
2.84	-84.53	-3.0982e+05	3009.1	-0.11712	0.050752	0.99162
2.842	-84.563	-3.0982e+05	3008.2	-0.11556	0.049971	0.9924
2.844	-84.626	-3.0982e+05	3007.4	-0.114	0.04919	0.99318
2.846	-84.689	-3.0982e+05	3006.5	-0.11244	0.04841	0.99396
2.848	-84.7	-3.0982e+05	3005.8	-0.11087	0.047629	0.99474
2.85	-84.671	-3.0982e+05	3005.1	-0.10931	0.046848	0.99552
2.852	-84.631	-3.0982e+05	3004.5	-0.10941	0.047238	0.99523
2.854	-84.546	-3.0982e+05	3004	-0.10951	0.047629	0.99493
2.856	-84.509	-3.0981e+05	3003.5	-0.1096	0.048019	0.99464
2.858	-84.544	-3.0981e+05	3003	-0.1097	0.04841	0.99435
2.86	-84.6	-3.0981e+05	3002.6	-0.1098	0.0488	0.99406
2.862	-84.658	-3.0981e+05	3002.5	-0.10892	0.050654	0.99425
2.864	-84.69	-3.0981e+05	3002.5	-0.10804	0.052509	0.99445
2.866	-84.707	-3.0981e+05	3002.5	-0.10716	0.054363	0.99464
2.868	-84.677	-3.0982e+05	3002.7	-0.10629	0.056218	0.99484
2.87	-84.611	-3.0982e+05	3002.8	-0.10541	0.058072	0.99503
2.872	-84.531	-3.0981e+05	3003.1	-0.1056	0.057291	0.99523
2.874	-84.544	-3.0981e+05	3003.4	-0.1058	0.05651	0.99542
2.876	-84.581	-3.0982e+05	3003.6	-0.10599	0.05573	0.99562
2.878	-84.658	-3.0982e+05	3003.9	-0.10619	0.054949	0.99581
2.88	-84.727	-3.0982e+05	3004.1	-0.10638	0.054168	0.99601
2.882	-84.701	-3.0982e+05	3004.4	-0.1059	0.053387	0.99552
2.884	-84.654	-3.0982e+05	3004.7	-0.10541	0.052606	0.99503
2.886	-84.62	-3.0982e+05	3005	-0.10492	0.051826	0.99454
2.888	-84.56	-3.0981e+05	3005.4	-0.10443	0.051045	0.99406
2.89	-84.549	-3.0981e+05	3005.7	-0.10394	0.050264	0.99357
2.892	-84.583	-3.0981e+05	3006.1	-0.10424	0.05163	0.99493
2.894	-84.628	-3.0982e+05	3006.4	-0.10453	0.052997	0.9963
2.896	-84.687	-3.0982e+05	3006.8	-0.10482	0.054363	0.99767
2.898	-84.706	-3.0982e+05	3007.2	-0.10512	0.05573	0.99903
2.9	-84.688	-3.0982e+05	3007.6	-0.10541	0.057096	1.0004
2.902	-84.637	-3.0982e+05	3008.1	-0.10736	0.05612	0.99991
2.904	-84.57	-3.0982e+05	3008.6	-0.10931	0.055144	0.99942
2.906	-84.543	-3.0982e+05	3009	-0.11126	0.054168	0.99894
2.908	-84.557	-3.0982e+05	3009.4	-0.11322	0.053192	0.99845
2.91	-84.593	-3.0982e+05	3009.8	-0.11517	0.052216	0.99796
2.912	-84.657	-3.0982e+05	3010.2	-0.11429	0.053582	0.99816
2.914	-84.695	-3.0983e+05	3010.6	-0.11341	0.054949	0.99835
2.916	-84.68	-3.0983e+05	3011.1	-0.11253	0.056315	0.99855
2.918	-84.642	-3.0983e+05	3011.6	-0.11165	0.057682	0.99874
2.92	-84.588	-3.0983e+05	3012	-0.11078	0.059048	0.99894
2.922	-84.551	-3.0982e+05	3012.4	-0.11097	0.057974	0.99825
2.924	-84.563	-3.0982e+05	3012.9	-0.11117	0.056901	0.99757
2.926	-84.601	-3.0983e+05	3013.2	-0.11136	0.055827	0.99689
2.928	-84.656	-3.0983e+05	3013.5	-0.11156	0.054754	0.9962
2.93	-84.717	-3.0983e+05	3013.8	-0.11175	0.05368	0.99552
2.932	-84.711	-3.0983e+05	3014.1	-0.11253	0.053094	0.99474
2.934	-84.67	-3.0983e+05	3014.3	-0.11331	0.052509	0.99396
2.936	-84.614	-3.0983e+05	3014.5	-0.11409	0.051923	0.99318
2.938	-84.549	-3.0983e+05	3014.7	-0.11488	0.051338	0.9924
2.94	-84.541	-3.0983e+05	3014.9	-0.11566	0.050752	0.99162
2.942	-84.581	-3.0983e+05	3015	-0.11585	0.051533	0.99201
2.944	-84.628	-3.0983e+05	3015.1	-0.11605	0.052314	0.9924
2.946	-84.707	-3.0983e+05	3015.1	-0.11624	0.053094	0.99279
2.948	-84.72	-3.0982e+05	3015	-0.11644	0.053875	0.99318
2.95	-84.688	-3.0982e+05	3015	-0.11663	0.054656	0.99357
2.952	-84.658	-3.0982e+05	3014.9	-0.11663	0.055046	0.99454
2.954	-84.576	-3.0982e+05	3014.7	-0.11663	0.055437	0.99552
2.956	-84.541	-3.0982e+05	3014.5	-0.11663	0.055827	0.9965
2.958	-84.569	-3.0982e+05	3014.4	-0.11663	0.056218	0.99747
2.96	-84.597	-3.0983e+05	3014.2	-0.11663	0.056608	0.99845
2.962	-84.67	-3.0983e+05	3014	-0.11732	0.055925	0.99669
2.964	-84.703	-3.0983e+05	3013.9	-0.118	0.055242	0.99493
2.966	-84.699	-3.0983e+05	3013.8	-0.11868	0.054558	0.99318
2.968	-84.674	-3.0983e+05	3013.6	-0.11936	0.053875	0.99142
2.97	-84.604	-3.0983e+05	3013.4	-0.12005	0.053192	0.98966
2.972	-84.552	-3.0982e+05	3013.1	-0.12024	0.053582	0.99035
2.974	-84.56	-3.0982e+05	3012.9	-0.12044	0.053973	0.99103
2.976	-84.595	-3.0982e+05	3012.6	-0.12063	0.054363	0.99171
2.978	-84.659	-3.0983e+05	3012.3	-0.12083	0.054754	0.9924
2.98	-84.7	-3.0984e+05	3012	-0.12102	0.055144	0.99308
2.982	-84.705	-3.0984e+05	3011.7	-0.11868	0.053387	0.99396
2.984	-84.679	-3.0983e+05	3011.4	-0.11634	0.05163	0.99484
2.986	-84.617	-3.0983e+05	3011.1	-0.114	0.049874	0.99572
2.988	-84.56	-3.0982e+05	3010.7	-0.11165	0.048117	0.99659
2.99	-84.538	-3.0982e+05	3010.3	-0.10931	0.04636	0.99747
2.992	-84.544	-3.0983e+05	3010	-0.10951	0.047141	0.9965
2.994	-84.591	-3.0983e+05	3009.6	-0.1097	0.047922	0.99552
2.996	-84.682	-3.0983e+05	3009.4	-0.1099	0.048702	0.99454
2.998	-84.714	-3.0983e+05	3009.2	-0.11009	0.049483	0.99357
3	-84.678	-3.0983e+05	3009.1	-0.11029	0.050264	0.99259
3.002	-84.634	-3.0983e+05	3008.8	-0.10921	0.049776	0.99337
3.004	-84.58	-3.0983e+05	3008.5	-0.10814	0.049288	0.99415
3.006	-84.57	-3.0983e+05	3008.3	-0.10707	0.0488	0.99493
3.008	-84.627	-3.0983e+05	3007.9	-0.10599	0.048312	0.99572
3.01	-84.698	-3.0983e+05	3007.6	-0.10492	0.047824	0.9965
3.012	-84.779	-3.0983e+05	3007.3	-0.10687	0.047531	0.99552
3.014	-84.881	-3.0983e+05	3007	-0.10882	0.047238	0.99454
3.016	-84.943	-3.0983e+05	3006.6	-0.11078	0.046946	0.99357
3.018	-84.979	-3.0983e+05	3006.2	-0.11273	0.046653	0.99259
3.02	-85.014	-3.0983e+05	3005.8	-0.11468	0.04636	0.99162
3.022	-85.04	-3.0982e+05	3005.4	-0.1138	0.046458	0.99171
3.024	-85.107	-3.0982e+05	3005	-0.11292	0.046555	0.99181
3.026	-85.194	-3.0982e+05	3004.5	-0.11204	0.046653	0.99191
3.028	-85.278	-3.0983e+05	3004.1	-0.11117	0.04675	0.99201
3.03	-85.33	-3.0983e+05	3003.6	-0.11029	0.046848	0.9921
3.032	-85.28	-3.0983e+05	3003.1	-0.11039	0.046555	0.99308
3.034	-85.205	-3.0983e+05	3002.5	-0.11048	0.046262	0.99406
3.036	-85.122	-3.0983e+05	3001.9	-0.11058	0.04597	0.99503
3.038	-84.996	-3.0983e+05	3001.3	-0.11068	0.045677	0.99601
3.04	-84.843	-3.0983e+05	3000.7	-0.11078	0.045384	0.99698
3.042	-84.692	-3.0983e+05	3000	-0.11048	0.04597	0.99669
3.044	-84.581	-3.0983e+05	2999.3	-0.11019	0.046555	0.9964
3.046	-84.527	-3.0983e+05	2998.6	-0.1099	0.047141	0.99611
3.048	-84.459	-3.0983e+05	2997.9	-0.1096	0.047726	0.99581
3.05	-84.392	-3.0983e+05	2997.1	-0.10931	0.048312	0.99552
3.052	-84.337	-3.0983e+05	2996.4	-0.11195	0.049483	0.99445
3.054	-84.237	-3.0984e+05	2995.6	-0.11458	0.050654	0.99337
3.056	-84.195	-3.0984e+05	2994.9	-0.11722	0.051826	0.9923
3.058	-84.22	-3.0984e+05	2994.1	-0.11985	0.052997	0.99123
3.06	-84.273	-3.0984e+05	2993.4	-0.12249	0.054168	0.99015
3.062	-84.335	-3.0984e+05	2992.7	-0.12239	0.05368	0.99015
3.064	-84.364	-3.0985e+05	2992.1	-0.12229	0.053192	0.99015
3.066	-84.343	-3.0985e+05	2991.6	-0.1222	0.052704	0.99015
3.068	-84.305	-3.0984e+05	2991.2	-0.1221	0.052216	0.99015
3.07	-84.248	-3.0984e+05	2990.8	-0.122	0.051728	0.99015
3.072	-84.235	-3.0984e+05	2990.5	-0.1219	0.051826	0.99005
3.074	-84.285	-3.0984e+05	2990.3	-0.1218	0.051923	0.98996
3.076	-84.361	-3.0984e+05	2990.1	-0.12171	0.052021	0.98986
3.078	-84.47	-3.0985e+05	2989.9	-0.12161	0.052118	0.98976
3.08	-84.552	-3.0985e+05	2989.7	-0.12151	0.052216	0.98966
3.082	-84.565	-3.0985e+05	2989.6	-0.12024	0.052997	0.99113
3.084	-84.545	-3.0985e+05	2989.5	-0.11897	0.053778	0.99259
3.086	-84.497	-3.0985e+05	2989.3	-0.11771	0.054558	0.99406
3.088	-84.45	-3.0986e+05	2989.2	-0.11644	0.055339	0.99552
3.09	-84.463	-3.0986e+05	2989	-0.11517	0.05612	0.99698
3.092	-84.52	-3.0986e+05	2988.9	-0.11497	0.055242	0.99611
3.094	-84.593	-3.0985e+05	2988.7	-0.11478	0.054363	0.99523
3.096	-84.663	-3.0985e+05	2988.5	-0.11458	0.053485	0.99435
3.098	-84.686	-3.0985e+05	2988.4	-0.11439	0.052606	0.99347
3.1	-84.672	-3.0986e+05	2988.2	-0.11419	0.051728	0.99259
3.102	-84.635	-3.0986e+05	2988	-0.114	0.052606	0.99318
3.104	-84.571	-3.0986e+05	2987.8	-0.1138	0.053485	0.99376
3.106	-84.549	-3.0986e+05	2987.7	-0.11361	0.054363	0.99435
3.108	-84.585	-3.0986e+05	2987.6	-0.11341	0.055242	0.99493
3.11	-84.61	-3.0986e+05	2987.5	-0.11322	0.05612	0.99552
3.112	-84.682	-3.0987e+05	2987.4	-0.1138	0.055827	0.99503
3.114	-84.741	-3.0987e+05	2987.3	-0.11439	0.055534	0.99454
3.116	-84.719	-3.0986e+05	2987.2	-0.11497	0.055242	0.99406
3.118	-84.686	-3.0986e+05	2987.1	-0.11556	0.054949	0.99357
3.12	-84.612	-3.0986e+05	2986.9	-0.11614	0.054656	0.99308
3.122	-84.552	-3.0986e+05	2986.8	-0.11702	0.054754	0.99269
3.124	-84.585	-3.0986e+05	2986.7	-0.1179	0.054851	0.9923
3.126	-84.614	-3.0986e+05	2986.6	-0.11878	0.054949	0.99191
3.128	-84.677	-3.0986e+05	2986.4	-0.11966	0.055046	0.99152
3.13	-84.747	-3.0987e+05	2986.2	-0.12054	0.055144	0.99113
3.132	-84.726	-3.0987e+05	2985.9	-0.11976	0.054754	0.99142
3.134	-84.698	-3.0987e+05	2985.7	-0.11897	0.054363	0.99171
3.136	-84.643	-3.0987e+05	2985.5	-0.11819	0.053973	0.99201
3.138	-84.571	-3.0987e+05	2985.2	-0.11741	0.053582	0.9923
3.14	-84.564	-3.0987e+05	2985	-0.11663	0.053192	0.99259
3.142	-84.606	-3.0987e+05	2984.8	-0.11732	0.052802	0.99201
3.144	-84.672	-3.0987e+05	2984.6	-0.118	0.052411	0.99142
3.146	-84.74	-3.0987e+05	2984.4	-0.11868	0.052021	0.99084
3.148	-84.747	-3.0987e+05	2984.2	-0.11936	0.05163	0.99025
3.15	-84.729	-3.0987e+05	2984.1	-0.12005	0.05124	0.98966
3.152	-84.687	-3.0987e+05	2984	-0.11956	0.051728	0.99025
3.154	-84.616	-3.0987e+05	2984	-0.11907	0.052216	0.99084
3.156	-84.587	-3.0987e+05	2984.1	-0.11858	0.052704	0.99142
3.158	-84.602	-3.0987e+05	2984.3	-0.1181	0.053192	0.99201
3.16	-84.647	-3.0987e+05	2984.5	-0.11761	0.05368	0.99259
3.162	-84.713	-3.0987e+05	2984.9	-0.1178	0.052606	0.9924
3.164	-84.74	-3.0987e+05	2985.3	-0.118	0.051533	0.9922
3.166	-84.724	-3.0987e+05	2985.9	-0.11819	0.050459	0.99201
3.168	-84.682	-3.0987e+05	2986.7	-0.11839	0.049386	0.99181
3.17	-84.613	-3.0988e+05	2987.6	-0.11858	0.048312	0.99162
3.172	-84.578	-3.0988e+05	2988.9	-0.11712	0.04841	0.99162
3.174	-84.61	-3.0988e+05	2990.3	-0.11566	0.048507	0.99162
3.176	-84.653	-3.0988e+05	2992	-0.11419	0.048605	0.99162
3.178	-84.702	-3.0988e+05	2994.1	-0.11273	0.048702	0.99162
3.18	-84.759	-3.0988e+05	2996.2	-0.11126	0.0488	0.99162
3.182	-84.762	-3.0988e+05	2999.1	-0.11126	0.049093	0.99181
3.184	-84.735	-3.0988e+05	3002	-0.11126	0.049386	0.99201
3.186	-84.687	-3.0988e+05	3005.2	-0.11126	0.049678	0.9922
3.188	-84.632	-3.0988e+05	3008.7	-0.11126	0.049971	0.9924
3.19	-84.626	-3.0988e+05	3012.1	-0.11126	0.050264	0.99259
3.192	-84.649	-3.0988e+05	3016	-0.11068	0.049776	0.99308
3.194	-84.699	-3.0988e+05	3019.8	-0.11009	0.049288	0.99357
3.196	-84.77	-3.0988e+05	3023.8	-0.10951	0.0488	0.99406
3.198	-84.782	-3.0988e+05	3027.9	-0.10892	0.048312	0.99454
3.2	-84.75	-3.0989e+05	3031.9	-0.10834	0.047824	0.99503
3.202	-84.726	-3.0989e+05	3036	-0.10941	0.047726	0.99474
3.204	-84.669	-3.0988e+05	3040	-0.11048	0.047629	0.99445
3.206	-84.633	-3.0987e+05	3044	-0.11156	0.047531	0.99415
3.208	-84.66	-3.0987e+05	3047.9	-0.11263	0.047434	0.99386
3.21	-84.704	-3.0987e+05	3051.8	-0.1137	0.047336	0.99357
3.212	-84.792	-3.0986e+05	3055.5	-0.11292	0.048019	0.99357
3.214	-84.827	-3.0986e+05	3059.2	-0.11214	0.048702	0.99357
3.216	-84.802	-3.0986e+05	3062.8	-0.11136	0.049386	0.99357
3.218	-84.767	-3.0986e+05	3066.1	-0.11058	0.050069	0.99357
3.22	-84.685	-3.0985e+05	3069.3	-0.1098	0.050752	0.99357
3.222	-84.641	-3.0985e+05	3072.2	-0.11175	0.052118	0.99425
3.224	-84.659	-3.0984e+05	3075.1	-0.1137	0.053485	0.99493
3.226	-84.692	-3.0984e+05	3078	-0.11566	0.054851	0.99562
3.228	-84.789	-3.0983e+05	3080.8	-0.11761	0.056218	0.9963
3.23	-84.859	-3.0983e+05	3083.6	-0.11956	0.057584	0.99698
3.232	-84.844	-3.0982e+05	3085.9	-0.11936	0.057779	0.99747
3.234	-84.824	-3.0982e+05	3088.2	-0.11917	0.057974	0.99796
3.236	-84.763	-3.0982e+05	3090.3	-0.11897	0.05817	0.99845
3.238	-84.692	-3.0981e+05	3092.3	-0.11878	0.058365	0.99894
3.24	-84.68	-3.0981e+05	3094.3	-0.11858	0.05856	0.99942
3.242	-84.709	-3.0981e+05	3095.9	-0.11858	0.05817	0.99903
3.244	-84.787	-3.098e+05	3097.5	-0.11858	0.057779	0.99864
3.246	-84.872	-3.0979e+05	3098.8	-0.11858	0.057389	0.99825
3.248	-84.884	-3.0979e+05	3100	-0.11858	0.056998	0.99786
3.25	-84.854	-3.0978e+05	3101.2	-0.11858	0.056608	0.99747
3.252	-84.811	-3.0978e+05	3102.3	-0.11936	0.056315	0.99669
3.254	-84.758	-3.0977e+05	3103.3	-0.12015	0.056022	0.99591
3.256	-84.737	-3.0976e+05	3104.2	-0.12093	0.05573	0.99513
3.258	-84.75	-3.0976e+05	3105.1	-0.12171	0.055437	0.99435
3.26	-84.783	-3.0975e+05	3105.9	-0.12249	0.055144	0.99357
3.262	-84.849	-3.0975e+05	3106.5	-0.12171	0.055242	0.99328
3.264	-84.892	-3.0973e+05	3107.2	-0.12093	0.055339	0.99298
3.266	-84.873	-3.0972e+05	3107.7	-0.12015	0.055437	0.99269
3.268	-84.839	-3.0972e+05	3108.2	-0.11936	0.055534	0.9924
3.27	-84.783	-3.0971e+05	3108.6	-0.11858	0.055632	0.9921
3.272	-84.727	-3.097e+05	3109	-0.11761	0.054656	0.99181
3.274	-84.722	-3.0969e+05	3109.4	-0.11663	0.05368	0.99152
3.276	-84.746	-3.0968e+05	3109.6	-0.11566	0.052704	0.99123
3.278	-84.801	-3.0967e+05	3109.9	-0.11468	0.051728	0.99093
3.28	-84.865	-3.0967e+05	3110.1	-0.1137	0.050752	0.99064
3.282	-84.855	-3.0966e+05	3110.1	-0.11351	0.05124	0.99103
3.284	-84.812	-3.0965e+05	3110.2	-0.11331	0.051728	0.99142
3.286	-84.747	-3.0964e+05	3110.1	-0.11312	0.052216	0.99181
3.288	-84.67	-3.0964e+05	3110	-0.11292	0.052704	0.9922
3.29	-84.679	-3.0963e+05	3109.9	-0.11273	0.053192	0.99259
3.292	-84.72	-3.0962e+05	3109.7	-0.11156	0.053094	0.99249
3.294	-84.757	-3.0962e+05	3109.5	-0.11039	0.052997	0.9924
3.296	-84.824	-3.0962e+05	3109.3	-0.10921	0.052899	0.9923
3.298	-84.839	-3.0961e+05	3109	-0.10804	0.052802	0.9922
3.3	-84.802	-3.0959e+05	3108.7	-0.10687	0.052704	0.9921
3.302	-84.737	-3.0959e+05	3108.3	-0.10521	0.051728	0.99249
3.304	-84.655	-3.0959e+05	3107.9	-0.10355	0.050752	0.99288
3.306	-84.638	-3.0958e+05	3107.5	-0.10189	0.049776	0.99328
3.308	-84.665	-3.0957e+05	3107.1	-0.10024	0.0488	0.99367
3.31	-84.714	-3.0955e+05	3106.6	-0.098576	0.047824	0.99406
3.312	-84.783	-3.0954e+05	3106.2	-0.097795	0.046946	0.99503
3.314	-84.808	-3.0953e+05	3105.7	-0.097014	0.046067	0.99601
3.316	-84.78	-3.0953e+05	3105.3	-0.096234	0.045189	0.99698
3.318	-84.739	-3.0953e+05	3104.8	-0.095453	0.04431	0.99796
3.32	-84.667	-3.0953e+05	3104.3	-0.094672	0.043432	0.99894
3.322	-84.614	-3.0953e+05	3103.8	-0.095941	0.043042	0.99972
3.324	-84.623	-3.0952e+05	3103.3	-0.09721	0.042651	1.0005
3.326	-84.666	-3.0951e+05	3102.9	-0.098478	0.042261	1.0013
3.328	-84.718	-3.0951e+05	3102.5	-0.099747	0.04187	1.0021
3.33	-84.759	-3.095e+05	3102.2	-0.10102	0.04148	1.0028
3.332	-84.77	-3.0949e+05	3102	-0.1018	0.042749	1.0013
3.334	-84.737	-3.0948e+05	3101.8	-0.10258	0.044018	0.99972
3.336	-84.668	-3.0949e+05	3101.6	-0.10336	0.045286	0.99816
3.338	-84.608	-3.0949e+05	3101.5	-0.10414	0.046555	0.99659
3.34	-84.598	-3.0948e+05	3101.3	-0.10492	0.047824	0.99503
3.342	-84.628	-3.0947e+05	3101.3	-0.10492	0.04841	0.99464
3.344	-84.689	-3.0946e+05	3101.2	-0.10492	0.048995	0.99425
3.346	-84.76	-3.0945e+05	3101.1	-0.10492	0.049581	0.99386
3.348	-84.78	-3.0944e+05	3100.9	-0.10492	0.050166	0.99347
3.35	-84.747	-3.0944e+05	3100.8	-0.10492	0.050752	0.99308
3.352	-84.691	-3.0944e+05	3100.6	-0.10619	0.049678	0.99298
3.354	-84.624	-3.0944e+05	3100.4	-0.10746	0.048605	0.99288
3.356	-84.606	-3.0943e+05	3100.2	-0.10873	0.047531	0.99279
3.358	-84.634	-3.0942e+05	3099.9	-0.11	0.046458	0.99269
3.36	-84.669	-3.0942e+05	3099.7	-0.11126	0.045384	0.99259
3.362	-84.736	-3.0942e+05	3099.3	-0.11165	0.044994	0.99376
3.364	-84.772	-3.0942e+05	3098.9	-0.11204	0.044603	0.99493
3.366	-84.739	-3.0941e+05	3098.5	-0.11244	0.044213	0.99611
3.368	-84.703	-3.094e+05	3098	-0.11283	0.043822	0.99728
3.37	-84.647	-3.0939e+05	3097.5	-0.11322	0.043432	0.99845
3.372	-84.602	-3.094e+05	3097	-0.11458	0.044506	0.99728
3.374	-84.618	-3.094e+05	3096.4	-0.11595	0.045579	0.99611
3.376	-84.662	-3.094e+05	3095.7	-0.11732	0.046653	0.99493
3.378	-84.723	-3.094e+05	3094.9	-0.11868	0.047726	0.99376
3.38	-84.773	-3.094e+05	3094.1	-0.12005	0.0488	0.99259
3.382	-84.731	-3.0939e+05	3093.2	-0.12054	0.050752	0.99337
3.384	-84.692	-3.0939e+05	3092.3	-0.12102	0.052704	0.99415
3.386	-84.666	-3.0938e+05	3091.4	-0.12151	0.054656	0.99493
3.388	-84.607	-3.0938e+05	3090.3	-0.122	0.056608	0.99572
3.39	-84.597	-3.0937e+05	3089.2	-0.12249	0.05856	0.9965
3.392	-84.628	-3.0937e+05	3087.9	-0.12239	0.058267	0.99708
3.394	-84.686	-3.0937e+05	3086.6	-0.12229	0.057974	0.99767
3.396	-84.756	-3.0937e+05	3085.1	-0.1222	0.057682	0.99825
3.398	-84.772	-3.0937e+05	3083.5	-0.1221	0.057389	0.99884
3.4	-84.737	-3.0937e+05	3081.9	-0.122	0.057096	0.99942
3.402	-84.684	-3.0937e+05	3080.2	-0.12249	0.057584	0.99903
3.404	-84.634	-3.0937e+05	3078.4	-0.12298	0.058072	0.99864
3.406	-84.618	-3.0936e+05	3076.6	-0.12346	0.05856	0.99825
3.408	-84.633	-3.0936e+05	3074.8	-0.12395	0.059048	0.99786
3.41	-84.668	-3.0935e+05	3072.9	-0.12444	0.059536	0.99747
3.412	-84.746	-3.0935e+05	3071	-0.12337	0.059634	0.99767
3.414	-84.782	-3.0935e+05	3069.1	-0.12229	0.059731	0.99786
3.416	-84.765	-3.0935e+05	3067.3	-0.12122	0.059829	0.99806
3.418	-84.725	-3.0935e+05	3065.4	-0.12015	0.059926	0.99825
3.42	-84.658	-3.0935e+05	3063.6	-0.11907	0.060024	0.99845
3.422	-84.616	-3.0935e+05	3061.9	-0.11868	0.060317	0.99816
3.424	-84.62	-3.0934e+05	3060.1	-0.11829	0.06061	0.99786
3.426	-84.653	-3.0934e+05	3058.4	-0.1179	0.060902	0.99757
3.428	-84.724	-3.0934e+05	3056.9	-0.11751	0.061195	0.99728
3.43	-84.78	-3.0934e+05	3055.3	-0.11712	0.061488	0.99698
3.432	-84.774	-3.0934e+05	3053.8	-0.11566	0.06061	0.99737
3.434	-84.749	-3.0934e+05	3052.4	-0.11419	0.059731	0.99776
3.436	-84.699	-3.0934e+05	3051.1	-0.11273	0.058853	0.99816
3.438	-84.631	-3.0934e+05	3049.9	-0.11126	0.057974	0.99855
3.44	-84.618	-3.0934e+05	3048.7	-0.1098	0.057096	0.99894
3.442	-84.653	-3.0934e+05	3047.9	-0.1098	0.056998	0.99825
3.444	-84.727	-3.0934e+05	3047.1	-0.1098	0.056901	0.99757
3.446	-84.821	-3.0935e+05	3046.4	-0.1098	0.056803	0.99689
3.448	-84.839	-3.0935e+05	3045.9	-0.1098	0.056706	0.9962
3.45	-84.795	-3.0935e+05	3045.3	-0.1098	0.056608	0.99552
3.452	-84.729	-3.0935e+05	3045.1	-0.10853	0.056706	0.99562
3.454	-84.642	-3.0935e+05	3044.8	-0.10726	0.056803	0.99572
3.456	-84.626	-3.0935e+05	3044.6	-0.10599	0.056901	0.99581
3.458	-84.681	-3.0935e+05	3044.4	-0.10472	0.056998	0.99591
3.46	-84.71	-3.0935e+05	3044.3	-0.10346	0.057096	0.99601
3.462	-84.768	-3.0935e+05	3044.3	-0.10316	0.056315	0.99562
3.464	-84.798	-3.0935e+05	3044.3	-0.10287	0.055534	0.99523
3.466	-84.782	-3.0935e+05	3044.3	-0.10258	0.054754	0.99484
3.468	-84.764	-3.0935e+05	3044.3	-0.10228	0.053973	0.99445
3.47	-84.684	-3.0935e+05	3044.3	-0.10199	0.053192	0.99406
3.472	-84.616	-3.0935e+05	3044.5	-0.10053	0.053778	0.99464
3.474	-84.645	-3.0935e+05	3044.6	-0.099064	0.054363	0.99523
3.476	-84.711	-3.0936e+05	3044.9	-0.0976	0.054949	0.99581
3.478	-84.775	-3.0936e+05	3045.3	-0.096136	0.055534	0.9964
3.48	-84.831	-3.0937e+05	3045.7	-0.094672	0.05612	0.99698
3.482	-84.823	-3.0937e+05	3046	-0.095941	0.054851	0.99601
3.484	-84.788	-3.0936e+05	3046.4	-0.09721	0.053582	0.99503
3.486	-84.726	-3.0936e+05	3046.6	-0.098478	0.052314	0.99406
3.488	-84.675	-3.0936e+05	3046.9	-0.099747	0.051045	0.99308
3.49	-84.675	-3.0936e+05	3047.2	-0.10102	0.049776	0.9921
3.492	-84.697	-3.0937e+05	3047.4	-0.10082	0.050264	0.99308
3.494	-84.75	-3.0937e+05	3047.6	-0.10063	0.050752	0.99406
3.496	-84.819	-3.0937e+05	3047.8	-0.10043	0.05124	0.99503
3.498	-84.832	-3.0937e+05	3048	-0.10024	0.051728	0.99601
3.5	-84.811	-3.0937e+05	3048.1	-0.10004	0.052216	0.99698
3.502	-84.76	-3.0937e+05	3048.2	-0.10072	0.053094	0.99679
3.504	-84.694	-3.0937e+05	3048.3	-0.10141	0.053973	0.99659
3.506	-84.668	-3.0937e+05	3048.4	-0.10209	0.054851	0.9964
3.508	-84.68	-3.0938e+05	3048.4	-0.10277	0.05573	0.9962
3.51	-84.726	-3.0938e+05	3048.5	-0.10346	0.056608	0.99601
3.512	-84.796	-3.0938e+05	3048.4	-0.10512	0.055339	0.99562
3.514	-84.822	-3.0938e+05	3048.2	-0.10677	0.05407	0.99523
3.516	-84.792	-3.0938e+05	3048.1	-0.10843	0.052802	0.99484
3.518	-84.751	-3.0938e+05	3048	-0.11009	0.051533	0.99445
3.52	-84.706	-3.0938e+05	3047.8	-0.11175	0.050264	0.99406
3.522	-84.676	-3.0938e+05	3047.6	-0.11234	0.049678	0.99376
3.524	-84.682	-3.0938e+05	3047.4	-0.11292	0.049093	0.99347
3.526	-84.713	-3.0938e+05	3047.2	-0.11351	0.048507	0.99318
3.528	-84.775	-3.0938e+05	3046.9	-0.11409	0.047922	0.99288
3.53	-84.833	-3.0938e+05	3046.6	-0.11468	0.047336	0.99259
3.532	-84.823	-3.0939e+05	3046.2	-0.11732	0.048019	0.9921
3.534	-84.781	-3.0939e+05	3045.8	-0.11995	0.048702	0.99162
3.536	-84.725	-3.0939e+05	3045.4	-0.12259	0.049386	0.99113
3.538	-84.658	-3.0939e+05	3044.9	-0.12522	0.050069	0.99064
3.54	-84.663	-3.0939e+05	3044.4	-0.12786	0.050752	0.99015
3.542	-84.703	-3.0939e+05	3043.9	-0.12805	0.050654	0.99054
3.544	-84.752	-3.0939e+05	3043.5	-0.12825	0.050557	0.99093
3.546	-84.82	-3.094e+05	3043	-0.12844	0.050459	0.99132
3.548	-84.821	-3.094e+05	3042.5	-0.12864	0.050362	0.99171
3.55	-84.797	-3.094e+05	3042	-0.12883	0.050264	0.9921
3.552	-84.779	-3.094e+05	3041.5	-0.12922	0.050166	0.99171
3.554	-84.697	-3.0939e+05	3040.9	-0.12961	0.050069	0.99132
3.556	-84.7	-3.0939e+05	3040.4	-0.13	0.049971	0.99093
3.558	-84.739	-3.0939e+05	3039.8	-0.13039	0.049874	0.99054
3.56	-84.786	-3.094e+05	3039.3	-0.13078	0.049776	0.99015
3.562	-84.884	-3.094e+05	3038.7	-0.13127	0.050166	0.98976
3.564	-84.967	-3.094e+05	3038.2	-0.13176	0.050557	0.98937
3.566	-85.011	-3.094e+05	3037.6	-0.13225	0.050947	0.98898
3.568	-85.04	-3.0941e+05	3036.9	-0.13274	0.051338	0.98859
3.57	-85.043	-3.0941e+05	3036.3	-0.13322	0.051728	0.9882
3.572	-85.088	-3.0942e+05	3035.7	-0.1303	0.052606	0.98986
3.574	-85.192	-3.0942e+05	3035.1	-0.12737	0.053485	0.99152
3.576	-85.293	-3.0942e+05	3034.6	-0.12444	0.054363	0.99318
3.578	-85.406	-3.0942e+05	3034.2	-0.12151	0.055242	0.99484
3.58	-85.506	-3.0942e+05	3033.7	-0.11858	0.05612	0.9965
3.582	-85.505	-3.0942e+05	3033.4	-0.11849	0.055242	0.99562
3.584	-85.461	-3.0942e+05	3033.1	-0.11839	0.054363	0.99474
3.586	-85.373	-3.0942e+05	3032.8	-0.11829	0.053485	0.99386
3.588	-85.27	-3.0942e+05	3032.6	-0.11819	0.052606	0.99298
3.59	-85.169	-3.0943e+05	3032.3	-0.1181	0.051728	0.9921
3.592	-85.015	-3.0943e+05	3032.1	-0.11936	0.052411	0.99162
3.594	-84.848	-3.0943e+05	3031.8	-0.12063	0.053094	0.99113
3.596	-84.732	-3.0943e+05	3031.6	-0.1219	0.053778	0.99064
3.598	-84.633	-3.0944e+05	3031.3	-0.12317	0.054461	0.99015
3.6	-84.53	-3.0945e+05	3031	-0.12444	0.055144	0.98966
3.602	-84.428	-3.0946e+05	3030.6	-0.12132	0.053973	0.99035
3.604	-84.333	-3.0947e+05	3030.3	-0.11819	0.052802	0.99103
3.606	-84.277	-3.0948e+05	3029.9	-0.11507	0.05163	0.99171
3.608	-84.279	-3.0948e+05	3029.5	-0.11195	0.050459	0.9924
3.61	-84.331	-3.0948e+05	3029.1	-0.10882	0.049288	0.99308
3.612	-84.411	-3.0948e+05	3028.7	-0.10775	0.050264	0.99396
3.614	-84.449	-3.0948e+05	3028.2	-0.10668	0.05124	0.99484
3.616	-84.427	-3.0948e+05	3027.8	-0.1056	0.052216	0.99572
3.618	-84.396	-3.0948e+05	3027.3	-0.10453	0.053192	0.99659
3.62	-84.359	-3.0948e+05	3026.9	-0.10346	0.054168	0.99747
3.622	-84.336	-3.0949e+05	3026.4	-0.10307	0.054363	0.99737
3.624	-84.375	-3.0949e+05	3025.8	-0.10268	0.054558	0.99728
3.626	-84.45	-3.0949e+05	3025.3	-0.10228	0.054754	0.99718
3.628	-84.558	-3.0949e+05	3024.8	-0.10189	0.054949	0.99708
3.63	-84.634	-3.095e+05	3024.3	-0.1015	0.055144	0.99698
3.632	-84.638	-3.0951e+05	3024	-0.10307	0.055534	0.99747
3.634	-84.638	-3.0951e+05	3023.6	-0.10463	0.055925	0.99796
3.636	-84.62	-3.095e+05	3023.3	-0.10619	0.056315	0.99845
3.638	-84.572	-3.095e+05	3023	-0.10775	0.056706	0.99894
3.64	-84.593	-3.095e+05	3022.7	-0.10931	0.057096	0.99942
3.642	-84.647	-3.095e+05	3022.4	-0.10921	0.056803	0.99981
3.644	-84.721	-3.095e+05	3022.1	-0.10912	0.05651	1.0002
3.646	-84.808	-3.0951e+05	3021.8	-0.10902	0.056218	1.0006
3.648	-84.817	-3.0951e+05	3021.5	-0.10892	0.055925	1.001
3.65	-84.798	-3.0951e+05	3021.2	-0.10882	0.055632	1.0014
3.652	-84.751	-3.0952e+05	3021	-0.10863	0.055925	1.0008
3.654	-84.671	-3.0952e+05	3020.8	-0.10843	0.056218	1.0002
3.656	-84.652	-3.0952e+05	3020.6	-0.10824	0.05651	0.99962
3.658	-84.693	-3.0953e+05	3020.4	-0.10804	0.056803	0.99903
3.66	-84.758	-3.0953e+05	3020.2	-0.10785	0.057096	0.99845
3.662	-84.833	-3.0953e+05	3020	-0.10843	0.056803	0.99855
3.664	-84.858	-3.0953e+05	3019.8	-0.10902	0.05651	0.99864
3.666	-84.822	-3.0953e+05	3019.7	-0.1096	0.056218	0.99874
3.668	-84.777	-3.0953e+05	3019.5	-0.11019	0.055925	0.99884
3.67	-84.719	-3.0953e+05	3019.3	-0.11078	0.055632	0.99894
3.672	-84.692	-3.0954e+05	3019.1	-0.11029	0.056022	0.99825
3.674	-84.708	-3.0954e+05	3018.9	-0.1098	0.056413	0.99757
3.676	-84.748	-3.0955e+05	3018.6	-0.10931	0.056803	0.99689
3.678	-84.817	-3.0956e+05	3018.3	-0.10882	0.057194	0.9962
3.68	-84.872	-3.0956e+05	3018	-0.10834	0.057584	0.99552
3.682	-84.867	-3.0956e+05	3017.8	-0.10912	0.05651	0.99513
3.684	-84.828	-3.0956e+05	3017.5	-0.1099	0.055437	0.99474
3.686	-84.765	-3.0957e+05	3017.2	-0.11068	0.054363	0.99435
3.688	-84.703	-3.0957e+05	3016.9	-0.11146	0.05329	0.99396
3.69	-84.698	-3.0957e+05	3016.6	-0.11224	0.052216	0.99357
3.692	-84.742	-3.0958e+05	3016.3	-0.11263	0.052216	0.99367
3.694	-84.815	-3.0958e+05	3016	-0.11302	0.052216	0.99376
3.696	-84.886	-3.0958e+05	3015.7	-0.11341	0.052216	0.99386
3.698	-84.889	-3.0959e+05	3015.5	-0.1138	0.052216	0.99396
3.7	-84.848	-3.0959e+05	3015.2	-0.11419	0.052216	0.99406
3.702	-84.808	-3.0959e+05	3015.1	-0.11439	0.052314	0.99435
3.704	-84.745	-3.096e+05	3014.9	-0.11458	0.052411	0.99464
3.706	-84.72	-3.096e+05	3014.8	-0.11478	0.052509	0.99493
3.708	-84.739	-3.096e+05	3014.8	-0.11497	0.052606	0.99523
3.71	-84.776	-3.096e+05	3014.7	-0.11517	0.052704	0.99552
3.712	-84.865	-3.096e+05	3014.7	-0.11546	0.052606	0.99542
3.714	-84.917	-3.0961e+05	3014.7	-0.11575	0.052509	0.99532
3.716	-84.877	-3.096e+05	3014.9	-0.11605	0.052411	0.99523
3.718	-84.841	-3.096e+05	3015.1	-0.11634	0.052314	0.99513
3.72	-84.771	-3.0961e+05	3015.4	-0.11663	0.052216	0.99503
3.722	-84.728	-3.0961e+05	3015.9	-0.11722	0.052314	0.99484
3.724	-84.747	-3.0962e+05	3016.5	-0.1178	0.052411	0.99464
3.726	-84.772	-3.0962e+05	3017.2	-0.11839	0.052509	0.99445
3.728	-84.863	-3.0962e+05	3018.1	-0.11897	0.052606	0.99425
3.73	-84.933	-3.0962e+05	3019.1	-0.11956	0.052704	0.99406
3.732	-84.895	-3.0963e+05	3020.5	-0.11849	0.05163	0.99415
3.734	-84.858	-3.0963e+05	3021.8	-0.11741	0.050557	0.99425
3.736	-84.816	-3.0963e+05	3023.5	-0.11634	0.049483	0.99435
3.738	-84.754	-3.0963e+05	3025.3	-0.11527	0.04841	0.99445
3.74	-84.743	-3.0964e+05	3027.1	-0.11419	0.047336	0.99454
3.742	-84.76	-3.0964e+05	3029.5	-0.114	0.046555	0.99513
3.744	-84.819	-3.0964e+05	3031.8	-0.1138	0.045774	0.99572
3.746	-84.887	-3.0964e+05	3034.4	-0.11361	0.044994	0.9963
3.748	-84.897	-3.0965e+05	3037.2	-0.11341	0.044213	0.99689
3.75	-84.877	-3.0965e+05	3039.9	-0.11322	0.043432	0.99747
3.752	-84.831	-3.0965e+05	3043.2	-0.11312	0.045286	0.99669
3.754	-84.761	-3.0965e+05	3046.5	-0.11302	0.047141	0.99591
3.756	-84.765	-3.0966e+05	3050	-0.11292	0.048995	0.99513
3.758	-84.792	-3.0965e+05	3053.8	-0.11283	0.05085	0.99435
3.76	-84.828	-3.0965e+05	3057.5	-0.11273	0.052704	0.99357
3.762	-84.905	-3.0965e+05	3061.4	-0.11195	0.051533	0.99376
3.764	-84.948	-3.0965e+05	3065.3	-0.11117	0.050362	0.99396
3.766	-84.932	-3.0966e+05	3069.1	-0.11039	0.04919	0.99415
3.768	-84.89	-3.0966e+05	3072.9	-0.1096	0.048019	0.99435
3.77	-84.821	-3.0966e+05	3076.7	-0.10882	0.046848	0.99454
3.772	-84.778	-3.0966e+05	3080.3	-0.10814	0.04841	0.99513
3.774	-84.8	-3.0966e+05	3084	-0.10746	0.049971	0.99572
3.776	-84.849	-3.0967e+05	3087.5	-0.10677	0.051533	0.9963
3.778	-84.909	-3.0966e+05	3090.9	-0.10609	0.053094	0.99689
3.78	-84.956	-3.0965e+05	3094.3	-0.10541	0.054656	0.99747
3.782	-84.947	-3.0965e+05	3097.2	-0.10609	0.054851	0.99816
3.784	-84.904	-3.0966e+05	3100.1	-0.10677	0.055046	0.99884
3.786	-84.856	-3.0966e+05	3102.7	-0.10746	0.055242	0.99952
3.788	-84.811	-3.0965e+05	3105.2	-0.10814	0.055437	1.0002
3.79	-84.819	-3.0965e+05	3107.6	-0.10882	0.055632	1.0009
3.792	-84.848	-3.0964e+05	3109.6	-0.10921	0.054851	0.99933
3.794	-84.899	-3.0964e+05	3111.6	-0.1096	0.05407	0.99776
3.796	-84.987	-3.0963e+05	3113.5	-0.11	0.05329	0.9962
3.798	-84.993	-3.0963e+05	3115.1	-0.11039	0.052509	0.99464
3.8	-84.953	-3.0964e+05	3116.8	-0.11078	0.051728	0.99308
3.802	-84.928	-3.0964e+05	3118.1	-0.11029	0.052411	0.99357
3.804	-84.859	-3.0963e+05	3119.4	-0.1098	0.053094	0.99406
3.806	-84.841	-3.0962e+05	3120.4	-0.10931	0.053778	0.99454
3.808	-84.871	-3.0962e+05	3121.3	-0.10882	0.054461	0.99503
3.81	-84.909	-3.0962e+05	3122.2	-0.10834	0.055144	0.99552
3.812	-84.994	-3.0962e+05	3122.7	-0.10951	0.055144	0.99601
3.814	-85.018	-3.0962e+05	3123.2	-0.11068	0.055144	0.9965
3.816	-84.985	-3.0962e+05	3123.6	-0.11185	0.055144	0.99698
3.818	-84.951	-3.0961e+05	3123.9	-0.11302	0.055144	0.99747
3.82	-84.868	-3.0961e+05	3124.2	-0.11419	0.055144	0.99796
3.822	-84.824	-3.0961e+05	3124.2	-0.1137	0.055046	0.99806
3.824	-84.845	-3.0961e+05	3124.2	-0.11322	0.054949	0.99816
3.826	-84.886	-3.096e+05	3124.1	-0.11273	0.054851	0.99825
3.828	-84.954	-3.0959e+05	3124	-0.11224	0.054754	0.99835
3.83	-84.985	-3.0958e+05	3124	-0.11175	0.054656	0.99845
3.832	-84.972	-3.0958e+05	3123.6	-0.11195	0.054949	0.99776
3.834	-84.947	-3.0957e+05	3123.3	-0.11214	0.055242	0.99708
3.836	-84.883	-3.0957e+05	3122.9	-0.11234	0.055534	0.9964
3.838	-84.815	-3.0957e+05	3122.6	-0.11253	0.055827	0.99572
3.84	-84.806	-3.0956e+05	3122.2	-0.11273	0.05612	0.99503
3.842	-84.835	-3.0955e+05	3121.7	-0.11331	0.056022	0.99523
3.844	-84.895	-3.0955e+05	3121.3	-0.1139	0.055925	0.99542
3.846	-84.958	-3.0955e+05	3120.8	-0.11448	0.055827	0.99562
3.848	-84.958	-3.0955e+05	3120.3	-0.11507	0.05573	0.99581
3.85	-84.917	-3.0954e+05	3119.8	-0.11566	0.055632	0.99601
3.852	-84.864	-3.0954e+05	3119.2	-0.11527	0.055144	0.99552
3.854	-84.796	-3.0953e+05	3118.7	-0.11488	0.054656	0.99503
3.856	-84.769	-3.0953e+05	3118.1	-0.11448	0.054168	0.99454
3.858	-84.793	-3.0953e+05	3117.5	-0.11409	0.05368	0.99406
3.86	-84.827	-3.0952e+05	3116.9	-0.1137	0.053192	0.99357
3.862	-84.879	-3.0951e+05	3116.4	-0.11527	0.053582	0.99347
3.864	-84.909	-3.095e+05	3115.9	-0.11683	0.053973	0.99337
3.866	-84.883	-3.095e+05	3115.3	-0.11839	0.054363	0.99328
3.868	-84.853	-3.0951e+05	3114.7	-0.11995	0.054754	0.99318
3.87	-84.801	-3.095e+05	3114.1	-0.12151	0.055144	0.99308
3.872	-84.748	-3.095e+05	3113.4	-0.12054	0.053582	0.99318
3.874	-84.763	-3.0949e+05	3112.8	-0.11956	0.052021	0.99328
3.876	-84.803	-3.0949e+05	3112.1	-0.11858	0.050459	0.99337
3.878	-84.863	-3.0949e+05	3111.4	-0.11761	0.048898	0.99347
3.88	-84.924	-3.0948e+05	3110.8	-0.11663	0.047336	0.99357
3.882	-84.891	-3.0948e+05	3110.3	-0.11683	0.048702	0.99347
3.884	-84.85	-3.0947e+05	3109.9	-0.11702	0.050069	0.99337
3.886	-84.823	-3.0946e+05	3109.5	-0.11722	0.051435	0.99328
3.888	-84.742	-3.0946e+05	3109.1	-0.11741	0.052802	0.99318
3.89	-84.741	-3.0945e+05	3108.6	-0.11761	0.054168	0.99308
3.892	-84.771	-3.0945e+05	3108.2	-0.11624	0.053192	0.99308
3.894	-84.823	-3.0945e+05	3107.8	-0.11488	0.052216	0.99308
3.896	-84.905	-3.0946e+05	3107.4	-0.11351	0.05124	0.99308
3.898	-84.898	-3.0946e+05	3106.9	-0.11214	0.050264	0.99308
3.9	-84.871	-3.0945e+05	3106.4	-0.11078	0.049288	0.99308
3.902	-84.823	-3.0945e+05	3105.9	-0.11058	0.049288	0.99308
3.904	-84.738	-3.0944e+05	3105.5	-0.11039	0.049288	0.99308
3.906	-84.718	-3.0944e+05	3104.9	-0.11019	0.049288	0.99308
3.908	-84.753	-3.0944e+05	3104.4	-0.11	0.049288	0.99308
3.91	-84.798	-3.0944e+05	3103.8	-0.1098	0.049288	0.99308
3.912	-84.868	-3.0944e+05	3103.1	-0.11029	0.048019	0.99435
3.914	-84.892	-3.0944e+05	3102.4	-0.11078	0.04675	0.99562
3.916	-84.873	-3.0944e+05	3101.7	-0.11126	0.045482	0.99689
3.918	-84.833	-3.0944e+05	3100.9	-0.11175	0.044213	0.99816
3.92	-84.76	-3.0943e+05	3100.1	-0.11224	0.042944	0.99942
3.922	-84.712	-3.0943e+05	3099.3	-0.11214	0.043725	0.99864
3.924	-84.716	-3.0943e+05	3098.5	-0.11204	0.044506	0.99786
3.926	-84.749	-3.0942e+05	3097.5	-0.11195	0.045286	0.99708
3.928	-84.815	-3.0942e+05	3096.4	-0.11185	0.046067	0.9963
3.93	-84.858	-3.0942e+05	3095.4	-0.11175	0.046848	0.99552
3.932	-84.855	-3.0942e+05	3094.2	-0.11195	0.047531	0.99503
3.934	-84.831	-3.0942e+05	3093	-0.11214	0.048214	0.99454
3.936	-84.77	-3.0942e+05	3091.8	-0.11234	0.048898	0.99406
3.938	-84.71	-3.0941e+05	3090.4	-0.11253	0.049581	0.99357
3.94	-84.716	-3.0941e+05	3089	-0.11273	0.050264	0.99308
3.942	-84.752	-3.094e+05	3087.5	-0.11302	0.051045	0.99396
3.944	-84.8	-3.094e+05	3086.1	-0.11331	0.051826	0.99484
3.946	-84.858	-3.094e+05	3084.6	-0.11361	0.052606	0.99572
3.948	-84.877	-3.094e+05	3083.2	-0.1139	0.053387	0.99659
3.95	-84.852	-3.094e+05	3081.7	-0.11419	0.054168	0.99747
3.952	-84.791	-3.0941e+05	3080.1	-0.11556	0.054363	0.99659
3.954	-84.723	-3.0941e+05	3078.5	-0.11692	0.054558	0.99572
3.956	-84.708	-3.094e+05	3076.8	-0.11829	0.054754	0.99484
3.958	-84.735	-3.094e+05	3075.1	-0.11966	0.054949	0.99396
3.96	-84.775	-3.094e+05	3073.3	-0.12102	0.055144	0.99308
3.962	-84.849	-3.094e+05	3071.6	-0.12054	0.054656	0.99318
3.964	-84.887	-3.094e+05	3069.9	-0.12005	0.054168	0.99328
3.966	-84.847	-3.094e+05	3068.3	-0.11956	0.05368	0.99337
3.968	-84.796	-3.0941e+05	3066.7	-0.11907	0.053192	0.99347
3.97	-84.738	-3.0941e+05	3065.1	-0.11858	0.052704	0.99357
3.972	-84.704	-3.0941e+05	3063.6	-0.11858	0.05329	0.99396
3.974	-84.724	-3.0941e+05	3062.2	-0.11858	0.053875	0.99435
3.976	-84.761	-3.094e+05	3060.7	-0.11858	0.054461	0.99474
3.978	-84.831	-3.094e+05	3059.3	-0.11858	0.055046	0.99513
3.98	-84.89	-3.094e+05	3058	-0.11858	0.055632	0.99552
3.982	-84.875	-3.094e+05	3056.6	-0.11829	0.054558	0.99474
3.984	-84.845	-3.094e+05	3055.3	-0.118	0.053485	0.99396
3.986	-84.791	-3.0941e+05	3054.1	-0.11771	0.052411	0.99318
3.988	-84.72	-3.0941e+05	3053	-0.11741	0.051338	0.9924
3.99	-84.715	-3.0942e+05	3051.9	-0.11712	0.050264	0.99162
3.992	-84.751	-3.0942e+05	3051	-0.11566	0.050557	0.9921
3.994	-84.816	-3.0942e+05	3050	-0.11419	0.05085	0.99259
3.996	-84.891	-3.0942e+05	3049.2	-0.11273	0.051142	0.99308
3.998	-84.888	-3.0942e+05	3048.4	-0.11126	0.051435	0.99357
4	-84.846	-3.0943e+05	3047.6	-0.1098	0.051728	0.99406
4.002	-84.787	-3.0943e+05	3047.1	-0.11224	0.052509	0.99347
4.004	-84.734	-3.0943e+05	3046.6	-0.11468	0.05329	0.99288
4.006	-84.737	-3.0943e+05	3046.2	-0.11712	0.05407	0.9923
4.008	-84.764	-3.0943e+05	3045.9	-0.11956	0.054851	0.99171
4.01	-84.811	-3.0943e+05	3045.5	-0.122	0.055632	0.99113
4.012	-84.89	-3.0943e+05	3045.4	-0.12063	0.054168	0.99113
4.014	-84.922	-3.0944e+05	3045.2	-0.11927	0.052704	0.99113
4.016	-84.891	-3.0944e+05	3045.1	-0.1179	0.05124	0.99113
4.018	-84.838	-3.0944e+05	3045.1	-0.11653	0.049776	0.99113
4.02	-84.777	-3.0944e+05	3045	-0.11517	0.048312	0.99113
4.022	-84.737	-3.0945e+05	3045.1	-0.11351	0.050166	0.9921
4.024	-84.734	-3.0945e+05	3045.1	-0.11185	0.052021	0.99308
4.026	-84.779	-3.0946e+05	3045.3	-0.11019	0.053875	0.99406
4.028	-84.872	-3.0946e+05	3045.6	-0.10853	0.05573	0.99503
4.03	-84.923	-3.0946e+05	3045.9	-0.10687	0.057584	0.99601
4.032	-84.893	-3.0946e+05	3046.2	-0.10609	0.056901	0.99581
4.034	-84.851	-3.0946e+05	3046.6	-0.10531	0.056218	0.99562
4.036	-84.797	-3.0947e+05	3046.9	-0.10453	0.055534	0.99542
4.038	-84.746	-3.0947e+05	3047.1	-0.10375	0.054851	0.99523
4.04	-84.745	-3.0947e+05	3047.3	-0.10297	0.054168	0.99503
4.042	-84.776	-3.0947e+05	3047.6	-0.10492	0.053778	0.99601
4.044	-84.832	-3.0947e+05	3047.8	-0.10687	0.053387	0.99698
4.046	-84.906	-3.0947e+05	3048.1	-0.10882	0.052997	0.99796
4.048	-84.919	-3.0947e+05	3048.3	-0.11078	0.052606	0.99894
4.05	-84.903	-3.0948e+05	3048.5	-0.11273	0.052216	0.99991
4.052	-84.878	-3.0948e+05	3048.6	-0.11175	0.052997	0.99923
4.054	-84.82	-3.0948e+05	3048.7	-0.11078	0.053778	0.99855
4.056	-84.834	-3.0948e+05	3048.7	-0.1098	0.054558	0.99786
4.058	-84.926	-3.0948e+05	3048.8	-0.10882	0.055339	0.99718
4.06	-85.036	-3.0949e+05	3048.8	-0.10785	0.05612	0.9965
4.062	-85.21	-3.0949e+05	3048.7	-0.1097	0.054851	0.99572
4.064	-85.334	-3.0949e+05	3048.6	-0.11156	0.053582	0.99493
4.066	-85.398	-3.0949e+05	3048.6	-0.11341	0.052314	0.99415
4.068	-85.443	-3.0949e+05	3048.5	-0.11527	0.051045	0.99337
4.07	-85.44	-3.095e+05	3048.5	-0.11712	0.049776	0.99259
4.072	-85.462	-3.0951e+05	3048.5	-0.11673	0.050166	0.99269
4.074	-85.504	-3.0951e+05	3048.4	-0.11634	0.050557	0.99279
4.076	-85.521	-3.0951e+05	3048.4	-0.11595	0.050947	0.99288
4.078	-85.584	-3.0951e+05	3048.3	-0.11556	0.051338	0.99298
4.08	-85.602	-3.0952e+05	3048.2	-0.11517	0.051728	0.99308
4.082	-85.537	-3.0952e+05	3048.1	-0.11614	0.053094	0.99367
4.084	-85.371	-3.0952e+05	3047.9	-0.11712	0.054461	0.99425
4.086	-85.075	-3.0952e+05	3047.7	-0.1181	0.055827	0.99484
4.088	-84.779	-3.0952e+05	3047.5	-0.11907	0.057194	0.99542
4.09	-84.599	-3.0952e+05	3047.2	-0.12005	0.05856	0.99601
4.092	-84.53	-3.0953e+05	3046.9	-0.12024	0.057682	0.99503
4.094	-84.526	-3.0953e+05	3046.6	-0.12044	0.056803	0.99406
4.096	-84.526	-3.0953e+05	3046.2	-0.12063	0.055925	0.99308
4.098	-84.48	-3.0953e+05	3045.8	-0.12083	0.055046	0.9921
4.1	-84.427	-3.0954e+05	3045.4	-0.12102	0.054168	0.99113
4.102	-84.377	-3.0954e+05	3045	-0.12112	0.054949	0.99171
4.104	-84.32	-3.0955e+05	3044.6	-0.12122	0.05573	0.9923
4.106	-84.3	-3.0955e+05	3044.3	-0.12132	0.05651	0.99288
4.108	-84.331	-3.0955e+05	3043.9	-0.12141	0.057291	0.99347
4.11	-84.402	-3.0956e+05	3043.6	-0.12151	0.058072	0.99406
4.112	-84.494	-3.0956e+05	3043.3	-0.12024	0.056413	0.99396
4.114	-84.548	-3.0956e+05	3043	-0.11897	0.054754	0.99386
4.116	-84.555	-3.0956e+05	3042.6	-0.11771	0.053094	0.99376
4.118	-84.55	-3.0956e+05	3042.2	-0.11644	0.051435	0.99367
4.12	-84.523	-3.0956e+05	3041.8	-0.11517	0.049776	0.99357
4.122	-84.503	-3.0956e+05	3041.4	-0.11575	0.049678	0.99308
4.124	-84.544	-3.0956e+05	3041	-0.11634	0.049581	0.99259
4.126	-84.611	-3.0956e+05	3040.6	-0.11692	0.049483	0.9921
4.128	-84.71	-3.0956e+05	3040.3	-0.11751	0.049386	0.99162
4.13	-84.787	-3.0957e+05	3039.9	-0.1181	0.049288	0.99113
4.132	-84.786	-3.0957e+05	3039.5	-0.1179	0.049386	0.99113
4.134	-84.786	-3.0958e+05	3039	-0.11771	0.049483	0.99113
4.136	-84.763	-3.0958e+05	3038.6	-0.11751	0.049581	0.99113
4.138	-84.697	-3.0958e+05	3038.1	-0.11732	0.049678	0.99113
