t	ekg	optical	pressure	accel_x	accel_y	accel_z
2.2737e-13	16.577	-42108	2506.4	0.026352	0.17275	0.99942
0.002	16.606	-42113	2506.3	0.028011	0.17148	0.99816
0.004	16.771	-42119	2506.2	0.02967	0.17021	0.99689
0.006	16.876	-42124	2506.5	0.03133	0.16895	0.99562
0.008	16.783	-42129	2507.2	0.032989	0.16768	0.99435
0.01	16.777	-42134	2507.9	0.034648	0.16641	0.99308
0.012	16.664	-42141	2509.7	0.035722	0.16582	0.99191
0.014	16.559	-42148	2511.5	0.036795	0.16524	0.99074
0.016	16.594	-42151	2513.7	0.037869	0.16465	0.98957
0.018	16.648	-42155	2516.3	0.038942	0.16407	0.9884
0.02	16.718	-42153	2518.9	0.040016	0.16348	0.98722
0.022	16.791	-42151	2521.8	0.03621	0.16202	0.98986
0.024	16.798	-42153	2524.7	0.032403	0.16055	0.99249
0.026	16.769	-42155	2527.7	0.028597	0.15909	0.99513
0.028	16.738	-42161	2530.8	0.02479	0.15762	0.99776
0.03	16.678	-42166	2533.9	0.020984	0.15616	1.0004
0.032	16.63	-42167	2537	0.023619	0.15606	1.0013
0.034	16.638	-42167	2540.2	0.026254	0.15596	1.0022
0.036	16.664	-42169	2543.3	0.02889	0.15587	1.003
0.038	16.737	-42172	2546.2	0.031525	0.15577	1.0039
0.04	16.808	-42173	2549.2	0.03416	0.15567	1.0048
0.042	16.85	-42175	2551.7	0.034648	0.15596	1.0051
0.044	16.796	-42179	2554.2	0.035136	0.15626	1.0054
0.046	16.649	-42183	2556.4	0.035624	0.15655	1.0057
0.048	16.571	-42184	2558.5	0.036112	0.15684	1.006
0.05	16.599	-42185	2560.5	0.0366	0.15714	1.0063
0.052	16.658	-42182	2562.1	0.036698	0.15733	1.0062
0.054	16.749	-42178	2563.8	0.036795	0.15753	1.0061
0.056	16.849	-42177	2565.3	0.036893	0.15772	1.006
0.058	16.854	-42175	2566.6	0.03699	0.15792	1.0059
0.06	16.791	-42171	2567.9	0.037088	0.15811	1.0058
0.062	16.743	-42167	2569.1	0.035722	0.1586	1.0063
0.064	16.665	-42164	2570.3	0.034355	0.15909	1.0067
0.066	16.615	-42160	2571.4	0.032989	0.15958	1.0072
0.068	16.647	-42160	2572.4	0.031622	0.16006	1.0077
0.07	16.723	-42160	2573.4	0.030256	0.16055	1.0082
0.072	16.831	-42154	2574.3	0.031818	0.15987	1.0071
0.074	16.85	-42148	2575.2	0.033379	0.15919	1.0061
0.076	16.832	-42144	2576.1	0.034941	0.1585	1.005
0.078	16.838	-42140	2576.9	0.036502	0.15782	1.0039
0.08	16.683	-42131	2577.7	0.038064	0.15714	1.0028
0.082	16.582	-42122	2578.3	0.0366	0.15704	1.0011
0.084	16.676	-42120	2578.9	0.035136	0.15694	0.99933
0.086	16.76	-42118	2579.6	0.033672	0.15684	0.99757
0.088	16.888	-42116	2580.2	0.032208	0.15675	0.99581
0.09	16.877	-42114	2580.8	0.030744	0.15665	0.99406
0.092	16.863	-42107	2581.2	0.029475	0.1584	0.99425
0.094	16.876	-42100	2581.7	0.028206	0.16016	0.99445
0.096	16.718	-42101	2582.1	0.026938	0.16192	0.99464
0.098	16.663	-42102	2582.5	0.025669	0.16368	0.99484
0.1	16.7	-42084	2582.9	0.0244	0.16543	0.99503
0.102	16.726	-42066	2583.3	0.025962	0.16455	0.99523
0.104	16.839	-42053	2583.6	0.027523	0.16368	0.99542
0.106	16.95	-42040	2583.9	0.029085	0.1628	0.99562
0.108	16.972	-42038	2584.1	0.030646	0.16192	0.99581
0.11	16.978	-42035	2584.4	0.032208	0.16104	0.99601
0.112	16.906	-42023	2584.5	0.032208	0.16045	0.99708
0.114	16.767	-42011	2584.7	0.032208	0.15987	0.99816
0.116	16.725	-42004	2584.8	0.032208	0.15928	0.99923
0.118	16.765	-41998	2584.9	0.032208	0.1587	1.0003
0.12	16.839	-41990	2584.9	0.032208	0.15811	1.0014
0.122	16.925	-41982	2584.9	0.033282	0.15831	1.0014
0.124	16.976	-41973	2584.9	0.034355	0.1585	1.0014
0.126	16.972	-41964	2584.8	0.035429	0.1587	1.0014
0.128	16.908	-41956	2584.6	0.036502	0.15889	1.0014
0.13	16.801	-41948	2584.5	0.037576	0.15909	1.0014
0.132	16.745	-41942	2584.3	0.037088	0.15909	1.0012
0.134	16.757	-41935	2584.1	0.0366	0.15909	1.001
0.136	16.812	-41928	2583.9	0.036112	0.15909	1.0008
0.138	16.926	-41921	2583.7	0.035624	0.15909	1.0006
0.14	17.016	-41910	2583.5	0.035136	0.15909	1.0004
0.142	17.003	-41898	2583.3	0.034941	0.1584	0.99894
0.144	16.932	-41893	2583	0.034746	0.15772	0.99747
0.146	16.844	-41888	2582.8	0.03455	0.15704	0.99601
0.148	16.76	-41877	2582.5	0.034355	0.15636	0.99454
0.15	16.754	-41866	2582.2	0.03416	0.15567	0.99308
0.152	16.807	-41857	2582	0.033379	0.15626	0.99386
0.154	16.882	-41847	2581.8	0.032598	0.15684	0.99464
0.156	16.965	-41844	2581.5	0.031818	0.15743	0.99542
0.158	16.962	-41841	2581.3	0.031037	0.15801	0.9962
0.16	16.949	-41830	2581.1	0.030256	0.1586	0.99698
0.162	16.873	-41818	2580.7	0.030549	0.15899	0.99698
0.164	16.715	-41810	2580.4	0.030842	0.15938	0.99698
0.166	16.725	-41802	2580.1	0.031134	0.15977	0.99698
0.168	16.746	-41800	2579.9	0.031427	0.16016	0.99698
0.17	16.809	-41798	2579.6	0.03172	0.16055	0.99698
0.172	16.907	-41786	2579.3	0.03172	0.16036	0.99757
0.174	16.949	-41773	2579	0.03172	0.16016	0.99816
0.176	16.94	-41767	2578.7	0.03172	0.15997	0.99874
0.178	16.861	-41760	2578.4	0.03172	0.15977	0.99933
0.18	16.725	-41756	2578.1	0.03172	0.15958	0.99991
0.182	16.673	-41752	2577.7	0.032013	0.15938	0.99981
0.184	16.712	-41752	2577.4	0.032306	0.15919	0.99972
0.186	16.769	-41752	2577	0.032598	0.15899	0.99962
0.188	16.865	-41743	2576.7	0.032891	0.1588	0.99952
0.19	16.91	-41734	2576.3	0.033184	0.1586	0.99942
0.192	16.885	-41729	2576	0.034258	0.15958	0.99942
0.194	16.851	-41724	2575.7	0.035331	0.16055	0.99942
0.196	16.775	-41726	2575.4	0.036405	0.16153	0.99942
0.198	16.711	-41728	2575.1	0.037478	0.1625	0.99942
0.2	16.687	-41722	2574.7	0.038552	0.16348	0.99942
0.202	16.683	-41717	2574.3	0.038552	0.16192	0.99962
0.204	16.741	-41721	2574	0.038552	0.16036	0.99981
0.206	16.838	-41724	2573.6	0.038552	0.1588	1
0.208	16.878	-41717	2573.2	0.038552	0.15723	1.0002
0.21	16.846	-41709	2572.8	0.038552	0.15567	1.0004
0.212	16.75	-41708	2572.4	0.039235	0.15694	1.0011
0.214	16.646	-41707	2572	0.039918	0.15821	1.0018
0.216	16.629	-41701	2571.7	0.040602	0.15948	1.0024
0.218	16.653	-41694	2571.3	0.041285	0.16075	1.0031
0.22	16.72	-41698	2570.9	0.041968	0.16202	1.0038
0.222	16.848	-41703	2570.5	0.04148	0.16211	1.004
0.224	16.892	-41696	2570.1	0.040992	0.16221	1.0042
0.226	16.851	-41690	2569.7	0.040504	0.16231	1.0044
0.228	16.791	-41689	2569.2	0.040016	0.16241	1.0046
0.23	16.705	-41689	2568.8	0.039528	0.1625	1.0048
0.232	16.641	-41684	2568.3	0.039235	0.16241	1.0039
0.234	16.623	-41680	2567.8	0.038942	0.16231	1.003
0.236	16.674	-41673	2567.3	0.03865	0.16221	1.0022
0.238	16.801	-41665	2566.7	0.038357	0.16211	1.0013
0.24	16.892	-41675	2566.2	0.038064	0.16202	1.0004
0.242	16.891	-41684	2565.5	0.037186	0.16104	1
0.244	16.857	-41682	2564.8	0.036307	0.16006	0.99962
0.246	16.756	-41680	2564.1	0.035429	0.15909	0.99923
0.248	16.688	-41683	2563.4	0.03455	0.15811	0.99884
0.25	16.613	-41685	2562.6	0.033672	0.15714	0.99845
0.252	16.636	-41669	2561.9	0.034843	0.15743	0.99894
0.254	16.782	-41654	2561.2	0.036014	0.15772	0.99942
0.256	16.897	-41653	2560.4	0.037186	0.15801	0.99991
0.258	16.866	-41652	2559.7	0.038357	0.15831	1.0004
0.26	16.862	-41656	2559	0.039528	0.1586	1.0009
0.262	16.766	-41660	2558.3	0.037674	0.1586	0.99991
0.264	16.624	-41659	2557.7	0.035819	0.1586	0.99894
0.266	16.628	-41657	2557.1	0.033965	0.1586	0.99796
0.268	16.706	-41656	2556.6	0.03211	0.1586	0.99698
0.27	16.75	-41656	2556.1	0.030256	0.1586	0.99601
0.272	16.842	-41649	2555.6	0.031037	0.15899	0.99552
0.274	16.866	-41642	2555.1	0.031818	0.15938	0.99503
0.276	16.822	-41646	2554.6	0.032598	0.15977	0.99454
0.278	16.742	-41649	2554.2	0.033379	0.16016	0.99406
0.28	16.642	-41656	2553.7	0.03416	0.16055	0.99357
0.282	16.621	-41663	2553.2	0.033574	0.15987	0.99493
0.284	16.65	-41661	2552.8	0.032989	0.15919	0.9963
0.286	16.691	-41659	2552.3	0.032403	0.1585	0.99767
0.288	16.791	-41663	2551.9	0.031818	0.15782	0.99903
0.29	16.874	-41666	2551.5	0.031232	0.15714	1.0004
0.292	16.926	-41665	2551	0.030939	0.15723	1.0001
0.294	16.912	-41664	2550.6	0.030646	0.15733	0.99981
0.296	16.797	-41664	2550.2	0.030354	0.15743	0.99952
0.298	16.705	-41665	2549.7	0.030061	0.15753	0.99923
0.3	16.665	-41669	2549.3	0.029768	0.15762	0.99894
0.302	16.655	-41674	2549	0.031134	0.15723	0.99972
0.304	16.72	-41679	2548.7	0.032501	0.15684	1.0005
0.306	16.789	-41684	2548.3	0.033867	0.15645	1.0013
0.308	16.805	-41685	2548.1	0.035234	0.15606	1.0021
0.31	16.826	-41685	2547.8	0.0366	0.15567	1.0028
0.312	16.78	-41683	2547.5	0.035331	0.15596	1.0024
0.314	16.639	-41682	2547.2	0.034062	0.15626	1.0019
0.316	16.598	-41687	2546.9	0.032794	0.15655	1.0014
0.318	16.675	-41692	2546.7	0.031525	0.15684	1.0009
0.32	16.756	-41695	2546.4	0.030256	0.15714	1.0004
0.322	16.859	-41698	2546.1	0.032208	0.15772	1.001
0.324	16.891	-41700	2545.9	0.03416	0.15831	1.0016
0.326	16.88	-41702	2545.6	0.036112	0.15889	1.0022
0.328	16.807	-41706	2545.4	0.038064	0.15948	1.0027
0.33	16.674	-41709	2545.2	0.040016	0.16006	1.0033
0.332	16.612	-41716	2545	0.039626	0.15977	1.0028
0.334	16.659	-41722	2544.9	0.039235	0.15948	1.0024
0.336	16.701	-41727	2544.7	0.038845	0.15919	1.0019
0.338	16.762	-41731	2544.6	0.038454	0.15889	1.0014
0.34	16.812	-41733	2544.5	0.038064	0.1586	1.0009
0.342	16.765	-41734	2544.4	0.037186	0.15821	1.0008
0.344	16.834	-41737	2544.4	0.036307	0.15782	1.0007
0.346	16.779	-41740	2544.3	0.035429	0.15743	1.0006
0.348	16.649	-41745	2544.3	0.03455	0.15704	1.0005
0.35	16.633	-41750	2544.3	0.033672	0.15665	1.0004
0.352	16.612	-41745	2544.2	0.033086	0.15694	1.0001
0.354	16.722	-41741	2544.2	0.032501	0.15723	0.99981
0.356	16.872	-41739	2544.2	0.031915	0.15753	0.99952
0.358	16.88	-41737	2544.2	0.03133	0.15782	0.99923
0.36	16.831	-41742	2544.2	0.030744	0.15811	0.99894
0.362	16.743	-41747	2544.2	0.031915	0.15831	1.0003
0.364	16.598	-41755	2544.2	0.033086	0.1585	1.0017
0.366	16.559	-41764	2544.3	0.034258	0.1587	1.003
0.368	16.638	-41761	2544.3	0.035429	0.15889	1.0044
0.37	16.762	-41758	2544.4	0.0366	0.15909	1.0058
0.372	16.837	-41757	2544.4	0.036307	0.15948	1.0047
0.374	16.849	-41755	2544.4	0.036014	0.15987	1.0036
0.376	16.828	-41764	2544.4	0.035722	0.16026	1.0025
0.378	16.774	-41772	2544.3	0.035429	0.16065	1.0015
0.38	16.668	-41771	2544.3	0.035136	0.16104	1.0004
0.382	16.607	-41770	2544.3	0.035624	0.16036	1.0016
0.384	16.629	-41771	2544.2	0.036112	0.15967	1.0027
0.386	16.687	-41772	2544.2	0.0366	0.15899	1.0039
0.388	16.761	-41780	2544.1	0.037088	0.15831	1.0051
0.39	16.806	-41787	2543.9	0.037576	0.15762	1.0063
0.392	16.822	-41786	2543.8	0.036698	0.15782	1.0066
0.394	16.828	-41786	2543.7	0.035819	0.15801	1.007
0.396	16.763	-41794	2543.5	0.034941	0.15821	1.0074
0.398	16.655	-41802	2543.3	0.034062	0.1584	1.0078
0.4	16.602	-41803	2543.1	0.033184	0.1586	1.0082
0.402	16.629	-41805	2542.9	0.033477	0.15831	1.0071
0.404	16.722	-41809	2542.8	0.03377	0.15801	1.0061
0.406	16.806	-41813	2542.6	0.034062	0.15772	1.005
0.408	16.835	-41813	2542.4	0.034355	0.15743	1.0039
0.41	16.849	-41814	2542.2	0.034648	0.15714	1.0028
0.412	16.772	-41817	2542	0.032989	0.15821	1.002
0.414	16.634	-41819	2541.8	0.03133	0.15928	1.0011
0.416	16.618	-41821	2541.6	0.02967	0.16036	1.0002
0.418	16.633	-41824	2541.4	0.028011	0.16143	0.99933
0.42	16.714	-41824	2541.2	0.026352	0.1625	0.99845
0.422	16.854	-41824	2541.1	0.026742	0.16231	0.99737
0.424	16.864	-41830	2540.9	0.027133	0.16211	0.9963
0.426	16.821	-41837	2540.7	0.027523	0.16192	0.99523
0.428	16.747	-41836	2540.5	0.027914	0.16172	0.99415
0.43	16.65	-41835	2540.4	0.028304	0.16153	0.99308
0.432	16.597	-41840	2540.2	0.027914	0.16163	0.99328
0.434	16.639	-41845	2540	0.027523	0.16172	0.99347
0.436	16.651	-41845	2539.8	0.027133	0.16182	0.99367
0.438	16.751	-41845	2539.6	0.026742	0.16192	0.99386
0.44	16.805	-41841	2539.5	0.026352	0.16202	0.99406
0.442	16.794	-41837	2539.3	0.025864	0.16241	0.99493
0.444	16.794	-41853	2539.1	0.025376	0.1628	0.99581
0.446	16.71	-41869	2538.9	0.024888	0.16319	0.99669
0.448	16.628	-41869	2538.8	0.0244	0.16358	0.99757
0.45	16.602	-41868	2538.6	0.023912	0.16397	0.99845
0.452	16.659	-41865	2538.4	0.025278	0.16338	0.99874
0.454	16.781	-41862	2538.2	0.026645	0.1628	0.99903
0.456	16.853	-41871	2537.9	0.028011	0.16221	0.99933
0.458	16.801	-41880	2537.7	0.029378	0.16163	0.99962
0.46	16.767	-41879	2537.5	0.030744	0.16104	0.99991
0.462	16.685	-41879	2537.2	0.030842	0.16026	0.99991
0.464	16.558	-41879	2536.9	0.030939	0.15948	0.99991
0.466	16.555	-41880	2536.7	0.031037	0.1587	0.99991
0.468	16.626	-41883	2536.4	0.031134	0.15792	0.99991
0.47	16.698	-41886	2536.1	0.031232	0.15714	0.99991
0.472	16.81	-41887	2535.9	0.030354	0.1586	0.99933
0.474	16.877	-41889	2535.6	0.029475	0.16006	0.99874
0.476	16.844	-41890	2535.3	0.028597	0.16153	0.99816
0.478	16.771	-41891	2535	0.027718	0.16299	0.99757
0.48	16.666	-41902	2534.7	0.02684	0.16446	0.99698
0.482	16.574	-41913	2534.5	0.027035	0.16397	0.99659
0.484	16.568	-41912	2534.3	0.02723	0.16348	0.9962
0.486	16.643	-41910	2534	0.027426	0.16299	0.99581
0.488	16.732	-41912	2533.7	0.027621	0.1625	0.99542
0.49	16.819	-41915	2533.5	0.027816	0.16202	0.99503
0.492	16.879	-41914	2533.2	0.028499	0.16163	0.99464
0.494	16.859	-41913	2533	0.029182	0.16124	0.99425
0.496	16.7	-41920	2532.6	0.029866	0.16084	0.99386
0.498	16.589	-41928	2532.3	0.030549	0.16045	0.99347
0.5	16.645	-41929	2531.9	0.031232	0.16006	0.99308
0.502	16.694	-41930	2531.7	0.030939	0.16104	0.99328
0.504	16.747	-41935	2531.4	0.030646	0.16202	0.99347
0.506	16.82	-41939	2531.1	0.030354	0.16299	0.99367
0.508	16.876	-41941	2530.8	0.030061	0.16397	0.99386
0.51	16.867	-41943	2530.5	0.029768	0.16494	0.99406
0.512	16.723	-41949	2530.2	0.029182	0.16455	0.99454
0.514	16.518	-41954	2529.9	0.028597	0.16416	0.99503
0.516	16.556	-41955	2529.6	0.028011	0.16377	0.99552
0.518	16.705	-41956	2529.3	0.027426	0.16338	0.99601
0.52	16.706	-41957	2528.9	0.02684	0.16299	0.9965
0.522	16.829	-41959	2528.6	0.02684	0.16348	0.9963
0.524	16.939	-41957	2528.3	0.02684	0.16397	0.99611
0.526	16.946	-41954	2528	0.02684	0.16446	0.99591
0.528	16.857	-41957	2527.7	0.02684	0.16494	0.99572
0.53	16.686	-41960	2527.4	0.02684	0.16543	0.99552
0.532	16.613	-41968	2527.1	0.027035	0.16494	0.99552
0.534	16.639	-41977	2526.7	0.02723	0.16446	0.99552
0.536	16.676	-41980	2526.4	0.027426	0.16397	0.99552
0.538	16.764	-41984	2526.1	0.027621	0.16348	0.99552
0.54	16.858	-41985	2525.7	0.027816	0.16299	0.99552
0.542	16.908	-41987	2525.4	0.027816	0.1628	0.99572
0.544	16.864	-41991	2525.1	0.027816	0.1626	0.99591
0.546	16.735	-41994	2524.8	0.027816	0.16241	0.99611
0.548	16.645	-42002	2524.5	0.027816	0.16221	0.9963
0.55	16.621	-42010	2524.2	0.027816	0.16202	0.9965
0.552	16.642	-42010	2523.9	0.027718	0.16221	0.99601
0.554	16.752	-42010	2523.6	0.027621	0.16241	0.99552
0.556	16.862	-42010	2523.3	0.027523	0.1626	0.99503
0.558	16.883	-42010	2523	0.027426	0.1628	0.99454
0.56	16.857	-42018	2522.7	0.027328	0.16299	0.99406
0.562	16.81	-42027	2522.4	0.027816	0.1627	0.99454
0.564	16.743	-42028	2522.1	0.028304	0.16241	0.99503
0.566	16.679	-42030	2521.8	0.028792	0.16211	0.99552
0.568	16.642	-42030	2521.5	0.02928	0.16182	0.99601
0.57	16.668	-42031	2521.2	0.029768	0.16153	0.9965
0.572	16.756	-42035	2520.8	0.029182	0.16211	0.99669
0.574	16.806	-42038	2520.5	0.028597	0.1627	0.99689
0.576	16.815	-42042	2520.2	0.028011	0.16328	0.99708
0.578	16.74	-42045	2519.9	0.027426	0.16387	0.99728
0.58	16.616	-42049	2519.7	0.02684	0.16446	0.99747
0.582	16.576	-42053	2519.4	0.027133	0.16368	0.99737
0.584	16.597	-42060	2519.1	0.027426	0.16289	0.99728
0.586	16.621	-42067	2518.8	0.027718	0.16211	0.99718
0.588	16.709	-42069	2518.5	0.028011	0.16133	0.99708
0.59	16.792	-42072	2518.2	0.028304	0.16055	0.99698
0.592	16.807	-42075	2517.9	0.028499	0.16114	0.99689
0.594	16.805	-42079	2517.6	0.028694	0.16172	0.99679
0.596	16.721	-42084	2517.3	0.02889	0.16231	0.99669
0.598	16.621	-42090	2517.1	0.029085	0.16289	0.99659
0.6	16.618	-42090	2516.8	0.02928	0.16348	0.9965
0.602	16.61	-42090	2516.6	0.028792	0.16387	0.9962
0.604	16.735	-42092	2516.3	0.028304	0.16426	0.99591
0.606	16.83	-42095	2516.1	0.027816	0.16465	0.99562
0.608	16.817	-42098	2515.8	0.027328	0.16504	0.99532
0.61	16.832	-42101	2515.6	0.02684	0.16543	0.99503
0.612	16.753	-42108	2515.4	0.02684	0.16514	0.99591
0.614	16.592	-42115	2515.2	0.02684	0.16485	0.99679
0.616	16.53	-42120	2515	0.02684	0.16455	0.99767
0.618	16.544	-42124	2514.8	0.02684	0.16426	0.99855
0.62	16.625	-42129	2514.7	0.02684	0.16397	0.99942
0.622	16.759	-42133	2514.4	0.027914	0.16309	1.0003
0.624	16.779	-42136	2514.2	0.028987	0.16221	1.0012
0.626	16.698	-42139	2514	0.030061	0.16133	1.0021
0.628	16.62	-42138	2513.7	0.031134	0.16045	1.0029
0.63	16.586	-42136	2513.5	0.032208	0.15958	1.0038
0.632	16.666	-42138	2513.2	0.033867	0.16045	1.0033
0.634	16.731	-42140	2512.9	0.035526	0.16133	1.0028
0.636	16.785	-42144	2512.6	0.037186	0.16221	1.0024
0.638	16.871	-42147	2512.3	0.038845	0.16309	1.0019
0.64	16.927	-42149	2512	0.040504	0.16397	1.0014
0.642	16.981	-42150	2511.7	0.039138	0.16319	1.0017
0.644	17.053	-42153	2511.5	0.037771	0.16241	1.002
0.646	17.049	-42156	2511.2	0.036405	0.16163	1.0023
0.648	17.005	-42163	2511	0.035038	0.16084	1.0025
0.65	17.023	-42170	2510.8	0.033672	0.16006	1.0028
0.652	17.088	-42174	2510.7	0.033086	0.15997	1.0021
0.654	17.219	-42179	2510.6	0.032501	0.15987	1.0013
0.656	17.374	-42182	2510.4	0.031915	0.15977	1.0005
0.658	17.395	-42185	2510.3	0.03133	0.15967	0.99972
0.66	17.321	-42186	2510.1	0.030744	0.15958	0.99894
0.662	17.176	-42187	2510	0.031037	0.15889	0.99913
0.664	17.012	-42187	2509.8	0.03133	0.15821	0.99933
0.666	16.877	-42188	2509.7	0.031622	0.15753	0.99952
0.668	16.794	-42194	2509.5	0.031915	0.15684	0.99972
0.67	16.805	-42200	2509.4	0.032208	0.15616	0.99991
0.672	16.855	-42204	2509.2	0.031818	0.15655	0.99991
0.674	16.793	-42207	2509	0.031427	0.15694	0.99991
0.676	16.734	-42209	2508.8	0.031037	0.15733	0.99991
0.678	16.675	-42212	2508.6	0.030646	0.15772	0.99991
0.68	16.515	-42215	2508.4	0.030256	0.15811	0.99991
0.682	16.466	-42219	2508.2	0.030842	0.15694	0.99962
0.684	16.557	-42222	2508	0.031427	0.15577	0.99933
0.686	16.579	-42225	2507.8	0.032013	0.1546	0.99903
0.688	16.645	-42232	2507.5	0.032598	0.15343	0.99874
0.69	16.695	-42240	2507.3	0.033184	0.15226	0.99845
0.692	16.768	-42239	2506.9	0.03416	0.15382	0.99884
0.694	16.805	-42238	2506.6	0.035136	0.15538	0.99923
0.696	16.691	-42246	2506.2	0.036112	0.15694	0.99962
0.698	16.563	-42253	2505.8	0.037088	0.1585	1
0.7	16.536	-42251	2505.4	0.038064	0.16006	1.0004
0.702	16.528	-42249	2505.1	0.036795	0.16182	0.99884
0.704	16.667	-42251	2504.8	0.035526	0.16358	0.99728
0.706	16.791	-42253	2504.7	0.034258	0.16533	0.99572
0.708	16.798	-42251	2504.6	0.032989	0.16709	0.99415
0.71	16.785	-42249	2504.5	0.03172	0.16885	0.99259
0.712	16.68	-42259	2504.6	0.033379	0.16885	0.9921
0.714	16.536	-42270	2504.7	0.035038	0.16885	0.99162
0.716	16.503	-42273	2504.8	0.036698	0.16885	0.99113
0.718	16.531	-42277	2504.9	0.038357	0.16885	0.99064
0.72	16.612	-42283	2505	0.040016	0.16885	0.99015
0.722	16.725	-42288	2505	0.039138	0.16553	0.98966
0.724	16.781	-42291	2505.1	0.038259	0.16221	0.98918
0.726	16.765	-42294	2505	0.037381	0.15889	0.98869
0.728	16.676	-42299	2504.8	0.036502	0.15557	0.9882
0.73	16.559	-42304	2504.7	0.035624	0.15226	0.98771
0.732	16.502	-42305	2504.4	0.035038	0.15196	0.9883
0.734	16.532	-42305	2504.1	0.034453	0.15167	0.98888
0.736	16.619	-42310	2503.7	0.033867	0.15138	0.98947
0.738	16.724	-42315	2503.2	0.033282	0.15108	0.99005
0.74	16.808	-42313	2502.8	0.032696	0.15079	0.99064
0.742	16.823	-42312	2502.3	0.030842	0.15382	0.99132
0.744	16.784	-42322	2501.8	0.028987	0.15684	0.99201
0.746	16.671	-42331	2501.3	0.027133	0.15987	0.99269
0.748	16.539	-42336	2501	0.025278	0.16289	0.99337
0.75	16.527	-42341	2500.6	0.023424	0.16592	0.99406
0.752	16.6	-42338	2500.4	0.023619	0.16699	0.99464
0.754	16.705	-42335	2500.2	0.023814	0.16807	0.99523
0.756	16.819	-42339	2500.2	0.02401	0.16914	0.99581
0.758	16.823	-42344	2500.5	0.024205	0.17021	0.9964
0.76	16.77	-42350	2500.7	0.0244	0.17129	0.99698
0.762	16.718	-42356	2501.9	0.02723	0.16934	0.99503
0.764	16.597	-42359	2503.1	0.030061	0.16738	0.99308
0.766	16.562	-42361	2504.8	0.032891	0.16543	0.99113
0.768	16.555	-42368	2507.1	0.035722	0.16348	0.98918
0.77	16.6	-42375	2509.3	0.038552	0.16153	0.98722
0.772	16.763	-42377	2512.1	0.037186	0.15967	0.9882
0.774	16.817	-42380	2514.9	0.035819	0.15782	0.98918
0.776	16.811	-42380	2517.8	0.034453	0.15596	0.99015
0.778	16.748	-42381	2520.8	0.033086	0.15411	0.99113
0.78	16.637	-42388	2523.9	0.03172	0.15226	0.9921
0.782	16.58	-42395	2527.1	0.030842	0.15362	0.99454
0.784	16.598	-42397	2530.4	0.029963	0.15499	0.99698
0.786	16.647	-42398	2533.7	0.029085	0.15636	0.99942
0.788	16.762	-42401	2537.1	0.028206	0.15772	1.0019
0.79	16.797	-42403	2540.5	0.027328	0.15909	1.0043
0.792	16.79	-42395	2543.5	0.027914	0.16016	1.0051
0.794	16.776	-42388	2546.5	0.028499	0.16124	1.0059
0.796	16.674	-42390	2549.3	0.029085	0.16231	1.0066
0.798	16.568	-42391	2551.8	0.02967	0.16338	1.0074
0.8	16.552	-42393	2554.4	0.030256	0.16446	1.0082
0.802	16.626	-42395	2556.4	0.030158	0.16348	1.0081
0.804	16.743	-42393	2558.5	0.030061	0.1625	1.008
0.806	16.818	-42391	2560.3	0.029963	0.16153	1.0079
0.808	16.843	-42393	2561.9	0.029866	0.16055	1.0078
0.81	16.823	-42396	2563.4	0.029768	0.15958	1.0077
0.812	16.742	-42396	2564.7	0.030549	0.15948	1.0071
0.814	16.647	-42397	2565.9	0.03133	0.15938	1.0065
0.816	16.596	-42395	2567.1	0.03211	0.15928	1.006
0.818	16.617	-42393	2568.1	0.032891	0.15919	1.0054
0.82	16.731	-42388	2569.2	0.033672	0.15909	1.0048
0.822	16.861	-42383	2570.2	0.031622	0.15928	1.0038
0.824	16.877	-42379	2571.1	0.029573	0.15948	1.0028
0.826	16.824	-42375	2572	0.027523	0.15967	1.0019
0.828	16.793	-42372	2572.8	0.025474	0.15987	1.0009
0.83	16.695	-42369	2573.6	0.023424	0.16006	0.99991
0.832	16.598	-42361	2574.5	0.023326	0.16036	0.99855
0.834	16.615	-42353	2575.3	0.023229	0.16065	0.99718
0.836	16.693	-42350	2576	0.023131	0.16094	0.99581
0.838	16.884	-42347	2576.8	0.023034	0.16124	0.99445
0.84	16.903	-42341	2577.5	0.022936	0.16153	0.99308
0.842	16.826	-42334	2578.1	0.022936	0.16075	0.99435
0.844	16.829	-42328	2578.6	0.022936	0.15997	0.99562
0.846	16.776	-42322	2579.2	0.022936	0.15919	0.99689
0.848	16.714	-42317	2579.6	0.022936	0.1584	0.99816
0.85	16.703	-42313	2580	0.022936	0.15762	0.99942
0.852	16.736	-42301	2580.3	0.023522	0.15919	0.99855
0.854	16.787	-42289	2580.6	0.024107	0.16075	0.99767
0.856	16.922	-42289	2580.9	0.024693	0.16231	0.99679
0.858	16.92	-42288	2581	0.025278	0.16387	0.99591
0.86	16.897	-42280	2581.2	0.025864	0.16543	0.99503
0.862	16.878	-42273	2581.4	0.026157	0.16514	0.99464
0.864	16.734	-42261	2581.6	0.02645	0.16485	0.99425
0.866	16.723	-42249	2581.7	0.026742	0.16455	0.99386
0.868	16.785	-42246	2581.7	0.027035	0.16426	0.99347
0.87	16.827	-42243	2581.8	0.027328	0.16397	0.99308
0.872	16.957	-42237	2581.7	0.028011	0.16416	0.99269
0.874	17.02	-42231	2581.7	0.028694	0.16436	0.9923
0.876	17.004	-42224	2581.7	0.029378	0.16455	0.99191
0.878	16.958	-42216	2581.6	0.030061	0.16475	0.99152
0.88	16.822	-42205	2581.4	0.030744	0.16494	0.99113
0.882	16.756	-42194	2581.3	0.030061	0.16485	0.99103
0.884	16.757	-42187	2581.2	0.029378	0.16475	0.99093
0.886	16.789	-42180	2581.1	0.028694	0.16465	0.99084
0.888	16.902	-42174	2580.9	0.028011	0.16455	0.99074
0.89	17.014	-42167	2580.7	0.027328	0.16446	0.99064
0.892	17.019	-42157	2580.5	0.030061	0.16494	0.98996
0.894	16.97	-42148	2580.3	0.032794	0.16543	0.98927
0.896	16.877	-42144	2580.1	0.035526	0.16592	0.98859
0.898	16.762	-42139	2579.9	0.038259	0.16641	0.98791
0.9	16.72	-42126	2579.8	0.040992	0.1669	0.98722
0.902	16.8	-42112	2579.6	0.040504	0.16641	0.98722
0.904	16.936	-42112	2579.5	0.040016	0.16592	0.98722
0.906	16.998	-42111	2579.3	0.039528	0.16543	0.98722
0.908	16.963	-42100	2579.1	0.03904	0.16494	0.98722
0.91	16.912	-42090	2578.9	0.038552	0.16446	0.98722
0.912	16.861	-42087	2578.7	0.037674	0.16358	0.98869
0.914	16.777	-42085	2578.5	0.036795	0.1627	0.99015
0.916	16.733	-42078	2578.3	0.035917	0.16182	0.99162
0.918	16.724	-42071	2578.1	0.035038	0.16094	0.99308
0.92	16.798	-42066	2577.8	0.03416	0.16006	0.99454
0.922	16.917	-42060	2577.6	0.032891	0.16094	0.99415
0.924	16.91	-42052	2577.3	0.031622	0.16182	0.99376
0.926	16.87	-42043	2577	0.030354	0.1627	0.99337
0.928	16.833	-42037	2576.7	0.029085	0.16358	0.99298
0.93	16.791	-42030	2576.4	0.027816	0.16446	0.99259
0.932	16.755	-42033	2576	0.027133	0.16426	0.99347
0.934	16.721	-42035	2575.7	0.02645	0.16407	0.99435
0.936	16.739	-42027	2575.4	0.025766	0.16387	0.99523
0.938	16.858	-42019	2575	0.025083	0.16368	0.99611
0.94	16.91	-42014	2574.6	0.0244	0.16348	0.99698
0.942	16.913	-42009	2574.2	0.024498	0.16358	0.99659
0.944	16.899	-42002	2573.8	0.024595	0.16368	0.9962
0.946	16.803	-41994	2573.4	0.024693	0.16377	0.99581
0.948	16.684	-41988	2573	0.02479	0.16387	0.99542
0.95	16.672	-41982	2572.6	0.024888	0.16397	0.99503
0.952	16.645	-41981	2572.2	0.02723	0.1626	0.99679
0.954	16.752	-41980	2571.8	0.029573	0.16124	0.99855
0.956	16.877	-41973	2571.4	0.031915	0.15987	1.0003
0.958	16.914	-41966	2570.9	0.034258	0.1585	1.0021
0.96	16.914	-41968	2570.4	0.0366	0.15714	1.0038
0.962	16.798	-41971	2569.9	0.036307	0.15714	1.0041
0.964	16.665	-41970	2569.3	0.036014	0.15714	1.0044
0.966	16.637	-41970	2568.8	0.035722	0.15714	1.0047
0.968	16.688	-41967	2568.3	0.035429	0.15714	1.005
0.97	16.764	-41964	2567.8	0.035136	0.15714	1.0053
0.972	16.83	-41956	2567.4	0.035331	0.15792	1.005
0.974	16.863	-41949	2567	0.035526	0.1587	1.0047
0.976	16.867	-41948	2566.6	0.035722	0.15948	1.0044
0.978	16.803	-41948	2566.2	0.035917	0.16026	1.0041
0.98	16.708	-41945	2565.8	0.036112	0.16104	1.0038
0.982	16.652	-41943	2565.4	0.036795	0.16114	1.003
0.984	16.619	-41941	2565	0.037478	0.16124	1.0023
0.986	16.655	-41938	2564.5	0.038162	0.16133	1.0015
0.988	16.786	-41933	2564	0.038845	0.16143	1.0007
0.99	16.881	-41929	2563.5	0.039528	0.16153	0.99991
0.992	16.869	-41933	2562.9	0.039235	0.16055	1.0001
0.994	16.818	-41937	2562.4	0.038942	0.15958	1.0003
0.996	16.726	-41938	2561.7	0.03865	0.1586	1.0005
0.998	16.637	-41939	2561	0.038357	0.15762	1.0007
1	16.642	-41938	2560.3	0.038064	0.15665	1.0009
1.002	16.689	-41936	2559.6	0.036405	0.15636	1.0002
1.004	16.768	-41935	2558.9	0.034746	0.15606	0.99952
1.006	16.889	-41933	2558.1	0.033086	0.15577	0.99884
1.008	16.91	-41935	2557.4	0.031427	0.15548	0.99816
1.01	16.853	-41937	2556.6	0.029768	0.15518	0.99747
1.012	16.773	-41933	2555.9	0.028792	0.15684	0.99757
1.014	16.66	-41928	2555.2	0.027816	0.1585	0.99767
1.016	16.625	-41931	2554.5	0.02684	0.16016	0.99776
1.018	16.637	-41935	2553.9	0.025864	0.16182	0.99786
1.02	16.723	-41928	2553.3	0.024888	0.16348	0.99796
1.022	16.873	-41922	2552.7	0.025571	0.16407	0.99737
1.024	16.894	-41925	2552.1	0.026254	0.16465	0.99679
1.026	16.918	-41928	2551.5	0.026938	0.16524	0.9962
1.028	16.87	-41936	2551	0.027621	0.16582	0.99562
1.03	16.72	-41945	2550.4	0.028304	0.16641	0.99503
1.032	16.663	-41945	2549.8	0.028011	0.16621	0.99562
1.034	16.649	-41945	2549.3	0.027718	0.16602	0.9962
1.036	16.674	-41943	2548.8	0.027426	0.16582	0.99679
1.038	16.833	-41941	2548.3	0.027133	0.16563	0.99737
1.04	16.923	-41940	2547.9	0.02684	0.16543	0.99796
1.042	16.867	-41940	2547.4	0.02645	0.16533	0.99786
1.044	16.741	-41939	2547	0.026059	0.16524	0.99776
1.046	16.687	-41939	2546.6	0.025669	0.16514	0.99767
1.048	16.66	-41944	2546.3	0.025278	0.16504	0.99757
1.05	16.636	-41949	2545.9	0.024888	0.16494	0.99747
1.052	16.628	-41948	2545.7	0.024986	0.16436	0.99786
1.054	16.762	-41947	2545.4	0.025083	0.16377	0.99825
1.056	16.884	-41950	2545.1	0.025181	0.16319	0.99864
1.058	16.887	-41953	2544.8	0.025278	0.1626	0.99903
1.06	16.834	-41955	2544.6	0.025376	0.16202	0.99942
1.062	16.749	-41957	2544.4	0.027328	0.16055	0.99991
1.064	16.662	-41958	2544.2	0.02928	0.15909	1.0004
1.066	16.64	-41958	2544	0.031232	0.15762	1.0009
1.068	16.667	-41962	2543.8	0.033184	0.15616	1.0014
1.07	16.76	-41966	2543.5	0.035136	0.1547	1.0019
1.072	16.873	-41968	2543.3	0.033867	0.15509	1.001
1.074	16.896	-41969	2543.1	0.032598	0.15548	1.0001
1.076	16.863	-41972	2543	0.03133	0.15587	0.99923
1.078	16.788	-41976	2542.8	0.030061	0.15626	0.99835
1.08	16.655	-41976	2542.6	0.028792	0.15665	0.99747
1.082	16.577	-41976	2542.5	0.028109	0.15743	0.99767
1.084	16.617	-41977	2542.4	0.027426	0.15821	0.99786
1.086	16.692	-41979	2542.3	0.026742	0.15899	0.99806
1.088	16.787	-41983	2542.2	0.026059	0.15977	0.99825
1.09	16.878	-41987	2542.1	0.025376	0.16055	0.99845
1.092	16.875	-41989	2542	0.026254	0.16133	0.99698
1.094	16.84	-41991	2542	0.027133	0.16211	0.99552
1.096	16.787	-41994	2541.9	0.028011	0.16289	0.99406
1.098	16.658	-41998	2542	0.02889	0.16368	0.99259
1.1	16.62	-42000	2542	0.029768	0.16446	0.99113
1.102	16.75	-42003	2542	0.027816	0.16416	0.9922
1.104	16.817	-42005	2542	0.025864	0.16387	0.99328
1.106	16.832	-42007	2542	0.023912	0.16358	0.99435
1.108	16.773	-42011	2542	0.02196	0.16328	0.99542
1.11	16.762	-42015	2542	0.020008	0.16299	0.9965
1.112	16.745	-42019	2542.1	0.022741	0.1627	0.99747
1.114	16.59	-42024	2542.1	0.025474	0.16241	0.99845
1.116	16.605	-42025	2542.1	0.028206	0.16211	0.99942
1.118	16.65	-42026	2542.1	0.030939	0.16182	1.0004
1.12	16.718	-42028	2542.2	0.033672	0.16153	1.0014
1.122	16.835	-42031	2542.2	0.03455	0.16133	1.002
1.124	16.88	-42029	2542.2	0.035429	0.16114	1.0025
1.126	16.888	-42028	2542.2	0.036307	0.16094	1.0031
1.128	16.842	-42031	2542.2	0.037186	0.16075	1.0037
1.13	16.711	-42034	2542.2	0.038064	0.16055	1.0043
1.132	16.619	-42039	2542.1	0.038064	0.15987	1.0039
1.134	16.599	-42043	2542	0.038064	0.15919	1.0035
1.136	16.622	-42044	2541.9	0.038064	0.1585	1.0031
1.138	16.755	-42045	2541.9	0.038064	0.15782	1.0027
1.14	16.845	-42048	2541.9	0.038064	0.15714	1.0024
1.142	16.866	-42051	2541.8	0.037771	0.15675	1.0024
1.144	16.841	-42053	2541.8	0.037478	0.15636	1.0025
1.146	16.708	-42054	2541.7	0.037186	0.15596	1.0026
1.148	16.625	-42058	2541.6	0.036893	0.15557	1.0027
1.15	16.657	-42063	2541.5	0.0366	0.15518	1.0028
1.152	16.712	-42069	2541.5	0.033965	0.15684	1.0011
1.154	16.779	-42075	2541.4	0.03133	0.1585	0.99933
1.156	16.836	-42075	2541.3	0.028694	0.16016	0.99757
1.158	16.852	-42076	2541.2	0.026059	0.16182	0.99581
1.16	16.832	-42076	2541.2	0.023424	0.16348	0.99406
1.162	16.749	-42077	2541	0.023326	0.1628	0.99503
1.164	16.635	-42078	2540.8	0.023229	0.16211	0.99601
1.166	16.601	-42079	2540.7	0.023131	0.16143	0.99698
1.168	16.636	-42079	2540.6	0.023034	0.16075	0.99796
1.17	16.703	-42079	2540.4	0.022936	0.16006	0.99894
1.172	16.801	-42087	2540.3	0.022546	0.15967	0.99913
1.174	16.843	-42094	2540.1	0.022155	0.15928	0.99933
1.176	16.823	-42093	2539.9	0.021765	0.15889	0.99952
1.178	16.772	-42093	2539.8	0.021374	0.1585	0.99972
1.18	16.637	-42093	2539.7	0.020984	0.15811	0.99991
1.182	16.535	-42093	2539.5	0.020789	0.15782	0.99981
1.184	16.53	-42100	2539.3	0.020594	0.15753	0.99972
1.186	16.669	-42108	2539.2	0.020398	0.15723	0.99962
1.188	16.884	-42108	2539	0.020203	0.15694	0.99952
1.19	16.899	-42107	2538.9	0.020008	0.15665	0.99942
1.192	16.851	-42106	2538.7	0.020984	0.15821	0.99825
1.194	16.842	-42104	2538.5	0.02196	0.15977	0.99708
1.196	16.746	-42108	2538.3	0.022936	0.16133	0.99591
1.198	16.624	-42112	2538.1	0.023912	0.16289	0.99474
1.2	16.601	-42122	2537.9	0.024888	0.16446	0.99357
1.202	16.639	-42132	2537.7	0.024986	0.16475	0.99288
1.204	16.73	-42135	2537.5	0.025083	0.16504	0.9922
1.206	16.83	-42137	2537.2	0.025181	0.16533	0.99152
1.208	16.854	-42134	2537	0.025278	0.16563	0.99084
1.21	16.879	-42131	2536.7	0.025376	0.16592	0.99015
1.212	16.813	-42129	2536.4	0.0244	0.16514	0.99123
1.214	16.653	-42127	2536.1	0.023424	0.16436	0.9923
1.216	16.568	-42127	2535.8	0.022448	0.16358	0.99337
1.218	16.593	-42127	2535.5	0.021472	0.1628	0.99445
1.22	16.693	-42134	2535.2	0.020496	0.16202	0.99552
1.222	16.817	-42140	2535	0.021472	0.16221	0.9963
1.224	16.845	-42142	2534.7	0.022448	0.16241	0.99708
1.226	16.811	-42143	2534.4	0.023424	0.1626	0.99786
1.228	16.742	-42146	2534.2	0.0244	0.1628	0.99864
1.23	16.654	-42148	2533.9	0.025376	0.16299	0.99942
1.232	16.631	-42155	2533.7	0.02479	0.16299	0.99913
1.234	16.658	-42161	2533.5	0.024205	0.16299	0.99884
1.236	16.716	-42167	2533.2	0.023619	0.16299	0.99855
1.238	16.817	-42172	2533	0.023034	0.16299	0.99825
1.24	16.876	-42173	2532.8	0.022448	0.16299	0.99796
1.242	16.861	-42175	2532.5	0.023131	0.1625	0.99855
1.244	16.791	-42174	2532.3	0.023814	0.16202	0.99913
1.246	16.676	-42174	2532	0.024498	0.16153	0.99972
1.248	16.609	-42172	2531.7	0.025181	0.16104	1.0003
1.25	16.61	-42170	2531.3	0.025864	0.16055	1.0009
1.252	16.662	-42179	2531	0.025669	0.16143	0.99933
1.254	16.805	-42189	2530.7	0.025474	0.16231	0.99776
1.256	16.925	-42188	2530.4	0.025278	0.16319	0.9962
1.258	16.902	-42187	2530.1	0.025083	0.16407	0.99464
1.26	16.87	-42196	2529.7	0.024888	0.16494	0.99308
1.262	16.799	-42205	2529.4	0.023814	0.16358	0.99425
1.264	16.66	-42209	2529.1	0.022741	0.16221	0.99542
1.266	16.637	-42212	2528.7	0.021667	0.16084	0.99659
1.268	16.67	-42214	2528.4	0.020594	0.15948	0.99776
1.27	16.728	-42217	2528.1	0.01952	0.15811	0.99894
1.272	16.86	-42215	2527.7	0.020789	0.15967	0.99825
1.274	16.889	-42213	2527.4	0.022058	0.16124	0.99757
1.276	16.861	-42217	2527.1	0.023326	0.1628	0.99689
1.278	16.833	-42220	2526.8	0.024595	0.16436	0.9962
1.28	16.716	-42223	2526.4	0.025864	0.16592	0.99552
1.282	16.604	-42226	2526.1	0.026059	0.16582	0.99503
1.284	16.596	-42229	2525.7	0.026254	0.16572	0.99454
1.286	16.683	-42231	2525.4	0.02645	0.16563	0.99406
1.288	16.864	-42238	2525	0.026645	0.16553	0.99357
1.29	16.908	-42244	2524.7	0.02684	0.16543	0.99308
1.292	16.859	-42244	2524.3	0.027328	0.16524	0.99288
1.294	16.845	-42244	2523.9	0.027816	0.16504	0.99269
1.296	16.746	-42242	2523.6	0.028304	0.16485	0.99249
1.298	16.683	-42240	2523.4	0.028792	0.16465	0.9923
1.3	16.64	-42248	2523.1	0.02928	0.16446	0.9921
1.302	16.667	-42256	2522.8	0.028987	0.16436	0.99259
1.304	16.752	-42256	2522.4	0.028694	0.16426	0.99308
1.306	16.816	-42256	2522.1	0.028402	0.16416	0.99357
1.308	16.825	-42258	2521.8	0.028109	0.16407	0.99406
1.31	16.761	-42260	2521.5	0.027816	0.16397	0.99454
1.312	16.665	-42268	2521.2	0.028011	0.16397	0.99493
1.314	16.594	-42276	2520.9	0.028206	0.16397	0.99532
1.316	16.606	-42277	2520.5	0.028402	0.16397	0.99572
1.318	16.632	-42278	2520.2	0.028597	0.16397	0.99611
1.32	16.71	-42280	2519.9	0.028792	0.16397	0.9965
1.322	16.824	-42282	2519.6	0.029573	0.16368	0.99542
1.324	16.877	-42289	2519.3	0.030354	0.16338	0.99435
1.326	16.857	-42296	2519	0.031134	0.16309	0.99328
1.328	16.765	-42299	2518.7	0.031915	0.1628	0.9922
1.33	16.646	-42302	2518.4	0.032696	0.1625	0.99113
1.332	16.584	-42301	2518.2	0.033184	0.16133	0.99279
1.334	16.577	-42301	2517.9	0.033672	0.16016	0.99445
1.336	16.611	-42307	2517.6	0.03416	0.15899	0.99611
1.338	16.725	-42312	2517.3	0.034648	0.15782	0.99776
1.34	16.821	-42314	2517.1	0.035136	0.15665	0.99942
1.342	16.82	-42315	2516.8	0.034355	0.15743	0.99942
1.344	16.784	-42319	2516.5	0.033574	0.15821	0.99942
1.346	16.706	-42323	2516.2	0.032794	0.15899	0.99942
1.348	16.618	-42330	2516	0.032013	0.15977	0.99942
1.35	16.591	-42337	2515.7	0.031232	0.16055	0.99942
1.352	16.6	-42338	2515.4	0.030744	0.15967	0.99933
1.354	16.638	-42338	2515.1	0.030256	0.1588	0.99923
1.356	16.766	-42341	2514.9	0.029768	0.15792	0.99913
1.358	16.761	-42344	2514.6	0.02928	0.15704	0.99903
1.36	16.742	-42343	2514.3	0.028792	0.15616	0.99894
1.362	16.665	-42342	2514	0.02928	0.15616	0.99884
1.364	16.563	-42353	2513.7	0.029768	0.15616	0.99874
1.366	16.523	-42364	2513.3	0.030256	0.15616	0.99864
1.368	16.563	-42366	2513	0.030744	0.15616	0.99855
1.37	16.691	-42369	2512.7	0.031232	0.15616	0.99845
1.372	16.854	-42366	2512.4	0.032013	0.15567	0.99855
1.374	16.911	-42362	2512.1	0.032794	0.15518	0.99864
1.376	16.938	-42367	2511.8	0.033574	0.1547	0.99874
1.378	16.917	-42372	2511.5	0.034355	0.15421	0.99884
1.38	16.822	-42377	2511.2	0.035136	0.15372	0.99894
1.382	16.808	-42382	2510.9	0.033867	0.15489	0.99923
1.384	16.914	-42388	2510.6	0.032598	0.15606	0.99952
1.386	17.064	-42394	2510.3	0.03133	0.15723	0.99981
1.388	17.213	-42391	2510.1	0.030061	0.1584	1.0001
1.39	17.331	-42389	2509.8	0.028792	0.15958	1.0004
1.392	17.368	-42397	2509.6	0.029475	0.15909	1.0009
1.394	17.305	-42405	2509.4	0.030158	0.1586	1.0014
1.396	17.153	-42404	2509.2	0.030842	0.15811	1.0019
1.398	17.036	-42402	2509	0.031525	0.15762	1.0024
1.4	16.988	-42404	2508.8	0.032208	0.15714	1.0028
1.402	16.978	-42406	2508.6	0.032598	0.15606	1.0012
1.404	16.999	-42414	2508.4	0.032989	0.15499	0.99952
1.406	17.002	-42422	2508.2	0.033379	0.15392	0.99786
1.408	16.9	-42426	2508.1	0.03377	0.15284	0.9962
1.41	16.786	-42430	2507.9	0.03416	0.15177	0.99454
1.412	16.699	-42426	2507.7	0.034453	0.15304	0.9965
1.414	16.579	-42423	2507.5	0.034746	0.15431	0.99845
1.416	16.499	-42432	2507.3	0.035038	0.15557	1.0004
1.418	16.493	-42441	2507.1	0.035331	0.15684	1.0024
1.42	16.543	-42444	2506.9	0.035624	0.15811	1.0043
1.422	16.638	-42447	2506.7	0.03621	0.1584	1.0044
1.424	16.709	-42450	2506.5	0.036795	0.1587	1.0045
1.426	16.751	-42453	2506.2	0.037381	0.15899	1.0046
1.428	16.748	-42463	2505.9	0.037966	0.15928	1.0047
1.43	16.642	-42474	2505.7	0.038552	0.15958	1.0048
1.432	16.548	-42472	2505.3	0.037576	0.16006	1.0037
1.434	16.551	-42469	2505	0.0366	0.16055	1.0026
1.436	16.598	-42465	2504.7	0.035624	0.16104	1.0016
1.438	16.691	-42462	2504.4	0.034648	0.16153	1.0005
1.44	16.752	-42470	2504.1	0.033672	0.16202	0.99942
1.442	16.736	-42479	2504	0.032891	0.1628	0.99806
1.444	16.705	-42486	2503.9	0.03211	0.16358	0.99669
1.446	16.652	-42493	2503.9	0.03133	0.16436	0.99532
1.448	16.538	-42490	2503.9	0.030549	0.16514	0.99396
1.45	16.532	-42488	2504	0.029768	0.16592	0.99259
1.452	16.549	-42492	2504.2	0.030256	0.16387	0.99259
1.454	16.647	-42496	2504.3	0.030744	0.16182	0.99259
1.456	16.804	-42506	2504.4	0.031232	0.15977	0.99259
1.458	16.81	-42515	2504.5	0.03172	0.15772	0.99259
1.46	16.695	-42519	2504.6	0.032208	0.15567	0.99259
1.462	16.638	-42524	2504.5	0.032403	0.1545	0.99152
1.464	16.525	-42522	2504.4	0.032598	0.15333	0.99044
1.466	16.519	-42520	2504.3	0.032794	0.15216	0.98937
1.468	16.57	-42527	2504	0.032989	0.15099	0.9883
1.47	16.629	-42535	2503.8	0.033184	0.14982	0.98722
1.472	16.736	-42537	2503.3	0.032891	0.15128	0.98869
1.474	16.772	-42540	2502.8	0.032598	0.15274	0.99015
1.476	16.742	-42539	2502.4	0.032306	0.15421	0.99162
1.478	16.679	-42538	2501.8	0.032013	0.15567	0.99308
1.48	16.55	-42543	2501.3	0.03172	0.15714	0.99454
1.482	16.485	-42548	2500.9	0.029866	0.15889	0.99513
1.484	16.505	-42554	2500.5	0.028011	0.16065	0.99572
1.486	16.576	-42559	2500.1	0.026157	0.16241	0.9963
1.488	16.705	-42557	2499.9	0.024302	0.16416	0.99689
1.49	16.783	-42555	2499.6	0.022448	0.16592	0.99747
1.492	16.797	-42556	2499.6	0.0244	0.16494	0.9964
1.494	16.759	-42557	2499.6	0.026352	0.16397	0.99532
1.496	16.633	-42564	2500	0.028304	0.16299	0.99425
1.498	16.538	-42571	2500.7	0.030256	0.16202	0.99318
1.5	16.541	-42572	2501.5	0.032208	0.16104	0.9921
1.502	16.564	-42573	2503.4	0.032306	0.15938	0.99162
1.504	16.641	-42580	2505.4	0.032403	0.15772	0.99113
1.506	16.762	-42587	2507.7	0.032501	0.15606	0.99064
1.508	16.779	-42585	2510.4	0.032598	0.1544	0.99015
1.51	16.722	-42583	2513.2	0.032696	0.15274	0.98966
1.512	16.658	-42588	2516.2	0.031037	0.15401	0.99181
1.514	16.568	-42592	2519.3	0.029378	0.15528	0.99396
1.516	16.511	-42598	2522.5	0.027718	0.15655	0.99611
1.518	16.553	-42604	2525.8	0.026059	0.15782	0.99825
1.52	16.711	-42602	2529.1	0.0244	0.15909	1.0004
1.522	16.844	-42600	2532.6	0.025376	0.15987	1.0011
1.524	16.78	-42605	2536	0.026352	0.16065	1.0018
1.526	16.756	-42610	2539.4	0.027328	0.16143	1.0024
1.528	16.745	-42612	2542.7	0.028304	0.16221	1.0031
1.53	16.654	-42614	2546	0.02928	0.16299	1.0038
1.532	16.549	-42611	2548.8	0.029085	0.16289	1.0057
1.534	16.529	-42608	2551.6	0.02889	0.1628	1.0075
1.536	16.537	-42614	2554.1	0.028694	0.1627	1.0094
1.538	16.678	-42619	2556.3	0.028499	0.1626	1.0112
1.54	16.826	-42616	2558.5	0.028304	0.1625	1.0131
1.542	16.796	-42614	2560.2	0.029378	0.16143	1.0119
1.544	16.787	-42614	2562	0.030451	0.16036	1.0107
1.546	16.677	-42614	2563.5	0.031525	0.15928	1.0096
1.548	16.577	-42614	2564.9	0.032598	0.15821	1.0084
1.55	16.553	-42614	2566.3	0.033672	0.15714	1.0072
1.552	16.565	-42611	2567.3	0.033672	0.15704	1.0065
1.554	16.699	-42608	2568.4	0.033672	0.15694	1.0057
1.556	16.824	-42604	2569.5	0.033672	0.15684	1.0049
1.558	16.857	-42600	2570.4	0.033672	0.15675	1.0041
1.56	16.865	-42593	2571.4	0.033672	0.15665	1.0033
1.562	16.737	-42586	2572.4	0.031915	0.15792	1.0022
1.564	16.587	-42586	2573.3	0.030158	0.15919	1.001
1.566	16.581	-42585	2574.2	0.028402	0.16045	0.99981
1.568	16.629	-42579	2575.1	0.026645	0.16172	0.99864
1.57	16.704	-42572	2576	0.024888	0.16299	0.99747
1.572	16.809	-42573	2576.8	0.026254	0.16309	0.99581
1.574	16.857	-42574	2577.6	0.027621	0.16319	0.99415
1.576	16.849	-42565	2578.4	0.028987	0.16328	0.99249
1.578	16.794	-42557	2579.1	0.030354	0.16338	0.99084
1.58	16.707	-42555	2579.7	0.03172	0.16348	0.98918
1.582	16.65	-42552	2580.2	0.030646	0.16465	0.98986
1.584	16.638	-42548	2580.7	0.029573	0.16582	0.99054
1.586	16.675	-42544	2581.1	0.028499	0.16699	0.99123
1.588	16.771	-42538	2581.5	0.027426	0.16816	0.99191
1.59	16.868	-42532	2581.9	0.026352	0.16934	0.99259
1.592	16.903	-42521	2582.1	0.026645	0.16875	0.99259
1.594	16.875	-42511	2582.3	0.026938	0.16816	0.99259
1.596	16.755	-42499	2582.5	0.02723	0.16758	0.99259
1.598	16.68	-42488	2582.7	0.027523	0.16699	0.99259
1.6	16.707	-42480	2582.8	0.027816	0.16641	0.99259
1.602	16.739	-42472	2582.9	0.027718	0.16602	0.99298
1.604	16.809	-42465	2583	0.027621	0.16563	0.99337
1.606	16.899	-42458	2583	0.027523	0.16524	0.99376
1.608	16.927	-42452	2583.1	0.027426	0.16485	0.99415
1.61	16.961	-42446	2583.2	0.027328	0.16446	0.99454
1.612	16.915	-42444	2583.2	0.029573	0.16338	0.99406
1.614	16.767	-42443	2583.1	0.031818	0.16231	0.99357
1.616	16.68	-42434	2583.1	0.034062	0.16124	0.99308
1.618	16.711	-42425	2583.1	0.036307	0.16016	0.99259
1.62	16.821	-42412	2583.1	0.038552	0.15909	0.9921
1.622	16.963	-42400	2583	0.037088	0.1588	0.9921
1.624	16.995	-42398	2582.9	0.035624	0.1585	0.9921
1.626	16.944	-42396	2582.8	0.03416	0.15821	0.9921
1.628	16.894	-42391	2582.7	0.032696	0.15792	0.9921
1.63	16.743	-42386	2582.5	0.031232	0.15762	0.9921
1.632	16.662	-42374	2582.4	0.031134	0.1585	0.99181
1.634	16.682	-42361	2582.2	0.031037	0.15938	0.99152
1.636	16.766	-42357	2582	0.030939	0.16026	0.99123
1.638	16.908	-42353	2581.8	0.030842	0.16114	0.99093
1.64	16.984	-42345	2581.6	0.030744	0.16202	0.99064
1.642	16.973	-42337	2581.5	0.030744	0.16211	0.99074
1.644	16.901	-42323	2581.3	0.030744	0.16221	0.99084
1.646	16.752	-42310	2581.1	0.030744	0.16231	0.99093
1.648	16.664	-42307	2581	0.030744	0.16241	0.99103
1.65	16.679	-42304	2580.8	0.030744	0.1625	0.99113
1.652	16.732	-42299	2580.6	0.030939	0.1626	0.99103
1.654	16.812	-42293	2580.4	0.031134	0.1627	0.99093
1.656	16.899	-42290	2580.2	0.03133	0.1628	0.99084
1.658	16.929	-42288	2580	0.031525	0.16289	0.99074
1.66	16.908	-42285	2579.7	0.03172	0.16299	0.99064
1.662	16.814	-42281	2579.5	0.031525	0.1625	0.99132
1.664	16.688	-42271	2579.2	0.03133	0.16202	0.99201
1.666	16.623	-42260	2578.9	0.031134	0.16153	0.99269
1.668	16.622	-42253	2578.6	0.030939	0.16104	0.99337
1.67	16.685	-42246	2578.3	0.030744	0.16055	0.99406
1.672	16.808	-42243	2577.9	0.029866	0.16153	0.99386
1.674	16.898	-42240	2577.6	0.028987	0.1625	0.99367
1.676	16.896	-42236	2577.2	0.028109	0.16348	0.99347
1.678	16.822	-42232	2576.8	0.02723	0.16446	0.99328
1.68	16.713	-42227	2576.4	0.026352	0.16543	0.99308
1.682	16.621	-42222	2576	0.025766	0.16553	0.99367
1.684	16.603	-42220	2575.6	0.025181	0.16563	0.99425
1.686	16.66	-42218	2575.2	0.024595	0.16572	0.99484
1.688	16.799	-42216	2574.8	0.02401	0.16582	0.99542
1.69	16.897	-42213	2574.3	0.023424	0.16592	0.99601
1.692	16.874	-42206	2573.9	0.024986	0.16543	0.99689
1.694	16.814	-42199	2573.5	0.026547	0.16494	0.99776
1.696	16.737	-42195	2573	0.028109	0.16446	0.99864
1.698	16.59	-42191	2572.6	0.02967	0.16397	0.99952
1.7	16.564	-42189	2572.2	0.031232	0.16348	1.0004
1.702	16.62	-42188	2571.7	0.032013	0.16202	1.0008
1.704	16.719	-42189	2571.2	0.032794	0.16055	1.0012
1.706	16.787	-42191	2570.7	0.033574	0.15909	1.0016
1.708	16.778	-42192	2570.3	0.034355	0.15762	1.002
1.71	16.825	-42193	2569.8	0.035136	0.15616	1.0024
1.712	16.794	-42189	2569.4	0.035624	0.15753	1.0022
1.714	16.592	-42184	2569	0.036112	0.15889	1.002
1.716	16.511	-42183	2568.6	0.0366	0.16026	1.0018
1.718	16.566	-42182	2568.3	0.037088	0.16163	1.0016
1.72	16.652	-42182	2567.9	0.037576	0.16299	1.0014
1.722	16.793	-42181	2567.5	0.036307	0.16211	1.0012
1.724	16.85	-42175	2567.1	0.035038	0.16124	1.001
1.726	16.847	-42169	2566.7	0.03377	0.16036	1.0008
1.728	16.76	-42167	2566.2	0.032501	0.15948	1.0006
1.73	16.643	-42165	2565.8	0.031232	0.1586	1.0004
1.732	16.603	-42166	2565.2	0.031525	0.15801	1
1.734	16.591	-42166	2564.7	0.031818	0.15743	0.99962
1.736	16.607	-42165	2564.1	0.03211	0.15684	0.99923
1.738	16.736	-42164	2563.5	0.032403	0.15626	0.99884
1.74	16.857	-42165	2562.8	0.032696	0.15567	0.99845
1.742	16.834	-42165	2562.1	0.033086	0.15587	0.99913
1.744	16.769	-42164	2561.4	0.033477	0.15606	0.99981
1.746	16.69	-42163	2560.7	0.033867	0.15626	1.0005
1.748	16.649	-42164	2559.9	0.034258	0.15645	1.0012
1.75	16.645	-42166	2559.2	0.034648	0.15665	1.0019
1.752	16.645	-42167	2558.5	0.033672	0.15665	1.0014
1.754	16.705	-42168	2557.8	0.032696	0.15665	1.0009
1.756	16.803	-42163	2557.1	0.03172	0.15665	1.0004
1.758	16.846	-42157	2556.4	0.030744	0.15665	0.99991
1.76	16.817	-42153	2555.8	0.029768	0.15665	0.99942
1.762	16.717	-42148	2555.2	0.030451	0.15684	0.99923
1.764	16.587	-42149	2554.6	0.031134	0.15704	0.99903
1.766	16.55	-42149	2554	0.031818	0.15723	0.99884
1.768	16.592	-42150	2553.5	0.032501	0.15743	0.99864
1.77	16.651	-42151	2552.9	0.033184	0.15762	0.99845
1.772	16.764	-42153	2552.3	0.033086	0.15743	0.99894
1.774	16.854	-42155	2551.8	0.032989	0.15723	0.99942
1.776	16.853	-42157	2551.3	0.032891	0.15704	0.99991
1.778	16.796	-42158	2550.8	0.032794	0.15684	1.0004
1.78	16.656	-42157	2550.3	0.032696	0.15665	1.0009
1.782	16.564	-42157	2549.8	0.032598	0.15645	1.0014
1.784	16.563	-42160	2549.3	0.032501	0.15626	1.0019
1.786	16.599	-42163	2548.8	0.032403	0.15606	1.0024
1.788	16.744	-42165	2548.3	0.032306	0.15587	1.0028
1.79	16.829	-42167	2547.9	0.032208	0.15567	1.0033
1.792	16.773	-42165	2547.5	0.031915	0.15645	1.0024
1.794	16.742	-42164	2547.1	0.031622	0.15723	1.0014
1.796	16.691	-42163	2546.7	0.03133	0.15801	1.0004
1.798	16.585	-42162	2546.3	0.031037	0.1588	0.99942
1.8	16.604	-42168	2545.8	0.030744	0.15958	0.99845
1.802	16.61	-42175	2545.5	0.032208	0.15831	0.99855
1.804	16.65	-42173	2545.2	0.033672	0.15704	0.99864
1.806	16.794	-42171	2544.9	0.035136	0.15577	0.99874
1.808	16.819	-42173	2544.6	0.0366	0.1545	0.99884
1.81	16.781	-42175	2544.3	0.038064	0.15323	0.99894
1.812	16.706	-42177	2544.1	0.036795	0.15372	0.99884
1.814	16.605	-42178	2543.8	0.035526	0.15421	0.99874
1.816	16.564	-42182	2543.6	0.034258	0.1547	0.99864
1.818	16.577	-42187	2543.5	0.032989	0.15518	0.99855
1.82	16.663	-42191	2543.3	0.03172	0.15567	0.99845
1.822	16.748	-42195	2543.2	0.032794	0.15548	0.99884
1.824	16.793	-42199	2543	0.033867	0.15528	0.99923
1.826	16.787	-42203	2542.9	0.034941	0.15509	0.99962
1.828	16.718	-42194	2542.8	0.036014	0.15489	1
1.83	16.634	-42186	2542.7	0.037088	0.1547	1.0004
1.832	16.586	-42197	2542.6	0.036014	0.15518	0.99972
1.834	16.572	-42209	2542.6	0.034941	0.15567	0.99903
1.836	16.611	-42211	2542.6	0.033867	0.15616	0.99835
1.838	16.721	-42212	2542.6	0.032794	0.15665	0.99767
1.84	16.823	-42206	2542.5	0.03172	0.15714	0.99698
1.842	16.827	-42200	2542.5	0.032306	0.15675	0.99718
1.844	16.766	-42203	2542.5	0.032891	0.15636	0.99737
1.846	16.674	-42207	2542.5	0.033477	0.15596	0.99757
1.848	16.567	-42215	2542.5	0.034062	0.15557	0.99776
1.85	16.538	-42224	2542.5	0.034648	0.15518	0.99796
1.852	16.571	-42226	2542.6	0.034355	0.15557	0.99806
1.854	16.65	-42228	2542.6	0.034062	0.15596	0.99816
1.856	16.755	-42229	2542.6	0.03377	0.15636	0.99825
1.858	16.808	-42229	2542.7	0.033477	0.15675	0.99835
1.86	16.818	-42235	2542.7	0.033184	0.15714	0.99845
1.862	16.733	-42240	2542.7	0.033574	0.15684	0.99884
1.864	16.572	-42243	2542.8	0.033965	0.15655	0.99923
1.866	16.494	-42246	2542.8	0.034355	0.15626	0.99962
1.868	16.546	-42247	2542.8	0.034746	0.15596	1
1.87	16.631	-42247	2542.8	0.035136	0.15567	1.0004
1.872	16.767	-42252	2542.8	0.035429	0.15684	1.0007
1.874	16.842	-42256	2542.8	0.035722	0.15801	1.001
1.876	16.806	-42255	2542.8	0.036014	0.15919	1.0013
1.878	16.725	-42255	2542.7	0.036307	0.16036	1.0016
1.88	16.627	-42252	2542.6	0.0366	0.16153	1.0019
1.882	16.579	-42249	2542.6	0.036795	0.16045	1.0017
1.884	16.55	-42254	2542.5	0.03699	0.15938	1.0015
1.886	16.53	-42259	2542.4	0.037186	0.15831	1.0013
1.888	16.69	-42259	2542.2	0.037381	0.15723	1.0011
1.89	16.768	-42259	2542.1	0.037576	0.15616	1.0009
1.892	16.746	-42261	2541.9	0.037674	0.15743	1.0007
1.894	16.768	-42264	2541.7	0.037771	0.1587	1.0005
1.896	16.664	-42267	2541.5	0.037869	0.15997	1.0003
1.898	16.55	-42270	2541.3	0.037966	0.16124	1.0001
1.9	16.511	-42281	2541.1	0.038064	0.1625	0.99991
1.902	16.544	-42292	2540.9	0.035819	0.16299	0.99942
1.904	16.656	-42292	2540.7	0.033574	0.16348	0.99894
1.906	16.754	-42292	2540.5	0.03133	0.16397	0.99845
1.908	16.777	-42294	2540.4	0.029085	0.16446	0.99796
1.91	16.782	-42296	2540.2	0.02684	0.16494	0.99747
1.912	16.728	-42292	2540	0.027426	0.16485	0.9964
1.914	16.604	-42287	2539.9	0.028011	0.16475	0.99532
1.916	16.491	-42293	2539.7	0.028597	0.16465	0.99425
1.918	16.502	-42298	2539.5	0.029182	0.16455	0.99318
1.92	16.61	-42301	2539.3	0.029768	0.16446	0.9921
1.922	16.751	-42303	2539.2	0.02928	0.16416	0.9921
1.924	16.819	-42306	2539	0.028792	0.16387	0.9921
1.926	16.77	-42309	2538.8	0.028304	0.16358	0.9921
1.928	16.684	-42314	2538.6	0.027816	0.16328	0.9921
1.93	16.6	-42318	2538.4	0.027328	0.16299	0.9921
1.932	16.56	-42318	2538.2	0.027718	0.16202	0.99298
1.934	16.564	-42319	2537.9	0.028109	0.16104	0.99386
1.936	16.584	-42320	2537.8	0.028499	0.16006	0.99474
1.938	16.667	-42321	2537.6	0.02889	0.15909	0.99562
1.94	16.775	-42322	2537.4	0.02928	0.15811	0.9965
1.942	16.786	-42323	2537.1	0.029866	0.15948	0.99503
1.944	16.745	-42330	2536.9	0.030451	0.16084	0.99357
1.946	16.653	-42337	2536.7	0.031037	0.16221	0.9921
1.948	16.534	-42336	2536.4	0.031622	0.16358	0.99064
1.95	16.525	-42335	2536.2	0.032208	0.16494	0.98918
1.952	16.577	-42337	2535.9	0.031134	0.16504	0.98966
1.954	16.64	-42338	2535.7	0.030061	0.16514	0.99015
1.956	16.712	-42340	2535.4	0.028987	0.16524	0.99064
1.958	16.775	-42341	2535.1	0.027914	0.16533	0.99113
1.96	16.801	-42347	2534.9	0.02684	0.16543	0.99162
1.962	16.712	-42354	2534.6	0.027133	0.16563	0.99191
1.964	16.552	-42355	2534.3	0.027426	0.16582	0.9922
1.966	16.541	-42355	2534.1	0.027718	0.16602	0.99249
1.968	16.558	-42357	2533.9	0.028011	0.16621	0.99279
1.97	16.613	-42359	2533.7	0.028304	0.16641	0.99308
1.972	16.768	-42364	2533.5	0.027914	0.16621	0.99269
1.974	16.824	-42368	2533.3	0.027523	0.16602	0.9923
1.976	16.829	-42363	2533.1	0.027133	0.16582	0.99191
1.978	16.782	-42358	2532.9	0.026742	0.16563	0.99152
1.98	16.629	-42364	2532.7	0.026352	0.16543	0.99113
1.982	16.526	-42371	2532.5	0.026547	0.16446	0.99191
1.984	16.519	-42373	2532.3	0.026742	0.16348	0.99269
1.986	16.567	-42375	2532	0.026938	0.1625	0.99347
1.988	16.684	-42378	2531.8	0.027133	0.16153	0.99425
1.99	16.757	-42381	2531.6	0.027328	0.16055	0.99503
1.992	16.779	-42376	2531.3	0.028304	0.16036	0.99435
1.994	16.79	-42372	2531	0.02928	0.16016	0.99367
1.996	16.718	-42384	2530.7	0.030256	0.15997	0.99298
1.998	16.639	-42396	2530.4	0.031232	0.15977	0.9923
2	16.616	-42397	2530.1	0.032208	0.15958	0.99162
2.002	16.613	-42399	2529.8	0.030744	0.16036	0.99328
2.004	16.672	-42401	2529.6	0.02928	0.16114	0.99493
2.006	16.788	-42403	2529.3	0.027816	0.16192	0.99659
2.008	16.845	-42404	2529	0.026352	0.1627	0.99825
2.01	16.811	-42405	2528.7	0.024888	0.16348	0.99991
2.012	16.701	-42408	2528.5	0.024986	0.16416	0.99874
2.014	16.564	-42411	2528.2	0.025083	0.16485	0.99757
2.016	16.521	-42416	2527.9	0.025181	0.16553	0.9964
2.018	16.592	-42420	2527.6	0.025278	0.16621	0.99523
2.02	16.713	-42420	2527.3	0.025376	0.1669	0.99406
2.022	16.81	-42420	2527	0.025571	0.16631	0.99396
2.024	16.834	-42419	2526.6	0.025766	0.16572	0.99386
2.026	16.828	-42419	2526.3	0.025962	0.16514	0.99376
2.028	16.798	-42426	2525.9	0.026157	0.16455	0.99367
2.03	16.724	-42433	2525.5	0.026352	0.16397	0.99357
2.032	16.637	-42438	2525.1	0.027035	0.16426	0.99357
2.034	16.605	-42444	2524.7	0.027718	0.16455	0.99357
2.036	16.581	-42446	2524.3	0.028402	0.16485	0.99357
2.038	16.706	-42448	2523.8	0.029085	0.16514	0.99357
2.04	16.843	-42453	2523.4	0.029768	0.16543	0.99357
2.042	16.851	-42457	2523	0.029475	0.16504	0.99367
2.044	16.758	-42450	2522.7	0.029182	0.16465	0.99376
2.046	16.641	-42444	2522.3	0.02889	0.16426	0.99386
2.048	16.557	-42448	2521.9	0.028597	0.16387	0.99396
2.05	16.515	-42453	2521.6	0.028304	0.16348	0.99406
2.052	16.546	-42460	2521.2	0.029182	0.1628	0.99445
2.054	16.625	-42466	2520.9	0.030061	0.16211	0.99484
2.056	16.74	-42469	2520.5	0.030939	0.16143	0.99523
2.058	16.768	-42472	2520.2	0.031818	0.16075	0.99562
2.06	16.741	-42473	2519.8	0.032696	0.16006	0.99601
2.062	16.678	-42473	2519.5	0.032403	0.15948	0.99601
2.064	16.583	-42478	2519.2	0.03211	0.15889	0.99601
2.066	16.525	-42482	2518.9	0.031818	0.15831	0.99601
2.068	16.504	-42487	2518.6	0.031525	0.15772	0.99601
2.07	16.568	-42493	2518.4	0.031232	0.15714	0.99601
2.072	16.703	-42494	2518.1	0.031134	0.15801	0.99689
2.074	16.749	-42494	2517.9	0.031037	0.15889	0.99776
2.076	16.716	-42498	2517.7	0.030939	0.15977	0.99864
2.078	16.674	-42501	2517.5	0.030842	0.16065	0.99952
2.08	16.605	-42506	2517.3	0.030744	0.16153	1.0004
2.082	16.557	-42511	2517.1	0.031134	0.16016	0.99991
2.084	16.535	-42514	2516.9	0.031525	0.1588	0.99942
2.086	16.543	-42518	2516.7	0.031915	0.15743	0.99894
2.088	16.63	-42517	2516.5	0.032306	0.15606	0.99845
2.09	16.723	-42517	2516.3	0.032696	0.1547	0.99796
2.092	16.744	-42517	2516	0.033379	0.15509	0.99855
2.094	16.717	-42518	2515.7	0.034062	0.15548	0.99913
2.096	16.624	-42524	2515.4	0.034746	0.15587	0.99972
2.098	16.521	-42529	2515.1	0.035429	0.15626	1.0003
2.1	16.482	-42534	2514.8	0.036112	0.15665	1.0009
2.102	16.471	-42538	2514.5	0.036795	0.15753	1.0014
2.104	16.556	-42541	2514.1	0.037478	0.1584	1.0019
2.106	16.699	-42545	2513.8	0.038162	0.15928	1.0024
2.108	16.76	-42544	2513.5	0.038845	0.16016	1.0028
2.11	16.777	-42544	2513.2	0.039528	0.16104	1.0033
2.112	16.733	-42550	2512.9	0.039235	0.16084	1.0031
2.114	16.629	-42555	2512.6	0.038942	0.16065	1.0029
2.116	16.585	-42555	2512.3	0.03865	0.16045	1.0027
2.118	16.668	-42555	2512	0.038357	0.16026	1.0025
2.12	16.811	-42558	2511.6	0.038064	0.16006	1.0024
2.122	17.016	-42560	2511.3	0.038064	0.15928	1.0016
2.124	17.125	-42568	2511	0.038064	0.1585	1.0008
2.126	17.127	-42575	2510.7	0.038064	0.15772	1
2.128	17.138	-42577	2510.4	0.038064	0.15694	0.99923
2.13	17.066	-42579	2510.1	0.038064	0.15616	0.99845
2.132	17.021	-42578	2509.9	0.0366	0.15655	0.99825
2.134	17.087	-42578	2509.7	0.035136	0.15694	0.99806
2.136	17.153	-42586	2509.5	0.033672	0.15733	0.99786
2.138	17.242	-42594	2509.2	0.032208	0.15772	0.99767
2.14	17.288	-42594	2509	0.030744	0.15811	0.99747
2.142	17.271	-42595	2508.8	0.030842	0.15772	0.99708
2.144	17.178	-42601	2508.7	0.030939	0.15733	0.99669
2.146	16.963	-42607	2508.5	0.031037	0.15694	0.9963
2.148	16.753	-42607	2508.3	0.031134	0.15655	0.99591
2.15	16.584	-42608	2508.2	0.031232	0.15616	0.99552
2.152	16.501	-42613	2508	0.031427	0.15567	0.99591
2.154	16.543	-42618	2507.9	0.031622	0.15518	0.9963
2.156	16.595	-42616	2507.7	0.031818	0.1547	0.99669
2.158	16.562	-42614	2507.5	0.032013	0.15421	0.99708
2.16	16.563	-42616	2507.3	0.032208	0.15372	0.99747
2.162	16.539	-42618	2507.1	0.034258	0.15489	0.99952
2.164	16.499	-42624	2506.9	0.036307	0.15606	1.0016
2.166	16.493	-42630	2506.7	0.038357	0.15723	1.0036
2.168	16.509	-42633	2506.4	0.040406	0.1584	1.0057
2.17	16.53	-42635	2506.1	0.042456	0.15958	1.0077
2.172	16.594	-42643	2505.8	0.041773	0.16045	1.0063
2.174	16.692	-42650	2505.5	0.04109	0.16133	1.0048
2.176	16.744	-42647	2505.3	0.040406	0.16221	1.0033
2.178	16.706	-42645	2505.1	0.039723	0.16309	1.0019
2.18	16.604	-42650	2504.9	0.03904	0.16397	1.0004
2.182	16.514	-42656	2504.8	0.03865	0.16377	1.0006
2.184	16.468	-42657	2504.7	0.038259	0.16358	1.0008
2.186	16.488	-42659	2504.6	0.037869	0.16338	1.001
2.188	16.618	-42659	2504.6	0.037478	0.16319	1.0012
2.19	16.724	-42659	2504.6	0.037088	0.16299	1.0014
2.192	16.702	-42664	2504.6	0.035136	0.16309	1.0004
2.194	16.644	-42668	2504.7	0.033184	0.16319	0.99942
2.196	16.539	-42675	2504.7	0.031232	0.16328	0.99845
2.198	16.428	-42682	2504.6	0.02928	0.16338	0.99747
2.2	16.424	-42683	2504.5	0.027328	0.16348	0.9965
2.202	16.466	-42683	2504.4	0.026938	0.1628	0.99679
2.204	16.546	-42686	2504.2	0.026547	0.16211	0.99708
2.206	16.663	-42689	2504	0.026157	0.16143	0.99737
2.208	16.678	-42690	2503.7	0.025766	0.16075	0.99767
2.21	16.647	-42690	2503.5	0.025376	0.16006	0.99796
2.212	16.611	-42694	2503.1	0.026157	0.15958	0.99816
2.214	16.501	-42697	2502.7	0.026938	0.15909	0.99835
2.216	16.429	-42704	2502.4	0.027718	0.1586	0.99855
2.218	16.419	-42711	2502	0.028499	0.15811	0.99874
2.22	16.489	-42714	2501.6	0.02928	0.15762	0.99894
2.222	16.665	-42716	2501.3	0.028987	0.15938	0.99806
2.224	16.74	-42717	2501.1	0.028694	0.16114	0.99718
2.226	16.7	-42719	2500.8	0.028402	0.16289	0.9963
2.228	16.694	-42731	2500.6	0.028109	0.16465	0.99542
2.23	16.568	-42744	2500.5	0.027816	0.16641	0.99454
2.232	16.413	-42736	2500.5	0.028011	0.16572	0.99425
2.234	16.362	-42728	2500.6	0.028206	0.16504	0.99396
2.236	16.41	-42734	2501	0.028402	0.16436	0.99367
2.238	16.559	-42740	2501.8	0.028597	0.16368	0.99337
2.24	16.666	-42744	2502.5	0.028792	0.16299	0.99308
2.242	16.648	-42748	2504.5	0.031134	0.16319	0.99259
2.244	16.729	-42757	2506.4	0.033477	0.16338	0.9921
2.246	16.662	-42767	2508.7	0.035819	0.16358	0.99162
2.248	16.529	-42766	2511.3	0.038162	0.16377	0.99113
2.25	16.486	-42765	2514	0.040504	0.16397	0.99064
2.252	16.513	-42767	2517.1	0.038454	0.1627	0.99249
2.254	16.596	-42770	2520.3	0.036405	0.16143	0.99435
2.256	16.695	-42770	2523.5	0.034355	0.16016	0.9962
2.258	16.731	-42770	2526.9	0.032306	0.15889	0.99806
2.26	16.719	-42770	2530.3	0.030256	0.15762	0.99991
2.262	16.64	-42769	2533.9	0.030158	0.15714	0.99972
2.264	16.525	-42772	2537.4	0.030061	0.15665	0.99952
2.266	16.476	-42776	2540.9	0.029963	0.15616	0.99933
2.268	16.482	-42778	2544.2	0.029866	0.15567	0.99913
2.27	16.549	-42780	2547.6	0.029768	0.15518	0.99894
2.272	16.685	-42781	2550.4	0.031134	0.1544	0.99952
2.274	16.76	-42782	2553.2	0.032501	0.15362	1.0001
2.276	16.744	-42783	2555.7	0.033867	0.15284	1.0007
2.278	16.711	-42785	2557.9	0.035234	0.15206	1.0013
2.28	16.607	-42784	2560.1	0.0366	0.15128	1.0019
2.282	16.52	-42784	2561.9	0.036307	0.15167	1.0023
2.284	16.502	-42781	2563.6	0.036014	0.15206	1.0026
2.286	16.516	-42779	2565.1	0.035722	0.15245	1.003
2.288	16.605	-42777	2566.4	0.035429	0.15284	1.0034
2.29	16.718	-42774	2567.8	0.035136	0.15323	1.0038
2.292	16.711	-42773	2568.9	0.034746	0.15372	1.0036
2.294	16.671	-42772	2570	0.034355	0.15421	1.0034
2.296	16.604	-42771	2571.1	0.033965	0.1547	1.0032
2.298	16.49	-42769	2572	0.033574	0.15518	1.003
2.3	16.49	-42764	2573	0.033184	0.15567	1.0028
2.302	16.551	-42759	2573.9	0.03377	0.15636	1.0025
2.304	16.634	-42757	2574.8	0.034355	0.15704	1.0023
2.306	16.731	-42756	2575.7	0.034941	0.15772	1.002
2.308	16.736	-42753	2576.5	0.035526	0.1584	1.0017
2.31	16.77	-42751	2577.3	0.036112	0.15909	1.0014
2.312	16.77	-42742	2578	0.035429	0.15977	0.99981
2.314	16.6	-42733	2578.7	0.034746	0.16045	0.99825
2.316	16.534	-42729	2579.3	0.034062	0.16114	0.99669
2.318	16.51	-42725	2580	0.033379	0.16182	0.99513
2.32	16.581	-42719	2580.6	0.032696	0.1625	0.99357
2.322	16.77	-42712	2581.1	0.032696	0.1625	0.99318
2.324	16.879	-42703	2581.6	0.032696	0.1625	0.99279
2.326	16.827	-42694	2582.1	0.032696	0.1625	0.9924
2.328	16.717	-42689	2582.6	0.032696	0.1625	0.99201
2.33	16.586	-42684	2583	0.032696	0.1625	0.99162
2.332	16.554	-42679	2583.3	0.031818	0.1627	0.99269
2.334	16.611	-42675	2583.6	0.030939	0.16289	0.99376
2.336	16.664	-42668	2583.9	0.030061	0.16309	0.99484
2.338	16.73	-42661	2584.2	0.029182	0.16328	0.99591
2.34	16.828	-42655	2584.4	0.028304	0.16348	0.99698
2.342	16.886	-42650	2584.6	0.02889	0.16338	0.99601
2.344	16.841	-42644	2584.8	0.029475	0.16328	0.99503
2.346	16.743	-42639	2584.9	0.030061	0.16319	0.99406
2.348	16.663	-42624	2585.1	0.030646	0.16309	0.99308
2.35	16.627	-42609	2585.2	0.031232	0.16299	0.9921
2.352	16.667	-42605	2585.3	0.030646	0.16241	0.99328
2.354	16.789	-42601	2585.3	0.030061	0.16182	0.99445
2.356	16.901	-42598	2585.3	0.029475	0.16124	0.99562
2.358	16.915	-42594	2585.3	0.02889	0.16065	0.99679
2.36	16.879	-42583	2585.3	0.028304	0.16006	0.99796
2.362	16.826	-42572	2585.1	0.028792	0.15987	0.99776
2.364	16.694	-42568	2585	0.02928	0.15967	0.99757
2.366	16.607	-42564	2584.8	0.029768	0.15948	0.99737
2.368	16.641	-42559	2584.5	0.030256	0.15928	0.99718
2.37	16.724	-42554	2584.3	0.030744	0.15909	0.99698
2.372	16.828	-42542	2584.1	0.031134	0.15938	0.9962
2.374	16.867	-42529	2583.9	0.031525	0.15967	0.99542
2.376	16.832	-42524	2583.6	0.031915	0.15997	0.99464
2.378	16.803	-42519	2583.3	0.032306	0.16026	0.99386
2.38	16.727	-42513	2583	0.032696	0.16055	0.99308
2.382	16.652	-42508	2582.8	0.032403	0.16075	0.99328
2.384	16.641	-42501	2582.6	0.03211	0.16094	0.99347
2.386	16.719	-42495	2582.4	0.031818	0.16114	0.99367
2.388	16.817	-42492	2582.2	0.031525	0.16133	0.99386
2.39	16.842	-42490	2582	0.031232	0.16153	0.99406
2.392	16.795	-42483	2581.8	0.031915	0.16094	0.99396
2.394	16.769	-42476	2581.6	0.032598	0.16036	0.99386
2.396	16.721	-42465	2581.4	0.033282	0.15977	0.99376
2.398	16.641	-42455	2581.3	0.033965	0.15919	0.99367
2.4	16.628	-42453	2581.1	0.034648	0.1586	0.99357
2.402	16.597	-42452	2580.9	0.034453	0.15831	0.99396
2.404	16.729	-42449	2580.7	0.034258	0.15801	0.99435
2.406	16.889	-42445	2580.5	0.034062	0.15772	0.99474
2.408	16.888	-42436	2580.3	0.033867	0.15743	0.99513
2.41	16.837	-42426	2580.1	0.033672	0.15714	0.99552
2.412	16.714	-42431	2579.8	0.03377	0.15753	0.99601
2.414	16.59	-42436	2579.6	0.033867	0.15792	0.9965
2.416	16.566	-42413	2579.3	0.033965	0.15831	0.99698
2.418	16.599	-42390	2579.1	0.034062	0.1587	0.99747
2.42	16.66	-42387	2578.9	0.03416	0.15909	0.99796
2.422	16.758	-42385	2578.6	0.033965	0.1588	0.99825
2.424	16.776	-42383	2578.3	0.03377	0.1585	0.99855
2.426	16.759	-42381	2578	0.033574	0.15821	0.99884
2.428	16.739	-42376	2577.7	0.033379	0.15792	0.99913
2.43	16.682	-42371	2577.3	0.033184	0.15762	0.99942
2.432	16.569	-42365	2577	0.034453	0.15831	0.99991
2.434	16.506	-42359	2576.7	0.035722	0.15899	1.0004
2.436	16.558	-42357	2576.3	0.03699	0.15967	1.0009
2.438	16.682	-42355	2575.9	0.038259	0.16036	1.0014
2.44	16.789	-42348	2575.6	0.039528	0.16104	1.0019
2.442	16.803	-42341	2575.2	0.039333	0.16084	1.0019
2.444	16.765	-42336	2574.7	0.039138	0.16065	1.0019
2.446	16.674	-42331	2574.3	0.038942	0.16045	1.0019
2.448	16.563	-42331	2573.8	0.038747	0.16026	1.0019
2.45	16.521	-42330	2573.3	0.038552	0.16006	1.0019
2.452	16.524	-42321	2572.9	0.03943	0.16163	1.0014
2.454	16.593	-42313	2572.4	0.040309	0.16319	1.0009
2.456	16.717	-42312	2571.9	0.041187	0.16475	1.0004
2.458	16.768	-42311	2571.5	0.042066	0.16631	0.99991
2.46	16.772	-42310	2571.1	0.042944	0.16787	0.99942
2.462	16.706	-42309	2570.6	0.042261	0.16719	0.99991
2.464	16.558	-42303	2570.2	0.041578	0.16651	1.0004
2.466	16.524	-42297	2569.8	0.040894	0.16582	1.0009
2.468	16.539	-42295	2569.3	0.040211	0.16514	1.0014
2.47	16.58	-42294	2568.9	0.039528	0.16446	1.0019
2.472	16.729	-42296	2568.4	0.039918	0.16416	1.0016
2.474	16.822	-42299	2567.9	0.040309	0.16387	1.0013
2.476	16.773	-42295	2567.4	0.040699	0.16358	1.001
2.478	16.733	-42291	2566.8	0.04109	0.16328	1.0007
2.48	16.614	-42290	2566.2	0.04148	0.16299	1.0004
2.482	16.526	-42289	2565.6	0.040211	0.1626	1.0006
2.484	16.544	-42288	2564.9	0.038942	0.16221	1.0008
2.486	16.584	-42288	2564.2	0.037674	0.16182	1.001
2.488	16.648	-42282	2563.5	0.036405	0.16143	1.0012
2.49	16.712	-42277	2562.8	0.035136	0.16104	1.0014
2.492	16.766	-42279	2562.2	0.035819	0.16045	1.0016
2.494	16.784	-42282	2561.5	0.036502	0.15987	1.0018
2.496	16.677	-42279	2560.9	0.037186	0.15928	1.002
2.498	16.551	-42276	2560.2	0.037869	0.1587	1.0022
2.5	16.549	-42276	2559.5	0.038552	0.15811	1.0024
2.502	16.587	-42276	2558.9	0.038454	0.15782	1.0019
2.504	16.684	-42274	2558.2	0.038357	0.15753	1.0014
2.506	16.76	-42271	2557.5	0.038259	0.15723	1.0009
2.508	16.754	-42276	2556.9	0.038162	0.15694	1.0004
2.51	16.745	-42280	2556.2	0.038064	0.15665	0.99991
2.512	16.688	-42273	2555.6	0.036698	0.15636	0.99952
2.514	16.571	-42265	2555	0.035331	0.15606	0.99913
2.516	16.495	-42266	2554.4	0.033965	0.15577	0.99874
2.518	16.52	-42266	2553.8	0.032598	0.15548	0.99835
2.52	16.626	-42268	2553.2	0.031232	0.15518	0.99796
2.522	16.75	-42271	2552.6	0.031134	0.15499	0.99767
2.524	16.808	-42277	2552	0.031037	0.15479	0.99737
2.526	16.796	-42282	2551.4	0.030939	0.1546	0.99708
2.528	16.736	-42279	2550.8	0.030842	0.1544	0.99679
2.53	16.613	-42275	2550.3	0.030744	0.15421	0.9965
2.532	16.53	-42275	2549.8	0.031232	0.1546	0.99747
2.534	16.537	-42275	2549.3	0.03172	0.15499	0.99845
2.536	16.578	-42275	2548.8	0.032208	0.15538	0.99942
2.538	16.668	-42275	2548.4	0.032696	0.15577	1.0004
2.54	16.768	-42277	2548	0.033184	0.15616	1.0014
2.542	16.789	-42279	2547.7	0.034258	0.15694	1.0013
2.544	16.776	-42283	2547.4	0.035331	0.15772	1.0012
2.546	16.68	-42287	2547.1	0.036405	0.1585	1.0011
2.548	16.551	-42287	2546.8	0.037478	0.15928	1.001
2.55	16.503	-42287	2546.5	0.038552	0.16006	1.0009
2.552	16.522	-42285	2546.2	0.038552	0.15958	1.0008
2.554	16.597	-42284	2545.9	0.038552	0.15909	1.0007
2.556	16.725	-42293	2545.7	0.038552	0.1586	1.0006
2.558	16.743	-42301	2545.4	0.038552	0.15811	1.0005
2.56	16.762	-42295	2545.2	0.038552	0.15762	1.0004
2.562	16.669	-42288	2545	0.038259	0.15743	1.0006
2.564	16.547	-42290	2544.7	0.037966	0.15723	1.0008
2.566	16.546	-42292	2544.5	0.037674	0.15704	1.001
2.568	16.537	-42297	2544.2	0.037381	0.15684	1.0012
2.57	16.615	-42302	2544	0.037088	0.15665	1.0014
2.572	16.776	-42306	2543.8	0.038064	0.15704	1.0013
2.574	16.779	-42309	2543.7	0.03904	0.15743	1.0012
2.576	16.712	-42310	2543.5	0.040016	0.15782	1.0011
2.578	16.683	-42310	2543.4	0.040992	0.15821	1.001
2.58	16.61	-42305	2543.3	0.041968	0.1586	1.0009
2.582	16.52	-42301	2543.2	0.041187	0.1588	1.0006
2.584	16.52	-42308	2543	0.040406	0.15899	1.0003
2.586	16.528	-42315	2542.9	0.039626	0.15919	1
2.588	16.635	-42317	2542.8	0.038845	0.15938	0.99972
2.59	16.754	-42318	2542.7	0.038064	0.15958	0.99942
2.592	16.772	-42320	2542.7	0.036795	0.15889	0.99894
2.594	16.73	-42321	2542.7	0.035526	0.15821	0.99845
2.596	16.589	-42323	2542.7	0.034258	0.15753	0.99796
2.598	16.464	-42324	2542.7	0.032989	0.15684	0.99747
2.6	16.481	-42324	2542.6	0.03172	0.15616	0.99698
2.602	16.551	-42324	2542.5	0.032696	0.15616	0.99747
2.604	16.656	-42322	2542.5	0.033672	0.15616	0.99796
2.606	16.762	-42320	2542.4	0.034648	0.15616	0.99845
2.608	16.773	-42329	2542.3	0.035624	0.15616	0.99894
2.61	16.728	-42337	2542.2	0.0366	0.15616	0.99942
2.612	16.665	-42339	2542.2	0.036307	0.15704	0.99923
2.614	16.582	-42340	2542.1	0.036014	0.15792	0.99903
2.616	16.535	-42338	2542	0.035722	0.1588	0.99884
2.618	16.532	-42337	2541.9	0.035429	0.15967	0.99864
2.62	16.561	-42342	2541.9	0.035136	0.16055	0.99845
2.622	16.653	-42346	2541.8	0.035429	0.16055	0.99825
2.624	16.701	-42351	2541.8	0.035722	0.16055	0.99806
2.626	16.729	-42355	2541.7	0.036014	0.16055	0.99786
2.628	16.748	-42354	2541.6	0.036307	0.16055	0.99767
2.63	16.615	-42353	2541.6	0.0366	0.16055	0.99747
2.632	16.504	-42350	2541.4	0.03621	0.15997	0.99835
2.634	16.51	-42347	2541.3	0.035819	0.15938	0.99923
2.636	16.544	-42355	2541.2	0.035429	0.1588	1.0001
2.638	16.631	-42363	2541.1	0.035038	0.15821	1.001
2.64	16.737	-42365	2541	0.034648	0.15762	1.0019
2.642	16.709	-42367	2540.8	0.035526	0.15821	1.0019
2.644	16.716	-42369	2540.6	0.036405	0.1588	1.0019
2.646	16.617	-42372	2540.4	0.037283	0.15938	1.0019
2.648	16.476	-42369	2540.2	0.038162	0.15997	1.0019
2.65	16.443	-42367	2539.9	0.03904	0.16055	1.0019
2.652	16.524	-42368	2539.7	0.038747	0.15987	1.0021
2.654	16.63	-42368	2539.5	0.038454	0.15919	1.0023
2.656	16.72	-42378	2539.2	0.038162	0.1585	1.0024
2.658	16.742	-42387	2539	0.037869	0.15782	1.0026
2.66	16.764	-42388	2538.7	0.037576	0.15714	1.0028
2.662	16.691	-42388	2538.5	0.036795	0.15792	1.0021
2.664	16.542	-42389	2538.2	0.036014	0.1587	1.0013
2.666	16.462	-42390	2537.9	0.035234	0.15948	1.0005
2.668	16.461	-42400	2537.7	0.034453	0.16026	0.99972
2.67	16.525	-42410	2537.4	0.033672	0.16104	0.99894
2.672	16.632	-42401	2537.2	0.033965	0.16133	0.99913
2.674	16.685	-42392	2536.9	0.034258	0.16163	0.99933
2.676	16.722	-42394	2536.6	0.03455	0.16192	0.99952
2.678	16.739	-42396	2536.3	0.034843	0.16221	0.99972
2.68	16.593	-42401	2536.1	0.035136	0.1625	0.99991
2.682	16.491	-42406	2535.8	0.034746	0.16182	1
2.684	16.518	-42408	2535.5	0.034355	0.16114	1.0001
2.686	16.574	-42410	2535.2	0.033965	0.16045	1.0002
2.688	16.669	-42412	2535	0.033574	0.15977	1.0003
2.69	16.746	-42415	2534.7	0.033184	0.15909	1.0004
2.692	16.753	-42415	2534.3	0.032794	0.15948	1
2.694	16.726	-42416	2534	0.032403	0.15987	0.99962
2.696	16.624	-42421	2533.7	0.032013	0.16026	0.99923
2.698	16.499	-42426	2533.4	0.031622	0.16065	0.99884
2.7	16.479	-42430	2533.2	0.031232	0.16104	0.99845
2.702	16.509	-42434	2532.9	0.030549	0.16182	0.99757
2.704	16.575	-42433	2532.6	0.029866	0.1626	0.99669
2.706	16.694	-42433	2532.3	0.029182	0.16338	0.99581
2.708	16.719	-42434	2532	0.028499	0.16416	0.99493
2.71	16.673	-42436	2531.7	0.027816	0.16494	0.99406
2.712	16.626	-42437	2531.4	0.028597	0.16514	0.99386
2.714	16.539	-42437	2531.2	0.029378	0.16533	0.99367
2.716	16.495	-42440	2530.9	0.030158	0.16553	0.99347
2.718	16.498	-42442	2530.7	0.030939	0.16572	0.99328
2.72	16.576	-42444	2530.4	0.03172	0.16592	0.99308
2.722	16.699	-42446	2530.1	0.03133	0.16592	0.99328
2.724	16.736	-42451	2529.9	0.030939	0.16592	0.99347
2.726	16.712	-42457	2529.6	0.030549	0.16592	0.99367
2.728	16.684	-42458	2529.3	0.030158	0.16592	0.99386
2.73	16.547	-42459	2529	0.029768	0.16592	0.99406
2.732	16.463	-42458	2528.7	0.030451	0.16533	0.99337
2.734	16.429	-42458	2528.4	0.031134	0.16475	0.99269
2.736	16.469	-42468	2528.1	0.031818	0.16416	0.99201
2.738	16.608	-42479	2527.9	0.032501	0.16358	0.99132
2.74	16.711	-42476	2527.6	0.033184	0.16299	0.99064
2.742	16.742	-42473	2527.3	0.032794	0.16211	0.9923
2.744	16.73	-42478	2527	0.032403	0.16124	0.99396
2.746	16.642	-42482	2526.7	0.032013	0.16036	0.99562
2.748	16.562	-42486	2526.4	0.031622	0.15948	0.99728
2.75	16.508	-42490	2526.1	0.031232	0.1586	0.99894
2.752	16.528	-42489	2525.8	0.031427	0.15899	0.99796
2.754	16.634	-42489	2525.4	0.031622	0.15938	0.99698
2.756	16.75	-42491	2525.1	0.031818	0.15977	0.99601
2.758	16.764	-42494	2524.8	0.032013	0.16016	0.99503
2.76	16.757	-42497	2524.5	0.032208	0.16055	0.99406
2.762	16.689	-42501	2524.1	0.032208	0.16055	0.99542
2.764	16.542	-42501	2523.8	0.032208	0.16055	0.99679
2.766	16.484	-42500	2523.5	0.032208	0.16055	0.99816
2.768	16.52	-42508	2523.2	0.032208	0.16055	0.99952
2.77	16.604	-42516	2523	0.032208	0.16055	1.0009
2.772	16.713	-42515	2522.7	0.032403	0.16114	0.99913
2.774	16.77	-42513	2522.4	0.032598	0.16172	0.99737
2.776	16.766	-42512	2522.2	0.032794	0.16231	0.99562
2.778	16.71	-42510	2521.8	0.032989	0.16289	0.99386
2.78	16.588	-42516	2521.5	0.033184	0.16348	0.9921
2.782	16.506	-42522	2521.3	0.032403	0.1627	0.99337
2.784	16.513	-42525	2521	0.031622	0.16192	0.99464
2.786	16.541	-42528	2520.7	0.030842	0.16114	0.99591
2.788	16.644	-42531	2520.4	0.030061	0.16036	0.99718
2.79	16.772	-42534	2520.1	0.02928	0.15958	0.99845
2.792	16.775	-42535	2519.7	0.02889	0.16104	0.99757
2.794	16.7	-42535	2519.4	0.028499	0.1625	0.99669
2.796	16.628	-42541	2519.1	0.028109	0.16397	0.99581
2.798	16.551	-42546	2518.8	0.027718	0.16543	0.99493
2.8	16.529	-42552	2518.5	0.027328	0.1669	0.99406
2.802	16.541	-42557	2518.2	0.028206	0.16641	0.99386
2.804	16.64	-42559	2517.8	0.029085	0.16592	0.99367
2.806	16.82	-42561	2517.5	0.029963	0.16543	0.99347
2.808	16.808	-42566	2517.2	0.030842	0.16494	0.99328
2.81	16.744	-42572	2516.8	0.03172	0.16446	0.99308
2.812	16.659	-42573	2516.5	0.032598	0.16368	0.99445
2.814	16.546	-42574	2516.2	0.033477	0.16289	0.99581
2.816	16.528	-42573	2515.9	0.034355	0.16211	0.99718
2.818	16.494	-42573	2515.6	0.035234	0.16133	0.99855
2.82	16.507	-42575	2515.3	0.036112	0.16055	0.99991
2.822	16.667	-42577	2514.9	0.03699	0.16036	1.0002
2.824	16.826	-42578	2514.6	0.037869	0.16016	1.0005
2.826	16.826	-42579	2514.3	0.038747	0.15997	1.0008
2.828	16.738	-42583	2514	0.039626	0.15977	1.0011
2.83	16.599	-42587	2513.6	0.040504	0.15958	1.0014
2.832	16.522	-42589	2513.3	0.039918	0.15977	1.0016
2.834	16.505	-42592	2513	0.039333	0.15997	1.0018
2.836	16.516	-42593	2512.7	0.038747	0.16016	1.002
2.838	16.652	-42595	2512.4	0.038162	0.16036	1.0022
2.84	16.723	-42597	2512	0.037576	0.16055	1.0024
2.842	16.726	-42599	2511.7	0.037674	0.16133	1.0016
2.844	16.693	-42605	2511.3	0.037771	0.16211	1.0008
2.846	16.592	-42611	2511	0.037869	0.16289	1
2.848	16.465	-42614	2510.6	0.037966	0.16368	0.99923
2.85	16.449	-42618	2510.3	0.038064	0.16446	0.99845
2.852	16.51	-42622	2510	0.03865	0.16368	1
2.854	16.582	-42627	2509.6	0.039235	0.16289	1.0016
2.856	16.664	-42628	2509.3	0.039821	0.16211	1.0031
2.858	16.692	-42629	2508.9	0.040406	0.16133	1.0047
2.86	16.663	-42629	2508.6	0.040992	0.16055	1.0063
2.862	16.601	-42629	2508.3	0.04109	0.16143	1.0054
2.864	16.512	-42630	2508	0.041187	0.16231	1.0045
2.866	16.441	-42632	2507.7	0.041285	0.16319	1.0036
2.868	16.424	-42636	2507.4	0.041382	0.16407	1.0027
2.87	16.475	-42639	2507.1	0.04148	0.16494	1.0019
2.872	16.568	-42646	2506.8	0.040699	0.16455	1.0016
2.874	16.643	-42653	2506.5	0.039918	0.16416	1.0013
2.876	16.693	-42654	2506.2	0.039138	0.16377	1.001
2.878	16.696	-42655	2506	0.038357	0.16338	1.0007
2.88	16.596	-42656	2505.7	0.037576	0.16299	1.0004
2.882	16.475	-42657	2505.4	0.037576	0.16241	1.0006
2.884	16.407	-42658	2505.1	0.037576	0.16182	1.0008
2.886	16.408	-42660	2504.9	0.037576	0.16124	1.001
2.888	16.523	-42662	2504.6	0.037576	0.16065	1.0012
2.89	16.631	-42664	2504.3	0.037576	0.16006	1.0014
2.892	16.642	-42671	2504	0.037674	0.16006	1.0012
2.894	16.68	-42679	2503.7	0.037771	0.16006	1.001
2.896	16.636	-42682	2503.4	0.037869	0.16006	1.0008
2.898	16.511	-42685	2503	0.037966	0.16006	1.0006
2.9	16.539	-42690	2502.6	0.038064	0.16006	1.0004
2.902	16.633	-42696	2502.3	0.037771	0.15948	1.0003
2.904	16.756	-42697	2502	0.037478	0.15889	1.0002
2.906	16.951	-42699	2501.7	0.037186	0.15831	1.0001
2.908	17.055	-42699	2501.4	0.036893	0.15772	1
2.91	17.107	-42700	2501.1	0.0366	0.15714	0.99991
2.912	17.132	-42704	2500.8	0.037576	0.15821	1.0002
2.914	17.063	-42708	2500.5	0.038552	0.15928	1.0005
2.916	17.066	-42710	2500.2	0.039528	0.16036	1.0008
2.918	17.136	-42713	2499.9	0.040504	0.16143	1.0011
2.92	17.175	-42715	2499.7	0.04148	0.1625	1.0014
2.922	17.287	-42718	2499.4	0.040406	0.16211	0.99981
2.924	17.346	-42719	2499.2	0.039333	0.16172	0.99825
2.926	17.261	-42719	2499	0.038259	0.16133	0.99669
2.928	17.124	-42722	2498.7	0.037186	0.16094	0.99513
2.93	16.92	-42725	2498.4	0.036112	0.16055	0.99357
2.932	16.725	-42730	2498.2	0.035624	0.15958	0.99445
2.934	16.611	-42735	2498	0.035136	0.1586	0.99532
2.936	16.553	-42739	2497.8	0.034648	0.15762	0.9962
2.938	16.598	-42742	2497.5	0.03416	0.15665	0.99708
2.94	16.655	-42747	2497.3	0.033672	0.15567	0.99796
2.942	16.636	-42751	2497.1	0.033965	0.15577	0.99718
2.944	16.59	-42753	2496.8	0.034258	0.15587	0.9964
2.946	16.504	-42755	2496.6	0.03455	0.15596	0.99562
2.948	16.409	-42756	2496.3	0.034843	0.15606	0.99484
2.95	16.424	-42756	2496.1	0.035136	0.15616	0.99406
2.952	16.494	-42761	2495.8	0.034843	0.15665	0.99454
2.954	16.557	-42766	2495.5	0.03455	0.15714	0.99503
2.956	16.655	-42768	2495.2	0.034258	0.15762	0.99552
2.958	16.686	-42770	2494.9	0.033965	0.15811	0.99601
2.96	16.623	-42772	2494.6	0.033672	0.1586	0.9965
2.962	16.536	-42774	2494.4	0.034648	0.16026	0.99718
2.964	16.454	-42778	2494.2	0.035624	0.16192	0.99786
2.966	16.428	-42781	2493.9	0.0366	0.16358	0.99855
2.968	16.449	-42782	2493.7	0.037576	0.16524	0.99923
2.97	16.506	-42784	2493.5	0.038552	0.1669	0.99991
2.972	16.605	-42785	2493.4	0.038259	0.16641	0.99845
2.974	16.605	-42786	2493.2	0.037966	0.16592	0.99698
2.976	16.626	-42793	2493	0.037674	0.16543	0.99552
2.978	16.703	-42799	2492.9	0.037381	0.16494	0.99406
2.98	16.536	-42801	2492.7	0.037088	0.16446	0.99259
2.982	16.393	-42802	2492.6	0.03621	0.16299	0.99396
2.984	16.408	-42802	2492.4	0.035331	0.16153	0.99532
2.986	16.448	-42802	2492.1	0.034453	0.16006	0.99669
2.988	16.56	-42809	2491.9	0.033574	0.1586	0.99806
2.99	16.668	-42816	2491.6	0.032696	0.15714	0.99942
2.992	16.655	-42816	2491.2	0.032501	0.15675	0.99913
2.994	16.625	-42816	2490.9	0.032306	0.15636	0.99884
2.996	16.537	-42814	2490.5	0.03211	0.15596	0.99855
2.998	16.445	-42812	2490.1	0.031915	0.15557	0.99825
3	16.407	-42815	2489.7	0.03172	0.15518	0.99796
3.002	16.411	-42819	2489.3	0.032501	0.15655	0.99816
3.004	16.506	-42824	2488.9	0.033282	0.15792	0.99835
3.006	16.658	-42829	2488.6	0.034062	0.15928	0.99855
3.008	16.678	-42836	2488.2	0.034843	0.16065	0.99874
3.01	16.63	-42842	2487.9	0.035624	0.16202	0.99894
3.012	16.574	-42839	2487.7	0.036307	0.16289	0.99796
3.014	16.516	-42836	2487.5	0.03699	0.16377	0.99698
3.016	16.453	-42838	2487.4	0.037674	0.16465	0.99601
3.018	16.411	-42841	2487.5	0.038357	0.16553	0.99503
3.02	16.445	-42847	2487.6	0.03904	0.16641	0.99406
3.022	16.57	-42853	2488.4	0.040406	0.1669	0.99298
3.024	16.649	-42858	2489.2	0.041773	0.16738	0.99191
3.026	16.667	-42864	2490.6	0.043139	0.16787	0.99084
3.028	16.653	-42865	2492.6	0.044506	0.16836	0.98976
3.03	16.57	-42867	2494.6	0.045872	0.16885	0.98869
3.032	16.495	-42870	2497.3	0.044701	0.16875	0.98888
3.034	16.482	-42873	2500.1	0.04353	0.16865	0.98908
3.036	16.484	-42878	2503	0.042358	0.16856	0.98927
3.038	16.548	-42884	2506.2	0.041187	0.16846	0.98947
3.04	16.661	-42889	2509.3	0.040016	0.16836	0.98966
3.042	16.694	-42894	2512.8	0.038162	0.16709	0.99123
3.044	16.656	-42894	2516.2	0.036307	0.16582	0.99279
3.046	16.584	-42894	2519.7	0.034453	0.16455	0.99435
3.048	16.506	-42896	2523.3	0.032598	0.16328	0.99591
3.05	16.47	-42898	2526.9	0.030744	0.16202	0.99747
3.052	16.499	-42898	2530.3	0.031232	0.16114	0.99903
3.054	16.577	-42898	2533.8	0.03172	0.16026	1.0006
3.056	16.694	-42895	2537.1	0.032208	0.15938	1.0022
3.058	16.73	-42891	2540.2	0.032696	0.1585	1.0037
3.06	16.723	-42889	2543.3	0.033184	0.15762	1.0053
3.062	16.677	-42886	2545.7	0.032403	0.15831	1.0061
3.064	16.565	-42885	2548.1	0.031622	0.15899	1.0068
3.066	16.459	-42883	2550.2	0.030842	0.15967	1.0076
3.068	16.474	-42886	2552.1	0.030061	0.16036	1.0084
3.07	16.577	-42889	2554	0.02928	0.16104	1.0092
3.072	16.759	-42890	2555.4	0.030744	0.16124	1.009
3.074	16.753	-42891	2556.8	0.032208	0.16143	1.0088
3.076	16.682	-42883	2558.1	0.033672	0.16163	1.0086
3.078	16.642	-42875	2559.2	0.035136	0.16182	1.0084
3.08	16.556	-42875	2560.3	0.0366	0.16202	1.0082
3.082	16.487	-42875	2561.3	0.037186	0.1628	1.0067
3.084	16.494	-42877	2562.2	0.037771	0.16358	1.0053
3.086	16.539	-42878	2563.1	0.038357	0.16436	1.0038
3.088	16.661	-42869	2563.9	0.038942	0.16514	1.0024
3.09	16.729	-42859	2564.8	0.039528	0.16592	1.0009
3.092	16.761	-42858	2565.5	0.038845	0.16504	1.0005
3.094	16.747	-42857	2566.3	0.038162	0.16416	1.0001
3.096	16.644	-42852	2567	0.037478	0.16328	0.99972
3.098	16.527	-42846	2567.7	0.036795	0.16241	0.99933
3.1	16.515	-42841	2568.4	0.036112	0.16153	0.99894
3.102	16.532	-42836	2569	0.035526	0.16104	0.99874
3.104	16.596	-42830	2569.6	0.034941	0.16055	0.99855
3.106	16.708	-42825	2570.2	0.034355	0.16006	0.99835
3.108	16.777	-42821	2570.6	0.03377	0.15958	0.99816
3.11	16.795	-42818	2571.1	0.033184	0.15909	0.99796
3.112	16.721	-42814	2571.5	0.032794	0.15919	0.99825
3.114	16.606	-42810	2572	0.032403	0.15928	0.99855
3.116	16.557	-42805	2572.3	0.032013	0.15938	0.99884
3.118	16.588	-42800	2572.7	0.031622	0.15948	0.99913
3.12	16.709	-42790	2573	0.031232	0.15958	0.99942
3.122	16.831	-42781	2573.2	0.03133	0.15977	0.99923
3.124	16.84	-42776	2573.4	0.031427	0.15997	0.99903
3.126	16.804	-42771	2573.6	0.031525	0.16016	0.99884
3.128	16.77	-42763	2573.8	0.031622	0.16036	0.99864
3.13	16.701	-42755	2574	0.03172	0.16055	0.99845
3.132	16.631	-42748	2574.1	0.032306	0.16124	0.99718
3.134	16.609	-42741	2574.2	0.032891	0.16192	0.99591
3.136	16.628	-42733	2574.2	0.033477	0.1626	0.99464
3.138	16.745	-42726	2574.3	0.034062	0.16328	0.99337
3.14	16.866	-42720	2574.3	0.034648	0.16397	0.9921
3.142	16.924	-42715	2574.3	0.035917	0.16582	0.9922
3.144	16.859	-42701	2574.2	0.037186	0.16768	0.9923
3.146	16.747	-42687	2574.2	0.038454	0.16953	0.9924
3.148	16.609	-42684	2574.1	0.039723	0.17139	0.99249
3.15	16.626	-42680	2574	0.040992	0.17324	0.99259
3.152	16.694	-42683	2573.9	0.041187	0.17207	0.99249
3.154	16.773	-42685	2573.8	0.041382	0.1709	0.9924
3.156	16.907	-42672	2573.6	0.041578	0.16973	0.9923
3.158	16.928	-42659	2573.5	0.041773	0.16856	0.9922
3.16	16.863	-42644	2573.4	0.041968	0.16738	0.9921
3.162	16.748	-42629	2573.1	0.042163	0.16709	0.99132
3.164	16.656	-42625	2572.9	0.042358	0.1668	0.99054
3.166	16.632	-42620	2572.7	0.042554	0.16651	0.98976
3.168	16.651	-42612	2572.5	0.042749	0.16621	0.98898
3.17	16.724	-42604	2572.3	0.042944	0.16592	0.9882
3.172	16.84	-42603	2572.1	0.043042	0.16709	0.98849
3.174	16.872	-42602	2571.8	0.043139	0.16826	0.98879
3.176	16.821	-42592	2571.6	0.043237	0.16943	0.98908
3.178	16.755	-42581	2571.3	0.043334	0.1706	0.98937
3.18	16.642	-42578	2571	0.043432	0.17178	0.98966
3.182	16.626	-42575	2570.8	0.04353	0.17119	0.98927
3.184	16.638	-42563	2570.6	0.043627	0.1706	0.98888
3.186	16.617	-42550	2570.3	0.043725	0.17002	0.98849
3.188	16.713	-42550	2570.1	0.043822	0.16943	0.9881
3.19	16.831	-42550	2569.8	0.04392	0.16885	0.98771
3.192	16.868	-42542	2569.5	0.04431	0.16865	0.988
3.194	16.834	-42535	2569.3	0.044701	0.16846	0.9883
3.196	16.719	-42520	2568.9	0.045091	0.16826	0.98859
3.198	16.604	-42505	2568.6	0.045482	0.16807	0.98888
3.2	16.579	-42506	2568.2	0.045872	0.16787	0.98918
3.202	16.577	-42507	2567.9	0.045579	0.16826	0.98966
3.204	16.612	-42501	2567.5	0.045286	0.16865	0.99015
3.206	16.697	-42496	2567.2	0.044994	0.16904	0.99064
3.208	16.75	-42484	2566.8	0.044701	0.16943	0.99113
3.21	16.776	-42472	2566.5	0.044408	0.16982	0.99162
3.212	16.752	-42469	2566.1	0.043627	0.16943	0.99152
3.214	16.664	-42466	2565.7	0.042846	0.16904	0.99142
3.216	16.593	-42456	2565.4	0.042066	0.16865	0.99132
3.218	16.545	-42446	2565	0.041285	0.16826	0.99123
3.22	16.557	-42434	2564.6	0.040504	0.16787	0.99113
3.222	16.667	-42421	2564.2	0.039821	0.16719	0.99162
3.224	16.778	-42415	2563.8	0.039138	0.16651	0.9921
3.226	16.805	-42408	2563.4	0.038454	0.16582	0.99259
3.228	16.764	-42414	2563	0.037771	0.16514	0.99308
3.23	16.649	-42420	2562.6	0.037088	0.16446	0.99357
3.232	16.505	-42414	2562.2	0.0366	0.16455	0.99396
3.234	16.504	-42408	2561.8	0.036112	0.16465	0.99435
3.236	16.549	-42407	2561.4	0.035624	0.16475	0.99474
3.238	16.661	-42407	2560.9	0.035136	0.16485	0.99513
3.24	16.755	-42404	2560.5	0.034648	0.16494	0.99552
3.242	16.739	-42401	2560.1	0.034648	0.16533	0.99474
3.244	16.728	-42398	2559.8	0.034648	0.16572	0.99396
3.246	16.66	-42395	2559.4	0.034648	0.16612	0.99318
3.248	16.513	-42393	2559	0.034648	0.16651	0.9924
3.25	16.481	-42391	2558.6	0.034648	0.1669	0.99162
3.252	16.536	-42383	2558.1	0.033965	0.16651	0.9921
3.254	16.656	-42374	2557.7	0.033282	0.16612	0.99259
3.256	16.789	-42372	2557.2	0.032598	0.16572	0.99308
3.258	16.784	-42369	2556.7	0.031915	0.16533	0.99357
3.26	16.722	-42368	2556.2	0.031232	0.16494	0.99406
3.262	16.637	-42367	2555.6	0.031232	0.16504	0.99357
3.264	16.507	-42365	2555	0.031232	0.16514	0.99308
3.266	16.484	-42364	2554.4	0.031232	0.16524	0.99259
3.268	16.502	-42362	2553.7	0.031232	0.16533	0.9921
3.27	16.603	-42359	2553.1	0.031232	0.16543	0.99162
3.272	16.768	-42354	2552.5	0.031427	0.16475	0.99191
3.274	16.835	-42350	2551.8	0.031622	0.16407	0.9922
3.276	16.785	-42351	2551.2	0.031818	0.16338	0.99249
3.278	16.686	-42353	2550.6	0.032013	0.1627	0.99279
3.28	16.541	-42346	2549.9	0.032208	0.16202	0.99308
3.282	16.446	-42338	2549.3	0.032989	0.16319	0.9921
3.284	16.477	-42339	2548.8	0.03377	0.16436	0.99113
3.286	16.576	-42341	2548.1	0.03455	0.16553	0.99015
3.288	16.71	-42346	2547.5	0.035331	0.1667	0.98918
3.29	16.782	-42352	2546.8	0.036112	0.16787	0.9882
3.292	16.757	-42347	2546.3	0.036698	0.16787	0.98859
3.294	16.726	-42343	2545.7	0.037283	0.16787	0.98898
3.296	16.644	-42338	2545.1	0.037869	0.16787	0.98937
3.298	16.538	-42333	2544.6	0.038454	0.16787	0.98976
3.3	16.522	-42329	2544	0.03904	0.16787	0.99015
3.302	16.542	-42326	2543.4	0.039235	0.16816	0.99044
3.304	16.612	-42330	2542.9	0.03943	0.16846	0.99074
3.306	16.722	-42333	2542.3	0.039626	0.16875	0.99103
3.308	16.752	-42332	2541.7	0.039821	0.16904	0.99132
3.31	16.697	-42330	2541.1	0.040016	0.16934	0.99162
3.312	16.644	-42332	2540.6	0.038162	0.16836	0.99249
3.314	16.576	-42333	2540	0.036307	0.16738	0.99337
3.316	16.514	-42333	2539.5	0.034453	0.16641	0.99425
3.318	16.514	-42334	2539	0.032598	0.16543	0.99513
3.32	16.562	-42338	2538.5	0.030744	0.16446	0.99601
3.322	16.669	-42342	2538.1	0.030549	0.16504	0.99552
3.324	16.744	-42339	2537.7	0.030354	0.16563	0.99503
3.326	16.746	-42336	2537.3	0.030158	0.16621	0.99454
3.328	16.69	-42346	2537	0.029963	0.1668	0.99406
3.33	16.579	-42357	2536.6	0.029768	0.16738	0.99357
3.332	16.501	-42360	2536.3	0.029768	0.16563	0.99464
3.334	16.524	-42363	2536	0.029768	0.16387	0.99572
3.336	16.534	-42356	2535.6	0.029768	0.16211	0.99679
3.338	16.664	-42348	2535.4	0.029768	0.16036	0.99786
3.34	16.778	-42349	2535.1	0.029768	0.1586	0.99894
3.342	16.731	-42350	2534.8	0.03172	0.15899	1
3.344	16.71	-42360	2534.5	0.033672	0.15938	1.0011
3.346	16.604	-42370	2534.2	0.035624	0.15977	1.0022
3.348	16.476	-42363	2534	0.037576	0.16016	1.0032
3.35	16.505	-42356	2533.9	0.039528	0.16055	1.0043
3.352	16.568	-42363	2533.7	0.039723	0.16124	1.003
3.354	16.625	-42370	2533.5	0.039918	0.16192	1.0018
3.356	16.712	-42373	2533.4	0.040114	0.1626	1.0005
3.358	16.739	-42375	2533.2	0.040309	0.16328	0.99923
3.36	16.726	-42375	2533	0.040504	0.16397	0.99796
3.362	16.677	-42375	2532.9	0.039235	0.16358	0.99776
3.364	16.556	-42377	2532.8	0.037966	0.16319	0.99757
3.366	16.468	-42379	2532.8	0.036698	0.1628	0.99737
3.368	16.461	-42378	2532.7	0.035429	0.16241	0.99718
3.37	16.528	-42377	2532.6	0.03416	0.16202	0.99698
3.372	16.644	-42377	2532.5	0.035234	0.16202	0.99796
3.374	16.716	-42377	2532.4	0.036307	0.16202	0.99894
3.376	16.75	-42382	2532.4	0.037381	0.16202	0.99991
3.378	16.743	-42387	2532.3	0.038454	0.16202	1.0009
3.38	16.616	-42381	2532.3	0.039528	0.16202	1.0019
3.382	16.478	-42376	2532.2	0.038552	0.16153	1.0014
3.384	16.462	-42375	2532.2	0.037576	0.16104	1.0009
3.386	16.512	-42375	2532.2	0.0366	0.16055	1.0004
3.388	16.614	-42377	2532.1	0.035624	0.16006	0.99991
3.39	16.715	-42378	2532.1	0.034648	0.15958	0.99942
3.392	16.713	-42377	2532.1	0.034941	0.16045	0.99972
3.394	16.688	-42376	2532	0.035234	0.16133	1
3.396	16.626	-42378	2532	0.035526	0.16221	1.0003
3.398	16.52	-42380	2532	0.035819	0.16309	1.0006
3.4	16.479	-42382	2531.9	0.036112	0.16397	1.0009
3.402	16.506	-42384	2531.8	0.036307	0.16328	1.0006
3.404	16.555	-42387	2531.7	0.036502	0.1626	1.0003
3.406	16.716	-42390	2531.6	0.036698	0.16192	1
3.408	16.715	-42389	2531.5	0.036893	0.16124	0.99972
3.41	16.689	-42387	2531.4	0.037088	0.16055	0.99942
3.412	16.654	-42385	2531.3	0.038357	0.16114	0.99942
3.414	16.524	-42382	2531.1	0.039626	0.16172	0.99942
3.416	16.47	-42389	2530.9	0.040894	0.16231	0.99942
3.418	16.492	-42395	2530.7	0.042163	0.16289	0.99942
3.42	16.548	-42397	2530.5	0.043432	0.16348	0.99942
3.422	16.675	-42399	2530.3	0.042163	0.1628	0.99972
3.424	16.711	-42399	2530.1	0.040894	0.16211	1
3.426	16.716	-42399	2529.9	0.039626	0.16143	1.0003
3.428	16.707	-42401	2529.7	0.038357	0.16075	1.0006
3.43	16.58	-42403	2529.4	0.037088	0.16006	1.0009
3.432	16.43	-42406	2529.2	0.036307	0.16016	1.0004
3.434	16.402	-42410	2528.9	0.035526	0.16026	0.99991
3.436	16.428	-42412	2528.7	0.034746	0.16036	0.99942
3.438	16.535	-42413	2528.4	0.033965	0.16045	0.99894
3.44	16.712	-42413	2528.1	0.033184	0.16055	0.99845
3.442	16.748	-42413	2527.8	0.033965	0.16133	0.99728
3.444	16.691	-42412	2527.6	0.034746	0.16211	0.99611
3.446	16.556	-42412	2527.3	0.035526	0.16289	0.99493
3.448	16.412	-42413	2527	0.036307	0.16368	0.99376
3.45	16.441	-42415	2526.7	0.037088	0.16446	0.99259
3.452	16.548	-42421	2526.4	0.03699	0.16426	0.99269
3.454	16.622	-42428	2526.2	0.036893	0.16407	0.99279
3.456	16.707	-42428	2526	0.036795	0.16387	0.99288
3.458	16.742	-42428	2525.7	0.036698	0.16368	0.99298
3.46	16.714	-42427	2525.5	0.0366	0.16348	0.99308
3.462	16.662	-42427	2525.3	0.037869	0.16475	0.99269
3.464	16.568	-42431	2525.1	0.039138	0.16602	0.9923
3.466	16.489	-42434	2524.9	0.040406	0.16729	0.99191
3.468	16.467	-42434	2524.7	0.041675	0.16856	0.99152
3.47	16.513	-42435	2524.5	0.042944	0.16982	0.99113
3.472	16.648	-42435	2524.3	0.043725	0.16865	0.99084
3.474	16.737	-42435	2524.1	0.044506	0.16748	0.99054
3.476	16.705	-42442	2523.9	0.045286	0.16631	0.99025
3.478	16.65	-42450	2523.7	0.046067	0.16514	0.98996
3.48	16.573	-42451	2523.6	0.046848	0.16397	0.98966
3.482	16.469	-42452	2523.3	0.046262	0.16514	0.98966
3.484	16.428	-42452	2523.1	0.045677	0.16631	0.98966
3.486	16.454	-42452	2522.9	0.045091	0.16748	0.98966
3.488	16.571	-42457	2522.7	0.044506	0.16865	0.98966
3.49	16.689	-42463	2522.5	0.04392	0.16982	0.98966
3.492	16.699	-42463	2522.3	0.044213	0.16875	0.98927
3.494	16.712	-42462	2522.1	0.044506	0.16768	0.98888
3.496	16.624	-42462	2521.9	0.044798	0.1666	0.98849
3.498	16.497	-42461	2521.7	0.045091	0.16553	0.9881
3.5	16.474	-42460	2521.5	0.045384	0.16446	0.98771
3.502	16.493	-42458	2521.2	0.044603	0.16504	0.98781
3.504	16.533	-42461	2521	0.043822	0.16563	0.98791
3.506	16.681	-42465	2520.7	0.043042	0.16621	0.988
3.508	16.706	-42473	2520.5	0.042261	0.1668	0.9881
3.51	16.673	-42480	2520.2	0.04148	0.16738	0.9882
3.512	16.577	-42480	2520	0.040894	0.16719	0.98849
3.514	16.453	-42480	2519.7	0.040309	0.16699	0.98879
3.516	16.451	-42480	2519.5	0.039723	0.1668	0.98908
3.518	16.495	-42480	2519.2	0.039138	0.1666	0.98937
3.52	16.575	-42481	2519	0.038552	0.16641	0.98966
3.522	16.682	-42483	2518.7	0.037576	0.16602	0.99025
3.524	16.708	-42487	2518.5	0.0366	0.16563	0.99084
3.526	16.672	-42490	2518.2	0.035624	0.16524	0.99142
3.528	16.633	-42491	2517.9	0.034648	0.16485	0.99201
3.53	16.524	-42491	2517.6	0.033672	0.16446	0.99259
3.532	16.455	-42494	2517.3	0.033574	0.16358	0.99357
3.534	16.475	-42497	2517	0.033477	0.1627	0.99454
3.536	16.487	-42505	2516.7	0.033379	0.16182	0.99552
3.538	16.564	-42514	2516.4	0.033282	0.16094	0.9965
3.54	16.724	-42512	2516	0.033184	0.16006	0.99747
3.542	16.801	-42511	2515.7	0.032794	0.16055	0.99698
3.544	16.751	-42510	2515.4	0.032403	0.16104	0.9965
3.546	16.601	-42510	2515	0.032013	0.16153	0.99601
3.548	16.438	-42516	2514.7	0.031622	0.16202	0.99552
3.55	16.407	-42522	2514.4	0.031232	0.1625	0.99503
3.552	16.46	-42526	2514.1	0.03172	0.16221	0.99523
3.554	16.542	-42530	2513.8	0.032208	0.16192	0.99542
3.556	16.661	-42530	2513.5	0.032696	0.16163	0.99562
3.558	16.701	-42530	2513.2	0.033184	0.16133	0.99581
3.56	16.657	-42532	2513	0.033672	0.16104	0.99601
3.562	16.618	-42534	2512.8	0.033184	0.16231	0.99572
3.564	16.521	-42529	2512.5	0.032696	0.16358	0.99542
3.566	16.459	-42525	2512.3	0.032208	0.16485	0.99513
3.568	16.454	-42531	2512.1	0.03172	0.16612	0.99484
3.57	16.49	-42537	2511.8	0.031232	0.16738	0.99454
3.572	16.61	-42539	2511.6	0.03133	0.16592	0.99503
3.574	16.689	-42542	2511.4	0.031427	0.16446	0.99552
3.576	16.686	-42549	2511.2	0.031525	0.16299	0.99601
3.578	16.688	-42556	2510.9	0.031622	0.16153	0.9965
3.58	16.579	-42556	2510.7	0.03172	0.16006	0.99698
3.582	16.424	-42556	2510.4	0.033086	0.16006	0.99825
3.584	16.415	-42557	2510.1	0.034453	0.16006	0.99952
3.586	16.455	-42559	2509.8	0.035819	0.16006	1.0008
3.588	16.575	-42558	2509.6	0.037186	0.16006	1.0021
3.59	16.722	-42558	2509.4	0.038552	0.16006	1.0033
3.592	16.726	-42564	2509.1	0.036893	0.16133	1.0022
3.594	16.701	-42570	2508.8	0.035234	0.1626	1.001
3.596	16.585	-42572	2508.5	0.033574	0.16387	0.99981
3.598	16.482	-42574	2508.2	0.031915	0.16514	0.99864
3.6	16.431	-42576	2507.9	0.030256	0.16641	0.99747
3.602	16.449	-42578	2507.6	0.029573	0.16719	0.99708
3.604	16.522	-42581	2507.3	0.02889	0.16797	0.99669
3.606	16.661	-42584	2507	0.028206	0.16875	0.9963
3.608	16.747	-42580	2506.7	0.027523	0.16953	0.99591
3.61	16.727	-42575	2506.5	0.02684	0.17031	0.99552
3.612	16.66	-42580	2506.2	0.02723	0.17012	0.99532
3.614	16.573	-42584	2505.8	0.027621	0.16992	0.99513
3.616	16.564	-42591	2505.5	0.028011	0.16973	0.99493
3.618	16.551	-42597	2505.2	0.028402	0.16953	0.99474
3.62	16.552	-42599	2504.8	0.028792	0.16934	0.99454
3.622	16.663	-42600	2504.5	0.029866	0.16758	0.99542
3.624	16.746	-42603	2504.1	0.030939	0.16582	0.9963
3.626	16.733	-42605	2503.8	0.032013	0.16407	0.99718
3.628	16.708	-42603	2503.4	0.033086	0.16231	0.99806
3.63	16.634	-42602	2503	0.03416	0.16055	0.99894
3.632	16.521	-42611	2502.7	0.033184	0.16124	0.99835
3.634	16.495	-42619	2502.3	0.032208	0.16192	0.99776
3.636	16.551	-42623	2502	0.031232	0.1626	0.99718
3.638	16.635	-42626	2501.6	0.030256	0.16328	0.99659
3.64	16.729	-42626	2501.3	0.02928	0.16397	0.99601
3.642	16.751	-42626	2501	0.029573	0.16348	0.99572
3.644	16.709	-42628	2500.6	0.029866	0.16299	0.99542
3.646	16.643	-42630	2500.3	0.030158	0.1625	0.99513
3.648	16.534	-42628	2500	0.030451	0.16202	0.99484
3.65	16.486	-42627	2499.7	0.030744	0.16153	0.99454
3.652	16.496	-42635	2499.4	0.033282	0.1626	0.99367
3.654	16.554	-42644	2499.1	0.035819	0.16368	0.99279
3.656	16.695	-42648	2498.9	0.038357	0.16475	0.99191
3.658	16.759	-42652	2498.6	0.040894	0.16582	0.99103
3.66	16.768	-42653	2498.4	0.043432	0.1669	0.99015
3.662	16.697	-42653	2498.1	0.04353	0.1666	0.98996
3.664	16.566	-42649	2497.9	0.043627	0.16631	0.98976
3.666	16.503	-42644	2497.7	0.043725	0.16602	0.98957
3.668	16.481	-42645	2497.5	0.043822	0.16572	0.98937
3.67	16.519	-42645	2497.2	0.04392	0.16543	0.98918
3.672	16.637	-42653	2497	0.04353	0.16563	0.98947
3.674	16.676	-42660	2496.7	0.043139	0.16582	0.98976
3.676	16.639	-42665	2496.4	0.042749	0.16602	0.99005
3.678	16.639	-42670	2496.1	0.042358	0.16621	0.99035
3.68	16.522	-42669	2495.7	0.041968	0.16641	0.99064
3.682	16.412	-42667	2495.4	0.041285	0.16641	0.99123
3.684	16.4	-42674	2495.1	0.040602	0.16641	0.99181
3.686	16.465	-42681	2494.8	0.039918	0.16641	0.9924
3.688	16.578	-42684	2494.5	0.039235	0.16641	0.99298
3.69	16.654	-42686	2494.2	0.038552	0.16641	0.99357
3.692	16.674	-42686	2493.9	0.038064	0.16475	0.99493
3.694	16.671	-42686	2493.7	0.037576	0.16309	0.9963
3.696	16.611	-42689	2493.4	0.037088	0.16143	0.99767
3.698	16.518	-42691	2493.1	0.0366	0.15977	0.99903
3.7	16.459	-42698	2492.9	0.036112	0.15811	1.0004
3.702	16.422	-42704	2492.6	0.036502	0.15909	0.99981
3.704	16.465	-42710	2492.4	0.036893	0.16006	0.99923
3.706	16.604	-42715	2492.1	0.037283	0.16104	0.99864
3.708	16.696	-42718	2491.9	0.037674	0.16202	0.99806
3.71	16.677	-42720	2491.6	0.038064	0.16299	0.99747
3.712	16.611	-42720	2491.3	0.036795	0.16289	0.99708
3.714	16.523	-42720	2491	0.035526	0.1628	0.99669
3.716	16.436	-42721	2490.7	0.034258	0.1627	0.9963
3.718	16.412	-42721	2490.5	0.032989	0.1626	0.99591
3.72	16.445	-42725	2490.2	0.03172	0.1625	0.99552
3.722	16.51	-42728	2489.9	0.032208	0.16241	0.9963
3.724	16.611	-42731	2489.7	0.032696	0.16231	0.99708
3.726	16.679	-42734	2489.4	0.033184	0.16221	0.99786
3.728	16.646	-42736	2489.1	0.033672	0.16211	0.99864
3.73	16.532	-42738	2488.8	0.03416	0.16202	0.99942
3.732	16.475	-42745	2488.6	0.034062	0.16153	0.99962
3.734	16.518	-42752	2488.4	0.033965	0.16104	0.99981
3.736	16.631	-42755	2488.1	0.033867	0.16055	1
3.738	16.824	-42758	2487.9	0.03377	0.16006	1.0002
3.74	17.01	-42756	2487.7	0.033672	0.15958	1.0004
3.742	17.077	-42754	2487.4	0.03416	0.15987	1.0001
3.744	17.069	-42762	2487.2	0.034648	0.16016	0.99981
3.746	17.056	-42770	2487	0.035136	0.16045	0.99952
3.748	17.028	-42775	2486.8	0.035624	0.16075	0.99923
3.75	17.051	-42781	2486.6	0.036112	0.16104	0.99894
3.752	17.087	-42778	2486.4	0.035722	0.16104	0.99884
3.754	17.173	-42775	2486.2	0.035331	0.16104	0.99874
3.756	17.322	-42774	2486	0.034941	0.16104	0.99864
3.758	17.305	-42773	2485.8	0.03455	0.16104	0.99855
3.76	17.193	-42784	2485.6	0.03416	0.16104	0.99845
3.762	17.079	-42795	2485.4	0.034062	0.16084	0.99864
3.764	16.883	-42796	2485.2	0.033965	0.16065	0.99884
3.766	16.727	-42797	2485	0.033867	0.16045	0.99903
3.768	16.624	-42792	2484.9	0.03377	0.16026	0.99923
3.77	16.566	-42788	2484.7	0.033672	0.16006	0.99942
3.772	16.579	-42794	2484.6	0.034355	0.16036	0.99962
3.774	16.562	-42800	2484.4	0.035038	0.16065	0.99981
3.776	16.549	-42803	2484.3	0.035722	0.16094	1
3.778	16.512	-42807	2484.1	0.036405	0.16124	1.0002
3.78	16.421	-42806	2484	0.037088	0.16153	1.0004
3.782	16.4	-42806	2483.7	0.037186	0.16202	0.99962
3.784	16.414	-42807	2483.5	0.037283	0.1625	0.99884
3.786	16.417	-42808	2483.2	0.037381	0.16299	0.99806
3.788	16.506	-42806	2483	0.037478	0.16348	0.99728
3.79	16.615	-42804	2482.7	0.037576	0.16397	0.9965
3.792	16.653	-42812	2482.4	0.037283	0.16358	0.99708
3.794	16.634	-42820	2482.1	0.03699	0.16319	0.99767
3.796	16.543	-42823	2481.8	0.036698	0.1628	0.99825
3.798	16.421	-42827	2481.6	0.036405	0.16241	0.99884
3.8	16.366	-42831	2481.3	0.036112	0.16202	0.99942
3.802	16.385	-42834	2481.2	0.035722	0.16289	0.99757
3.804	16.455	-42831	2481	0.035331	0.16377	0.99572
3.806	16.551	-42827	2480.9	0.034941	0.16465	0.99386
3.808	16.622	-42836	2480.9	0.03455	0.16553	0.99201
3.81	16.619	-42844	2480.8	0.03416	0.16641	0.99015
3.812	16.515	-42841	2480.7	0.035917	0.16641	0.98947
3.814	16.403	-42838	2480.7	0.037674	0.16641	0.98879
3.816	16.358	-42845	2480.6	0.03943	0.16641	0.9881
3.818	16.355	-42853	2480.5	0.041187	0.16641	0.98742
3.82	16.418	-42857	2480.3	0.042944	0.16641	0.98674
3.822	16.57	-42861	2480.1	0.042456	0.16543	0.988
3.824	16.655	-42862	2479.8	0.041968	0.16446	0.98927
3.826	16.608	-42863	2479.5	0.04148	0.16348	0.99054
3.828	16.588	-42868	2479.2	0.040992	0.1625	0.99181
3.83	16.446	-42872	2478.9	0.040504	0.16153	0.99308
3.832	16.377	-42881	2478.5	0.038454	0.16124	0.99415
3.834	16.403	-42889	2478.2	0.036405	0.16094	0.99523
3.836	16.399	-42885	2477.9	0.034355	0.16065	0.9963
3.838	16.504	-42882	2477.5	0.032306	0.16036	0.99737
3.84	16.632	-42884	2477.2	0.030256	0.16006	0.99845
3.842	16.605	-42887	2476.9	0.030646	0.16133	0.99757
3.844	16.583	-42893	2476.7	0.031037	0.1626	0.99669
3.846	16.514	-42898	2476.5	0.031427	0.16387	0.99581
3.848	16.407	-42898	2476.4	0.031818	0.16514	0.99493
3.85	16.37	-42898	2476.3	0.032208	0.16641	0.99406
3.852	16.367	-42903	2476.3	0.034258	0.16738	0.99357
3.854	16.43	-42908	2476.4	0.036307	0.16836	0.99308
3.856	16.564	-42909	2477.1	0.038357	0.16934	0.99259
3.858	16.626	-42909	2478.5	0.040406	0.17031	0.9921
3.86	16.647	-42914	2479.8	0.042456	0.17129	0.99162
3.862	16.611	-42918	2481.2	0.042456	0.1707	0.99084
3.864	16.494	-42920	2482.5	0.042456	0.17012	0.99005
3.866	16.402	-42922	2484.6	0.042456	0.16953	0.98927
3.868	16.423	-42924	2487.4	0.042456	0.16895	0.98849
3.87	16.452	-42926	2490.2	0.042456	0.16836	0.98771
3.872	16.534	-42924	2493.4	0.042066	0.16758	0.9881
3.874	16.62	-42922	2496.7	0.041675	0.1668	0.98849
3.876	16.611	-42933	2500.1	0.041285	0.16602	0.98888
3.878	16.576	-42945	2503.7	0.040894	0.16524	0.98927
3.88	16.51	-42946	2507.2	0.040504	0.16446	0.98966
3.882	16.421	-42946	2511	0.038357	0.16397	0.99132
3.884	16.401	-42947	2514.7	0.03621	0.16348	0.99298
3.886	16.445	-42948	2518.5	0.034062	0.16299	0.99464
3.888	16.538	-42951	2522.2	0.031915	0.1625	0.9963
3.89	16.638	-42953	2525.8	0.029768	0.16202	0.99796
3.892	16.657	-42952	2529.2	0.031915	0.16202	0.99933
3.894	16.623	-42952	2532.6	0.034062	0.16202	1.0007
3.896	16.548	-42948	2535.7	0.03621	0.16202	1.0021
3.898	16.423	-42944	2538.4	0.038357	0.16202	1.0034
3.9	16.394	-42940	2541	0.040504	0.16202	1.0048
3.902	16.447	-42936	2543.1	0.040504	0.1627	1.0043
3.904	16.539	-42932	2545.1	0.040504	0.16338	1.0038
3.906	16.664	-42928	2546.9	0.040504	0.16407	1.0033
3.908	16.683	-42930	2548.4	0.040504	0.16475	1.0028
3.91	16.666	-42933	2549.8	0.040504	0.16543	1.0024
3.912	16.629	-42929	2551	0.039626	0.16465	1.0022
3.914	16.468	-42926	2552.2	0.038747	0.16387	1.002
3.916	16.378	-42923	2553.2	0.037869	0.16309	1.0018
3.918	16.416	-42919	2554.1	0.03699	0.16231	1.0016
3.92	16.477	-42917	2555	0.036112	0.16153	1.0014
3.922	16.609	-42915	2555.9	0.035331	0.16221	1.0005
3.924	16.673	-42918	2556.7	0.03455	0.16289	0.99962
3.926	16.655	-42920	2557.5	0.03377	0.16358	0.99874
3.928	16.639	-42916	2558.3	0.032989	0.16426	0.99786
3.93	16.582	-42912	2559	0.032208	0.16494	0.99698
3.932	16.514	-42906	2559.8	0.032696	0.16485	0.9963
3.934	16.495	-42899	2560.6	0.033184	0.16475	0.99562
3.936	16.516	-42895	2561.3	0.033672	0.16465	0.99493
3.938	16.606	-42891	2562	0.03416	0.16455	0.99425
3.94	16.67	-42886	2562.7	0.034648	0.16446	0.99357
3.942	16.676	-42882	2563.3	0.034648	0.16328	0.99493
3.944	16.727	-42872	2563.9	0.034648	0.16211	0.9963
3.946	16.666	-42862	2564.4	0.034648	0.16094	0.99767
3.948	16.532	-42857	2564.9	0.034648	0.15977	0.99903
3.95	16.492	-42852	2565.4	0.034648	0.1586	1.0004
3.952	16.502	-42844	2565.8	0.034062	0.1585	0.99991
3.954	16.567	-42836	2566.1	0.033477	0.1584	0.99942
3.956	16.692	-42831	2566.5	0.032891	0.15831	0.99894
3.958	16.759	-42826	2566.8	0.032306	0.15821	0.99845
3.96	16.752	-42814	2567.1	0.03172	0.15811	0.99796
3.962	16.684	-42803	2567.4	0.032208	0.1584	0.99825
3.964	16.596	-42800	2567.6	0.032696	0.1587	0.99855
3.966	16.546	-42797	2567.7	0.033184	0.15899	0.99884
3.968	16.562	-42788	2567.9	0.033672	0.15928	0.99913
3.97	16.653	-42778	2568	0.03416	0.15958	0.99942
3.972	16.755	-42778	2568.1	0.034453	0.15967	0.99952
3.974	16.808	-42777	2568.1	0.034746	0.15977	0.99962
3.976	16.806	-42762	2568.2	0.035038	0.15987	0.99972
3.978	16.736	-42748	2568.1	0.035331	0.15997	0.99981
3.98	16.61	-42741	2568.1	0.035624	0.16006	0.99991
3.982	16.533	-42735	2568	0.035917	0.16016	0.99972
3.984	16.558	-42728	2567.9	0.03621	0.16026	0.99952
3.986	16.607	-42722	2567.7	0.036502	0.16036	0.99933
3.988	16.711	-42708	2567.5	0.036795	0.16045	0.99913
3.99	16.823	-42695	2567.3	0.037088	0.16055	0.99894
3.992	16.84	-42687	2567.1	0.03621	0.16094	0.99864
3.994	16.809	-42678	2566.9	0.035331	0.16133	0.99835
3.996	16.689	-42674	2566.7	0.034453	0.16172	0.99806
3.998	16.607	-42669	2566.4	0.033574	0.16211	0.99776
4	16.557	-42662	2566.2	0.032696	0.1625	0.99747
4.002	16.562	-42655	2566	0.034648	0.16407	0.99552
4.004	16.638	-42649	2565.7	0.0366	0.16563	0.99357
4.006	16.741	-42642	2565.5	0.038552	0.16719	0.99162
4.008	16.755	-42637	2565.3	0.040504	0.16875	0.98966
4.01	16.789	-42631	2565.1	0.042456	0.17031	0.98771
4.012	16.808	-42623	2564.9	0.04353	0.16924	0.98771
4.014	16.626	-42614	2564.7	0.044603	0.16816	0.98771
4.016	16.517	-42602	2564.5	0.045677	0.16709	0.98771
4.018	16.551	-42590	2564.2	0.04675	0.16602	0.98771
4.02	16.609	-42584	2564	0.047824	0.16494	0.98771
4.022	16.732	-42578	2563.8	0.047336	0.16563	0.98722
4.024	16.776	-42573	2563.5	0.046848	0.16631	0.98674
4.026	16.743	-42567	2563.3	0.04636	0.16699	0.98625
4.028	16.694	-42558	2563.1	0.045872	0.16768	0.98576
4.03	16.586	-42549	2562.9	0.045384	0.16836	0.98527
4.032	16.511	-42544	2562.6	0.044896	0.16856	0.98605
4.034	16.494	-42538	2562.4	0.044408	0.16875	0.98683
4.036	16.482	-42532	2562.1	0.04392	0.16895	0.98761
4.038	16.591	-42527	2561.8	0.043432	0.16914	0.9884
4.04	16.738	-42518	2561.5	0.042944	0.16934	0.98918
4.042	16.771	-42509	2561.2	0.043042	0.16865	0.98879
4.044	16.713	-42507	2560.8	0.043139	0.16797	0.9884
4.046	16.611	-42506	2560.5	0.043237	0.16729	0.988
4.048	16.492	-42502	2560.1	0.043334	0.1666	0.98761
4.05	16.461	-42498	2559.8	0.043432	0.16592	0.98722
4.052	16.483	-42488	2559.4	0.043237	0.1667	0.988
4.054	16.545	-42477	2559.1	0.043042	0.16748	0.98879
4.056	16.661	-42474	2558.7	0.042846	0.16826	0.98957
4.058	16.72	-42471	2558.2	0.042651	0.16904	0.99035
4.06	16.713	-42464	2557.8	0.042456	0.16982	0.99113
4.062	16.653	-42457	2557.3	0.040699	0.16865	0.99201
4.064	16.514	-42453	2556.8	0.038942	0.16748	0.99288
4.066	16.431	-42449	2556.3	0.037186	0.16631	0.99376
4.068	16.443	-42446	2555.8	0.035429	0.16514	0.99464
4.07	16.495	-42442	2555.3	0.033672	0.16397	0.99552
4.072	16.608	-42438	2554.9	0.033184	0.16436	0.99572
4.074	16.702	-42433	2554.5	0.032696	0.16475	0.99591
4.076	16.689	-42428	2554	0.032208	0.16514	0.99611
4.078	16.639	-42423	2553.5	0.03172	0.16553	0.9963
4.08	16.531	-42421	2553	0.031232	0.16592	0.9965
4.082	16.419	-42418	2552.5	0.03133	0.16465	0.99679
4.084	16.41	-42416	2552	0.031427	0.16338	0.99708
4.086	16.471	-42413	2551.4	0.031525	0.16211	0.99737
4.088	16.566	-42408	2550.8	0.031622	0.16084	0.99767
4.09	16.668	-42402	2550.2	0.03172	0.15958	0.99796
4.092	16.667	-42401	2549.5	0.032501	0.16036	0.99747
4.094	16.653	-42400	2548.9	0.033282	0.16114	0.99698
4.096	16.651	-42398	2548.2	0.034062	0.16192	0.9965
4.098	16.508	-42397	2547.6	0.034843	0.1627	0.99601
4.1	16.462	-42386	2546.9	0.035624	0.16348	0.99552
4.102	16.478	-42375	2546.3	0.035429	0.16358	0.99572
4.104	16.535	-42376	2545.7	0.035234	0.16368	0.99591
4.106	16.676	-42376	2545.1	0.035038	0.16377	0.99611
4.108	16.719	-42377	2544.5	0.034843	0.16387	0.9963
4.11	16.691	-42378	2543.9	0.034648	0.16397	0.9965
4.112	16.633	-42379	2543.3	0.03455	0.16289	0.99728
4.114	16.49	-42380	2542.8	0.034453	0.16182	0.99806
4.116	16.417	-42377	2542.2	0.034355	0.16075	0.99884
4.118	16.412	-42373	2541.7	0.034258	0.15967	0.99962
4.12	16.483	-42368	2541.1	0.03416	0.1586	1.0004
4.122	16.619	-42362	2540.6	0.033574	0.15928	0.99942
4.124	16.703	-42362	2540	0.032989	0.15997	0.99845
4.126	16.678	-42362	2539.5	0.032403	0.16065	0.99747
4.128	16.602	-42362	2538.9	0.031818	0.16133	0.9965
4.13	16.515	-42362	2538.4	0.031232	0.16202	0.99552
4.132	16.473	-42360	2537.8	0.032598	0.16133	0.99659
4.134	16.491	-42358	2537.2	0.033965	0.16065	0.99767
4.136	16.543	-42359	2536.6	0.035331	0.15997	0.99874
4.138	16.624	-42359	2536	0.036698	0.15928	0.99981
4.14	16.701	-42359	2535.5	0.038064	0.1586	1.0009
4.142	16.708	-42359	2535	0.037088	0.15889	1.0004
4.144	16.659	-42357	2534.5	0.036112	0.15919	0.99991
4.146	16.587	-42354	2534	0.035136	0.15948	0.99942
4.148	16.494	-42356	2533.5	0.03416	0.15977	0.99894
4.15	16.449	-42359	2533.1	0.033184	0.16006	0.99845
4.152	16.478	-42363	2532.7	0.033574	0.15987	0.99884
4.154	16.546	-42367	2532.3	0.033965	0.15967	0.99923
4.156	16.654	-42364	2531.9	0.034355	0.15948	0.99962
4.158	16.695	-42361	2531.6	0.034746	0.15928	1
4.16	16.652	-42362	2531.3	0.035136	0.15909	1.0004
4.162	16.598	-42363	2531	0.035331	0.1588	1.0011
4.164	16.508	-42362	2530.7	0.035526	0.1585	1.0018
4.166	16.462	-42361	2530.4	0.035722	0.15821	1.0024
4.168	16.492	-42368	2530.1	0.035917	0.15792	1.0031
4.17	16.536	-42375	2529.9	0.036112	0.15762	1.0038
4.172	16.64	-42374	2529.7	0.036307	0.15831	1.0029
4.174	16.706	-42372	2529.5	0.036502	0.15899	1.0021
4.176	16.662	-42369	2529.3	0.036698	0.15967	1.0012
4.178	16.621	-42365	2529.1	0.036893	0.16036	1.0003
4.18	16.566	-42367	2528.9	0.037088	0.16104	0.99942
4.182	16.482	-42369	2528.7	0.037771	0.16133	0.99962
4.184	16.456	-42373	2528.6	0.038454	0.16163	0.99981
4.186	16.468	-42377	2528.4	0.039138	0.16192	1
4.188	16.589	-42375	2528.3	0.039821	0.16221	1.0002
4.19	16.761	-42374	2528.1	0.040504	0.1625	1.0004
4.192	16.748	-42380	2528	0.040016	0.16231	1.0003
4.194	16.638	-42385	2527.9	0.039528	0.16211	1.0002
4.196	16.512	-42382	2527.8	0.03904	0.16192	1.0001
4.198	16.436	-42379	2527.7	0.038552	0.16172	1
4.2	16.433	-42379	2527.6	0.038064	0.16153	0.99991
4.202	16.47	-42379	2527.5	0.037381	0.16153	0.99874
4.204	16.572	-42381	2527.4	0.036698	0.16153	0.99757
4.206	16.688	-42383	2527.3	0.036014	0.16153	0.9964
4.208	16.694	-42386	2527.3	0.035331	0.16153	0.99523
4.21	16.67	-42389	2527.2	0.034648	0.16153	0.99406
4.212	16.618	-42384	2527.1	0.035136	0.16124	0.99513
4.214	16.519	-42379	2527	0.035624	0.16094	0.9962
4.216	16.446	-42384	2526.9	0.036112	0.16065	0.99728
4.218	16.431	-42389	2526.9	0.0366	0.16036	0.99835
4.22	16.478	-42388	2526.8	0.037088	0.16006	0.99942
4.222	16.608	-42387	2526.7	0.036307	0.16065	0.99903
4.224	16.72	-42386	2526.6	0.035526	0.16124	0.99864
4.226	16.735	-42385	2526.5	0.034746	0.16182	0.99825
4.228	16.678	-42387	2526.4	0.033965	0.16241	0.99786
4.23	16.565	-42388	2526.3	0.033184	0.16299	0.99747
4.232	16.471	-42389	2526.2	0.033867	0.16338	0.99747
4.234	16.457	-42389	2526.1	0.03455	0.16377	0.99747
4.236	16.498	-42384	2526	0.035234	0.16416	0.99747
4.238	16.598	-42378	2525.8	0.035917	0.16455	0.99747
4.24	16.69	-42388	2525.7	0.0366	0.16494	0.99747
4.242	16.724	-42398	2525.5	0.036112	0.16397	0.99728
4.244	16.711	-42399	2525.4	0.035624	0.16299	0.99708
4.246	16.606	-42400	2525.2	0.035136	0.16202	0.99689
4.248	16.451	-42404	2525.1	0.034648	0.16104	0.99669
4.25	16.415	-42407	2524.9	0.03416	0.16006	0.9965
4.252	16.444	-42406	2524.8	0.03455	0.16026	0.99728
4.254	16.54	-42404	2524.6	0.034941	0.16045	0.99806
4.256	16.656	-42406	2524.5	0.035331	0.16065	0.99884
4.258	16.735	-42407	2524.3	0.035722	0.16084	0.99962
4.26	16.713	-42406	2524.1	0.036112	0.16104	1.0004
4.262	16.649	-42405	2523.9	0.036014	0.16172	1.0001
4.264	16.505	-42409	2523.8	0.035917	0.16241	0.99981
4.266	16.38	-42413	2523.6	0.035819	0.16309	0.99952
4.268	16.375	-42416	2523.4	0.035722	0.16377	0.99923
4.27	16.448	-42420	2523.3	0.035624	0.16446	0.99894
4.272	16.616	-42416	2523.1	0.03455	0.16455	0.99855
4.274	16.713	-42413	2522.9	0.033477	0.16465	0.99816
4.276	16.728	-42417	2522.7	0.032403	0.16475	0.99776
4.278	16.683	-42420	2522.5	0.03133	0.16485	0.99737
4.28	16.505	-42426	2522.3	0.030256	0.16494	0.99698
4.282	16.378	-42431	2522.1	0.030451	0.16475	0.9964
4.284	16.431	-42427	2521.9	0.030646	0.16455	0.99581
4.286	16.507	-42422	2521.7	0.030842	0.16436	0.99523
4.288	16.624	-42426	2521.4	0.031037	0.16416	0.99464
4.29	16.708	-42430	2521.2	0.031232	0.16397	0.99406
4.292	16.704	-42429	2521	0.032696	0.16387	0.99328
4.294	16.678	-42428	2520.7	0.03416	0.16377	0.99249
4.296	16.593	-42436	2520.5	0.035624	0.16368	0.99171
4.298	16.469	-42444	2520.2	0.037088	0.16358	0.99093
4.3	16.418	-42443	2519.9	0.038552	0.16348	0.99015
4.302	16.448	-42441	2519.6	0.038942	0.16455	0.98996
4.304	16.556	-42442	2519.3	0.039333	0.16563	0.98976
4.306	16.692	-42443	2519	0.039723	0.1667	0.98957
4.308	16.7	-42440	2518.8	0.040114	0.16777	0.98937
4.31	16.623	-42438	2518.5	0.040504	0.16885	0.98918
4.312	16.574	-42437	2518.2	0.040309	0.16934	0.98937
4.314	16.518	-42436	2517.9	0.040114	0.16982	0.98957
4.316	16.459	-42440	2517.6	0.039918	0.17031	0.98976
4.318	16.449	-42444	2517.4	0.039723	0.1708	0.98996
4.32	16.516	-42448	2517.1	0.039528	0.17129	0.99015
4.322	16.63	-42452	2516.9	0.039528	0.17051	0.99015
4.324	16.694	-42452	2516.6	0.039528	0.16973	0.99015
4.326	16.713	-42452	2516.3	0.039528	0.16895	0.99015
4.328	16.674	-42455	2516	0.039528	0.16816	0.99015
4.33	16.529	-42457	2515.8	0.039528	0.16738	0.99015
4.332	16.402	-42463	2515.5	0.039723	0.16797	0.99044
4.334	16.414	-42468	2515.2	0.039918	0.16856	0.99074
4.336	16.477	-42465	2515	0.040114	0.16914	0.99103
4.338	16.579	-42462	2514.7	0.040309	0.16973	0.99132
4.34	16.674	-42462	2514.5	0.040504	0.17031	0.99162
4.342	16.681	-42462	2514.2	0.040016	0.16973	0.99152
4.344	16.663	-42467	2513.9	0.039528	0.16914	0.99142
4.346	16.615	-42472	2513.6	0.03904	0.16856	0.99132
4.348	16.501	-42475	2513.4	0.038552	0.16797	0.99123
4.35	16.424	-42478	2513.1	0.038064	0.16738	0.99113
4.352	16.426	-42478	2512.8	0.038552	0.16787	0.99142
4.354	16.533	-42478	2512.6	0.03904	0.16836	0.99171
4.356	16.688	-42485	2512.3	0.039528	0.16885	0.99201
4.358	16.711	-42491	2512	0.040016	0.16934	0.9923
4.36	16.684	-42487	2511.8	0.040504	0.16982	0.99259
4.362	16.642	-42483	2511.5	0.040406	0.16973	0.9921
4.364	16.506	-42484	2511.3	0.040309	0.16963	0.99162
4.366	16.427	-42485	2511	0.040211	0.16953	0.99113
4.368	16.412	-42493	2510.9	0.040114	0.16943	0.99064
4.37	16.448	-42500	2510.7	0.040016	0.16934	0.99015
4.372	16.571	-42504	2510.4	0.040016	0.16943	0.99015
4.374	16.677	-42508	2510.1	0.040016	0.16953	0.99015
4.376	16.724	-42509	2509.8	0.040016	0.16963	0.99015
4.378	16.655	-42509	2509.5	0.040016	0.16973	0.99015
4.38	16.484	-42507	2509.3	0.040016	0.16982	0.99015
4.382	16.37	-42505	2508.9	0.040309	0.16943	0.99035
4.384	16.393	-42515	2508.6	0.040602	0.16904	0.99054
4.386	16.517	-42525	2508.2	0.040894	0.16865	0.99074
4.388	16.682	-42520	2507.9	0.041187	0.16826	0.99093
4.39	16.745	-42516	2507.5	0.04148	0.16787	0.99113
4.392	16.698	-42519	2507.2	0.039723	0.16738	0.99113
4.394	16.629	-42522	2506.8	0.037966	0.1669	0.99113
4.396	16.548	-42522	2506.5	0.03621	0.16641	0.99113
4.398	16.482	-42522	2506.2	0.034453	0.16592	0.99113
4.4	16.449	-42531	2505.9	0.032696	0.16543	0.99113
4.402	16.439	-42539	2505.5	0.032208	0.16563	0.99191
4.404	16.501	-42538	2505.2	0.03172	0.16582	0.99269
4.406	16.608	-42536	2504.9	0.031232	0.16602	0.99347
4.408	16.644	-42536	2504.6	0.030744	0.16621	0.99425
4.41	16.646	-42537	2504.4	0.030256	0.16641	0.99503
4.412	16.642	-42540	2504.1	0.030549	0.16582	0.99503
4.414	16.533	-42543	2503.8	0.030842	0.16524	0.99503
4.416	16.433	-42542	2503.5	0.031134	0.16465	0.99503
4.418	16.463	-42542	2503.3	0.031427	0.16407	0.99503
4.42	16.515	-42542	2503	0.03172	0.16348	0.99503
4.422	16.636	-42542	2502.7	0.031427	0.16436	0.99484
4.424	16.734	-42545	2502.4	0.031134	0.16524	0.99464
4.426	16.672	-42547	2502.1	0.030842	0.16612	0.99445
4.428	16.619	-42554	2501.8	0.030549	0.16699	0.99425
4.43	16.535	-42561	2501.6	0.030256	0.16787	0.99406
4.432	16.459	-42565	2501.3	0.031915	0.16797	0.99367
4.434	16.448	-42569	2501	0.033574	0.16807	0.99328
4.436	16.428	-42566	2500.7	0.035234	0.16816	0.99288
4.438	16.521	-42563	2500.4	0.036893	0.16826	0.99249
4.44	16.63	-42568	2500.1	0.038552	0.16836	0.9921
4.442	16.647	-42573	2499.8	0.036502	0.16768	0.99298
4.444	16.66	-42573	2499.5	0.034453	0.16699	0.99386
4.446	16.607	-42573	2499.2	0.032403	0.16631	0.99474
4.448	16.484	-42571	2498.9	0.030354	0.16563	0.99562
4.45	16.426	-42570	2498.5	0.028304	0.16494	0.9965
4.452	16.439	-42578	2498.2	0.028304	0.16524	0.99601
4.454	16.536	-42585	2497.9	0.028304	0.16553	0.99552
4.456	16.686	-42590	2497.6	0.028304	0.16582	0.99503
4.458	16.704	-42594	2497.3	0.028304	0.16612	0.99454
4.46	16.667	-42593	2496.9	0.028304	0.16641	0.99406
4.462	16.591	-42591	2496.6	0.028792	0.16651	0.99406
4.464	16.485	-42598	2496.3	0.02928	0.1666	0.99406
4.466	16.437	-42606	2496	0.029768	0.1667	0.99406
4.468	16.466	-42609	2495.7	0.030256	0.1668	0.99406
4.47	16.546	-42613	2495.3	0.030744	0.1669	0.99406
4.472	16.654	-42608	2495.1	0.03211	0.16524	0.99552
4.474	16.707	-42602	2494.8	0.033477	0.16358	0.99698
4.476	16.689	-42611	2494.5	0.034843	0.16192	0.99845
4.478	16.655	-42619	2494.2	0.03621	0.16026	0.99991
4.48	16.562	-42620	2493.9	0.037576	0.1586	1.0014
4.482	16.463	-42622	2493.5	0.037478	0.15958	1.0002
4.484	16.433	-42624	2493.2	0.037381	0.16055	0.99903
4.486	16.465	-42627	2492.9	0.037283	0.16153	0.99786
4.488	16.589	-42629	2492.5	0.037186	0.1625	0.99669
4.49	16.718	-42631	2492.2	0.037088	0.16348	0.99552
4.492	16.742	-42637	2491.9	0.037283	0.16241	0.9963
4.494	16.719	-42643	2491.5	0.037478	0.16133	0.99708
4.496	16.653	-42642	2491.2	0.037674	0.16026	0.99786
4.498	16.517	-42642	2490.8	0.037869	0.15919	0.99864
4.5	16.445	-42647	2490.5	0.038064	0.15811	0.99942
4.502	16.479	-42652	2490.1	0.038259	0.1587	0.99952
4.504	16.594	-42652	2489.8	0.038454	0.15928	0.99962
4.506	16.725	-42652	2489.5	0.03865	0.15987	0.99972
4.508	16.729	-42653	2489.2	0.038845	0.16045	0.99981
4.51	16.668	-42654	2488.8	0.03904	0.16104	0.99991
4.512	16.612	-42658	2488.5	0.038064	0.16114	0.99923
4.514	16.533	-42662	2488.1	0.037088	0.16124	0.99855
4.516	16.511	-42667	2487.8	0.036112	0.16133	0.99786
4.518	16.5	-42672	2487.5	0.035136	0.16143	0.99718
4.52	16.509	-42675	2487.2	0.03416	0.16153	0.9965
4.522	16.639	-42678	2486.9	0.034648	0.16231	0.9963
4.524	16.739	-42683	2486.6	0.035136	0.16309	0.99611
4.526	16.748	-42689	2486.3	0.035624	0.16387	0.99591
4.528	16.709	-42691	2486.1	0.036112	0.16465	0.99572
4.53	16.573	-42693	2485.8	0.0366	0.16543	0.99552
4.532	16.434	-42694	2485.4	0.036698	0.16504	0.99611
4.534	16.371	-42695	2485.1	0.036795	0.16465	0.99669
4.536	16.411	-42696	2484.8	0.036893	0.16426	0.99728
4.538	16.563	-42698	2484.6	0.03699	0.16387	0.99786
4.54	16.656	-42701	2484.3	0.037088	0.16348	0.99845
4.542	16.63	-42704	2484	0.03621	0.1626	0.99825
4.544	16.62	-42707	2483.7	0.035331	0.16172	0.99806
4.546	16.556	-42710	2483.5	0.034453	0.16084	0.99786
4.548	16.449	-42710	2483.2	0.033574	0.15997	0.99767
4.55	16.434	-42710	2482.9	0.032696	0.15909	0.99747
4.552	16.459	-42709	2482.6	0.033477	0.15928	0.99767
4.554	16.532	-42709	2482.4	0.034258	0.15948	0.99786
4.556	16.637	-42715	2482.1	0.035038	0.15967	0.99806
4.558	16.652	-42721	2481.8	0.035819	0.15987	0.99825
4.56	16.623	-42723	2481.6	0.0366	0.16006	0.99845
4.562	16.553	-42724	2481.3	0.036307	0.16026	0.99825
4.564	16.449	-42727	2481	0.036014	0.16045	0.99806
4.566	16.387	-42729	2480.7	0.035722	0.16065	0.99786
4.568	16.375	-42736	2480.5	0.035429	0.16084	0.99767
4.57	16.429	-42742	2480.2	0.035136	0.16104	0.99747
4.572	16.564	-42741	2479.9	0.035331	0.16163	0.99728
4.574	16.668	-42741	2479.7	0.035526	0.16221	0.99708
4.576	16.653	-42740	2479.4	0.035722	0.1628	0.99689
4.578	16.565	-42740	2479.1	0.035917	0.16338	0.99669
4.58	16.444	-42745	2478.8	0.036112	0.16397	0.9965
4.582	16.342	-42749	2478.6	0.035917	0.16289	0.99708
4.584	16.358	-42758	2478.5	0.035722	0.16182	0.99767
4.586	16.372	-42766	2478.3	0.035526	0.16075	0.99825
4.588	16.441	-42770	2478	0.035331	0.15967	0.99884
4.59	16.571	-42774	2477.8	0.035136	0.1586	0.99942
4.592	16.594	-42775	2477.5	0.035331	0.15899	0.99933
4.594	16.615	-42776	2477.3	0.035526	0.15938	0.99923
4.596	16.588	-42777	2477.1	0.035722	0.15977	0.99913
4.598	16.464	-42777	2477	0.035917	0.16016	0.99903
4.6	16.448	-42779	2476.8	0.036112	0.16055	0.99894
4.602	16.511	-42781	2476.6	0.036405	0.16075	0.99894
4.604	16.631	-42780	2476.5	0.036698	0.16094	0.99894
4.606	16.873	-42779	2476.2	0.03699	0.16114	0.99894
4.608	16.961	-42783	2476	0.037283	0.16133	0.99894
4.61	16.991	-42788	2475.7	0.037576	0.16153	0.99894
4.612	17.024	-42798	2475.5	0.036502	0.16133	0.99835
4.614	16.926	-42809	2475.4	0.035429	0.16114	0.99776
4.616	16.936	-42811	2475.2	0.034355	0.16094	0.99718
4.618	17.034	-42812	2474.9	0.033282	0.16075	0.99659
4.62	17.123	-42811	2474.7	0.032208	0.16055	0.99601
4.622	17.251	-42810	2474.4	0.032696	0.16006	0.9962
4.624	17.275	-42808	2474.2	0.033184	0.15958	0.9964
4.626	17.196	-42807	2474	0.033672	0.15909	0.99659
4.628	17.119	-42815	2473.8	0.03416	0.1586	0.99679
4.63	16.919	-42823	2473.6	0.034648	0.15811	0.99698
4.632	16.743	-42825	2473.4	0.034453	0.15831	0.99669
4.634	16.616	-42826	2473.2	0.034258	0.1585	0.9964
4.636	16.515	-42826	2473	0.034062	0.1587	0.99611
4.638	16.505	-42825	2472.8	0.033867	0.15889	0.99581
4.64	16.524	-42834	2472.6	0.033672	0.15909	0.99552
4.642	16.499	-42842	2472.4	0.032891	0.15987	0.9964
4.644	16.479	-42844	2472.3	0.03211	0.16065	0.99728
4.646	16.428	-42846	2472	0.03133	0.16143	0.99816
4.648	16.335	-42849	2471.8	0.030549	0.16221	0.99903
4.65	16.271	-42852	2471.6	0.029768	0.16299	0.99991
4.652	16.286	-42854	2471.3	0.030842	0.16289	0.99913
4.654	16.42	-42856	2471	0.031915	0.1628	0.99835
4.656	16.591	-42859	2470.7	0.032989	0.1627	0.99757
4.658	16.638	-42862	2470.5	0.034062	0.1626	0.99679
4.66	16.573	-42869	2470.2	0.035136	0.1625	0.99601
4.662	16.47	-42877	2469.9	0.035234	0.16397	0.9963
4.664	16.358	-42880	2469.7	0.035331	0.16543	0.99659
4.666	16.326	-42883	2469.5	0.035429	0.1669	0.99689
4.668	16.34	-42883	2469.3	0.035526	0.16836	0.99718
4.67	16.356	-42883	2469.2	0.035624	0.16982	0.99747
4.672	16.463	-42883	2469.2	0.035624	0.16943	0.99659
4.674	16.569	-42882	2469.1	0.035624	0.16904	0.99572
4.676	16.586	-42879	2469.2	0.035624	0.16865	0.99484
4.678	16.523	-42875	2469.2	0.035624	0.16826	0.99396
4.68	16.396	-42888	2469.3	0.035624	0.16787	0.99308
4.682	16.301	-42901	2469.3	0.034648	0.1666	0.99328
4.684	16.349	-42896	2469.3	0.033672	0.16533	0.99347
4.686	16.388	-42892	2469.2	0.032696	0.16407	0.99367
4.688	16.499	-42892	2469	0.03172	0.1628	0.99386
4.69	16.577	-42892	2468.8	0.030744	0.16153	0.99406
4.692	16.574	-42898	2468.6	0.030842	0.16065	0.99532
4.694	16.54	-42903	2468.3	0.030939	0.15977	0.99659
4.696	16.463	-42906	2468	0.031037	0.15889	0.99786
4.698	16.342	-42908	2467.7	0.031134	0.15801	0.99913
4.7	16.303	-42907	2467.3	0.031232	0.15714	1.0004
4.702	16.293	-42906	2467	0.029866	0.15928	0.99942
4.704	16.386	-42913	2466.6	0.028499	0.16143	0.99845
4.706	16.535	-42920	2466.3	0.027133	0.16358	0.99747
4.708	16.576	-42926	2466	0.025766	0.16572	0.9965
4.71	16.569	-42932	2465.7	0.0244	0.16787	0.99552
4.712	16.512	-42932	2465.4	0.026547	0.16787	0.99611
