t	ekg	optical	pressure	accel_x	accel_y	accel_z
0	7.6019	-42739	2493.1	-0.11712	0.22985	0.96917
0.002	7.7286	-42743	2492.4	-0.11771	0.22858	0.97063
0.004	7.8789	-42748	2491.7	-0.11829	0.22731	0.9721
0.006	7.9206	-42752	2491	-0.11888	0.22604	0.97356
0.008	7.8763	-42751	2490.3	-0.11946	0.22477	0.97502
0.01	7.7784	-42751	2489.6	-0.12005	0.2235	0.97649
0.012	7.6373	-42750	2488.9	-0.12112	0.22419	0.97639
0.014	7.5624	-42749	2488.3	-0.1222	0.22487	0.97629
0.016	7.5876	-42750	2487.6	-0.12327	0.22555	0.9762
0.018	7.6716	-42750	2487	-0.12434	0.22624	0.9761
0.02	7.8236	-42752	2486.3	-0.12542	0.22692	0.976
0.022	7.9309	-42755	2485.7	-0.12405	0.22702	0.97522
0.024	7.9087	-42756	2485	-0.12268	0.22712	0.97444
0.026	7.8328	-42757	2484.4	-0.12132	0.22721	0.97366
0.028	7.6773	-42755	2483.9	-0.11995	0.22731	0.97288
0.03	7.5436	-42753	2483.3	-0.11858	0.22741	0.9721
0.032	7.5355	-42751	2482.8	-0.11829	0.22799	0.9719
0.034	7.5997	-42750	2482.3	-0.118	0.22858	0.97171
0.036	7.7519	-42750	2481.8	-0.11771	0.22916	0.97151
0.038	7.9373	-42750	2481.4	-0.11741	0.22975	0.97132
0.04	7.9514	-42756	2480.9	-0.11712	0.23034	0.97112
0.042	7.8729	-42762	2480.5	-0.11712	0.23014	0.97122
0.044	7.7216	-42761	2480	-0.11712	0.22995	0.97132
0.046	7.5381	-42761	2479.6	-0.11712	0.22975	0.97141
0.048	7.5236	-42759	2479.2	-0.11712	0.22956	0.97151
0.05	7.5829	-42757	2478.8	-0.11712	0.22936	0.97161
0.052	7.7488	-42761	2478.5	-0.11712	0.22887	0.97171
0.054	7.9157	-42766	2478.1	-0.11712	0.22838	0.9718
0.056	7.9089	-42769	2477.8	-0.11712	0.2279	0.9719
0.058	7.8773	-42771	2477.6	-0.11712	0.22741	0.972
0.06	7.7906	-42775	2477.3	-0.11712	0.22692	0.9721
0.062	7.6048	-42778	2477.1	-0.11722	0.22682	0.97171
0.064	7.5395	-42776	2476.9	-0.11732	0.22672	0.97132
0.066	7.554	-42775	2476.7	-0.11741	0.22663	0.97092
0.068	7.6473	-42775	2476.5	-0.11751	0.22653	0.97053
0.07	7.8444	-42774	2476.3	-0.11761	0.22643	0.97014
0.072	7.9082	-42780	2476.2	-0.11907	0.22575	0.9719
0.074	7.8983	-42786	2476	-0.12054	0.22507	0.97366
0.076	7.8428	-42793	2475.9	-0.122	0.22438	0.97541
0.078	7.6824	-42800	2475.8	-0.12346	0.2237	0.97717
0.08	7.5563	-42800	2475.7	-0.12493	0.22302	0.97893
0.082	7.5377	-42801	2475.6	-0.12317	0.22389	0.97795
0.084	7.6079	-42809	2475.4	-0.12141	0.22477	0.97698
0.086	7.7671	-42817	2475.3	-0.11966	0.22565	0.976
0.088	7.8962	-42816	2475.2	-0.1179	0.22653	0.97502
0.09	7.9055	-42814	2475.2	-0.11614	0.22741	0.97405
0.092	7.8256	-42820	2475.1	-0.11692	0.2276	0.97317
0.094	7.6839	-42825	2475	-0.11771	0.2278	0.97229
0.096	7.5622	-42830	2475	-0.11849	0.22799	0.97141
0.098	7.5424	-42834	2474.9	-0.11927	0.22819	0.97053
0.1	7.5931	-42835	2474.8	-0.12005	0.22838	0.96966
0.102	7.7125	-42836	2474.8	-0.11966	0.22848	0.97005
0.104	7.866	-42833	2474.8	-0.11927	0.22858	0.97044
0.106	7.9133	-42829	2474.8	-0.11888	0.22868	0.97083
0.108	7.8653	-42835	2474.8	-0.11849	0.22877	0.97122
0.11	7.7592	-42842	2474.8	-0.1181	0.22887	0.97161
0.112	7.6074	-42844	2474.7	-0.11819	0.22965	0.9721
0.114	7.5476	-42847	2474.7	-0.11829	0.23043	0.97258
0.116	7.5675	-42847	2474.6	-0.11839	0.23121	0.97307
0.118	7.6232	-42847	2474.6	-0.11849	0.232	0.97356
0.12	7.8009	-42845	2474.5	-0.11858	0.23278	0.97405
0.122	7.9319	-42842	2474.5	-0.11858	0.23219	0.97424
0.124	7.9315	-42846	2474.4	-0.11858	0.2316	0.97444
0.126	7.8217	-42849	2474.3	-0.11858	0.23102	0.97463
0.128	7.6525	-42848	2474.2	-0.11858	0.23043	0.97483
0.13	7.532	-42847	2474.2	-0.11858	0.22985	0.97502
0.132	7.5271	-42846	2474.1	-0.11917	0.22897	0.97463
0.134	7.5656	-42845	2474	-0.11976	0.22809	0.97424
0.136	7.7389	-42848	2473.9	-0.12034	0.22721	0.97385
0.138	7.9129	-42851	2473.7	-0.12093	0.22633	0.97346
0.14	7.9099	-42853	2473.6	-0.12151	0.22546	0.97307
0.142	7.8615	-42855	2473.5	-0.12171	0.22575	0.97288
0.144	7.7135	-42861	2473.5	-0.1219	0.22604	0.97268
0.146	7.5482	-42867	2473.4	-0.1221	0.22633	0.97249
0.148	7.5238	-42867	2473.2	-0.12229	0.22663	0.97229
0.15	7.5609	-42867	2473.1	-0.12249	0.22692	0.9721
0.152	7.7037	-42867	2473	-0.12239	0.22682	0.9721
0.154	7.8757	-42866	2472.8	-0.12229	0.22672	0.9721
0.156	7.9104	-42874	2472.7	-0.1222	0.22663	0.9721
0.158	7.8702	-42881	2472.5	-0.1221	0.22653	0.9721
0.16	7.7635	-42879	2472.3	-0.122	0.22643	0.9721
0.162	7.6001	-42877	2472.1	-0.12171	0.22663	0.97219
0.164	7.5321	-42878	2472	-0.12141	0.22682	0.97229
0.166	7.5669	-42879	2471.8	-0.12112	0.22702	0.97239
0.168	7.676	-42886	2471.6	-0.12083	0.22721	0.97249
0.17	7.832	-42893	2471.3	-0.12054	0.22741	0.97258
0.172	7.928	-42892	2471.1	-0.12171	0.22741	0.9719
0.174	7.9297	-42891	2470.8	-0.12288	0.22741	0.97122
0.176	7.8471	-42901	2470.6	-0.12405	0.22741	0.97053
0.178	7.6877	-42912	2470.3	-0.12522	0.22741	0.96985
0.18	7.5676	-42908	2470	-0.12639	0.22741	0.96917
0.182	7.5508	-42905	2469.7	-0.12493	0.22751	0.96966
0.184	7.6011	-42908	2469.3	-0.12346	0.2276	0.97014
0.186	7.7483	-42911	2469	-0.122	0.2277	0.97063
0.188	7.8935	-42911	2468.8	-0.12054	0.2278	0.97112
0.19	7.8979	-42910	2468.5	-0.11907	0.2279	0.97161
0.192	7.8545	-42921	2468.3	-0.12024	0.22819	0.97073
0.194	7.7461	-42931	2468.1	-0.12141	0.22848	0.96985
0.196	7.6002	-42928	2467.8	-0.12259	0.22877	0.96897
0.198	7.5806	-42925	2467.6	-0.12376	0.22907	0.96809
0.2	7.6205	-42927	2467.3	-0.12493	0.22936	0.96722
0.202	7.7236	-42930	2467.1	-0.12464	0.22926	0.96751
0.204	7.9108	-42934	2466.8	-0.12434	0.22916	0.9678
0.206	7.9465	-42938	2466.6	-0.12405	0.22907	0.96809
0.208	7.893	-42937	2466.4	-0.12376	0.22897	0.96839
0.21	7.8152	-42936	2466.2	-0.12346	0.22887	0.96868
0.212	7.6305	-42939	2466	-0.12346	0.22907	0.96848
0.214	7.5448	-42943	2465.8	-0.12346	0.22926	0.96829
0.216	7.5898	-42946	2465.6	-0.12346	0.22946	0.96809
0.218	7.6881	-42949	2465.4	-0.12346	0.22965	0.9679
0.22	7.8796	-42953	2465.2	-0.12346	0.22985	0.9677
0.222	7.9583	-42958	2465	-0.12376	0.23014	0.9679
0.224	7.9376	-42962	2464.8	-0.12405	0.23043	0.96809
0.226	7.8823	-42966	2464.6	-0.12434	0.23073	0.96829
0.228	7.696	-42967	2464.4	-0.12464	0.23102	0.96848
0.23	7.6031	-42969	2464.2	-0.12493	0.23131	0.96868
0.232	7.592	-42971	2463.6	-0.12561	0.23102	0.968
0.234	7.6051	-42973	2463	-0.12629	0.23073	0.96731
0.236	7.7465	-42978	2462.3	-0.12698	0.23043	0.96663
0.238	7.8673	-42983	2461.4	-0.12766	0.23014	0.96595
0.24	7.8516	-42985	2460.4	-0.12834	0.22985	0.96526
0.242	7.814	-42987	2460	-0.12834	0.23297	0.96741
0.244	7.6928	-42984	2459.6	-0.12834	0.23609	0.96956
0.246	7.5546	-42981	2459.3	-0.12834	0.23922	0.97171
0.248	7.5039	-42985	2459.1	-0.12834	0.24234	0.97385
0.25	7.5466	-42990	2458.9	-0.12834	0.24546	0.976
0.252	7.6897	-42991	2458.6	-0.1259	0.24224	0.97551
0.254	7.8381	-42992	2458.2	-0.12346	0.23902	0.97502
0.256	7.8766	-42992	2457.9	-0.12102	0.2358	0.97454
0.258	7.8461	-42992	2457.6	-0.11858	0.23258	0.97405
0.26	7.737	-42998	2457.3	-0.11614	0.22936	0.97356
0.262	7.5812	-43004	2457.1	-0.11751	0.23034	0.97454
0.264	7.524	-43008	2456.9	-0.11888	0.23131	0.97551
0.266	7.5556	-43012	2456.7	-0.12024	0.23229	0.97649
0.268	7.6292	-43016	2456.4	-0.12161	0.23326	0.97746
0.27	7.767	-43020	2456.1	-0.12298	0.23424	0.97844
0.272	7.8589	-43014	2455.9	-0.12171	0.23317	0.97717
0.274	7.8447	-43009	2455.6	-0.12044	0.23209	0.9759
0.276	7.7838	-43016	2455.4	-0.11917	0.23102	0.97463
0.278	7.6435	-43022	2455.4	-0.1179	0.22995	0.97336
0.28	7.5191	-43024	2455.3	-0.11663	0.22887	0.9721
0.282	7.5122	-43026	2455.2	-0.11634	0.22956	0.97268
0.284	7.5627	-43030	2455.1	-0.11605	0.23024	0.97327
0.286	7.7101	-43034	2454.9	-0.11575	0.23092	0.97385
0.288	7.8701	-43039	2454.7	-0.11546	0.2316	0.97444
0.29	7.9021	-43043	2454.4	-0.11517	0.23229	0.97502
0.292	7.8448	-43047	2454.1	-0.11605	0.2318	0.97463
0.294	7.6828	-43051	2453.8	-0.11692	0.23131	0.97424
0.296	7.5168	-43050	2453.5	-0.1178	0.23082	0.97385
0.298	7.4871	-43048	2453.2	-0.11868	0.23034	0.97346
0.3	7.5275	-43055	2452.9	-0.11956	0.22985	0.97307
0.302	7.6454	-43061	2452.7	-0.11956	0.22975	0.97346
0.304	7.8241	-43059	2452.5	-0.11956	0.22965	0.97385
0.306	7.8397	-43056	2452.3	-0.11956	0.22956	0.97424
0.308	7.7881	-43063	2452.1	-0.11956	0.22946	0.97463
0.31	7.6769	-43070	2451.9	-0.11956	0.22936	0.97502
0.312	7.4936	-43073	2451.6	-0.12093	0.22868	0.97629
0.314	7.4964	-43077	2451.3	-0.12229	0.22799	0.97756
0.316	7.5615	-43078	2451	-0.12366	0.22731	0.97883
0.318	7.6436	-43079	2450.7	-0.12503	0.22663	0.9801
0.32	7.87	-43083	2450.3	-0.12639	0.22594	0.98137
0.322	8.0268	-43086	2450	-0.12424	0.22663	0.97951
0.324	8.0458	-43091	2449.7	-0.1221	0.22731	0.97766
0.326	8.0413	-43096	2449.4	-0.11995	0.22799	0.9758
0.328	7.9515	-43103	2449.1	-0.1178	0.22868	0.97395
0.33	7.898	-43109	2448.7	-0.11566	0.22936	0.9721
0.332	7.9501	-43110	2448.5	-0.11546	0.22975	0.97219
0.334	8.0706	-43110	2448.2	-0.11527	0.23014	0.97229
0.336	8.2872	-43114	2447.9	-0.11507	0.23053	0.97239
0.338	8.4597	-43119	2447.7	-0.11488	0.23092	0.97249
0.34	8.4978	-43125	2447.4	-0.11468	0.23131	0.97258
0.342	8.4564	-43131	2447.2	-0.11517	0.23082	0.97229
0.344	8.2989	-43131	2446.9	-0.11566	0.23034	0.972
0.346	8.1138	-43131	2446.7	-0.11614	0.22985	0.97171
0.348	8.0247	-43138	2446.5	-0.11663	0.22936	0.97141
0.35	7.9739	-43144	2446.2	-0.11712	0.22887	0.97112
0.352	7.9699	-43142	2446	-0.11702	0.22858	0.9719
0.354	7.9985	-43139	2445.8	-0.11692	0.22829	0.97268
0.356	7.9363	-43141	2445.5	-0.11683	0.22799	0.97346
0.358	7.8132	-43144	2445.3	-0.11673	0.2277	0.97424
0.36	7.6705	-43149	2445	-0.11663	0.22741	0.97502
0.362	7.506	-43154	2444.7	-0.11673	0.22682	0.97502
0.364	7.4211	-43156	2444.4	-0.11683	0.22624	0.97502
0.366	7.4583	-43159	2444.1	-0.11692	0.22565	0.97502
0.368	7.5777	-43166	2443.9	-0.11702	0.22507	0.97502
0.37	7.7572	-43174	2443.6	-0.11712	0.22448	0.97502
0.372	7.8612	-43169	2443.3	-0.11624	0.22624	0.97483
0.374	7.8422	-43164	2442.9	-0.11536	0.22799	0.97463
0.376	7.7785	-43172	2442.6	-0.11448	0.22975	0.97444
0.378	7.6153	-43179	2442.2	-0.11361	0.23151	0.97424
0.38	7.469	-43183	2441.9	-0.11273	0.23326	0.97405
0.382	7.4734	-43188	2441.6	-0.11322	0.23385	0.97444
0.384	7.5055	-43194	2441.2	-0.1137	0.23444	0.97483
0.386	7.66	-43200	2440.9	-0.11419	0.23502	0.97522
0.388	7.833	-43202	2440.6	-0.11468	0.23561	0.97561
0.39	7.8512	-43204	2440.2	-0.11517	0.23619	0.976
0.392	7.8198	-43202	2440.1	-0.11566	0.23629	0.97571
0.394	7.6639	-43200	2439.9	-0.11614	0.23639	0.97541
0.396	7.4824	-43209	2439.7	-0.11663	0.23648	0.97512
0.398	7.4779	-43218	2439.6	-0.11712	0.23658	0.97483
0.4	7.4988	-43221	2439.5	-0.11761	0.23668	0.97454
0.402	7.6093	-43224	2439.3	-0.11653	0.23619	0.97385
0.404	7.7972	-43231	2439.2	-0.11546	0.2357	0.97317
0.406	7.8516	-43238	2439	-0.11439	0.23522	0.97249
0.408	7.8208	-43238	2438.8	-0.11331	0.23473	0.9718
0.41	7.7192	-43237	2438.6	-0.11224	0.23424	0.97112
0.412	7.5655	-43239	2438.3	-0.1138	0.23346	0.97083
0.414	7.4904	-43241	2437.9	-0.11536	0.23268	0.97053
0.416	7.5073	-43241	2437.5	-0.11692	0.2319	0.97024
0.418	7.5884	-43242	2437.1	-0.11849	0.23112	0.96995
0.42	7.7476	-43245	2436.7	-0.12005	0.23034	0.96966
0.422	7.8406	-43248	2436.3	-0.11956	0.22907	0.97073
0.424	7.8316	-43256	2435.9	-0.11907	0.2278	0.9718
0.426	7.7575	-43265	2435.5	-0.11858	0.22653	0.97288
0.428	7.6026	-43263	2435.2	-0.1181	0.22526	0.97395
0.43	7.488	-43262	2434.8	-0.11761	0.22399	0.97502
0.432	7.4842	-43267	2434.5	-0.11673	0.22614	0.97493
0.434	7.5538	-43271	2434.3	-0.11585	0.22829	0.97483
0.436	7.6982	-43276	2434	-0.11497	0.23043	0.97473
0.438	7.8256	-43281	2433.8	-0.11409	0.23258	0.97463
0.44	7.8456	-43286	2433.6	-0.11322	0.23473	0.97454
0.442	7.8	-43292	2433.6	-0.11292	0.23434	0.97366
0.444	7.6804	-43299	2433.7	-0.11263	0.23395	0.97278
0.446	7.5281	-43305	2434.1	-0.11234	0.23356	0.9719
0.448	7.4791	-43305	2434.8	-0.11204	0.23317	0.97102
0.45	7.506	-43304	2435.5	-0.11175	0.23278	0.97014
0.452	7.6033	-43307	2437.1	-0.11204	0.23336	0.97102
0.454	7.7969	-43309	2438.6	-0.11234	0.23395	0.9719
0.456	7.9005	-43311	2440.5	-0.11263	0.23453	0.97278
0.458	7.8607	-43314	2442.8	-0.11292	0.23512	0.97366
0.46	7.7436	-43321	2445	-0.11322	0.2357	0.97454
0.462	7.5851	-43327	2447.5	-0.11468	0.23463	0.97483
0.464	7.5252	-43330	2449.9	-0.11614	0.23356	0.97512
0.466	7.5286	-43333	2452.5	-0.11761	0.23248	0.97541
0.468	7.5848	-43334	2455.2	-0.11907	0.23141	0.97571
0.47	7.7868	-43335	2457.9	-0.12054	0.23034	0.976
0.472	7.9075	-43332	2460.8	-0.12034	0.23073	0.97541
0.474	7.8766	-43330	2463.7	-0.12015	0.23112	0.97483
0.476	7.8059	-43337	2466.6	-0.11995	0.23151	0.97424
0.478	7.6397	-43344	2469.5	-0.11976	0.2319	0.97366
0.48	7.5149	-43345	2472.4	-0.11956	0.23229	0.97307
0.482	7.5293	-43346	2475.2	-0.12083	0.23121	0.97366
0.484	7.5969	-43347	2478	-0.1221	0.23014	0.97424
0.486	7.7617	-43349	2480.6	-0.12337	0.22907	0.97483
0.488	7.8943	-43351	2483.1	-0.12464	0.22799	0.97541
0.49	7.8956	-43354	2485.6	-0.1259	0.22692	0.976
0.492	7.8603	-43352	2487.8	-0.12668	0.2276	0.97639
0.494	7.7241	-43349	2489.9	-0.12747	0.22829	0.97678
0.496	7.5777	-43346	2491.9	-0.12825	0.22897	0.97717
0.498	7.567	-43343	2493.7	-0.12903	0.22965	0.97756
0.5	7.5995	-43342	2495.5	-0.12981	0.23034	0.97795
0.502	7.7037	-43341	2497	-0.12844	0.22975	0.97737
0.504	7.8659	-43340	2498.6	-0.12708	0.22916	0.97678
0.506	7.929	-43340	2500	-0.12571	0.22858	0.9762
0.508	7.8954	-43338	2501.2	-0.12434	0.22799	0.97561
0.51	7.8069	-43337	2502.4	-0.12298	0.22741	0.97502
0.512	7.6588	-43336	2503.5	-0.12424	0.22838	0.97512
0.514	7.5634	-43335	2504.5	-0.12551	0.22936	0.97522
0.516	7.5856	-43331	2505.5	-0.12678	0.23034	0.97532
0.518	7.6965	-43327	2506.4	-0.12805	0.23131	0.97541
0.52	7.8684	-43320	2507.4	-0.12932	0.23229	0.97551
0.522	7.9763	-43313	2508.2	-0.12786	0.23121	0.97541
0.524	7.973	-43309	2509	-0.12639	0.23014	0.97532
0.526	7.9219	-43306	2509.8	-0.12493	0.22907	0.97522
0.528	7.7929	-43299	2510.5	-0.12346	0.22799	0.97512
0.53	7.6636	-43293	2511.2	-0.122	0.22692	0.97502
0.532	7.6527	-43284	2511.8	-0.12161	0.22682	0.97512
0.534	7.72	-43275	2512.4	-0.12122	0.22672	0.97522
0.536	7.8499	-43268	2512.9	-0.12083	0.22663	0.97532
0.538	7.9904	-43260	2513.3	-0.12044	0.22653	0.97541
0.54	8.023	-43255	2513.8	-0.12005	0.22643	0.97551
0.542	7.9837	-43251	2514.1	-0.11936	0.22741	0.97454
0.544	7.8733	-43242	2514.4	-0.11868	0.22838	0.97356
0.546	7.7265	-43234	2514.6	-0.118	0.22936	0.97258
0.548	7.6886	-43228	2514.8	-0.11732	0.23034	0.97161
0.55	7.7339	-43222	2515	-0.11663	0.23131	0.97063
0.552	7.833	-43215	2515.1	-0.11644	0.23121	0.97102
0.554	8.036	-43208	2515.2	-0.11624	0.23112	0.97141
0.556	8.1182	-43195	2515.3	-0.11605	0.23102	0.9718
0.558	8.0941	-43182	2515.4	-0.11585	0.23092	0.97219
0.56	7.994	-43177	2515.5	-0.11566	0.23082	0.97258
0.562	7.7949	-43172	2515.5	-0.11575	0.2317	0.97307
0.564	7.7441	-43164	2515.5	-0.11585	0.23258	0.97356
0.566	7.7549	-43157	2515.5	-0.11595	0.23346	0.97405
0.568	7.7899	-43145	2515.4	-0.11605	0.23434	0.97454
0.57	7.9934	-43133	2515.3	-0.11614	0.23522	0.97502
0.572	8.0934	-43123	2515.2	-0.11653	0.23463	0.97366
0.574	8.0592	-43113	2515.1	-0.11692	0.23404	0.97229
0.576	8.0036	-43106	2514.9	-0.11732	0.23346	0.97092
0.578	7.8337	-43100	2514.7	-0.11771	0.23287	0.96956
0.58	7.7091	-43089	2514.5	-0.1181	0.23229	0.96819
0.582	7.727	-43078	2514.2	-0.11839	0.232	0.96839
0.584	7.7876	-43065	2514	-0.11868	0.2317	0.96858
0.586	7.9353	-43053	2513.7	-0.11897	0.23141	0.96878
0.588	8.0776	-43048	2513.4	-0.11927	0.23112	0.96897
0.59	8.087	-43043	2513.1	-0.11956	0.23082	0.96917
0.592	8.015	-43033	2512.8	-0.11858	0.2316	0.97014
0.594	7.8672	-43023	2512.4	-0.11761	0.23239	0.97112
0.596	7.7109	-43013	2512.1	-0.11663	0.23317	0.9721
0.598	7.6482	-43004	2511.6	-0.11566	0.23395	0.97307
0.6	7.6806	-42998	2511.2	-0.11468	0.23473	0.97405
0.602	7.809	-42993	2510.8	-0.1137	0.23404	0.97346
0.604	7.9711	-42983	2510.4	-0.11273	0.23336	0.97288
0.606	8.0228	-42973	2510	-0.11175	0.23268	0.97229
0.608	7.9609	-42969	2509.6	-0.11078	0.232	0.97171
0.61	7.844	-42966	2509.2	-0.1098	0.23131	0.97112
0.612	7.7113	-42961	2508.7	-0.11087	0.2318	0.97112
0.614	7.6472	-42957	2508.3	-0.11195	0.23229	0.97112
0.616	7.6396	-42941	2507.9	-0.11302	0.23278	0.97112
0.618	7.6962	-42925	2507.5	-0.11409	0.23326	0.97112
0.62	7.8553	-42920	2507.1	-0.11517	0.23375	0.97112
0.622	7.9672	-42914	2506.7	-0.11419	0.23365	0.97092
0.624	7.9377	-42911	2506.4	-0.11322	0.23356	0.97073
0.626	7.8611	-42908	2506	-0.11224	0.23346	0.97053
0.628	7.7135	-42896	2505.7	-0.11126	0.23336	0.97034
0.63	7.5629	-42885	2505.4	-0.11029	0.23326	0.97014
0.632	7.5442	-42883	2504.9	-0.11097	0.23365	0.97083
0.634	7.5967	-42882	2504.5	-0.11165	0.23404	0.97151
0.636	7.7573	-42882	2504.1	-0.11234	0.23444	0.97219
0.638	7.9315	-42882	2503.7	-0.11302	0.23483	0.97288
0.64	7.9499	-42870	2503.3	-0.1137	0.23522	0.97356
0.642	7.8868	-42858	2502.9	-0.11439	0.23492	0.97405
0.644	7.7546	-42852	2502.5	-0.11507	0.23463	0.97454
0.646	7.5604	-42847	2502.1	-0.11575	0.23434	0.97502
0.648	7.5361	-42843	2501.8	-0.11644	0.23404	0.97551
0.65	7.5885	-42839	2501.5	-0.11712	0.23375	0.976
0.652	7.707	-42834	2501.1	-0.11644	0.23365	0.97522
0.654	7.8932	-42830	2500.7	-0.11575	0.23356	0.97444
0.656	7.9209	-42828	2500.3	-0.11507	0.23346	0.97366
0.658	7.88	-42826	2500	-0.11439	0.23336	0.97288
0.66	7.8006	-42823	2499.6	-0.1137	0.23326	0.9721
0.662	7.6354	-42820	2499.1	-0.11488	0.23229	0.97229
0.664	7.5664	-42816	2498.6	-0.11605	0.23131	0.97249
0.666	7.5594	-42812	2498.1	-0.11722	0.23034	0.97268
0.668	7.6348	-42808	2497.6	-0.11839	0.22936	0.97288
0.67	7.815	-42805	2497.1	-0.11956	0.22838	0.97307
0.672	7.9078	-42804	2496.5	-0.11917	0.22848	0.97317
0.674	7.9074	-42802	2495.9	-0.11878	0.22858	0.97327
0.676	7.8463	-42799	2495.3	-0.11839	0.22868	0.97336
0.678	7.6916	-42797	2494.7	-0.118	0.22877	0.97346
0.68	7.5611	-42796	2494.2	-0.11761	0.22887	0.97356
0.682	7.5434	-42796	2493.5	-0.1178	0.22868	0.97278
0.684	7.6103	-42796	2492.9	-0.118	0.22848	0.972
0.686	7.7652	-42795	2492.2	-0.11819	0.22829	0.97122
0.688	7.9048	-42795	2491.6	-0.11839	0.22809	0.97044
0.69	7.9259	-42794	2490.9	-0.11858	0.2279	0.96966
0.692	7.856	-42787	2490.3	-0.11878	0.2276	0.96985
0.694	7.719	-42780	2489.7	-0.11897	0.22731	0.97005
0.696	7.5705	-42778	2489	-0.11917	0.22702	0.97024
0.698	7.5189	-42777	2488.4	-0.11936	0.22672	0.97044
0.7	7.5663	-42779	2487.8	-0.11956	0.22643	0.97063
0.702	7.6724	-42781	2487.1	-0.11956	0.22624	0.97102
0.704	7.837	-42781	2486.5	-0.11956	0.22604	0.97141
0.706	7.9239	-42782	2485.9	-0.11956	0.22585	0.9718
0.708	7.8935	-42785	2485.3	-0.11956	0.22565	0.97219
0.71	7.8029	-42787	2484.7	-0.11956	0.22546	0.97258
0.712	7.6315	-42783	2484.2	-0.11927	0.22555	0.97278
0.714	7.532	-42779	2483.6	-0.11897	0.22565	0.97297
0.716	7.563	-42776	2483	-0.11868	0.22575	0.97317
0.718	7.6469	-42772	2482.5	-0.11839	0.22585	0.97336
0.72	7.8118	-42770	2481.9	-0.1181	0.22594	0.97356
0.722	7.915	-42768	2481.4	-0.11858	0.22633	0.97297
0.724	7.8837	-42768	2480.9	-0.11907	0.22672	0.97239
0.726	7.8274	-42768	2480.3	-0.11956	0.22712	0.9718
0.728	7.7002	-42775	2479.8	-0.12005	0.22751	0.97122
0.73	7.561	-42782	2479.3	-0.12054	0.2279	0.97063
0.732	7.5483	-42778	2478.8	-0.12141	0.22751	0.97083
0.734	7.579	-42774	2478.3	-0.12229	0.22712	0.97102
0.736	7.7276	-42779	2477.8	-0.12317	0.22672	0.97122
0.738	7.8902	-42784	2477.4	-0.12405	0.22633	0.97141
0.74	7.9207	-42783	2476.9	-0.12493	0.22594	0.97161
0.742	7.8808	-42782	2476.5	-0.12542	0.22653	0.97258
0.744	7.7394	-42781	2476.1	-0.1259	0.22712	0.97356
0.746	7.5581	-42780	2475.7	-0.12639	0.2277	0.97454
0.748	7.5155	-42785	2475.3	-0.12688	0.22829	0.97551
0.75	7.5522	-42790	2474.9	-0.12737	0.22887	0.97649
0.752	7.6677	-42795	2474.6	-0.1261	0.22809	0.97698
0.754	7.8398	-42800	2474.3	-0.12483	0.22731	0.97746
0.756	7.9114	-42803	2474	-0.12356	0.22653	0.97795
0.758	7.8923	-42807	2473.7	-0.12229	0.22575	0.97844
0.76	7.7691	-42803	2473.4	-0.12102	0.22497	0.97893
0.762	7.5867	-42800	2473.1	-0.12112	0.22516	0.97824
0.764	7.5303	-42804	2472.8	-0.12122	0.22536	0.97756
0.766	7.5702	-42808	2472.5	-0.12132	0.22555	0.97688
0.768	7.6336	-42812	2472.3	-0.12141	0.22575	0.9762
0.77	7.7767	-42816	2472	-0.12151	0.22594	0.97551
0.772	7.8781	-42818	2471.8	-0.12112	0.22653	0.97463
0.774	7.8775	-42819	2471.6	-0.12073	0.22712	0.97376
0.776	7.8126	-42820	2471.4	-0.12034	0.2277	0.97288
0.778	7.6659	-42820	2471.2	-0.11995	0.22829	0.972
0.78	7.5433	-42827	2471	-0.11956	0.22887	0.97112
0.782	7.5396	-42834	2470.9	-0.11849	0.22975	0.97132
0.784	7.6043	-42834	2470.7	-0.11741	0.23063	0.97151
0.786	7.7301	-42835	2470.6	-0.11634	0.23151	0.97171
0.788	7.876	-42838	2470.4	-0.11527	0.23239	0.9719
0.79	7.9095	-42842	2470.3	-0.11419	0.23326	0.9721
0.792	7.8467	-42845	2470.1	-0.11527	0.23297	0.97288
0.794	7.7114	-42848	2470	-0.11634	0.23268	0.97366
0.796	7.5487	-42844	2469.8	-0.11741	0.23239	0.97444
0.798	7.5109	-42840	2469.7	-0.11849	0.23209	0.97522
0.8	7.5492	-42842	2469.6	-0.11956	0.2318	0.976
0.802	7.6662	-42844	2469.5	-0.11907	0.23229	0.97629
0.804	7.8295	-42849	2469.4	-0.11858	0.23278	0.97659
0.806	7.8791	-42854	2469.3	-0.1181	0.23326	0.97688
0.808	7.836	-42852	2469.2	-0.11761	0.23375	0.97717
0.81	7.7575	-42849	2469.1	-0.11712	0.23424	0.97746
0.812	7.5984	-42852	2469	-0.11702	0.23365	0.97668
0.814	7.5143	-42855	2468.9	-0.11692	0.23307	0.9759
0.816	7.5366	-42860	2468.9	-0.11683	0.23248	0.97512
0.818	7.5689	-42865	2468.8	-0.11673	0.2319	0.97434
0.82	7.7662	-42872	2468.8	-0.11663	0.23131	0.97356
0.822	7.9096	-42879	2468.7	-0.11653	0.2319	0.97366
0.824	7.893	-42874	2468.7	-0.11644	0.23248	0.97376
0.826	7.8184	-42869	2468.6	-0.11634	0.23307	0.97385
0.828	7.669	-42871	2468.5	-0.11624	0.23365	0.97395
0.83	7.5193	-42872	2468.3	-0.11614	0.23424	0.97405
0.832	7.481	-42876	2468.2	-0.11614	0.23385	0.97376
0.834	7.5482	-42880	2468.1	-0.11614	0.23346	0.97346
0.836	7.7435	-42878	2467.9	-0.11614	0.23307	0.97317
0.838	7.8763	-42876	2467.7	-0.11614	0.23268	0.97288
0.84	7.89	-42884	2467.5	-0.11614	0.23229	0.97258
0.842	7.8446	-42891	2467.3	-0.11546	0.23307	0.97288
0.844	7.7057	-42893	2467.1	-0.11478	0.23385	0.97317
0.846	7.5651	-42895	2467	-0.11409	0.23463	0.97346
0.848	7.5245	-42901	2466.8	-0.11341	0.23541	0.97376
0.85	7.5587	-42907	2466.6	-0.11273	0.23619	0.97405
0.852	7.6698	-42901	2466.5	-0.11273	0.23609	0.97424
0.854	7.8127	-42894	2466.3	-0.11273	0.236	0.97444
0.856	7.8749	-42901	2466.1	-0.11273	0.2359	0.97463
0.858	7.8475	-42909	2465.9	-0.11273	0.2358	0.97483
0.86	7.7438	-42911	2465.8	-0.11273	0.2357	0.97502
0.862	7.6058	-42914	2465.6	-0.11322	0.23531	0.97512
0.864	7.5299	-42918	2465.4	-0.1137	0.23492	0.97522
0.866	7.5334	-42922	2465.3	-0.11419	0.23453	0.97532
0.868	7.6136	-42926	2465.2	-0.11468	0.23414	0.97541
0.87	7.7626	-42930	2465	-0.11517	0.23375	0.97551
0.872	7.8705	-42927	2464.9	-0.11546	0.23326	0.97424
0.874	7.8843	-42925	2464.7	-0.11575	0.23278	0.97297
0.876	7.8383	-42927	2464.5	-0.11605	0.23229	0.97171
0.878	7.6841	-42929	2464.3	-0.11634	0.2318	0.97044
0.88	7.5329	-42926	2464	-0.11663	0.23131	0.96917
0.882	7.5258	-42922	2463.8	-0.11849	0.23063	0.96878
0.884	7.5921	-42929	2463.6	-0.12034	0.22995	0.96839
0.886	7.7315	-42937	2463.4	-0.1222	0.22926	0.968
0.888	7.8941	-42940	2463.2	-0.12405	0.22858	0.96761
0.89	7.9058	-42944	2463	-0.1259	0.2279	0.96722
0.892	7.8616	-42944	2462.8	-0.12473	0.22741	0.96809
0.894	7.7413	-42943	2462.7	-0.12356	0.22692	0.96897
0.896	7.5546	-42952	2462.5	-0.12239	0.22643	0.96985
0.898	7.513	-42961	2462.3	-0.12122	0.22594	0.97073
0.9	7.5671	-42957	2462.1	-0.12005	0.22546	0.97161
0.902	7.6682	-42953	2462	-0.12015	0.22555	0.97092
0.904	7.8455	-42960	2461.8	-0.12024	0.22565	0.97024
0.906	7.8965	-42968	2461.5	-0.12034	0.22575	0.96956
0.908	7.8829	-42973	2461.3	-0.12044	0.22585	0.96888
0.91	7.817	-42978	2461	-0.12054	0.22594	0.96819
0.912	7.6323	-42977	2460.8	-0.12063	0.22633	0.96839
0.914	7.5515	-42975	2460.5	-0.12073	0.22672	0.96858
0.916	7.5736	-42976	2460.2	-0.12083	0.22712	0.96878
0.918	7.6375	-42976	2460	-0.12093	0.22751	0.96897
0.92	7.8199	-42981	2459.7	-0.12102	0.2279	0.96917
0.922	7.9271	-42985	2459.5	-0.12141	0.2276	0.96927
0.924	7.9262	-42988	2459.3	-0.1218	0.22731	0.96936
0.926	7.8605	-42990	2459	-0.1222	0.22702	0.96946
0.928	7.6879	-42989	2458.8	-0.12259	0.22672	0.96956
0.93	7.5556	-42989	2458.6	-0.12298	0.22643	0.96966
0.932	7.5412	-43002	2458.3	-0.12288	0.22682	0.96975
0.934	7.6176	-43015	2458.1	-0.12278	0.22721	0.96985
0.936	7.7792	-43013	2457.9	-0.12268	0.2276	0.96995
0.938	7.9079	-43011	2457.7	-0.12259	0.22799	0.97005
0.94	7.9246	-43009	2457.5	-0.12249	0.22838	0.97014
0.942	7.8954	-43007	2457.3	-0.12141	0.22868	0.97092
0.944	7.7737	-43009	2457.1	-0.12034	0.22897	0.97171
0.946	7.6076	-43012	2456.9	-0.11927	0.22926	0.97249
0.948	7.5702	-43015	2456.6	-0.11819	0.22956	0.97327
0.95	7.6345	-43019	2456.4	-0.11712	0.22985	0.97405
0.952	7.7294	-43019	2456.2	-0.11712	0.23014	0.97356
0.954	7.8353	-43019	2456	-0.11712	0.23043	0.97307
0.956	7.8745	-43030	2455.8	-0.11712	0.23073	0.97258
0.958	7.8674	-43042	2455.5	-0.11712	0.23102	0.9721
0.96	7.8122	-43041	2455.3	-0.11712	0.23131	0.97161
0.962	7.6208	-43040	2455	-0.11702	0.23131	0.97219
0.964	7.4952	-43042	2454.8	-0.11692	0.23131	0.97278
0.966	7.5115	-43044	2454.5	-0.11683	0.23131	0.97336
0.968	7.5757	-43047	2454.2	-0.11673	0.23131	0.97395
0.97	7.7425	-43049	2453.9	-0.11663	0.23131	0.97454
0.972	7.887	-43053	2453.6	-0.11644	0.2317	0.97444
0.974	7.887	-43058	2453.2	-0.11624	0.23209	0.97434
0.976	7.813	-43066	2452.9	-0.11605	0.23248	0.97424
0.978	7.6659	-43074	2452.6	-0.11585	0.23287	0.97415
0.98	7.5172	-43074	2452.2	-0.11566	0.23326	0.97405
0.982	7.4816	-43075	2451.9	-0.11595	0.23248	0.97415
0.984	7.5173	-43076	2451.6	-0.11624	0.2317	0.97424
0.986	7.6749	-43078	2451.3	-0.11653	0.23092	0.97434
0.988	7.8641	-43082	2451	-0.11683	0.23014	0.97444
0.99	7.8758	-43085	2450.7	-0.11712	0.22936	0.97454
0.992	7.8288	-43081	2450.3	-0.11722	0.22956	0.97434
0.994	7.6987	-43077	2450	-0.11732	0.22975	0.97415
0.996	7.5224	-43081	2449.6	-0.11741	0.22995	0.97395
0.998	7.4886	-43084	2449.3	-0.11751	0.23014	0.97376
1	7.516	-43091	2448.9	-0.11761	0.23034	0.97356
1.002	7.6124	-43099	2448.6	-0.11732	0.23082	0.97366
1.004	7.7926	-43099	2448.3	-0.11702	0.23131	0.97376
1.006	7.8607	-43099	2448	-0.11673	0.2318	0.97385
1.008	7.8283	-43107	2447.6	-0.11644	0.23229	0.97395
1.01	7.7342	-43115	2447.3	-0.11614	0.23278	0.97405
1.012	7.5722	-43118	2447	-0.11624	0.23229	0.97395
1.014	7.4987	-43122	2446.7	-0.11634	0.2318	0.97385
1.016	7.5117	-43120	2446.5	-0.11644	0.23131	0.97376
1.018	7.5862	-43119	2446.3	-0.11653	0.23082	0.97366
1.02	7.7461	-43122	2446	-0.11663	0.23034	0.97356
1.022	7.8404	-43125	2445.8	-0.11663	0.23053	0.97415
1.024	7.8367	-43136	2445.5	-0.11663	0.23073	0.97473
1.026	7.7646	-43147	2445.2	-0.11663	0.23092	0.97532
1.028	7.5924	-43146	2445	-0.11663	0.23112	0.9759
1.03	7.4625	-43146	2444.7	-0.11663	0.23131	0.97649
1.032	7.4558	-43149	2444.5	-0.11644	0.23112	0.97541
1.034	7.5137	-43151	2444.2	-0.11624	0.23092	0.97434
1.036	7.6639	-43155	2444	-0.11605	0.23073	0.97327
1.038	7.8425	-43160	2443.7	-0.11585	0.23053	0.97219
1.04	7.9235	-43159	2443.4	-0.11566	0.23034	0.97112
1.042	7.9291	-43159	2443.1	-0.11605	0.23092	0.97219
1.044	7.8614	-43165	2442.8	-0.11644	0.23151	0.97327
1.046	7.7426	-43172	2442.6	-0.11683	0.23209	0.97434
1.048	7.7398	-43178	2442.3	-0.11722	0.23268	0.97541
1.05	7.8509	-43183	2442	-0.11761	0.23326	0.97649
1.052	8.0189	-43184	2441.8	-0.11692	0.23317	0.97532
1.054	8.2578	-43184	2441.6	-0.11624	0.23307	0.97415
1.056	8.4104	-43187	2441.4	-0.11556	0.23297	0.97297
1.058	8.4167	-43190	2441.1	-0.11488	0.23287	0.9718
1.06	8.3632	-43194	2440.9	-0.11419	0.23278	0.97063
1.062	8.212	-43197	2440.6	-0.11566	0.2316	0.97024
1.064	8.1261	-43198	2440.3	-0.11712	0.23043	0.96985
1.066	8.1191	-43198	2440	-0.11858	0.22926	0.96946
1.068	8.1392	-43199	2439.8	-0.12005	0.22809	0.96907
1.07	8.2468	-43201	2439.5	-0.12151	0.22692	0.96868
1.072	8.2474	-43212	2439.3	-0.12044	0.22692	0.96975
1.074	8.1259	-43223	2439	-0.11936	0.22692	0.97083
1.076	7.9782	-43224	2438.8	-0.11829	0.22692	0.9719
1.078	7.6842	-43224	2438.5	-0.11722	0.22692	0.97297
1.08	7.4405	-43225	2438.3	-0.11614	0.22692	0.97405
1.082	7.3768	-43226	2438.1	-0.11566	0.22819	0.97395
1.084	7.4194	-43234	2437.9	-0.11517	0.22946	0.97385
1.086	7.6106	-43243	2437.7	-0.11468	0.23073	0.97376
1.088	7.7689	-43243	2437.5	-0.11419	0.232	0.97366
1.09	7.8032	-43243	2437.3	-0.1137	0.23326	0.97356
1.092	7.785	-43243	2437	-0.1137	0.23326	0.97356
1.094	7.6671	-43243	2436.8	-0.1137	0.23326	0.97356
1.096	7.5308	-43252	2436.5	-0.1137	0.23326	0.97356
1.098	7.4812	-43260	2436.2	-0.1137	0.23326	0.97356
1.1	7.498	-43260	2435.9	-0.1137	0.23326	0.97356
1.102	7.6025	-43261	2435.6	-0.11429	0.23248	0.97327
1.104	7.7589	-43262	2435.3	-0.11488	0.2317	0.97297
1.106	7.8173	-43263	2435.1	-0.11546	0.23092	0.97268
1.108	7.7984	-43274	2434.8	-0.11605	0.23014	0.97239
1.11	7.7269	-43285	2434.6	-0.11663	0.22936	0.9721
1.112	7.5703	-43285	2434.4	-0.11712	0.23092	0.97288
1.114	7.4632	-43285	2434.2	-0.11761	0.23248	0.97366
1.116	7.4577	-43285	2434.1	-0.1181	0.23404	0.97444
1.118	7.5284	-43285	2434	-0.11858	0.23561	0.97522
1.12	7.6968	-43294	2433.9	-0.11907	0.23717	0.976
1.122	7.8198	-43303	2433.7	-0.11966	0.23551	0.97444
1.124	7.8107	-43304	2433.6	-0.12024	0.23385	0.97288
1.126	7.7486	-43306	2433.4	-0.12083	0.23219	0.97132
1.128	7.613	-43304	2433.2	-0.12141	0.23053	0.96975
1.13	7.4756	-43302	2433.1	-0.122	0.22887	0.96819
1.132	7.4485	-43310	2432.7	-0.12141	0.22897	0.96848
1.134	7.5059	-43319	2432.4	-0.12083	0.22907	0.96878
1.136	7.6451	-43324	2432	-0.12024	0.22916	0.96907
1.138	7.8017	-43330	2431.5	-0.11966	0.22926	0.96936
1.14	7.8204	-43333	2431.1	-0.11907	0.22936	0.96966
1.142	7.79	-43337	2430.6	-0.11868	0.22907	0.96995
1.144	7.6868	-43344	2430.2	-0.11829	0.22877	0.97024
1.146	7.5041	-43352	2429.8	-0.1179	0.22848	0.97053
1.148	7.4565	-43350	2429.3	-0.11751	0.22819	0.97083
1.15	7.4841	-43349	2428.8	-0.11712	0.2279	0.97112
1.152	7.5951	-43349	2428.4	-0.11732	0.22838	0.97112
1.154	7.7812	-43349	2427.9	-0.11751	0.22887	0.97112
1.156	7.845	-43355	2427.6	-0.11771	0.22936	0.97112
1.158	7.8183	-43362	2427.2	-0.1179	0.22985	0.97112
1.16	7.7435	-43365	2426.9	-0.1181	0.23034	0.97112
1.162	7.5705	-43368	2426.7	-0.1179	0.23063	0.9719
1.164	7.4809	-43371	2426.5	-0.11771	0.23092	0.97268
1.166	7.4686	-43375	2426.4	-0.11751	0.23121	0.97346
1.168	7.5354	-43382	2426.5	-0.11732	0.23151	0.97424
1.17	7.7285	-43388	2426.6	-0.11712	0.2318	0.97502
1.172	7.8478	-43389	2427.6	-0.11722	0.23209	0.97405
1.174	7.84	-43390	2428.5	-0.11732	0.23239	0.97307
1.176	7.7908	-43391	2429.9	-0.11741	0.23268	0.9721
1.178	7.6322	-43392	2431.8	-0.11751	0.23297	0.97112
1.18	7.492	-43402	2433.6	-0.11761	0.23326	0.97014
1.182	7.4802	-43412	2436	-0.11751	0.23239	0.97053
1.184	7.5339	-43412	2438.4	-0.11741	0.23151	0.97092
1.186	7.6525	-43412	2440.9	-0.11732	0.23063	0.97132
1.188	7.7978	-43412	2443.5	-0.11722	0.22975	0.97171
1.19	7.8597	-43411	2446.2	-0.11712	0.22887	0.9721
1.192	7.8366	-43415	2449	-0.11732	0.22916	0.97278
1.194	7.7042	-43419	2451.8	-0.11751	0.22946	0.97346
1.196	7.5311	-43423	2454.7	-0.11771	0.22975	0.97415
1.198	7.4618	-43427	2457.7	-0.1179	0.23004	0.97483
1.2	7.517	-43434	2460.7	-0.1181	0.23034	0.97551
1.202	7.6554	-43441	2463.6	-0.11878	0.22877	0.9758
1.204	7.8102	-43442	2466.5	-0.11946	0.22721	0.9761
1.206	7.8978	-43442	2469.4	-0.12015	0.22565	0.97639
1.208	7.8914	-43434	2472.1	-0.12083	0.22409	0.97668
1.21	7.7854	-43426	2474.8	-0.12151	0.22253	0.97698
1.212	7.6218	-43429	2477.3	-0.12151	0.22253	0.97688
1.214	7.5249	-43433	2479.7	-0.12151	0.22253	0.97678
1.216	7.5402	-43429	2481.9	-0.12151	0.22253	0.97668
1.218	7.6184	-43425	2484	-0.12151	0.22253	0.97659
1.22	7.7645	-43424	2486	-0.12151	0.22253	0.97649
1.222	7.8693	-43422	2487.8	-0.1219	0.22409	0.976
1.224	7.8699	-43425	2489.7	-0.12229	0.22565	0.97551
1.226	7.87	-43429	2491.4	-0.12268	0.22721	0.97502
1.228	7.7611	-43428	2492.9	-0.12307	0.22877	0.97454
1.23	7.5839	-43427	2494.5	-0.12346	0.23034	0.97405
1.232	7.5597	-43423	2495.8	-0.12288	0.22946	0.97327
1.234	7.6047	-43420	2497.2	-0.12229	0.22858	0.97249
1.236	7.7409	-43412	2498.4	-0.12171	0.2277	0.97171
1.238	7.9219	-43405	2499.5	-0.12112	0.22682	0.97092
1.24	7.958	-43407	2500.6	-0.12054	0.22594	0.97014
1.242	7.9322	-43408	2501.5	-0.11995	0.22682	0.97024
1.244	7.8393	-43404	2502.4	-0.11936	0.2277	0.97034
1.246	7.6458	-43399	2503.2	-0.11878	0.22858	0.97044
1.248	7.6178	-43394	2503.9	-0.11819	0.22946	0.97053
1.25	7.651	-43390	2504.7	-0.11761	0.23034	0.97063
1.252	7.7375	-43388	2505.3	-0.118	0.23053	0.97141
1.254	7.9483	-43387	2505.9	-0.11839	0.23073	0.97219
1.256	8.033	-43381	2506.5	-0.11878	0.23092	0.97297
1.258	8.0234	-43376	2507	-0.11917	0.23112	0.97376
1.26	7.9298	-43361	2507.5	-0.11956	0.23131	0.97454
1.262	7.7357	-43346	2508	-0.11936	0.2316	0.97502
1.264	7.6507	-43341	2508.4	-0.11917	0.2319	0.97551
1.266	7.683	-43337	2508.8	-0.11897	0.23219	0.976
1.268	7.7715	-43337	2509.1	-0.11878	0.23248	0.97649
1.27	7.945	-43338	2509.4	-0.11858	0.23278	0.97698
1.272	8.0406	-43322	2509.6	-0.11858	0.23229	0.97532
1.274	8.0371	-43306	2509.9	-0.11858	0.2318	0.97366
1.276	7.999	-43303	2510.1	-0.11858	0.23131	0.972
1.278	7.8745	-43299	2510.2	-0.11858	0.23082	0.97034
1.28	7.7473	-43292	2510.4	-0.11858	0.23034	0.96868
1.282	7.716	-43285	2510.5	-0.11936	0.23004	0.96868
1.284	7.7752	-43274	2510.6	-0.12015	0.22975	0.96868
1.286	7.9085	-43262	2510.6	-0.12093	0.22946	0.96868
1.288	8.0476	-43251	2510.6	-0.12171	0.22916	0.96868
1.29	8.0908	-43240	2510.5	-0.12249	0.22887	0.96868
1.292	8.0465	-43234	2510.4	-0.12073	0.22975	0.96966
1.294	7.9421	-43228	2510.3	-0.11897	0.23063	0.97063
1.296	7.8006	-43215	2510.1	-0.11722	0.23151	0.97161
1.298	7.7384	-43203	2509.9	-0.11546	0.23239	0.97258
1.3	7.7668	-43195	2509.7	-0.1137	0.23326	0.97356
1.302	7.8546	-43188	2509.5	-0.11497	0.23336	0.97424
1.304	8.0083	-43178	2509.3	-0.11624	0.23346	0.97493
1.306	8.0851	-43167	2509	-0.11751	0.23356	0.97561
1.308	8.0498	-43157	2508.7	-0.11878	0.23365	0.97629
1.31	7.9566	-43147	2508.4	-0.12005	0.23375	0.97698
1.312	7.8047	-43141	2508.2	-0.11907	0.23395	0.9761
1.314	7.6928	-43135	2507.9	-0.1181	0.23414	0.97522
1.316	7.6942	-43132	2507.6	-0.11712	0.23434	0.97434
1.318	7.7602	-43128	2507.2	-0.11614	0.23453	0.97346
1.32	7.9169	-43118	2506.9	-0.11517	0.23473	0.97258
1.322	8.0396	-43108	2506.5	-0.11448	0.23473	0.97249
1.324	8.0186	-43099	2506.1	-0.1138	0.23473	0.97239
1.326	7.9613	-43089	2505.7	-0.11312	0.23473	0.97229
1.328	7.8174	-43089	2505.3	-0.11244	0.23473	0.97219
1.33	7.6625	-43088	2504.8	-0.11175	0.23473	0.9721
1.332	7.6331	-43077	2504.4	-0.11244	0.23414	0.97151
1.334	7.6505	-43066	2504	-0.11312	0.23356	0.97092
1.336	7.7887	-43063	2503.6	-0.1138	0.23297	0.97034
1.338	7.9524	-43060	2503.2	-0.11448	0.23239	0.96975
1.34	7.9556	-43052	2502.9	-0.11517	0.2318	0.96917
1.342	7.9107	-43043	2502.5	-0.11556	0.2318	0.96868
1.344	7.7854	-43032	2502.1	-0.11595	0.2318	0.96819
1.346	7.6357	-43022	2501.7	-0.11634	0.2318	0.9677
1.348	7.6002	-43025	2501.4	-0.11673	0.2318	0.96722
1.35	7.6247	-43029	2501	-0.11712	0.2318	0.96673
1.352	7.7135	-43017	2500.6	-0.11839	0.23053	0.96722
1.354	7.8644	-43004	2500.3	-0.11966	0.22926	0.9677
1.356	7.9266	-42999	2499.9	-0.12093	0.22799	0.96819
1.358	7.9118	-42994	2499.5	-0.1222	0.22672	0.96868
1.36	7.826	-42993	2499	-0.12346	0.22546	0.96917
1.362	7.6548	-42992	2498.7	-0.1219	0.22712	0.97005
1.364	7.5596	-42984	2498.4	-0.12034	0.22877	0.97092
1.366	7.5741	-42975	2498	-0.11878	0.23043	0.9718
1.368	7.6484	-42968	2497.6	-0.11722	0.23209	0.97268
1.37	7.8121	-42960	2497.3	-0.11566	0.23375	0.97356
1.372	7.9305	-42960	2496.9	-0.11566	0.23395	0.97376
1.374	7.9149	-42961	2496.6	-0.11566	0.23414	0.97395
1.376	7.8422	-42957	2496.2	-0.11566	0.23434	0.97415
1.378	7.7125	-42953	2495.8	-0.11566	0.23453	0.97434
1.38	7.5775	-42951	2495.3	-0.11566	0.23473	0.97454
1.382	7.5425	-42948	2494.9	-0.11663	0.23424	0.97463
1.384	7.5996	-42957	2494.4	-0.11761	0.23375	0.97473
1.386	7.7306	-42966	2493.9	-0.11858	0.23326	0.97483
1.388	7.8794	-42955	2493.4	-0.11956	0.23278	0.97493
1.39	7.9164	-42944	2492.9	-0.12054	0.23229	0.97502
1.392	7.8632	-42943	2492.3	-0.11985	0.23219	0.97454
1.394	7.7571	-42942	2491.7	-0.11917	0.23209	0.97405
1.396	7.5924	-42942	2491.2	-0.11849	0.232	0.97356
1.398	7.5433	-42942	2490.6	-0.1178	0.2319	0.97307
1.4	7.5899	-42934	2490.1	-0.11712	0.2318	0.97258
1.402	7.6735	-42926	2489.5	-0.1178	0.2316	0.97249
1.404	7.8375	-42923	2488.9	-0.11849	0.23141	0.97239
1.406	7.9195	-42921	2488.3	-0.11917	0.23121	0.97229
1.408	7.9055	-42925	2487.7	-0.11985	0.23102	0.97219
1.41	7.8213	-42930	2487.2	-0.12054	0.23082	0.9721
1.412	7.6186	-42929	2486.6	-0.12024	0.23063	0.97161
1.414	7.4989	-42928	2485.9	-0.11995	0.23043	0.97112
1.416	7.5536	-42924	2485.3	-0.11966	0.23024	0.97063
1.418	7.6223	-42920	2484.7	-0.11936	0.23004	0.97014
1.42	7.7768	-42918	2484.1	-0.11907	0.22985	0.96966
1.422	7.8907	-42916	2483.5	-0.11888	0.22965	0.97005
1.424	7.897	-42915	2482.9	-0.11868	0.22946	0.97044
1.426	7.8465	-42914	2482.2	-0.11849	0.22926	0.97083
1.428	7.6797	-42918	2481.6	-0.11829	0.22907	0.97122
1.43	7.5721	-42922	2481	-0.1181	0.22887	0.97161
1.432	7.5645	-42916	2480.4	-0.1181	0.22848	0.97151
1.434	7.5911	-42910	2479.8	-0.1181	0.22809	0.97141
1.436	7.711	-42910	2479.2	-0.1181	0.2277	0.97132
1.438	7.852	-42909	2478.6	-0.1181	0.22731	0.97122
1.44	7.8892	-42908	2478.1	-0.1181	0.22692	0.97112
1.442	7.8607	-42907	2477.6	-0.12015	0.22751	0.97219
1.444	7.7474	-42909	2477.1	-0.1222	0.22809	0.97327
1.446	7.5882	-42912	2476.6	-0.12424	0.22868	0.97434
1.448	7.5239	-42910	2476.1	-0.12629	0.22926	0.97541
1.45	7.5657	-42908	2475.7	-0.12834	0.22985	0.97649
1.452	7.6794	-42906	2475.3	-0.12766	0.22926	0.9762
1.454	7.8319	-42904	2474.9	-0.12698	0.22868	0.9759
1.456	7.9046	-42907	2474.5	-0.12629	0.22809	0.97561
1.458	7.8786	-42911	2474.1	-0.12561	0.22751	0.97532
1.46	7.797	-42913	2473.7	-0.12493	0.22692	0.97502
1.462	7.656	-42915	2473.3	-0.12454	0.22692	0.97473
1.464	7.544	-42917	2472.9	-0.12415	0.22692	0.97444
1.466	7.5379	-42918	2472.5	-0.12376	0.22692	0.97415
1.468	7.6071	-42916	2472	-0.12337	0.22692	0.97385
1.47	7.7484	-42914	2471.6	-0.12298	0.22692	0.97356
1.472	7.886	-42920	2471.2	-0.12444	0.22702	0.97424
1.474	7.8986	-42927	2470.8	-0.1259	0.22712	0.97493
1.476	7.8408	-42923	2470.5	-0.12737	0.22721	0.97561
1.478	7.7015	-42920	2470.1	-0.12883	0.22731	0.97629
1.48	7.5398	-42926	2469.8	-0.1303	0.22741	0.97698
1.482	7.5323	-42932	2469.5	-0.12942	0.22663	0.97746
1.484	7.5859	-42938	2469.2	-0.12854	0.22585	0.97795
1.486	7.702	-42945	2468.9	-0.12766	0.22507	0.97844
1.488	7.8655	-42942	2468.6	-0.12678	0.22428	0.97893
1.49	7.8899	-42940	2468.3	-0.1259	0.2235	0.97942
1.492	7.8438	-42942	2468.1	-0.12454	0.2236	0.97873
1.494	7.7376	-42945	2467.8	-0.12317	0.2237	0.97805
1.496	7.5575	-42941	2467.6	-0.1218	0.2238	0.97737
1.498	7.4983	-42937	2467.4	-0.12044	0.22389	0.97668
1.5	7.5319	-42941	2467.2	-0.11907	0.22399	0.976
1.502	7.6295	-42946	2467	-0.11956	0.22389	0.97649
1.504	7.839	-42944	2466.8	-0.12005	0.2238	0.97698
1.506	7.8988	-42943	2466.6	-0.12054	0.2237	0.97746
1.508	7.868	-42947	2466.5	-0.12102	0.2236	0.97795
1.51	7.7702	-42951	2466.4	-0.12151	0.2235	0.97844
1.512	7.5771	-42956	2466.3	-0.122	0.22399	0.97854
1.514	7.4899	-42962	2466.3	-0.12249	0.22448	0.97864
1.516	7.5137	-42963	2466.2	-0.12298	0.22497	0.97873
1.518	7.5844	-42964	2466.2	-0.12346	0.22546	0.97883
1.52	7.7641	-42960	2466.1	-0.12395	0.22594	0.97893
1.522	7.8684	-42957	2466	-0.12376	0.22546	0.97932
1.524	7.8653	-42962	2466	-0.12356	0.22497	0.97971
1.526	7.8084	-42966	2465.9	-0.12337	0.22448	0.9801
1.528	7.655	-42974	2465.8	-0.12317	0.22399	0.98049
1.53	7.5229	-42981	2465.8	-0.12298	0.2235	0.98088
1.532	7.5081	-42980	2465.7	-0.12122	0.22526	0.97942
1.534	7.5648	-42979	2465.6	-0.11946	0.22702	0.97795
1.536	7.7043	-42982	2465.4	-0.11771	0.22877	0.97649
1.538	7.8253	-42985	2465.3	-0.11595	0.23053	0.97502
1.54	7.8458	-42985	2465.1	-0.11419	0.23229	0.97356
1.542	7.8217	-42985	2465	-0.11517	0.232	0.97405
1.544	7.7255	-42985	2464.8	-0.11614	0.2317	0.97454
1.546	7.5684	-42986	2464.7	-0.11712	0.23141	0.97502
1.548	7.4971	-42992	2464.5	-0.1181	0.23112	0.97551
1.55	7.5265	-42998	2464.4	-0.11907	0.23082	0.976
1.552	7.6231	-42996	2464.2	-0.11751	0.23141	0.97561
1.554	7.7904	-42994	2464.1	-0.11595	0.232	0.97522
1.556	7.8892	-43000	2463.9	-0.11439	0.23258	0.97483
1.558	7.8736	-43005	2463.8	-0.11283	0.23317	0.97444
1.56	7.7813	-43005	2463.6	-0.11126	0.23375	0.97405
1.562	7.6252	-43006	2463.5	-0.11156	0.23375	0.97376
1.564	7.4993	-43007	2463.3	-0.11185	0.23375	0.97346
1.566	7.507	-43008	2463.2	-0.11214	0.23375	0.97317
1.568	7.5919	-43014	2463.1	-0.11244	0.23375	0.97288
1.57	7.7365	-43019	2463	-0.11273	0.23375	0.97258
1.572	7.8715	-43019	2462.8	-0.11263	0.23385	0.97288
1.574	7.8691	-43020	2462.6	-0.11253	0.23395	0.97317
1.576	7.8158	-43024	2462.4	-0.11244	0.23404	0.97346
1.578	7.6577	-43028	2462.3	-0.11234	0.23414	0.97376
1.58	7.4837	-43031	2462.1	-0.11224	0.23424	0.97405
1.582	7.4581	-43034	2462	-0.11312	0.23365	0.97356
1.584	7.5216	-43033	2461.8	-0.114	0.23307	0.97307
1.586	7.6787	-43032	2461.7	-0.11488	0.23248	0.97258
1.588	7.8626	-43033	2461.5	-0.11575	0.2319	0.9721
1.59	7.8739	-43035	2461.3	-0.11663	0.23131	0.97161
1.592	7.8418	-43043	2461.2	-0.11614	0.23229	0.972
1.594	7.7235	-43052	2461	-0.11566	0.23326	0.97239
1.596	7.5356	-43046	2460.8	-0.11517	0.23424	0.97278
1.598	7.486	-43040	2460.6	-0.11468	0.23522	0.97317
1.6	7.523	-43040	2460.5	-0.11419	0.23619	0.97356
1.602	7.6232	-43040	2460.3	-0.11429	0.23531	0.97376
1.604	7.8074	-43044	2460.1	-0.11439	0.23444	0.97395
1.606	7.89	-43048	2459.9	-0.11448	0.23356	0.97415
1.608	7.8779	-43051	2459.7	-0.11458	0.23268	0.97434
1.61	7.81	-43054	2459.5	-0.11468	0.2318	0.97454
1.612	7.6276	-43061	2459.2	-0.11536	0.2318	0.97376
1.614	7.506	-43068	2459	-0.11605	0.2318	0.97297
1.616	7.5301	-43068	2458.7	-0.11673	0.2318	0.97219
1.618	7.6151	-43068	2458.5	-0.11741	0.2318	0.97141
1.62	7.7664	-43065	2458.3	-0.1181	0.2318	0.97063
1.622	7.8792	-43062	2458.1	-0.11936	0.23082	0.97014
1.624	7.8773	-43067	2457.9	-0.12063	0.22985	0.96966
1.626	7.8165	-43072	2457.7	-0.1219	0.22887	0.96917
1.628	7.6911	-43071	2457.5	-0.12317	0.2279	0.96868
1.63	7.5689	-43070	2457.3	-0.12444	0.22692	0.96819
1.632	7.5424	-43070	2457.1	-0.12327	0.22702	0.96839
1.634	7.571	-43071	2456.9	-0.1221	0.22712	0.96858
1.636	7.6824	-43080	2456.8	-0.12093	0.22721	0.96878
1.638	7.853	-43089	2456.6	-0.11976	0.22731	0.96897
1.64	7.9171	-43092	2456.4	-0.11858	0.22741	0.96917
1.642	7.876	-43095	2456.2	-0.11966	0.2277	0.96858
1.644	7.7608	-43098	2456	-0.12073	0.22799	0.968
1.646	7.6065	-43101	2455.8	-0.1218	0.22829	0.96741
1.648	7.5563	-43104	2455.6	-0.12288	0.22858	0.96683
1.65	7.5775	-43107	2455.4	-0.12395	0.22887	0.96624
1.652	7.6538	-43107	2455.2	-0.12327	0.22877	0.96702
1.654	7.8339	-43106	2455	-0.12259	0.22868	0.9678
1.656	7.9021	-43107	2454.8	-0.1219	0.22858	0.96858
1.658	7.8965	-43108	2454.6	-0.12122	0.22848	0.96936
1.66	7.8513	-43116	2454.4	-0.12054	0.22838	0.97014
1.662	7.6641	-43123	2454.2	-0.12083	0.22751	0.97141
1.664	7.554	-43120	2453.9	-0.12112	0.22663	0.97268
1.666	7.5811	-43117	2453.7	-0.12141	0.22575	0.97395
1.668	7.6431	-43117	2453.5	-0.12171	0.22487	0.97522
1.67	7.8138	-43117	2453.3	-0.122	0.22399	0.97649
1.672	7.9331	-43124	2453	-0.12268	0.22438	0.97639
1.674	7.9224	-43130	2452.8	-0.12337	0.22477	0.97629
1.676	7.8859	-43133	2452.5	-0.12405	0.22516	0.9762
1.678	7.738	-43135	2452.2	-0.12473	0.22555	0.9761
1.68	7.5789	-43139	2452	-0.12542	0.22594	0.976
1.682	7.5534	-43142	2451.7	-0.12483	0.22614	0.9759
1.684	7.5729	-43146	2451.4	-0.12424	0.22633	0.9758
1.686	7.7149	-43150	2451.1	-0.12366	0.22653	0.97571
1.688	7.8608	-43153	2450.8	-0.12307	0.22672	0.97561
1.69	7.8586	-43156	2450.5	-0.12249	0.22692	0.97551
1.692	7.822	-43160	2450.2	-0.12151	0.22721	0.97532
1.694	7.7194	-43163	2449.9	-0.12054	0.22751	0.97512
1.696	7.5553	-43170	2449.6	-0.11956	0.2278	0.97493
1.698	7.4936	-43177	2449.2	-0.11858	0.22809	0.97473
1.7	7.5122	-43177	2448.9	-0.11761	0.22838	0.97454
1.702	7.6157	-43178	2448.6	-0.11946	0.22731	0.97561
1.704	7.7814	-43176	2448.3	-0.12132	0.22624	0.97668
1.706	7.8481	-43174	2447.9	-0.12317	0.22516	0.97776
1.708	7.8447	-43177	2447.6	-0.12503	0.22409	0.97883
1.71	7.7791	-43181	2447.2	-0.12688	0.22302	0.9799
1.712	7.6116	-43181	2446.9	-0.12571	0.22331	0.97903
1.714	7.5103	-43182	2446.5	-0.12454	0.2236	0.97815
1.716	7.5284	-43181	2446.1	-0.12337	0.22389	0.97727
1.718	7.5881	-43181	2445.8	-0.1222	0.22419	0.97639
1.72	7.7107	-43188	2445.5	-0.12102	0.22448	0.97551
1.722	7.8233	-43196	2445.2	-0.1221	0.22458	0.97639
1.724	7.842	-43200	2444.8	-0.12317	0.22468	0.97727
1.726	7.7913	-43204	2444.5	-0.12424	0.22477	0.97815
1.728	7.6595	-43206	2444.2	-0.12532	0.22487	0.97903
1.73	7.5162	-43208	2443.9	-0.12639	0.22497	0.9799
1.732	7.4865	-43214	2443.6	-0.12483	0.22585	0.97815
1.734	7.5224	-43220	2443.4	-0.12327	0.22672	0.97639
1.736	7.6316	-43224	2443.1	-0.12171	0.2276	0.97463
1.738	7.813	-43229	2442.9	-0.12015	0.22848	0.97288
1.74	7.8704	-43229	2442.6	-0.11858	0.22936	0.97112
1.742	7.8284	-43229	2442.3	-0.11888	0.22887	0.9721
1.744	7.7193	-43232	2442	-0.11917	0.22838	0.97307
1.746	7.5444	-43234	2441.7	-0.11946	0.2279	0.97405
1.748	7.4577	-43239	2441.4	-0.11976	0.22741	0.97502
1.75	7.4769	-43245	2441.1	-0.12005	0.22692	0.976
1.752	7.5417	-43247	2440.9	-0.12005	0.22633	0.97639
1.754	7.7406	-43249	2440.6	-0.12005	0.22575	0.97678
1.756	7.831	-43246	2440.3	-0.12005	0.22516	0.97717
1.758	7.775	-43242	2440	-0.12005	0.22458	0.97756
1.76	7.724	-43240	2439.8	-0.12005	0.22399	0.97795
1.762	7.5782	-43237	2439.5	-0.12054	0.22389	0.97815
1.764	7.4893	-43256	2439.2	-0.12102	0.2238	0.97834
1.766	7.5341	-43275	2438.9	-0.12151	0.2237	0.97854
1.768	7.644	-43278	2438.6	-0.122	0.2236	0.97873
1.77	7.8429	-43281	2438.3	-0.12249	0.2235	0.97893
1.772	8.0128	-43278	2438.1	-0.12307	0.2235	0.97854
1.774	8.0715	-43275	2437.8	-0.12366	0.2235	0.97815
1.776	8.1003	-43276	2437.5	-0.12424	0.2235	0.97776
1.778	8.0253	-43278	2437.2	-0.12483	0.2235	0.97737
1.78	7.9295	-43282	2437	-0.12542	0.2235	0.97698
1.782	7.9694	-43286	2436.6	-0.12288	0.22448	0.97571
1.784	8.0823	-43289	2436.3	-0.12034	0.22546	0.97444
1.786	8.252	-43292	2436	-0.1178	0.22643	0.97317
1.788	8.4168	-43297	2435.7	-0.11527	0.22741	0.9719
1.79	8.4569	-43302	2435.4	-0.11273	0.22838	0.97063
1.792	8.4074	-43304	2435.1	-0.1139	0.22868	0.97005
1.794	8.2794	-43307	2434.8	-0.11507	0.22897	0.96946
1.796	8.079	-43310	2434.4	-0.11624	0.22926	0.96888
1.798	7.9054	-43314	2434	-0.11741	0.22956	0.96829
1.8	7.7976	-43323	2433.6	-0.11858	0.22985	0.9677
1.802	7.7847	-43332	2433.3	-0.1181	0.22965	0.96848
1.804	7.8669	-43337	2432.9	-0.11761	0.22946	0.96927
1.806	7.8873	-43342	2432.6	-0.11712	0.22926	0.97005
1.808	7.804	-43341	2432.4	-0.11663	0.22907	0.97083
1.81	7.6895	-43341	2432.1	-0.11614	0.22887	0.97161
1.812	7.5106	-43347	2431.9	-0.11546	0.22936	0.97112
1.814	7.3838	-43352	2431.6	-0.11478	0.22985	0.97063
1.816	7.3987	-43354	2431.3	-0.11409	0.23034	0.97014
1.818	7.5026	-43355	2431.1	-0.11341	0.23082	0.96966
1.82	7.6711	-43363	2430.8	-0.11273	0.23131	0.96917
1.822	7.8103	-43371	2430.5	-0.11292	0.2316	0.97014
1.824	7.8058	-43363	2430.3	-0.11312	0.2319	0.97112
1.826	7.7729	-43355	2430	-0.11331	0.23219	0.9721
1.828	7.6561	-43366	2429.8	-0.11351	0.23248	0.97307
1.83	7.4763	-43377	2429.6	-0.1137	0.23278	0.97405
1.832	7.4413	-43378	2429.3	-0.11439	0.23268	0.97366
1.834	7.4807	-43378	2429	-0.11507	0.23258	0.97327
1.836	7.6063	-43382	2428.7	-0.11575	0.23248	0.97288
1.838	7.8407	-43385	2428.5	-0.11644	0.23239	0.97249
1.84	7.8694	-43386	2428.3	-0.11712	0.23229	0.9721
1.842	7.7973	-43386	2428.2	-0.11732	0.23239	0.9718
1.844	7.6976	-43386	2428.1	-0.11751	0.23248	0.97151
1.846	7.486	-43385	2428.1	-0.11771	0.23258	0.97122
1.848	7.4344	-43397	2428.1	-0.1179	0.23268	0.97092
1.85	7.47	-43409	2428.1	-0.1181	0.23278	0.97063
1.852	7.559	-43408	2428	-0.11751	0.2318	0.97092
1.854	7.7652	-43408	2428	-0.11692	0.23082	0.97122
1.856	7.8408	-43409	2427.9	-0.11634	0.22985	0.97151
1.858	7.803	-43410	2427.7	-0.11575	0.22887	0.9718
1.86	7.7258	-43414	2427.5	-0.11517	0.2279	0.9721
1.862	7.5772	-43418	2427.2	-0.11605	0.2279	0.97229
1.864	7.476	-43422	2426.9	-0.11692	0.2279	0.97249
1.866	7.4512	-43426	2426.6	-0.1178	0.2279	0.97268
1.868	7.498	-43429	2426.3	-0.11868	0.2279	0.97288
1.87	7.667	-43432	2425.9	-0.11956	0.2279	0.97307
1.872	7.8186	-43438	2425.6	-0.11966	0.22751	0.97297
1.874	7.8579	-43443	2425.2	-0.11976	0.22712	0.97288
1.876	7.8122	-43445	2424.8	-0.11985	0.22672	0.97278
1.878	7.6604	-43447	2424.4	-0.11995	0.22633	0.97268
1.88	7.5036	-43456	2424.1	-0.12005	0.22594	0.97258
1.882	7.4584	-43465	2423.8	-0.11936	0.22712	0.97229
1.884	7.5091	-43465	2423.5	-0.11868	0.22829	0.972
1.886	7.6442	-43466	2423.2	-0.118	0.22946	0.97171
1.888	7.7966	-43468	2423	-0.11732	0.23063	0.97141
1.89	7.8511	-43471	2422.7	-0.11663	0.2318	0.97112
1.892	7.8105	-43474	2422.5	-0.11732	0.23082	0.97063
1.894	7.6958	-43476	2422.3	-0.118	0.22985	0.97014
1.896	7.5417	-43483	2422.3	-0.11868	0.22887	0.96966
1.898	7.4761	-43491	2422.4	-0.11936	0.2279	0.96917
1.9	7.5133	-43488	2422.5	-0.12005	0.22692	0.96868
1.902	7.6035	-43485	2423.4	-0.12161	0.22819	0.9679
1.904	7.7608	-43488	2424.3	-0.12317	0.22946	0.96712
1.906	7.8433	-43490	2425.7	-0.12473	0.23073	0.96634
1.908	7.8223	-43499	2427.6	-0.12629	0.232	0.96556
1.91	7.7646	-43508	2429.5	-0.12786	0.23326	0.96478
1.912	7.6022	-43508	2432	-0.12639	0.23209	0.96614
1.914	7.4888	-43507	2434.5	-0.12493	0.23092	0.96751
1.916	7.5003	-43515	2437.1	-0.12346	0.22975	0.96888
1.918	7.5531	-43522	2439.8	-0.122	0.22858	0.97024
1.92	7.7166	-43526	2442.5	-0.12054	0.22741	0.97161
1.922	7.8807	-43531	2445.4	-0.12093	0.2277	0.9721
1.924	7.8833	-43528	2448.3	-0.12132	0.22799	0.97258
1.926	7.8314	-43525	2451.3	-0.12171	0.22829	0.97307
1.928	7.6842	-43526	2454.4	-0.1221	0.22858	0.97356
1.93	7.5271	-43526	2457.5	-0.12249	0.22887	0.97405
1.932	7.505	-43530	2460.6	-0.12424	0.22897	0.97473
1.934	7.5443	-43533	2463.7	-0.126	0.22907	0.97541
1.936	7.6992	-43538	2466.7	-0.12776	0.22916	0.9761
1.938	7.9226	-43543	2469.6	-0.12952	0.22926	0.97678
1.94	7.9373	-43542	2472.5	-0.13127	0.22936	0.97746
1.942	7.864	-43541	2474.9	-0.13205	0.22829	0.97854
1.944	7.7537	-43541	2477.4	-0.13283	0.22721	0.97961
1.946	7.5975	-43541	2479.8	-0.13361	0.22614	0.98068
1.948	7.5255	-43537	2481.9	-0.1344	0.22507	0.98176
1.95	7.5575	-43532	2484.1	-0.13518	0.22399	0.98283
1.952	7.6744	-43532	2486	-0.1344	0.22438	0.98312
1.954	7.8381	-43533	2487.9	-0.13361	0.22477	0.98342
1.956	7.9225	-43529	2489.6	-0.13283	0.22516	0.98371
1.958	7.9186	-43525	2491.3	-0.13205	0.22555	0.984
1.96	7.8493	-43525	2492.9	-0.13127	0.22594	0.9843
1.962	7.714	-43526	2494.3	-0.12961	0.22633	0.98195
1.964	7.6142	-43521	2495.7	-0.12795	0.22672	0.97961
1.966	7.6118	-43517	2497	-0.12629	0.22712	0.97727
1.968	7.6868	-43513	2498.2	-0.12464	0.22751	0.97493
1.97	7.8345	-43509	2499.5	-0.12298	0.2279	0.97258
1.972	7.9657	-43507	2500.4	-0.12337	0.22751	0.97346
1.974	7.9924	-43505	2501.3	-0.12376	0.22712	0.97434
1.976	7.939	-43501	2502.1	-0.12415	0.22672	0.97522
1.978	7.8071	-43497	2502.9	-0.12454	0.22633	0.9761
1.98	7.669	-43486	2503.7	-0.12493	0.22594	0.97698
1.982	7.6566	-43475	2504.3	-0.12346	0.22604	0.9762
1.984	7.725	-43469	2504.8	-0.122	0.22614	0.97541
1.986	7.8446	-43463	2505.4	-0.12054	0.22624	0.97463
1.988	8.0065	-43460	2506	-0.11907	0.22633	0.97385
1.99	8.0443	-43458	2506.6	-0.11761	0.22643	0.97307
1.992	8.012	-43450	2507	-0.11712	0.22702	0.97249
1.994	7.9327	-43442	2507.4	-0.11663	0.2276	0.9719
1.996	7.7663	-43440	2507.7	-0.11614	0.22819	0.97132
1.998	7.6972	-43437	2508	-0.11566	0.22877	0.97073
2	7.7432	-43429	2508.3	-0.11517	0.22936	0.97014
2.002	7.8282	-43421	2508.4	-0.11585	0.22985	0.97014
2.004	8.0148	-43411	2508.6	-0.11653	0.23034	0.97014
2.006	8.1233	-43400	2508.7	-0.11722	0.23082	0.97014
2.008	8.0803	-43394	2508.8	-0.1179	0.23131	0.97014
2.01	8.0102	-43388	2508.9	-0.11858	0.2318	0.97014
2.012	7.8294	-43382	2508.9	-0.11927	0.23053	0.97005
2.014	7.726	-43376	2508.9	-0.11995	0.22926	0.96995
2.016	7.7451	-43364	2508.9	-0.12063	0.22799	0.96985
2.018	7.7971	-43352	2508.8	-0.12132	0.22672	0.96975
2.02	7.9591	-43341	2508.8	-0.122	0.22546	0.96966
2.022	8.098	-43331	2508.6	-0.12268	0.22526	0.97122
2.024	8.0976	-43328	2508.4	-0.12337	0.22507	0.97278
2.026	8.0668	-43325	2508.2	-0.12405	0.22487	0.97434
2.028	7.9308	-43316	2507.9	-0.12473	0.22468	0.9759
2.03	7.7838	-43307	2507.7	-0.12542	0.22448	0.97746
2.032	7.7353	-43302	2507.3	-0.12259	0.22575	0.9761
2.034	7.7476	-43297	2507	-0.11976	0.22702	0.97473
2.036	7.8856	-43285	2506.7	-0.11692	0.22829	0.97336
2.038	8.0419	-43274	2506.3	-0.11409	0.22956	0.972
2.04	8.078	-43269	2506	-0.11126	0.23082	0.97063
2.042	8.0419	-43263	2505.6	-0.11312	0.23034	0.96956
2.044	7.9051	-43262	2505.2	-0.11497	0.22985	0.96848
2.046	7.7319	-43260	2504.8	-0.11683	0.22936	0.96741
2.048	7.6639	-43249	2504.4	-0.11868	0.22887	0.96634
2.05	7.6939	-43238	2504	-0.12054	0.22838	0.96526
2.052	7.7942	-43229	2503.7	-0.11936	0.22926	0.96585
2.054	7.9345	-43220	2503.3	-0.11819	0.23014	0.96644
2.056	8.0022	-43214	2502.9	-0.11702	0.23102	0.96702
2.058	7.9785	-43208	2502.5	-0.11585	0.2319	0.96761
2.06	7.9018	-43203	2502.2	-0.11468	0.23278	0.96819
2.062	7.7635	-43197	2501.8	-0.11478	0.23268	0.96858
2.064	7.6478	-43193	2501.5	-0.11488	0.23258	0.96897
2.066	7.6295	-43188	2501.2	-0.11497	0.23248	0.96936
2.068	7.6845	-43181	2500.9	-0.11507	0.23239	0.96975
2.07	7.82	-43174	2500.5	-0.11517	0.23229	0.97014
2.072	7.9533	-43168	2500.2	-0.11458	0.23209	0.97034
2.074	7.9641	-43162	2499.8	-0.114	0.2319	0.97053
2.076	7.9029	-43157	2499.4	-0.11341	0.2317	0.97073
2.078	7.7704	-43151	2499.1	-0.11283	0.23151	0.97092
2.08	7.5917	-43146	2498.7	-0.11224	0.23131	0.97112
2.082	7.5538	-43140	2498.3	-0.1137	0.23073	0.97171
2.084	7.6162	-43132	2497.9	-0.11517	0.23014	0.97229
2.086	7.732	-43124	2497.5	-0.11663	0.22956	0.97288
2.088	7.9106	-43124	2497.1	-0.1181	0.22897	0.97346
2.09	7.9599	-43123	2496.7	-0.11956	0.22838	0.97405
2.092	7.9081	-43118	2496.3	-0.11956	0.22907	0.97444
2.094	7.8301	-43113	2495.8	-0.11956	0.22975	0.97483
2.096	7.6259	-43109	2495.5	-0.11956	0.23043	0.97522
2.098	7.5517	-43105	2495.1	-0.11956	0.23112	0.97561
2.1	7.5818	-43102	2494.7	-0.11956	0.2318	0.976
2.102	7.6614	-43099	2494.2	-0.12054	0.23082	0.976
2.104	7.8532	-43097	2493.8	-0.12151	0.22985	0.976
2.106	7.9338	-43095	2493.3	-0.12249	0.22887	0.976
2.108	7.9177	-43092	2492.8	-0.12346	0.2279	0.976
2.11	7.8552	-43089	2492.3	-0.12444	0.22692	0.976
2.112	7.6696	-43080	2491.7	-0.12385	0.22633	0.97649
2.114	7.5387	-43072	2491.1	-0.12327	0.22575	0.97698
2.116	7.5498	-43073	2490.5	-0.12268	0.22516	0.97746
2.118	7.6273	-43074	2489.9	-0.1221	0.22458	0.97795
2.12	7.7866	-43070	2489.3	-0.12151	0.22399	0.97844
2.122	7.9082	-43066	2488.6	-0.12141	0.22448	0.97698
2.124	7.9081	-43062	2488	-0.12132	0.22497	0.97551
2.126	7.8683	-43058	2487.3	-0.12122	0.22546	0.97405
2.128	7.7265	-43058	2486.6	-0.12112	0.22594	0.97258
2.13	7.5589	-43057	2485.9	-0.12102	0.22643	0.97112
2.132	7.5128	-43058	2485.2	-0.11995	0.22672	0.97132
2.134	7.5705	-43059	2484.5	-0.11888	0.22702	0.97151
2.136	7.7103	-43059	2483.8	-0.1178	0.22731	0.97171
2.138	7.8742	-43060	2483.1	-0.11673	0.2276	0.9719
2.14	7.9318	-43060	2482.4	-0.11566	0.2279	0.9721
2.142	7.8844	-43061	2481.8	-0.11634	0.22712	0.97151
2.144	7.7704	-43054	2481.1	-0.11702	0.22633	0.97092
2.146	7.6178	-43047	2480.5	-0.11771	0.22555	0.97034
2.148	7.5472	-43044	2479.9	-0.11839	0.22477	0.96975
2.15	7.577	-43041	2479.3	-0.11907	0.22399	0.96917
2.152	7.6585	-43039	2478.6	-0.11936	0.22477	0.97034
2.154	7.8095	-43037	2477.9	-0.11966	0.22555	0.97151
2.156	7.9247	-43042	2477.3	-0.11995	0.22633	0.97268
2.158	7.9086	-43047	2476.6	-0.12024	0.22712	0.97385
2.16	7.7993	-43046	2476	-0.12054	0.2279	0.97502
2.162	7.645	-43045	2475.3	-0.12171	0.22741	0.97551
2.164	7.5424	-43044	2474.7	-0.12288	0.22692	0.976
2.166	7.5606	-43043	2474.1	-0.12405	0.22643	0.97649
2.168	7.6092	-43046	2473.4	-0.12522	0.22594	0.97698
2.17	7.7423	-43049	2472.8	-0.12639	0.22546	0.97746
2.172	7.8925	-43053	2472.2	-0.12649	0.22585	0.97717
2.174	7.9173	-43056	2471.6	-0.12659	0.22624	0.97688
2.176	7.8784	-43054	2471	-0.12668	0.22663	0.97659
2.178	7.7165	-43053	2470.4	-0.12678	0.22702	0.97629
2.18	7.5218	-43051	2469.8	-0.12688	0.22741	0.976
2.182	7.5292	-43049	2469.3	-0.126	0.22702	0.9761
2.184	7.5466	-43048	2468.8	-0.12512	0.22663	0.9762
2.186	7.6826	-43046	2468.3	-0.12424	0.22624	0.97629
2.188	7.8665	-43051	2467.9	-0.12337	0.22585	0.97639
2.19	7.9279	-43056	2467.4	-0.12249	0.22546	0.97649
2.192	7.9012	-43058	2466.9	-0.12278	0.22575	0.97639
2.194	7.7694	-43061	2466.4	-0.12307	0.22604	0.97629
2.196	7.5829	-43060	2466	-0.12337	0.22633	0.9762
2.198	7.5119	-43060	2465.6	-0.12366	0.22663	0.9761
2.2	7.5317	-43056	2465.2	-0.12395	0.22692	0.976
2.202	7.624	-43052	2464.8	-0.12376	0.22741	0.97541
2.204	7.7946	-43052	2464.4	-0.12356	0.2279	0.97483
2.206	7.879	-43052	2464.1	-0.12337	0.22838	0.97424
2.208	7.8706	-43054	2463.9	-0.12317	0.22887	0.97366
2.21	7.7821	-43056	2463.6	-0.12298	0.22936	0.97307
2.212	7.6201	-43057	2463.3	-0.12405	0.22897	0.97434
2.214	7.5357	-43058	2463.1	-0.12512	0.22858	0.97561
2.216	7.5401	-43060	2462.8	-0.1262	0.22819	0.97688
2.218	7.589	-43061	2462.6	-0.12727	0.2278	0.97815
2.22	7.7334	-43066	2462.4	-0.12834	0.22741	0.97942
2.222	7.8607	-43072	2462.1	-0.12571	0.22731	0.97834
2.224	7.8851	-43072	2461.9	-0.12307	0.22721	0.97727
2.226	7.8356	-43072	2461.7	-0.12044	0.22712	0.9762
2.228	7.6961	-43073	2461.5	-0.1178	0.22702	0.97512
2.23	7.553	-43073	2461.3	-0.11517	0.22692	0.97405
2.232	7.5158	-43077	2461.1	-0.11556	0.22702	0.97405
2.234	7.5624	-43081	2461	-0.11595	0.22712	0.97405
2.236	7.6847	-43082	2460.9	-0.11634	0.22721	0.97405
2.238	7.826	-43083	2460.8	-0.11673	0.22731	0.97405
2.24	7.8807	-43086	2460.7	-0.11712	0.22741	0.97405
2.242	7.8536	-43088	2460.6	-0.11683	0.22799	0.97395
2.244	7.7396	-43090	2460.6	-0.11653	0.22858	0.97385
2.246	7.5552	-43093	2460.5	-0.11624	0.22916	0.97376
2.248	7.4871	-43097	2460.4	-0.11595	0.22975	0.97366
2.25	7.5374	-43102	2460.4	-0.11566	0.23034	0.97356
2.252	7.6125	-43102	2460.4	-0.11644	0.22965	0.97317
2.254	7.77	-43103	2460.3	-0.11722	0.22897	0.97278
2.256	7.8831	-43102	2460.3	-0.118	0.22829	0.97239
2.258	7.8599	-43100	2460.4	-0.11878	0.2276	0.972
2.26	7.8146	-43103	2460.4	-0.11956	0.22692	0.97161
2.262	7.67	-43106	2460.3	-0.11956	0.2276	0.97229
2.264	7.504	-43106	2460.3	-0.11956	0.22829	0.97297
2.266	7.5275	-43107	2460.3	-0.11956	0.22897	0.97366
2.268	7.5629	-43107	2460.2	-0.11956	0.22965	0.97434
2.27	7.7057	-43107	2460.2	-0.11956	0.23034	0.97502
2.272	7.8647	-43109	2460.1	-0.12024	0.22936	0.97561
2.274	7.8699	-43112	2460.1	-0.12093	0.22838	0.9762
2.276	7.8343	-43117	2460	-0.12161	0.22741	0.97678
2.278	7.7064	-43123	2459.9	-0.12229	0.22643	0.97737
2.28	7.5526	-43128	2459.8	-0.12298	0.22546	0.97795
2.282	7.5254	-43133	2459.7	-0.1222	0.22594	0.97698
2.284	7.5382	-43132	2459.6	-0.12141	0.22643	0.976
2.286	7.64	-43132	2459.5	-0.12063	0.22692	0.97502
2.288	7.8171	-43133	2459.3	-0.11985	0.22741	0.97405
2.29	7.8755	-43133	2459.2	-0.11907	0.2279	0.97307
2.292	7.852	-43137	2459.1	-0.11936	0.22702	0.97356
2.294	7.7561	-43140	2458.9	-0.11966	0.22614	0.97405
2.296	7.5899	-43143	2458.8	-0.11995	0.22526	0.97454
2.298	7.51	-43146	2458.7	-0.12024	0.22438	0.97502
2.3	7.5176	-43144	2458.5	-0.12054	0.2235	0.97551
2.302	7.623	-43143	2458.3	-0.12132	0.2238	0.97551
2.304	7.7975	-43143	2458.1	-0.1221	0.22409	0.97551
2.306	7.8882	-43144	2457.9	-0.12288	0.22438	0.97551
2.308	7.8737	-43145	2457.7	-0.12366	0.22468	0.97551
2.31	7.7999	-43147	2457.4	-0.12444	0.22497	0.97551
2.312	7.6502	-43149	2457.2	-0.12366	0.22477	0.97522
2.314	7.5233	-43151	2457	-0.12288	0.22458	0.97493
2.316	7.5153	-43162	2456.8	-0.1221	0.22438	0.97463
2.318	7.5871	-43172	2456.6	-0.12132	0.22419	0.97434
2.32	7.7341	-43169	2456.4	-0.12054	0.22399	0.97405
2.322	7.877	-43167	2456.3	-0.12044	0.2238	0.97444
2.324	7.8971	-43171	2456.1	-0.12034	0.2236	0.97483
2.326	7.8534	-43175	2456	-0.12024	0.22341	0.97522
2.328	7.7291	-43182	2455.8	-0.12015	0.22321	0.97561
2.33	7.556	-43189	2455.7	-0.12005	0.22302	0.976
2.332	7.5148	-43190	2455.4	-0.12122	0.2237	0.9758
2.334	7.5674	-43191	2455.2	-0.12239	0.22438	0.97561
2.336	7.6765	-43184	2455	-0.12356	0.22507	0.97541
2.338	7.8649	-43178	2454.8	-0.12473	0.22575	0.97522
2.34	7.9178	-43185	2454.5	-0.1259	0.22643	0.97502
2.342	7.8708	-43191	2454.3	-0.1259	0.22624	0.97561
2.344	7.7645	-43195	2454	-0.1259	0.22604	0.9762
2.346	7.5968	-43198	2453.7	-0.1259	0.22585	0.97678
2.348	7.5289	-43199	2453.4	-0.1259	0.22565	0.97737
2.35	7.5531	-43199	2453.1	-0.1259	0.22546	0.97795
2.352	7.6159	-43202	2452.8	-0.12532	0.22594	0.97659
2.354	7.7861	-43205	2452.5	-0.12473	0.22643	0.97522
2.356	7.9268	-43207	2452.2	-0.12415	0.22692	0.97385
2.358	7.9153	-43208	2452	-0.12356	0.22741	0.97249
2.36	7.86	-43210	2451.7	-0.12298	0.2279	0.97112
2.362	7.6727	-43211	2451.4	-0.12366	0.2276	0.9718
2.364	7.5491	-43216	2451.1	-0.12434	0.22731	0.97249
2.366	7.5414	-43220	2450.9	-0.12503	0.22702	0.97317
2.368	7.5924	-43224	2450.6	-0.12571	0.22672	0.97385
2.37	7.7754	-43227	2450.4	-0.12639	0.22643	0.97454
2.372	7.9268	-43227	2450.1	-0.126	0.22624	0.97493
2.374	7.9184	-43228	2449.8	-0.12561	0.22604	0.97532
2.376	7.8652	-43229	2449.6	-0.12522	0.22585	0.97571
2.378	7.7401	-43229	2449.3	-0.12483	0.22565	0.9761
2.38	7.5937	-43231	2449.1	-0.12444	0.22546	0.97649
2.382	7.547	-43233	2448.8	-0.12424	0.22477	0.97629
2.384	7.6121	-43238	2448.5	-0.12405	0.22409	0.9761
2.386	7.7576	-43243	2448.2	-0.12385	0.22341	0.9759
2.388	7.8969	-43249	2447.9	-0.12366	0.22272	0.97571
2.39	7.9347	-43254	2447.6	-0.12346	0.22204	0.97551
2.392	7.8906	-43256	2447.3	-0.12366	0.22282	0.97522
2.394	7.7758	-43258	2447.1	-0.12385	0.2236	0.97493
2.396	7.61	-43254	2446.8	-0.12405	0.22438	0.97463
2.398	7.5137	-43250	2446.5	-0.12424	0.22516	0.97434
2.4	7.5308	-43254	2446.2	-0.12444	0.22594	0.97405
2.402	7.6205	-43258	2445.9	-0.12307	0.22663	0.97307
2.404	7.7589	-43263	2445.6	-0.12171	0.22731	0.9721
2.406	7.8537	-43267	2445.3	-0.12034	0.22799	0.97112
2.408	7.8495	-43267	2445	-0.11897	0.22868	0.97014
2.41	7.7875	-43266	2444.7	-0.11761	0.22936	0.96917
2.412	7.6464	-43274	2444.5	-0.11907	0.2278	0.97132
2.414	7.5045	-43283	2444.2	-0.12054	0.22624	0.97346
2.416	7.5054	-43281	2443.9	-0.122	0.22468	0.97561
2.418	7.5739	-43280	2443.6	-0.12346	0.22311	0.97776
2.42	7.7041	-43279	2443.3	-0.12493	0.22155	0.9799
2.422	7.8423	-43278	2443	-0.12512	0.22214	0.97981
2.424	7.8542	-43285	2442.7	-0.12532	0.22272	0.97971
2.426	7.8117	-43292	2442.3	-0.12551	0.22331	0.97961
2.428	7.6936	-43296	2441.9	-0.12571	0.22389	0.97951
2.43	7.5327	-43299	2441.6	-0.1259	0.22448	0.97942
2.432	7.4943	-43301	2441.2	-0.12571	0.22438	0.97932
2.434	7.5184	-43303	2440.9	-0.12551	0.22428	0.97922
2.436	7.6324	-43303	2440.5	-0.12532	0.22419	0.97912
2.438	7.8349	-43304	2440.2	-0.12512	0.22409	0.97903
2.44	7.8767	-43309	2439.8	-0.12493	0.22399	0.97893
2.442	7.8452	-43315	2439.5	-0.12424	0.22448	0.97854
2.444	7.7326	-43321	2439.2	-0.12356	0.22497	0.97815
2.446	7.5376	-43327	2438.8	-0.12288	0.22546	0.97776
2.448	7.4716	-43323	2438.5	-0.1222	0.22594	0.97737
2.45	7.4681	-43318	2438.1	-0.12151	0.22643	0.97698
2.452	7.5414	-43327	2437.8	-0.12112	0.22624	0.97668
2.454	7.7596	-43336	2437.5	-0.12073	0.22604	0.97639
2.456	7.8648	-43338	2437.2	-0.12034	0.22585	0.9761
2.458	7.8407	-43339	2436.9	-0.11995	0.22565	0.9758
2.46	7.7762	-43337	2436.6	-0.11956	0.22546	0.97551
2.462	7.6216	-43335	2436.3	-0.12083	0.22516	0.97639
2.464	7.5034	-43340	2436	-0.1221	0.22487	0.97727
2.466	7.4643	-43345	2435.7	-0.12337	0.22458	0.97815
2.468	7.4881	-43350	2435.3	-0.12464	0.22428	0.97903
2.47	7.6443	-43355	2435	-0.1259	0.22399	0.9799
2.472	7.8193	-43352	2434.6	-0.12571	0.2238	0.97942
2.474	7.8818	-43349	2434.3	-0.12551	0.2236	0.97893
2.476	7.8551	-43358	2434	-0.12532	0.22341	0.97844
2.478	7.7325	-43368	2433.8	-0.12512	0.22321	0.97795
2.48	7.6155	-43366	2433.5	-0.12493	0.22302	0.97746
2.482	7.6276	-43363	2433.3	-0.12473	0.22272	0.97746
2.484	7.731	-43367	2433	-0.12454	0.22243	0.97746
2.486	7.912	-43371	2432.7	-0.12434	0.22214	0.97746
2.488	8.1205	-43373	2432.4	-0.12415	0.22184	0.97746
2.49	8.235	-43376	2432.1	-0.12395	0.22155	0.97746
2.492	8.2766	-43378	2431.8	-0.12376	0.22243	0.97668
2.494	8.2486	-43380	2431.5	-0.12356	0.22331	0.9759
2.496	8.1166	-43384	2431.2	-0.12337	0.22419	0.97512
2.498	8.0266	-43389	2430.9	-0.12317	0.22507	0.97434
2.5	8.052	-43392	2430.5	-0.12298	0.22594	0.97356
2.502	8.1146	-43396	2430.2	-0.12337	0.22507	0.97463
2.504	8.2346	-43402	2429.8	-0.12376	0.22419	0.97571
2.506	8.2934	-43408	2429.5	-0.12415	0.22331	0.97678
2.508	8.1974	-43409	2429.2	-0.12454	0.22243	0.97785
2.51	8.0337	-43409	2428.8	-0.12493	0.22155	0.97893
2.512	7.7627	-43410	2428.5	-0.12512	0.22194	0.97864
2.514	7.5502	-43411	2428.1	-0.12532	0.22233	0.97834
2.516	7.5082	-43417	2427.7	-0.12551	0.22272	0.97805
2.518	7.5261	-43423	2427.4	-0.12571	0.22311	0.97776
2.52	7.6452	-43430	2427.1	-0.1259	0.2235	0.97746
2.522	7.7537	-43438	2426.7	-0.12551	0.2237	0.97727
2.524	7.7517	-43438	2426.4	-0.12512	0.22389	0.97707
2.526	7.7423	-43437	2426.1	-0.12473	0.22409	0.97688
2.528	7.6404	-43440	2425.7	-0.12434	0.22428	0.97668
2.53	7.4792	-43443	2425.4	-0.12395	0.22448	0.97649
2.532	7.462	-43442	2425.1	-0.12493	0.22487	0.97756
2.534	7.4829	-43442	2424.9	-0.1259	0.22526	0.97864
2.536	7.615	-43448	2424.6	-0.12688	0.22565	0.97971
2.538	7.8121	-43454	2424.4	-0.12786	0.22604	0.98078
2.54	7.853	-43457	2424.1	-0.12883	0.22643	0.98186
2.542	7.8149	-43461	2423.8	-0.12639	0.22721	0.97961
2.544	7.6991	-43463	2423.5	-0.12395	0.22799	0.97737
2.546	7.526	-43465	2423.3	-0.12151	0.22877	0.97512
2.548	7.453	-43463	2423.1	-0.11907	0.22956	0.97288
2.55	7.487	-43460	2423	-0.11663	0.23034	0.97063
2.552	7.5916	-43470	2422.8	-0.11858	0.23024	0.96995
2.554	7.7546	-43480	2422.7	-0.12054	0.23014	0.96927
2.556	7.8475	-43479	2422.6	-0.12249	0.23004	0.96858
2.558	7.829	-43478	2422.5	-0.12444	0.22995	0.9679
2.56	7.7533	-43488	2422.5	-0.12639	0.22985	0.96722
2.562	7.5981	-43499	2422.4	-0.12571	0.22956	0.96722
2.564	7.479	-43500	2422.4	-0.12503	0.22926	0.96722
2.566	7.4689	-43502	2422.3	-0.12434	0.22897	0.96722
2.568	7.5268	-43502	2422.1	-0.12366	0.22868	0.96722
2.57	7.6732	-43503	2421.9	-0.12298	0.22838	0.96722
2.572	7.8073	-43501	2421.7	-0.12317	0.22731	0.96956
2.574	7.8342	-43499	2421.4	-0.12337	0.22624	0.9719
2.576	7.8145	-43504	2421.1	-0.12356	0.22516	0.97424
2.578	7.7055	-43509	2420.8	-0.12376	0.22409	0.97659
2.58	7.5388	-43511	2420.4	-0.12395	0.22302	0.97893
2.582	7.4772	-43513	2420	-0.12444	0.22438	0.97737
2.584	7.5111	-43521	2419.5	-0.12493	0.22575	0.9758
2.586	7.6129	-43529	2419.2	-0.12542	0.22712	0.97424
2.588	7.785	-43526	2418.8	-0.1259	0.22848	0.97268
2.59	7.8487	-43524	2418.5	-0.12639	0.22985	0.97112
2.592	7.8154	-43528	2418.1	-0.12522	0.22946	0.97141
2.594	7.7341	-43533	2417.8	-0.12405	0.22907	0.97171
2.596	7.557	-43537	2417.5	-0.12288	0.22868	0.972
2.598	7.4676	-43541	2417.2	-0.12171	0.22829	0.97229
2.6	7.5012	-43550	2416.9	-0.12054	0.2279	0.97258
2.602	7.5758	-43558	2416.6	-0.12141	0.2276	0.97161
2.604	7.7454	-43558	2416.3	-0.12229	0.22731	0.97063
2.606	7.8636	-43558	2416.2	-0.12317	0.22702	0.96966
2.608	7.8532	-43560	2416.1	-0.12405	0.22672	0.96868
2.61	7.8005	-43562	2416	-0.12493	0.22643	0.9677
2.612	7.6087	-43571	2416.5	-0.1259	0.2278	0.96741
2.614	7.4944	-43581	2417.1	-0.12688	0.22916	0.96712
2.616	7.4867	-43577	2418.1	-0.12786	0.23053	0.96683
2.618	7.5492	-43573	2419.6	-0.12883	0.2319	0.96653
2.62	7.698	-43572	2421.1	-0.12981	0.23326	0.96624
2.622	7.8231	-43571	2423.3	-0.12883	0.23287	0.96663
2.624	7.8692	-43582	2425.6	-0.12786	0.23248	0.96702
2.626	7.8541	-43592	2428.1	-0.12688	0.23209	0.96741
2.628	7.7158	-43593	2430.7	-0.1259	0.2317	0.9678
2.63	7.5372	-43595	2433.4	-0.12493	0.23131	0.96819
2.632	7.4979	-43595	2436.2	-0.12493	0.23073	0.96936
2.634	7.5545	-43595	2439.1	-0.12493	0.23014	0.97053
2.636	7.682	-43600	2442	-0.12493	0.22956	0.97171
2.638	7.8359	-43606	2445	-0.12493	0.22897	0.97288
2.64	7.8912	-43609	2448	-0.12493	0.22838	0.97405
2.642	7.8704	-43612	2451.1	-0.12678	0.22838	0.97454
2.644	7.7804	-43612	2454.2	-0.12864	0.22838	0.97502
2.646	7.6135	-43612	2457.2	-0.13049	0.22838	0.97551
2.648	7.5315	-43606	2460.2	-0.13235	0.22838	0.976
2.65	7.5617	-43600	2463.2	-0.1342	0.22838	0.97649
2.652	7.6441	-43603	2465.9	-0.13352	0.2278	0.97854
2.654	7.8032	-43606	2468.6	-0.13283	0.22721	0.98059
2.656	7.927	-43611	2471.1	-0.13215	0.22663	0.98264
2.658	7.9227	-43616	2473.5	-0.13147	0.22604	0.98469
2.66	7.8401	-43614	2475.9	-0.13078	0.22546	0.98674
2.662	7.6777	-43613	2478	-0.13205	0.22516	0.98605
2.664	7.5481	-43618	2480	-0.13332	0.22487	0.98537
2.666	7.567	-43623	2481.8	-0.13459	0.22458	0.98469
2.668	7.6364	-43623	2483.5	-0.13586	0.22428	0.984
2.67	7.772	-43623	2485.2	-0.13713	0.22399	0.98332
2.672	7.9301	-43622	2486.7	-0.13644	0.22409	0.98303
2.674	7.9563	-43621	2488.3	-0.13576	0.22419	0.98273
2.676	7.9332	-43614	2489.7	-0.13508	0.22428	0.98244
2.678	7.8124	-43608	2490.9	-0.1344	0.22438	0.98215
2.68	7.6365	-43608	2492.2	-0.13371	0.22448	0.98186
2.682	7.6	-43607	2493.2	-0.13137	0.22507	0.9802
2.684	7.645	-43597	2494.3	-0.12903	0.22565	0.97854
2.686	7.7542	-43586	2495.3	-0.12668	0.22624	0.97688
2.688	7.9689	-43585	2496.1	-0.12434	0.22682	0.97522
2.69	8.0258	-43585	2497	-0.122	0.22741	0.97356
2.692	7.9768	-43583	2497.8	-0.12161	0.22663	0.97327
2.694	7.8982	-43581	2498.6	-0.12122	0.22585	0.97297
2.696	7.7386	-43571	2499.3	-0.12083	0.22507	0.97268
2.698	7.6603	-43562	2499.9	-0.12044	0.22428	0.97239
2.7	7.6946	-43557	2500.6	-0.12005	0.2235	0.9721
2.702	7.7952	-43553	2501.1	-0.12073	0.22331	0.97307
2.704	7.9889	-43544	2501.6	-0.12141	0.22311	0.97405
2.706	8.0849	-43534	2502	-0.1221	0.22292	0.97502
2.708	8.0692	-43524	2502.4	-0.12278	0.22272	0.976
2.71	8.0048	-43514	2502.7	-0.12346	0.22253	0.97698
2.712	7.8356	-43505	2502.9	-0.12346	0.22253	0.97639
2.714	7.7179	-43497	2503.1	-0.12346	0.22253	0.9758
2.716	7.7071	-43485	2503.2	-0.12346	0.22253	0.97522
2.718	7.7647	-43473	2503.3	-0.12346	0.22253	0.97463
2.72	7.9359	-43469	2503.3	-0.12346	0.22253	0.97405
2.722	8.0845	-43464	2503.3	-0.12385	0.22253	0.97463
2.724	8.0962	-43460	2503.3	-0.12424	0.22253	0.97522
2.726	8.0646	-43457	2503.2	-0.12464	0.22253	0.9758
2.728	7.949	-43445	2503.1	-0.12503	0.22253	0.97639
2.73	7.7868	-43433	2503	-0.12542	0.22253	0.97698
2.732	7.7271	-43430	2502.7	-0.12473	0.22331	0.976
2.734	7.7526	-43428	2502.5	-0.12405	0.22409	0.97502
2.736	7.8476	-43426	2502.2	-0.12337	0.22487	0.97405
2.738	8.007	-43423	2501.9	-0.12268	0.22565	0.97307
2.74	8.0957	-43407	2501.6	-0.122	0.22643	0.9721
2.742	8.0633	-43390	2501.3	-0.122	0.22653	0.97122
2.744	7.9569	-43383	2500.9	-0.122	0.22663	0.97034
2.746	7.7981	-43376	2500.6	-0.122	0.22672	0.96946
2.748	7.6948	-43372	2500.3	-0.122	0.22682	0.96858
2.75	7.7068	-43367	2500	-0.122	0.22692	0.9677
2.752	7.779	-43355	2499.6	-0.12249	0.22682	0.9678
2.754	7.9256	-43343	2499.2	-0.12298	0.22672	0.9679
2.756	8.0416	-43340	2498.9	-0.12346	0.22663	0.968
2.758	8.0303	-43336	2498.7	-0.12395	0.22653	0.96809
2.76	7.9662	-43333	2498.4	-0.12444	0.22643	0.96819
2.762	7.8319	-43329	2498.1	-0.12512	0.22751	0.96751
2.764	7.6694	-43315	2497.7	-0.12581	0.22858	0.96683
2.766	7.641	-43301	2497.4	-0.12649	0.22965	0.96614
2.768	7.6963	-43294	2497	-0.12717	0.23073	0.96546
2.77	7.8236	-43288	2496.6	-0.12786	0.2318	0.96478
2.772	7.9693	-43283	2496.3	-0.12825	0.23151	0.96507
2.774	7.9568	-43278	2495.9	-0.12864	0.23121	0.96536
2.776	7.9042	-43272	2495.5	-0.12903	0.23092	0.96565
2.778	7.7982	-43267	2495.2	-0.12942	0.23063	0.96595
2.78	7.6324	-43265	2494.8	-0.12981	0.23034	0.96624
2.782	7.5766	-43263	2494.4	-0.12795	0.22887	0.96819
2.784	7.6069	-43259	2494	-0.1261	0.22741	0.97014
2.786	7.7054	-43254	2493.7	-0.12424	0.22594	0.9721
2.788	7.8741	-43244	2493.3	-0.12239	0.22448	0.97405
2.79	7.9214	-43233	2493	-0.12054	0.22302	0.976
2.792	7.8957	-43230	2492.5	-0.1219	0.22438	0.9759
2.794	7.8222	-43226	2492.1	-0.12327	0.22575	0.9758
2.796	7.6759	-43223	2491.7	-0.12464	0.22712	0.97571
2.798	7.5953	-43220	2491.3	-0.126	0.22848	0.97561
2.8	7.5691	-43215	2490.9	-0.12737	0.22985	0.97551
2.802	7.6345	-43209	2490.4	-0.12766	0.22965	0.97532
2.804	7.8159	-43204	2490	-0.12795	0.22946	0.97512
2.806	7.9344	-43198	2489.6	-0.12825	0.22926	0.97493
2.808	7.9415	-43192	2489.1	-0.12854	0.22907	0.97473
2.81	7.8799	-43187	2488.7	-0.12883	0.22887	0.97454
2.812	7.7119	-43180	2488.2	-0.12912	0.22838	0.97551
2.814	7.5715	-43174	2487.8	-0.12942	0.2279	0.97649
2.816	7.5578	-43171	2487.3	-0.12971	0.22741	0.97746
2.818	7.616	-43169	2486.6	-0.13	0.22692	0.97844
2.82	7.7491	-43166	2486	-0.1303	0.22643	0.97942
2.822	7.8844	-43163	2485.4	-0.13108	0.22682	0.97922
2.824	7.9193	-43158	2484.8	-0.13186	0.22721	0.97903
2.826	7.871	-43153	2484.2	-0.13264	0.2276	0.97883
2.828	7.7493	-43150	2483.5	-0.13342	0.22799	0.97864
2.83	7.606	-43148	2482.8	-0.1342	0.22838	0.97844
2.832	7.5449	-43146	2482.1	-0.13186	0.22741	0.97824
2.834	7.5605	-43145	2481.3	-0.12952	0.22643	0.97805
2.836	7.6553	-43148	2480.6	-0.12717	0.22546	0.97785
2.838	7.8356	-43151	2479.8	-0.12483	0.22448	0.97766
2.84	7.9426	-43153	2479	-0.12249	0.2235	0.97746
2.842	7.9072	-43154	2478.2	-0.12346	0.22458	0.97659
2.844	7.8099	-43153	2477.4	-0.12444	0.22565	0.97571
2.846	7.6375	-43151	2476.6	-0.12542	0.22672	0.97483
2.848	7.532	-43144	2475.8	-0.12639	0.2278	0.97395
2.85	7.5611	-43137	2475	-0.12737	0.22887	0.97307
2.852	7.6342	-43138	2474.2	-0.12571	0.22838	0.97288
2.854	7.7981	-43138	2473.4	-0.12405	0.2279	0.97268
2.856	7.905	-43135	2472.6	-0.12239	0.22741	0.97249
2.858	7.8909	-43133	2471.9	-0.12073	0.22692	0.97229
2.86	7.8629	-43130	2471.1	-0.11907	0.22643	0.9721
2.862	7.6948	-43128	2470.4	-0.12005	0.22633	0.97239
2.864	7.4941	-43126	2469.7	-0.12102	0.22624	0.97268
2.866	7.5207	-43125	2469	-0.122	0.22614	0.97297
2.868	7.5865	-43134	2468.3	-0.12298	0.22604	0.97327
2.87	7.7385	-43142	2467.6	-0.12395	0.22594	0.97356
2.872	7.8961	-43133	2466.9	-0.12366	0.22604	0.97385
2.874	7.9075	-43124	2466.2	-0.12337	0.22614	0.97415
2.876	7.8594	-43119	2465.5	-0.12307	0.22624	0.97444
2.878	7.7416	-43114	2464.8	-0.12278	0.22633	0.97473
2.88	7.5963	-43122	2464.1	-0.12249	0.22643	0.97502
2.882	7.5517	-43131	2463.5	-0.12298	0.22672	0.97463
2.884	7.5634	-43132	2462.9	-0.12346	0.22702	0.97424
2.886	7.6679	-43133	2462.2	-0.12395	0.22731	0.97385
2.888	7.8422	-43132	2461.6	-0.12444	0.2276	0.97346
2.89	7.9102	-43130	2461	-0.12493	0.2279	0.97307
2.892	7.8818	-43130	2460.4	-0.12542	0.22721	0.97405
2.894	7.792	-43130	2459.9	-0.1259	0.22653	0.97502
2.896	7.6289	-43129	2459.3	-0.12639	0.22585	0.976
2.898	7.5323	-43129	2458.7	-0.12688	0.22516	0.97698
2.9	7.538	-43127	2458.2	-0.12737	0.22448	0.97795
2.902	7.6118	-43125	2457.6	-0.12708	0.22448	0.97766
2.904	7.7574	-43130	2457	-0.12678	0.22448	0.97737
2.906	7.8636	-43135	2456.5	-0.12649	0.22448	0.97707
2.908	7.8692	-43137	2456	-0.1262	0.22448	0.97678
2.91	7.8098	-43138	2455.5	-0.1259	0.22448	0.97649
2.912	7.669	-43138	2455	-0.12629	0.22497	0.97659
2.914	7.5353	-43137	2454.6	-0.12668	0.22546	0.97668
2.916	7.5244	-43139	2454.1	-0.12708	0.22594	0.97678
2.918	7.5967	-43141	2453.7	-0.12747	0.22643	0.97688
2.92	7.7283	-43143	2453.3	-0.12786	0.22692	0.97698
2.922	7.8633	-43145	2453	-0.12708	0.22653	0.97698
2.924	7.9008	-43147	2452.7	-0.12629	0.22614	0.97698
2.926	7.8417	-43149	2452.4	-0.12551	0.22575	0.97698
2.928	7.7164	-43154	2452.2	-0.12473	0.22536	0.97698
2.93	7.5564	-43160	2451.9	-0.12395	0.22497	0.97698
2.932	7.5052	-43159	2451.7	-0.12346	0.22419	0.97659
2.934	7.554	-43157	2451.4	-0.12298	0.22341	0.9762
2.936	7.6344	-43156	2451.3	-0.12249	0.22263	0.9758
2.938	7.7966	-43154	2451.3	-0.122	0.22184	0.97541
2.94	7.8936	-43156	2451.2	-0.12151	0.22106	0.97502
2.942	7.8683	-43158	2451.1	-0.12141	0.22116	0.97512
2.944	7.8128	-43161	2451	-0.12132	0.22126	0.97522
2.946	7.6189	-43163	2450.9	-0.12122	0.22136	0.97532
2.948	7.5074	-43161	2450.9	-0.12112	0.22145	0.97541
2.95	7.4898	-43158	2450.8	-0.12102	0.22155	0.97551
2.952	7.5678	-43164	2450.7	-0.12151	0.22282	0.97522
2.954	7.7738	-43170	2450.7	-0.122	0.22409	0.97493
2.956	7.9067	-43176	2450.6	-0.12249	0.22536	0.97463
2.958	7.8892	-43182	2450.6	-0.12298	0.22663	0.97434
2.96	7.8081	-43184	2450.6	-0.12346	0.2279	0.97405
2.962	7.6568	-43186	2450.5	-0.12327	0.2279	0.97346
2.964	7.5323	-43186	2450.4	-0.12307	0.2279	0.97288
2.966	7.5245	-43186	2450.4	-0.12288	0.2279	0.97229
2.968	7.5803	-43189	2450.4	-0.12268	0.2279	0.97171
2.97	7.7034	-43191	2450.4	-0.12249	0.2279	0.97112
2.972	7.8421	-43189	2450.4	-0.1219	0.22741	0.97171
2.974	7.8719	-43188	2450.5	-0.12132	0.22692	0.97229
2.976	7.8707	-43191	2450.5	-0.12073	0.22643	0.97288
2.978	7.7518	-43194	2450.5	-0.12015	0.22594	0.97346
2.98	7.5878	-43197	2450.5	-0.11956	0.22546	0.97405
2.982	7.5273	-43200	2450.5	-0.12161	0.22633	0.97483
2.984	7.5451	-43200	2450.6	-0.12366	0.22721	0.97561
2.986	7.6454	-43200	2450.6	-0.12571	0.22809	0.97639
2.988	7.8039	-43201	2450.6	-0.12776	0.22897	0.97717
2.99	7.879	-43202	2450.5	-0.12981	0.22985	0.97795
2.992	7.8486	-43203	2450.5	-0.12873	0.22956	0.97717
2.994	7.76	-43204	2450.4	-0.12766	0.22926	0.97639
2.996	7.6317	-43210	2450.3	-0.12659	0.22897	0.97561
2.998	7.5502	-43216	2450.2	-0.12551	0.22868	0.97483
3	7.5556	-43213	2450.1	-0.12444	0.22838	0.97405
3.002	7.6281	-43209	2449.9	-0.12542	0.22829	0.97454
3.004	7.7818	-43216	2449.7	-0.12639	0.22819	0.97502
3.006	7.9038	-43222	2449.5	-0.12737	0.22809	0.97551
3.008	7.8977	-43224	2449.3	-0.12834	0.22799	0.976
3.01	7.8348	-43226	2449.1	-0.12932	0.2279	0.97649
3.012	7.686	-43231	2448.9	-0.12795	0.22702	0.9761
3.014	7.5293	-43236	2448.7	-0.12659	0.22614	0.97571
3.016	7.5325	-43233	2448.5	-0.12522	0.22526	0.97532
3.018	7.6073	-43230	2448.3	-0.12385	0.22438	0.97493
3.02	7.7232	-43233	2448.2	-0.12249	0.2235	0.97454
3.022	7.8733	-43236	2448	-0.12298	0.22331	0.97473
3.024	7.9038	-43234	2447.7	-0.12346	0.22311	0.97493
3.026	7.8536	-43232	2447.5	-0.12395	0.22292	0.97512
3.028	7.7381	-43235	2447.3	-0.12444	0.22272	0.97532
3.03	7.5337	-43238	2447.1	-0.12493	0.22253	0.97551
3.032	7.4816	-43242	2446.9	-0.12522	0.22292	0.9759
3.034	7.5357	-43245	2446.7	-0.12551	0.22331	0.97629
3.036	7.6473	-43244	2446.5	-0.12581	0.2237	0.97668
3.038	7.8924	-43242	2446.3	-0.1261	0.22409	0.97707
3.04	7.9778	-43245	2446.1	-0.12639	0.22448	0.97746
3.042	7.9266	-43248	2445.8	-0.126	0.22536	0.97678
3.044	7.8076	-43254	2445.6	-0.12561	0.22624	0.9761
3.046	7.6407	-43261	2445.4	-0.12522	0.22712	0.97541
3.048	7.5519	-43265	2445.2	-0.12483	0.22799	0.97473
3.05	7.5618	-43268	2444.9	-0.12444	0.22887	0.97405
3.052	7.6297	-43265	2444.7	-0.12532	0.22799	0.97502
3.054	7.8065	-43261	2444.5	-0.1262	0.22712	0.976
3.056	7.915	-43271	2444.3	-0.12708	0.22624	0.97698
3.058	7.8982	-43282	2444	-0.12795	0.22536	0.97795
3.06	7.8421	-43279	2443.8	-0.12883	0.22448	0.97893
3.062	7.7079	-43276	2443.6	-0.12737	0.22477	0.97815
3.064	7.5936	-43280	2443.3	-0.1259	0.22507	0.97737
3.066	7.5679	-43285	2443.1	-0.12444	0.22536	0.97659
3.068	7.6179	-43285	2442.9	-0.12298	0.22565	0.9758
3.07	7.7763	-43285	2442.7	-0.12151	0.22594	0.97502
3.072	7.9093	-43283	2442.4	-0.1218	0.22594	0.97454
3.074	7.9258	-43280	2442.1	-0.1221	0.22594	0.97405
3.076	7.877	-43284	2441.8	-0.12239	0.22594	0.97356
3.078	7.7515	-43287	2441.6	-0.12268	0.22594	0.97307
3.08	7.6046	-43293	2441.3	-0.12298	0.22594	0.97258
3.082	7.5427	-43300	2441	-0.12307	0.22575	0.97239
3.084	7.5558	-43298	2440.7	-0.12317	0.22555	0.97219
3.086	7.6517	-43296	2440.4	-0.12327	0.22536	0.972
3.088	7.8166	-43300	2440.1	-0.12337	0.22516	0.9718
3.09	7.9026	-43303	2439.8	-0.12346	0.22497	0.97161
3.092	7.862	-43306	2439.5	-0.12405	0.22575	0.972
3.094	7.7574	-43309	2439.2	-0.12464	0.22653	0.97239
3.096	7.6006	-43308	2439	-0.12522	0.22731	0.97278
3.098	7.5086	-43307	2438.7	-0.12581	0.22809	0.97317
3.1	7.5113	-43309	2438.5	-0.12639	0.22887	0.97356
3.102	7.5716	-43310	2438.2	-0.12561	0.2278	0.97405
3.104	7.7482	-43315	2437.9	-0.12483	0.22672	0.97454
3.106	7.8783	-43320	2437.6	-0.12405	0.22565	0.97502
3.108	7.8629	-43324	2437.4	-0.12327	0.22458	0.97551
3.11	7.804	-43328	2437.1	-0.12249	0.2235	0.976
3.112	7.6777	-43326	2436.9	-0.12278	0.2238	0.9758
3.114	7.5353	-43323	2436.7	-0.12307	0.22409	0.97561
3.116	7.5198	-43327	2436.4	-0.12337	0.22438	0.97541
3.118	7.5394	-43330	2436.2	-0.12366	0.22468	0.97522
3.12	7.6717	-43334	2435.9	-0.12395	0.22497	0.97502
3.122	7.8742	-43337	2435.7	-0.12415	0.22594	0.97444
3.124	7.8776	-43340	2435.5	-0.12434	0.22692	0.97385
3.126	7.8288	-43342	2435.3	-0.12454	0.2279	0.97327
3.128	7.7253	-43344	2435	-0.12473	0.22887	0.97268
3.13	7.54	-43345	2434.7	-0.12493	0.22985	0.9721
3.132	7.4905	-43353	2434.5	-0.12561	0.22926	0.97327
3.134	7.53	-43361	2434.2	-0.12629	0.22868	0.97444
3.136	7.635	-43360	2434	-0.12698	0.22809	0.97561
3.138	7.7983	-43358	2433.7	-0.12766	0.22751	0.97678
3.14	7.8495	-43362	2433.4	-0.12834	0.22692	0.97795
3.142	7.8223	-43365	2433.1	-0.12776	0.22633	0.97815
3.144	7.7612	-43366	2432.9	-0.12717	0.22575	0.97834
3.146	7.598	-43367	2432.6	-0.12659	0.22516	0.97854
3.148	7.5009	-43372	2432.4	-0.126	0.22458	0.97873
3.15	7.4927	-43377	2432.1	-0.12542	0.22399	0.97893
3.152	7.5613	-43380	2431.8	-0.12542	0.22448	0.97795
3.154	7.7278	-43383	2431.5	-0.12542	0.22497	0.97698
3.156	7.8572	-43384	2431.2	-0.12542	0.22546	0.976
3.158	7.8856	-43384	2430.9	-0.12542	0.22594	0.97502
3.16	7.8498	-43387	2430.7	-0.12542	0.22643	0.97405
3.162	7.7422	-43390	2430.4	-0.12717	0.22643	0.97463
3.164	7.6466	-43400	2430.1	-0.12893	0.22643	0.97522
3.166	7.6718	-43409	2429.8	-0.13069	0.22643	0.9758
3.168	7.7864	-43405	2429.5	-0.13244	0.22643	0.97639
3.17	7.9707	-43402	2429.2	-0.1342	0.22643	0.97698
3.172	8.1617	-43404	2428.9	-0.13254	0.22721	0.9761
3.174	8.2353	-43407	2428.5	-0.13088	0.22799	0.97522
3.176	8.2444	-43406	2428.1	-0.12922	0.22877	0.97434
3.178	8.1902	-43404	2427.8	-0.12756	0.22956	0.97346
3.18	8.0509	-43408	2427.4	-0.1259	0.23034	0.97258
3.182	7.9983	-43411	2427	-0.12561	0.22975	0.97317
3.184	8.0494	-43420	2426.7	-0.12532	0.22916	0.97376
3.186	8.1264	-43429	2426.3	-0.12503	0.22858	0.97434
3.188	8.2503	-43426	2426	-0.12473	0.22799	0.97493
3.19	8.2905	-43423	2425.6	-0.12444	0.22741	0.97551
3.192	8.1803	-43424	2425.3	-0.12434	0.2276	0.97541
3.194	7.9833	-43424	2424.9	-0.12424	0.2278	0.97532
3.196	7.7178	-43429	2424.6	-0.12415	0.22799	0.97522
3.198	7.5308	-43433	2424.3	-0.12405	0.22819	0.97512
3.2	7.4814	-43443	2423.9	-0.12395	0.22838	0.97502
3.202	7.5165	-43453	2423.7	-0.12522	0.22868	0.97551
3.204	7.6523	-43451	2423.4	-0.12649	0.22897	0.976
3.206	7.7648	-43449	2423.1	-0.12776	0.22926	0.97649
3.208	7.7683	-43449	2422.8	-0.12903	0.22956	0.97698
3.21	7.7505	-43449	2422.4	-0.1303	0.22985	0.97746
3.212	7.6268	-43450	2422.1	-0.12932	0.22877	0.97737
3.214	7.4941	-43450	2421.8	-0.12834	0.2277	0.97727
3.216	7.4912	-43454	2421.4	-0.12737	0.22663	0.97717
3.218	7.5328	-43457	2421	-0.12639	0.22555	0.97707
3.22	7.6938	-43463	2420.6	-0.12542	0.22448	0.97698
3.222	7.8493	-43469	2420.1	-0.12473	0.22497	0.97571
3.224	7.8876	-43473	2419.7	-0.12405	0.22546	0.97444
3.226	7.855	-43476	2419.3	-0.12337	0.22594	0.97317
3.228	7.7051	-43479	2418.9	-0.12268	0.22643	0.9719
3.23	7.5489	-43481	2418.6	-0.122	0.22692	0.97063
3.232	7.4883	-43482	2418.3	-0.12356	0.22741	0.97014
3.234	7.5026	-43484	2418	-0.12512	0.2279	0.96966
3.236	7.6217	-43493	2417.8	-0.12668	0.22838	0.96917
3.238	7.807	-43502	2417.7	-0.12825	0.22887	0.96868
3.24	7.8706	-43506	2417.6	-0.12981	0.22936	0.96819
3.242	7.8401	-43510	2417.7	-0.1303	0.22916	0.96741
3.244	7.7519	-43509	2417.8	-0.13078	0.22897	0.96663
3.246	7.591	-43509	2417.8	-0.13127	0.22877	0.96585
3.248	7.4873	-43513	2417.7	-0.13176	0.22858	0.96507
3.25	7.4926	-43518	2417.6	-0.13225	0.22838	0.96429
3.252	7.5631	-43517	2417.4	-0.13244	0.22809	0.96517
3.254	7.7138	-43516	2417.2	-0.13264	0.2278	0.96604
3.256	7.8605	-43514	2416.9	-0.13283	0.22751	0.96692
3.258	7.894	-43512	2416.5	-0.13303	0.22721	0.9678
3.26	7.8368	-43518	2416.1	-0.13322	0.22692	0.96868
3.262	7.6863	-43524	2415.5	-0.13166	0.22712	0.96888
3.264	7.5097	-43523	2415	-0.1301	0.22731	0.96907
3.266	7.4601	-43521	2414.5	-0.12854	0.22751	0.96927
3.268	7.5127	-43528	2413.9	-0.12698	0.2277	0.96946
3.27	7.662	-43535	2413.4	-0.12542	0.2279	0.96966
3.272	7.839	-43539	2413	-0.12503	0.2278	0.96995
3.274	7.8839	-43543	2412.5	-0.12464	0.2277	0.97024
3.276	7.8368	-43544	2412.1	-0.12424	0.2276	0.97053
3.278	7.7178	-43545	2411.8	-0.12385	0.22751	0.97083
3.28	7.532	-43549	2411.5	-0.12346	0.22741	0.97112
3.282	7.517	-43552	2411.1	-0.12298	0.22712	0.97092
3.284	7.5658	-43556	2410.8	-0.12249	0.22682	0.97073
3.286	7.6283	-43560	2410.5	-0.122	0.22653	0.97053
3.288	7.8184	-43564	2410.3	-0.12151	0.22624	0.97034
3.29	7.8855	-43567	2410.2	-0.12102	0.22594	0.97014
3.292	7.8284	-43568	2410.3	-0.12259	0.22721	0.96966
3.294	7.776	-43570	2410.5	-0.12415	0.22848	0.96917
3.296	7.5971	-43573	2411.1	-0.12571	0.22975	0.96868
3.298	7.5077	-43576	2412.2	-0.12727	0.23102	0.96819
3.3	7.5461	-43579	2413.3	-0.12883	0.23229	0.9677
3.302	7.6171	-43582	2415.4	-0.12991	0.23092	0.96819
3.304	7.7882	-43590	2417.4	-0.13098	0.22956	0.96868
3.306	7.896	-43598	2419.7	-0.13205	0.22819	0.96917
3.308	7.8784	-43600	2422.3	-0.13313	0.22682	0.96966
3.31	7.8129	-43601	2425	-0.1342	0.22546	0.97014
3.312	7.6729	-43600	2427.8	-0.13352	0.22624	0.97151
3.314	7.5696	-43599	2430.6	-0.13283	0.22702	0.97288
3.316	7.5667	-43604	2433.5	-0.13215	0.2278	0.97424
3.318	7.6083	-43609	2436.4	-0.13147	0.22858	0.97561
3.32	7.7209	-43610	2439.3	-0.13078	0.22936	0.97698
3.322	7.8749	-43610	2442.4	-0.13166	0.2279	0.97903
3.324	7.9271	-43611	2445.4	-0.13254	0.22643	0.98108
3.326	7.8633	-43612	2448.4	-0.13342	0.22497	0.98312
3.328	7.7279	-43613	2451.4	-0.1343	0.2235	0.98517
3.33	7.5978	-43614	2454.4	-0.13518	0.22204	0.98722
3.332	7.5655	-43614	2457.2	-0.13459	0.22272	0.98693
3.334	7.6051	-43613	2460.1	-0.134	0.22341	0.98664
3.336	7.7122	-43615	2462.7	-0.13342	0.22409	0.98635
3.338	7.8668	-43617	2465.3	-0.13283	0.22477	0.98605
3.34	7.9393	-43617	2467.8	-0.13225	0.22546	0.98576
3.342	7.9141	-43617	2470	-0.13244	0.22614	0.98547
3.344	7.8331	-43617	2472.1	-0.13264	0.22682	0.98517
3.346	7.6893	-43617	2474.1	-0.13283	0.22751	0.98488
3.348	7.5936	-43616	2475.9	-0.13303	0.22819	0.98459
3.35	7.6138	-43615	2477.8	-0.13322	0.22887	0.9843
3.352	7.68	-43611	2479.3	-0.13254	0.22897	0.98342
3.354	7.8185	-43606	2480.8	-0.13186	0.22907	0.98254
3.356	7.9416	-43603	2482.3	-0.13117	0.22916	0.98166
3.358	7.9434	-43601	2483.6	-0.13049	0.22926	0.98078
3.36	7.9309	-43596	2484.9	-0.12981	0.22936	0.9799
3.362	7.8129	-43592	2486	-0.12844	0.2279	0.97854
3.364	7.6358	-43584	2487.2	-0.12708	0.22643	0.97717
3.366	7.6331	-43575	2488.2	-0.12571	0.22497	0.9758
3.368	7.7156	-43571	2489.1	-0.12434	0.2235	0.97444
3.37	7.8395	-43567	2490	-0.12298	0.22204	0.97307
3.372	8.0008	-43565	2490.7	-0.12337	0.22321	0.97268
3.374	8.0458	-43563	2491.5	-0.12376	0.22438	0.97229
3.376	8.0099	-43554	2492.2	-0.12415	0.22555	0.9719
3.378	7.8911	-43545	2492.9	-0.12454	0.22672	0.97151
3.38	7.7241	-43541	2493.6	-0.12493	0.2279	0.97112
3.382	7.6952	-43536	2494.1	-0.12561	0.22868	0.97053
3.384	7.727	-43533	2494.7	-0.12629	0.22946	0.96995
3.386	7.8259	-43530	2495.2	-0.12698	0.23024	0.96936
3.388	8.0127	-43520	2495.6	-0.12766	0.23102	0.96878
3.39	8.0777	-43509	2496	-0.12834	0.2318	0.96819
3.392	8.0471	-43505	2496.3	-0.12805	0.23209	0.96858
3.394	7.9683	-43502	2496.5	-0.12776	0.23239	0.96897
3.396	7.8059	-43496	2496.7	-0.12747	0.23268	0.96936
3.398	7.7256	-43490	2496.9	-0.12717	0.23297	0.96975
3.4	7.7369	-43478	2497	-0.12688	0.23326	0.97014
3.402	7.7902	-43465	2497	-0.12805	0.23317	0.96946
3.404	7.9673	-43460	2497	-0.12922	0.23307	0.96878
3.406	8.1119	-43455	2497	-0.13039	0.23297	0.96809
3.408	8.0995	-43449	2497	-0.13156	0.23287	0.96741
3.41	8.0143	-43442	2496.9	-0.13274	0.23278	0.96673
3.412	7.8625	-43428	2496.7	-0.13156	0.23258	0.96692
3.414	7.7283	-43415	2496.6	-0.13039	0.23239	0.96712
3.416	7.7215	-43407	2496.5	-0.12922	0.23219	0.96731
3.418	7.7925	-43398	2496.3	-0.12805	0.232	0.96751
3.42	7.9267	-43393	2496.1	-0.12688	0.2318	0.9677
3.422	8.0733	-43388	2495.9	-0.12678	0.23131	0.9678
3.424	8.1191	-43381	2495.7	-0.12668	0.23082	0.9679
3.426	8.0791	-43373	2495.4	-0.12659	0.23034	0.968
3.428	7.952	-43361	2495.2	-0.12649	0.22985	0.96809
3.43	7.7595	-43348	2494.9	-0.12639	0.22936	0.96819
3.432	7.6816	-43340	2494.6	-0.12756	0.23014	0.96761
3.434	7.7354	-43332	2494.3	-0.12873	0.23092	0.96702
3.436	7.82	-43326	2494	-0.12991	0.2317	0.96644
3.438	7.9472	-43320	2493.7	-0.13108	0.23248	0.96585
3.44	8.0287	-43309	2493.4	-0.13225	0.23326	0.96526
3.442	8.0098	-43298	2493.1	-0.13069	0.2319	0.96575
3.444	7.9435	-43292	2492.7	-0.12912	0.23053	0.96624
3.446	7.7818	-43285	2492.4	-0.12756	0.22916	0.96673
3.448	7.6445	-43277	2492.1	-0.126	0.2278	0.96722
3.45	7.6353	-43269	2491.8	-0.12444	0.22643	0.9677
3.452	7.6852	-43266	2491.4	-0.12551	0.22731	0.9677
3.454	7.8394	-43263	2491.1	-0.12659	0.22819	0.9677
3.456	7.9766	-43256	2490.7	-0.12766	0.22907	0.9677
3.458	7.9617	-43249	2490.4	-0.12873	0.22995	0.9677
3.46	7.9389	-43240	2490.1	-0.12981	0.23082	0.9677
3.462	7.7917	-43231	2489.8	-0.12922	0.23053	0.96829
3.464	7.6084	-43221	2489.5	-0.12864	0.23024	0.96888
3.466	7.568	-43211	2489.1	-0.12805	0.22995	0.96946
3.468	7.6252	-43208	2488.7	-0.12747	0.22965	0.97005
3.47	7.7883	-43205	2488.4	-0.12688	0.22936	0.97063
3.472	7.94	-43199	2487.9	-0.12688	0.22975	0.97014
3.474	7.9735	-43192	2487.5	-0.12688	0.23014	0.96966
3.476	7.9194	-43186	2487.1	-0.12688	0.23053	0.96917
3.478	7.7911	-43181	2486.7	-0.12688	0.23092	0.96868
3.48	7.6158	-43175	2486.3	-0.12688	0.23131	0.96819
3.482	7.5512	-43169	2486	-0.1261	0.23034	0.96966
3.484	7.5796	-43160	2485.6	-0.12532	0.22936	0.97112
3.486	7.7017	-43152	2485.2	-0.12454	0.22838	0.97258
3.488	7.8586	-43149	2484.8	-0.12376	0.22741	0.97405
3.49	7.9411	-43147	2484.4	-0.12298	0.22643	0.97551
3.492	7.9439	-43146	2484	-0.12542	0.2277	0.9762
3.494	7.8353	-43144	2483.6	-0.12786	0.22897	0.97688
3.496	7.6626	-43137	2483.2	-0.1303	0.23024	0.97756
3.498	7.5697	-43130	2482.7	-0.13274	0.23151	0.97824
3.5	7.5693	-43127	2482.3	-0.13518	0.23278	0.97893
3.502	7.6358	-43124	2481.7	-0.13332	0.23287	0.97824
3.504	7.7792	-43124	2481.2	-0.13147	0.23297	0.97756
3.506	7.896	-43124	2480.6	-0.12961	0.23307	0.97688
3.508	7.9066	-43119	2480	-0.12776	0.23317	0.9762
3.51	7.8596	-43114	2479.4	-0.1259	0.23326	0.97551
3.512	7.7413	-43109	2478.8	-0.12503	0.23219	0.97493
3.514	7.595	-43105	2478.2	-0.12415	0.23112	0.97434
3.516	7.5548	-43101	2477.5	-0.12327	0.23004	0.97376
3.518	7.6039	-43097	2476.8	-0.12239	0.22897	0.97317
3.52	7.746	-43099	2476.1	-0.12151	0.2279	0.97258
3.522	7.9123	-43101	2475.4	-0.1218	0.2277	0.97297
3.524	7.936	-43102	2474.7	-0.1221	0.22751	0.97336
3.526	7.8759	-43103	2474	-0.12239	0.22731	0.97376
3.528	7.7677	-43094	2473.2	-0.12268	0.22712	0.97415
3.53	7.6027	-43085	2472.4	-0.12298	0.22692	0.97454
3.532	7.5508	-43079	2471.7	-0.12337	0.22614	0.97493
3.534	7.5865	-43074	2471	-0.12376	0.22536	0.97532
3.536	7.673	-43076	2470.2	-0.12415	0.22458	0.97571
3.538	7.8498	-43078	2469.4	-0.12454	0.2238	0.9761
3.54	7.9073	-43077	2468.6	-0.12493	0.22302	0.97649
3.542	7.88	-43077	2467.9	-0.12454	0.22321	0.97571
3.544	7.8671	-43073	2467.1	-0.12415	0.22341	0.97493
3.546	7.6697	-43069	2466.4	-0.12376	0.2236	0.97415
3.548	7.5292	-43071	2465.8	-0.12337	0.2238	0.97336
3.55	7.5439	-43073	2465.1	-0.12298	0.22399	0.97258
3.552	7.625	-43072	2464.4	-0.12395	0.22458	0.97297
3.554	7.7763	-43072	2463.8	-0.12493	0.22516	0.97336
3.556	7.884	-43073	2463.1	-0.1259	0.22575	0.97376
3.558	7.8785	-43074	2462.4	-0.12688	0.22633	0.97415
3.56	7.8617	-43072	2461.8	-0.12786	0.22692	0.97454
3.562	7.721	-43071	2461.2	-0.12864	0.22741	0.97346
3.564	7.5721	-43070	2460.6	-0.12942	0.2279	0.97239
3.566	7.5626	-43069	2460	-0.1302	0.22838	0.97132
3.568	7.5989	-43072	2459.4	-0.13098	0.22887	0.97024
3.57	7.7228	-43075	2458.8	-0.13176	0.22936	0.96917
3.572	7.8707	-43075	2458.3	-0.13147	0.22907	0.96956
3.574	7.9133	-43075	2457.8	-0.13117	0.22877	0.96995
3.576	7.8776	-43070	2457.3	-0.13088	0.22848	0.97034
3.578	7.7589	-43066	2456.8	-0.13059	0.22819	0.97073
3.58	7.609	-43072	2456.3	-0.1303	0.2279	0.97112
3.582	7.5385	-43078	2455.8	-0.12912	0.22799	0.97122
3.584	7.5564	-43079	2455.4	-0.12795	0.22809	0.97132
3.586	7.6637	-43080	2454.9	-0.12678	0.22819	0.97141
3.588	7.8122	-43080	2454.4	-0.12561	0.22829	0.97151
3.59	7.8788	-43080	2453.9	-0.12444	0.22838	0.97161
3.592	7.8686	-43083	2453.5	-0.12512	0.22819	0.9719
3.594	7.8037	-43087	2453	-0.12581	0.22799	0.97219
3.596	7.66	-43085	2452.6	-0.12649	0.2278	0.97249
3.598	7.5458	-43082	2452.1	-0.12717	0.2276	0.97278
3.6	7.5368	-43082	2451.7	-0.12786	0.22741	0.97307
3.602	7.6037	-43083	2451.3	-0.12737	0.2276	0.97288
3.604	7.7508	-43086	2451	-0.12688	0.2278	0.97268
3.606	7.8722	-43090	2450.7	-0.12639	0.22799	0.97249
3.608	7.8715	-43093	2450.4	-0.1259	0.22819	0.97229
3.61	7.8253	-43095	2450.1	-0.12542	0.22838	0.9721
3.612	7.7135	-43091	2449.9	-0.12512	0.22809	0.972
3.614	7.5695	-43086	2449.7	-0.12483	0.2278	0.9719
3.616	7.5366	-43092	2449.5	-0.12454	0.22751	0.9718
3.618	7.5529	-43098	2449.4	-0.12424	0.22721	0.97171
3.62	7.6567	-43095	2449.2	-0.12395	0.22692	0.97161
3.622	7.8612	-43092	2449.1	-0.12366	0.22692	0.97122
3.624	7.9078	-43096	2449	-0.12337	0.22692	0.97083
3.626	7.8575	-43101	2448.9	-0.12307	0.22692	0.97044
3.628	7.7774	-43103	2448.8	-0.12278	0.22692	0.97005
3.63	7.5864	-43106	2448.7	-0.12249	0.22692	0.96966
3.632	7.5188	-43109	2448.6	-0.12239	0.22702	0.97005
3.634	7.5349	-43113	2448.5	-0.12229	0.22712	0.97044
3.636	7.6322	-43109	2448.4	-0.1222	0.22721	0.97083
3.638	7.8346	-43106	2448.4	-0.1221	0.22731	0.97122
3.64	7.8998	-43110	2448.3	-0.122	0.22741	0.97161
3.642	7.876	-43114	2448.3	-0.1219	0.22731	0.97171
3.644	7.7765	-43118	2448.3	-0.1218	0.22721	0.9718
3.646	7.5839	-43123	2448.3	-0.12171	0.22712	0.9719
3.648	7.4965	-43123	2448.4	-0.12161	0.22702	0.972
3.65	7.5294	-43123	2448.4	-0.12151	0.22692	0.9721
3.652	7.6023	-43125	2448.4	-0.12229	0.22712	0.97268
3.654	7.7482	-43127	2448.3	-0.12307	0.22731	0.97327
3.656	7.872	-43126	2448.3	-0.12385	0.22751	0.97385
3.658	7.8826	-43126	2448.3	-0.12464	0.2277	0.97444
3.66	7.8222	-43125	2448.2	-0.12542	0.2279	0.97502
3.662	7.6715	-43123	2448.2	-0.12512	0.22838	0.97493
3.664	7.5468	-43125	2448.1	-0.12483	0.22887	0.97483
3.666	7.5415	-43126	2448.1	-0.12454	0.22936	0.97473
3.668	7.5847	-43131	2448	-0.12424	0.22985	0.97463
3.67	7.715	-43136	2447.9	-0.12395	0.23034	0.97454
3.672	7.8703	-43134	2447.8	-0.12424	0.22907	0.97463
3.674	7.9045	-43133	2447.6	-0.12454	0.2278	0.97473
3.676	7.8524	-43136	2447.5	-0.12483	0.22653	0.97483
3.678	7.7607	-43140	2447.3	-0.12512	0.22526	0.97493
3.68	7.6355	-43139	2447.2	-0.12542	0.22399	0.97502
3.682	7.5488	-43137	2447	-0.12522	0.22458	0.97463
3.684	7.5412	-43146	2446.9	-0.12503	0.22516	0.97424
3.686	7.6346	-43155	2446.8	-0.12483	0.22575	0.97385
3.688	7.8012	-43151	2446.6	-0.12464	0.22633	0.97346
3.69	7.8915	-43147	2446.4	-0.12444	0.22692	0.97307
3.692	7.8762	-43151	2446.3	-0.12385	0.22643	0.97278
3.694	7.7973	-43155	2446.2	-0.12327	0.22594	0.97249
3.696	7.6489	-43154	2446	-0.12268	0.22546	0.97219
3.698	7.529	-43153	2445.8	-0.1221	0.22497	0.9719
3.7	7.5339	-43159	2445.6	-0.12151	0.22448	0.97161
3.702	7.6319	-43166	2445.4	-0.1218	0.22419	0.9719
3.704	7.8007	-43164	2445.2	-0.1221	0.22389	0.97219
3.706	7.9446	-43163	2445	-0.12239	0.2236	0.97249
3.708	7.9145	-43166	2444.8	-0.12268	0.22331	0.97278
3.71	7.8561	-43168	2444.6	-0.12298	0.22302	0.97307
3.712	7.7442	-43168	2444.5	-0.12307	0.22321	0.97307
3.714	7.5791	-43168	2444.3	-0.12317	0.22341	0.97307
3.716	7.5154	-43175	2444.2	-0.12327	0.2236	0.97307
3.718	7.5322	-43182	2444	-0.12337	0.2238	0.97307
3.72	7.7159	-43178	2443.9	-0.12346	0.22399	0.97307
3.722	7.9164	-43173	2443.7	-0.12405	0.2238	0.97307
3.724	7.9464	-43173	2443.6	-0.12464	0.2236	0.97307
3.726	7.9222	-43174	2443.4	-0.12522	0.22341	0.97307
3.728	7.8087	-43182	2443.3	-0.12581	0.22321	0.97307
3.73	7.6122	-43190	2443.1	-0.12639	0.22302	0.97307
3.732	7.5605	-43191	2443	-0.12747	0.22477	0.97239
3.734	7.5864	-43191	2442.8	-0.12854	0.22653	0.97171
3.736	7.6778	-43194	2442.7	-0.12961	0.22829	0.97102
3.738	7.8606	-43196	2442.5	-0.13069	0.23004	0.97034
3.74	7.94	-43199	2442.3	-0.13176	0.2318	0.96966
3.742	7.9359	-43202	2442.1	-0.13127	0.2316	0.96975
3.744	7.8396	-43200	2441.8	-0.13078	0.23141	0.96985
3.746	7.651	-43198	2441.6	-0.1303	0.23121	0.96995
3.748	7.5296	-43201	2441.4	-0.12981	0.23102	0.97005
3.75	7.5059	-43204	2441.2	-0.12932	0.23082	0.97014
3.752	7.5693	-43210	2441	-0.12854	0.23073	0.97014
3.754	7.7397	-43217	2440.7	-0.12776	0.23063	0.97014
3.756	7.8712	-43217	2440.5	-0.12698	0.23053	0.97014
3.758	7.8742	-43217	2440.2	-0.1262	0.23043	0.97014
3.76	7.8082	-43220	2439.9	-0.12542	0.23034	0.97014
3.762	7.6744	-43222	2439.6	-0.12581	0.23053	0.97005
3.764	7.5261	-43221	2439.3	-0.1262	0.23073	0.96995
3.766	7.4686	-43220	2439.1	-0.12659	0.23092	0.96985
3.768	7.511	-43218	2438.8	-0.12698	0.23112	0.96975
3.77	7.6725	-43215	2438.5	-0.12737	0.23131	0.96966
3.772	7.8698	-43223	2438.2	-0.12873	0.23053	0.96936
3.774	7.9173	-43230	2438	-0.1301	0.22975	0.96907
3.776	7.8539	-43230	2437.7	-0.13147	0.22897	0.96878
3.778	7.7241	-43230	2437.5	-0.13283	0.22819	0.96848
3.78	7.5505	-43229	2437.2	-0.1342	0.22741	0.96819
3.782	7.4882	-43228	2437	-0.13235	0.22819	0.96878
3.784	7.5362	-43230	2436.7	-0.13049	0.22897	0.96936
3.786	7.6066	-43232	2436.5	-0.12864	0.22975	0.96995
3.788	7.7867	-43238	2436.2	-0.12678	0.23053	0.97053
3.79	7.8849	-43244	2436	-0.12493	0.23131	0.97112
3.792	7.8488	-43245	2435.7	-0.12542	0.23092	0.9721
3.794	7.787	-43246	2435.4	-0.1259	0.23053	0.97307
3.796	7.6125	-43251	2435.2	-0.12639	0.23014	0.97405
3.798	7.4843	-43255	2435	-0.12688	0.22975	0.97502
3.8	7.494	-43264	2434.8	-0.12737	0.22936	0.976
3.802	7.5585	-43273	2434.5	-0.12698	0.22907	0.9758
3.804	7.7312	-43271	2434.2	-0.12659	0.22877	0.97561
3.806	7.86	-43270	2434	-0.1262	0.22848	0.97541
3.808	7.8316	-43267	2433.7	-0.12581	0.22819	0.97522
3.81	7.7944	-43264	2433.5	-0.12542	0.2279	0.97502
3.812	7.6601	-43271	2433.2	-0.12629	0.22868	0.97512
3.814	7.4857	-43279	2433	-0.12717	0.22946	0.97522
3.816	7.4431	-43279	2432.7	-0.12805	0.23024	0.97532
3.818	7.4676	-43280	2432.4	-0.12893	0.23102	0.97541
3.82	7.6117	-43282	2432	-0.12981	0.2318	0.97551
3.822	7.7971	-43284	2431.7	-0.12903	0.23043	0.9759
3.824	7.8696	-43288	2431.3	-0.12825	0.22907	0.97629
3.826	7.8857	-43292	2431	-0.12747	0.2277	0.97668
3.828	7.7956	-43295	2430.6	-0.12668	0.22633	0.97707
3.83	7.648	-43298	2430.3	-0.1259	0.22497	0.97746
3.832	7.6187	-43297	2430	-0.126	0.22428	0.97746
3.834	7.6855	-43297	2429.6	-0.1261	0.2236	0.97746
3.836	7.8368	-43297	2429.3	-0.1262	0.22292	0.97746
3.838	8.0372	-43297	2428.9	-0.12629	0.22224	0.97746
3.84	8.1642	-43302	2428.6	-0.12639	0.22155	0.97746
3.842	8.2026	-43306	2428.3	-0.126	0.22233	0.97649
3.844	8.1759	-43309	2428	-0.12561	0.22311	0.97551
3.846	8.0528	-43311	2427.7	-0.12522	0.22389	0.97454
3.848	7.9525	-43315	2427.4	-0.12483	0.22468	0.97356
3.85	7.9841	-43319	2427.1	-0.12444	0.22546	0.97258
3.852	8.0733	-43321	2426.8	-0.12483	0.22536	0.97346
3.854	8.1947	-43324	2426.5	-0.12522	0.22526	0.97434
3.856	8.2934	-43321	2426.2	-0.12561	0.22516	0.97522
3.858	8.2536	-43319	2425.9	-0.126	0.22507	0.9761
3.86	8.119	-43323	2425.6	-0.12639	0.22497	0.97698
3.862	7.912	-43328	2425.2	-0.12659	0.22565	0.97639
3.864	7.6792	-43337	2424.8	-0.12678	0.22633	0.9758
3.866	7.5592	-43347	2424.5	-0.12698	0.22702	0.97522
3.868	7.5236	-43353	2424.2	-0.12717	0.2277	0.97463
3.87	7.6047	-43359	2423.8	-0.12737	0.22838	0.97405
3.872	7.7594	-43358	2423.6	-0.12659	0.22799	0.97415
3.874	7.7872	-43357	2423.4	-0.12581	0.2276	0.97424
3.876	7.7424	-43356	2423.1	-0.12503	0.22721	0.97434
3.878	7.6762	-43354	2422.8	-0.12424	0.22682	0.97444
3.88	7.5254	-43361	2422.5	-0.12346	0.22643	0.97454
3.882	7.4438	-43367	2422.1	-0.12464	0.22692	0.97502
3.884	7.4807	-43373	2421.7	-0.12581	0.22741	0.97551
3.886	7.5704	-43378	2421.4	-0.12698	0.2279	0.976
3.888	7.7813	-43379	2421	-0.12815	0.22838	0.97649
3.89	7.8571	-43380	2420.6	-0.12932	0.22887	0.97698
3.892	7.8112	-43380	2420.3	-0.12766	0.22829	0.9759
3.894	7.7675	-43379	2419.9	-0.126	0.2277	0.97483
3.896	7.5746	-43386	2419.5	-0.12434	0.22712	0.97376
3.898	7.4476	-43394	2419.2	-0.12268	0.22653	0.97268
3.9	7.4682	-43395	2418.9	-0.12102	0.22594	0.97161
3.902	7.5387	-43397	2418.8	-0.12268	0.22663	0.97102
3.904	7.688	-43392	2418.7	-0.12434	0.22731	0.97044
3.906	7.8101	-43387	2418.6	-0.126	0.22799	0.96985
3.908	7.8132	-43391	2418.6	-0.12766	0.22868	0.96927
3.91	7.7916	-43396	2418.5	-0.12932	0.22936	0.96868
3.912	7.6649	-43402	2418.5	-0.12893	0.23024	0.96888
3.914	7.4964	-43408	2418.6	-0.12854	0.23112	0.96907
3.916	7.4677	-43417	2418.6	-0.12815	0.232	0.96927
3.918	7.5132	-43425	2418.5	-0.12776	0.23287	0.96946
3.92	7.644	-43426	2418.4	-0.12737	0.23375	0.96966
3.922	7.7789	-43427	2418.1	-0.12717	0.23278	0.96946
3.924	7.8228	-43427	2417.8	-0.12698	0.2318	0.96927
3.926	7.8141	-43426	2417.4	-0.12678	0.23082	0.96907
3.928	7.7171	-43425	2417	-0.12659	0.22985	0.96888
3.93	7.5693	-43424	2416.5	-0.12639	0.22887	0.96868
3.932	7.4968	-43427	2415.9	-0.126	0.22907	0.96927
3.934	7.5003	-43430	2415.3	-0.12561	0.22926	0.96985
3.936	7.5842	-43433	2414.7	-0.12522	0.22946	0.97044
3.938	7.7561	-43436	2414.1	-0.12483	0.22965	0.97102
3.94	7.8662	-43439	2413.5	-0.12444	0.22985	0.97161
3.942	7.8448	-43442	2413.1	-0.12434	0.22946	0.97112
3.944	7.7551	-43442	2412.6	-0.12424	0.22907	0.97063
3.946	7.5921	-43443	2412.2	-0.12415	0.22868	0.97014
3.948	7.4742	-43444	2411.9	-0.12405	0.22829	0.96966
3.95	7.4923	-43445	2411.5	-0.12395	0.2279	0.96917
3.952	7.5756	-43452	2411.3	-0.12424	0.22985	0.96956
3.954	7.7147	-43459	2411.1	-0.12454	0.2318	0.96995
3.956	7.8351	-43463	2411	-0.12483	0.23375	0.97034
3.958	7.8421	-43468	2410.9	-0.12512	0.2357	0.97073
3.96	7.7944	-43472	2410.9	-0.12542	0.23766	0.97112
3.962	7.668	-43476	2411.5	-0.12805	0.23561	0.96975
3.964	7.5071	-43479	2412.1	-0.13069	0.23356	0.96839
3.966	7.4551	-43482	2413.3	-0.13332	0.23151	0.96702
3.968	7.5038	-43480	2414.9	-0.13596	0.22946	0.96565
3.97	7.6525	-43479	2416.6	-0.13859	0.22741	0.96429
3.972	7.8566	-43485	2418.9	-0.13713	0.22741	0.96604
3.974	7.8845	-43490	2421.3	-0.13566	0.22741	0.9678
3.976	7.8321	-43497	2423.8	-0.1342	0.22741	0.96956
3.978	7.7477	-43503	2426.5	-0.13274	0.22741	0.97132
3.98	7.5673	-43503	2429.1	-0.13127	0.22741	0.97307
3.982	7.5089	-43503	2432	-0.13313	0.22731	0.97483
3.984	7.5379	-43503	2434.8	-0.13498	0.22721	0.97659
3.986	7.6202	-43504	2437.8	-0.13684	0.22712	0.97834
3.988	7.8094	-43508	2440.7	-0.13869	0.22702	0.9801
3.99	7.8959	-43512	2443.7	-0.14054	0.22692	0.98186
3.992	7.8597	-43515	2446.7	-0.13986	0.22624	0.98303
3.994	7.7933	-43518	2449.7	-0.13918	0.22555	0.9842
3.996	7.6395	-43518	2452.5	-0.13849	0.22487	0.98537
3.998	7.5399	-43517	2455.2	-0.13781	0.22419	0.98654
4	7.5477	-43518	2458	-0.13713	0.2235	0.98771
4.002	7.6139	-43520	2460.5	-0.13703	0.22399	0.98664
4.004	7.7852	-43516	2463.1	-0.13693	0.22448	0.98556
4.006	7.9079	-43512	2465.4	-0.13684	0.22497	0.98449
4.008	7.9104	-43508	2467.6	-0.13674	0.22546	0.98342
4.01	7.866	-43504	2469.8	-0.13664	0.22594	0.98234
4.012	7.7406	-43503	2471.6	-0.13605	0.22546	0.98273
4.014	7.5812	-43503	2473.5	-0.13547	0.22497	0.98312
4.016	7.5398	-43501	2475.3	-0.13488	0.22448	0.98352
4.018	7.6056	-43498	2477	-0.1343	0.22399	0.98391
4.02	7.7436	-43503	2478.6	-0.13371	0.2235	0.9843
4.022	7.9042	-43508	2480.1	-0.13449	0.22272	0.98293
4.024	7.9606	-43502	2481.5	-0.13527	0.22194	0.98156
4.026	7.9163	-43495	2482.9	-0.13605	0.22116	0.9802
4.028	7.8062	-43494	2484.1	-0.13684	0.22038	0.97883
4.03	7.6578	-43492	2485.3	-0.13762	0.2196	0.97746
4.032	7.5905	-43488	2486.3	-0.13547	0.22224	0.9762
4.034	7.6282	-43485	2487.4	-0.13332	0.22487	0.97493
4.036	7.7298	-43479	2488.3	-0.13117	0.22751	0.97366
4.038	7.8968	-43472	2489.2	-0.12903	0.23014	0.97239
4.04	8.0011	-43468	2490.1	-0.12688	0.23278	0.97112
4.042	8.0081	-43463	2490.9	-0.12727	0.23239	0.97014
4.044	7.9552	-43464	2491.6	-0.12766	0.232	0.96917
4.046	7.801	-43466	2492.3	-0.12805	0.2316	0.96819
4.048	7.6707	-43456	2492.9	-0.12844	0.23121	0.96722
4.05	7.6664	-43446	2493.5	-0.12883	0.23082	0.96624
4.052	7.7109	-43437	2493.9	-0.12981	0.23034	0.96663
4.054	7.8666	-43428	2494.3	-0.13078	0.22985	0.96702
4.056	8.0645	-43420	2494.6	-0.13176	0.22936	0.96741
4.058	8.0986	-43412	2494.9	-0.13274	0.22887	0.9678
4.06	8.0528	-43404	2495.2	-0.13371	0.22838	0.96819
4.062	7.8841	-43395	2495.3	-0.13342	0.22936	0.9678
4.064	7.6966	-43376	2495.5	-0.13313	0.23034	0.96741
4.066	7.698	-43356	2495.6	-0.13283	0.23131	0.96702
4.068	7.7536	-43352	2495.7	-0.13254	0.23229	0.96663
4.07	7.8625	-43348	2495.8	-0.13225	0.23326	0.96624
4.072	8.0436	-43336	2495.9	-0.13303	0.2319	0.96595
4.074	8.0791	-43324	2495.9	-0.13381	0.23053	0.96565
4.076	8.0278	-43318	2495.9	-0.13459	0.22916	0.96536
4.078	7.927	-43312	2495.9	-0.13537	0.2278	0.96507
4.08	7.7609	-43302	2495.9	-0.13615	0.22643	0.96478
4.082	7.7026	-43292	2495.8	-0.13576	0.22672	0.96458
4.084	7.734	-43283	2495.8	-0.13537	0.22702	0.96439
4.086	7.8418	-43274	2495.7	-0.13498	0.22731	0.96419
4.088	7.9959	-43267	2495.6	-0.13459	0.2276	0.964
4.09	8.0715	-43261	2495.5	-0.1342	0.2279	0.9638
4.092	8.0648	-43249	2495.3	-0.13449	0.22848	0.96429
4.094	7.9895	-43236	2495.2	-0.13479	0.22907	0.96478
4.096	7.8286	-43226	2494.9	-0.13508	0.22965	0.96526
4.098	7.7038	-43216	2494.7	-0.13537	0.23024	0.96575
4.1	7.6856	-43218	2494.5	-0.13566	0.23082	0.96624
4.102	7.7423	-43220	2494.2	-0.1342	0.2316	0.96683
4.104	7.8784	-43202	2494	-0.13274	0.23239	0.96741
4.106	8.0065	-43184	2493.8	-0.13127	0.23317	0.968
4.108	8.027	-43180	2493.5	-0.12981	0.23395	0.96858
4.11	7.9756	-43176	2493.2	-0.12834	0.23473	0.96917
4.112	7.8422	-43167	2493	-0.12766	0.23395	0.96917
4.114	7.6721	-43158	2492.8	-0.12698	0.23317	0.96917
4.116	7.625	-43148	2492.5	-0.12629	0.23239	0.96917
4.118	7.6714	-43138	2492.2	-0.12561	0.2316	0.96917
4.12	7.7755	-43130	2492	-0.12493	0.23082	0.96917
4.122	7.9281	-43122	2491.7	-0.12629	0.23082	0.96868
4.124	7.9796	-43114	2491.4	-0.12766	0.23082	0.96819
4.126	7.942	-43106	2491.2	-0.12903	0.23082	0.9677
4.128	7.8431	-43098	2491	-0.13039	0.23082	0.96722
4.13	7.6482	-43090	2490.7	-0.13176	0.23082	0.96673
4.132	7.5598	-43082	2490.4	-0.1302	0.23014	0.96761
4.134	7.6038	-43074	2490.1	-0.12864	0.22946	0.96848
4.136	7.6792	-43067	2489.8	-0.12708	0.22877	0.96936
4.138	7.8599	-43061	2489.4	-0.12551	0.22809	0.97024
4.14	7.9527	-43055	2489.1	-0.12395	0.22741	0.97112
4.142	7.9028	-43049	2488.7	-0.12405	0.22692	0.97171
4.144	7.8596	-43049	2488.4	-0.12415	0.22643	0.97229
4.146	7.6905	-43048	2488	-0.12424	0.22594	0.97288
4.148	7.5531	-43032	2487.5	-0.12434	0.22546	0.97346
4.15	7.567	-43016	2487.1	-0.12444	0.22497	0.97405
4.152	7.6176	-43012	2486.7	-0.12444	0.22575	0.97366
4.154	7.7892	-43009	2486.2	-0.12444	0.22653	0.97327
4.156	7.9281	-43006	2485.8	-0.12444	0.22731	0.97288
4.158	7.9071	-43004	2485.4	-0.12444	0.22809	0.97249
4.16	7.8388	-42994	2485	-0.12444	0.22887	0.9721
4.162	7.7229	-42984	2484.6	-0.12532	0.22995	0.97268
4.164	7.5788	-42979	2484.2	-0.1262	0.23102	0.97327
4.166	7.556	-42973	2483.8	-0.12708	0.23209	0.97385
4.168	7.5987	-42972	2483.4	-0.12795	0.23317	0.97444
4.17	7.7102	-42972	2483	-0.12883	0.23424	0.97502
4.172	7.87	-42969	2482.6	-0.13069	0.23385	0.9761
4.174	7.9304	-42966	2482.1	-0.13254	0.23346	0.97717
4.176	7.9136	-42957	2481.6	-0.1344	0.23307	0.97824
4.178	7.8014	-42948	2481.1	-0.13625	0.23268	0.97932
4.18	7.6373	-42948	2480.6	-0.1381	0.23229	0.98039
4.182	7.5677	-42949	2479.9	-0.13654	0.23209	0.97903
4.184	7.5822	-42942	2479.3	-0.13498	0.2319	0.97766
4.186	7.6602	-42935	2478.6	-0.13342	0.2317	0.97629
4.188	7.8201	-42927	2477.9	-0.13186	0.23151	0.97493
4.19	7.9246	-42919	2477.3	-0.1303	0.23131	0.97356
4.192	7.9126	-42922	2476.6	-0.12922	0.23004	0.97376
4.194	7.8429	-42926	2475.9	-0.12815	0.22877	0.97395
4.196	7.6948	-42927	2475.1	-0.12708	0.22751	0.97415
4.198	7.5556	-42927	2474.4	-0.126	0.22624	0.97434
4.2	7.5433	-42927	2473.6	-0.12493	0.22497	0.97454
4.202	7.6084	-42927	2472.9	-0.12493	0.22575	0.97424
4.204	7.741	-42919	2472.2	-0.12493	0.22653	0.97395
4.206	7.8904	-42911	2471.4	-0.12493	0.22731	0.97366
4.208	7.9018	-42913	2470.6	-0.12493	0.22809	0.97336
4.21	7.8469	-42914	2469.8	-0.12493	0.22887	0.97307
4.212	7.7404	-42905	2469.1	-0.12493	0.22858	0.97258
4.214	7.5978	-42895	2468.3	-0.12493	0.22829	0.9721
4.216	7.5905	-42897	2467.6	-0.12493	0.22799	0.97161
4.218	7.607	-42899	2466.9	-0.12493	0.2277	0.97112
4.22	7.6837	-42899	2466.2	-0.12493	0.22741	0.97063
4.222	7.8608	-42899	2465.5	-0.12493	0.22731	0.97102
4.224	7.91	-42900	2464.9	-0.12493	0.22721	0.97141
4.226	7.8651	-42900	2464.2	-0.12493	0.22712	0.9718
4.228	7.7986	-42901	2463.6	-0.12493	0.22702	0.97219
4.23	7.6326	-42901	2462.9	-0.12493	0.22692	0.97258
4.232	7.5163	-42892	2462.3	-0.12512	0.22682	0.97278
4.234	7.5227	-42883	2461.8	-0.12532	0.22672	0.97297
4.236	7.6061	-42887	2461.2	-0.12551	0.22663	0.97317
4.238	7.7931	-42891	2460.6	-0.12571	0.22653	0.97336
4.24	7.901	-42888	2460	-0.1259	0.22643	0.97356
4.242	7.9074	-42885	2459.5	-0.1262	0.22663	0.97346
4.244	7.8399	-42891	2459	-0.12649	0.22682	0.97336
4.246	7.6862	-42898	2458.4	-0.12678	0.22702	0.97327
4.248	7.569	-42896	2458	-0.12708	0.22721	0.97317
4.25	7.5605	-42894	2457.5	-0.12737	0.22741	0.97307
4.252	7.6006	-42893	2457	-0.12756	0.22751	0.97376
4.254	7.7401	-42891	2456.5	-0.12776	0.2276	0.97444
4.256	7.8694	-42892	2456	-0.12795	0.2277	0.97512
4.258	7.8636	-42892	2455.5	-0.12815	0.2278	0.9758
4.26	7.8066	-42893	2455.1	-0.12834	0.2279	0.97649
4.262	7.7059	-42893	2454.6	-0.12854	0.22741	0.97688
4.264	7.5696	-42898	2454.1	-0.12873	0.22692	0.97727
4.266	7.5219	-42904	2453.7	-0.12893	0.22643	0.97766
4.268	7.5773	-42897	2453.3	-0.12912	0.22594	0.97805
4.27	7.7033	-42891	2452.9	-0.12932	0.22546	0.97844
4.272	7.847	-42893	2452.6	-0.12786	0.22546	0.97746
4.274	7.8986	-42895	2452.3	-0.12639	0.22546	0.97649
4.276	7.8526	-42899	2452	-0.12493	0.22546	0.97551
4.278	7.7566	-42903	2451.7	-0.12346	0.22546	0.97454
4.28	7.611	-42909	2451.5	-0.122	0.22546	0.97356
4.282	7.4971	-42914	2451.3	-0.12278	0.22497	0.97434
4.284	7.516	-42909	2451	-0.12356	0.22448	0.97512
4.286	7.6474	-42904	2450.8	-0.12434	0.22399	0.9759
4.288	7.8108	-42906	2450.6	-0.12512	0.2235	0.97668
4.29	7.9036	-42908	2450.4	-0.1259	0.22302	0.97746
4.292	7.8781	-42914	2450.3	-0.12424	0.22399	0.9758
4.294	7.8039	-42920	2450.1	-0.12259	0.22497	0.97415
4.296	7.6732	-42920	2450	-0.12093	0.22594	0.97249
4.298	7.5475	-42919	2449.9	-0.11927	0.22692	0.97083
4.3	7.5112	-42916	2449.8	-0.11761	0.2279	0.96917
4.302	7.5584	-42912	2449.8	-0.11829	0.22751	0.96975
4.304	7.7261	-42919	2449.8	-0.11897	0.22712	0.97034
4.306	7.8914	-42927	2449.8	-0.11966	0.22672	0.97092
4.308	7.8911	-42920	2449.8	-0.12034	0.22633	0.97151
4.31	7.8592	-42913	2449.8	-0.12102	0.22594	0.9721
4.312	7.7303	-42920	2449.8	-0.12073	0.22604	0.97239
4.314	7.5378	-42926	2449.8	-0.12044	0.22614	0.97268
4.316	7.5175	-42932	2449.8	-0.12015	0.22624	0.97297
4.318	7.5652	-42937	2449.8	-0.11985	0.22633	0.97327
4.32	7.6732	-42939	2449.8	-0.11956	0.22643	0.97356
4.322	7.8592	-42942	2449.8	-0.12112	0.22712	0.97385
4.324	7.8778	-42942	2449.8	-0.12268	0.2278	0.97415
4.326	7.8402	-42942	2449.7	-0.12424	0.22848	0.97444
4.328	7.7526	-42941	2449.7	-0.12581	0.22916	0.97473
4.33	7.5771	-42940	2449.6	-0.12737	0.22985	0.97502
4.332	7.5316	-42944	2449.5	-0.12639	0.22965	0.97415
4.334	7.567	-42947	2449.4	-0.12542	0.22946	0.97327
4.336	7.6651	-42946	2449.3	-0.12444	0.22926	0.97239
4.338	7.8279	-42946	2449.2	-0.12346	0.22907	0.97151
4.34	7.8979	-42951	2449.1	-0.12249	0.22887	0.97063
4.342	7.8816	-42957	2449	-0.12366	0.22985	0.97083
4.344	7.8285	-42955	2448.9	-0.12483	0.23082	0.97102
4.346	7.6859	-42953	2448.8	-0.126	0.2318	0.97122
4.348	7.5576	-42953	2448.7	-0.12717	0.23278	0.97141
4.35	7.5241	-42952	2448.5	-0.12834	0.23375	0.97161
4.352	7.5837	-42960	2448.4	-0.12825	0.23326	0.97112
4.354	7.7502	-42967	2448.2	-0.12815	0.23278	0.97063
4.356	7.8876	-42966	2448.1	-0.12805	0.23229	0.97014
4.358	7.9019	-42965	2448	-0.12795	0.2318	0.96966
4.36	7.8561	-42969	2447.9	-0.12786	0.23131	0.96917
4.362	7.7302	-42973	2447.8	-0.12893	0.23141	0.96897
4.364	7.581	-42972	2447.6	-0.13	0.23151	0.96878
4.366	7.5484	-42971	2447.5	-0.13108	0.2316	0.96858
4.368	7.584	-42980	2447.3	-0.13215	0.2317	0.96839
4.37	7.6765	-42989	2447.1	-0.13322	0.2318	0.96819
4.372	7.8442	-42989	2447	-0.13352	0.23063	0.96751
4.374	7.9381	-42988	2446.8	-0.13381	0.22946	0.96683
4.376	7.912	-42991	2446.7	-0.1341	0.22829	0.96614
4.378	7.8081	-42993	2446.6	-0.1344	0.22712	0.96546
4.38	7.6383	-42994	2446.5	-0.13469	0.22594	0.96478
4.382	7.5333	-42996	2446.4	-0.13479	0.22624	0.96507
4.384	7.5517	-42991	2446.2	-0.13488	0.22653	0.96536
4.386	7.6285	-42987	2446	-0.13498	0.22682	0.96565
4.388	7.8107	-42994	2445.8	-0.13508	0.22712	0.96595
4.39	7.9473	-43000	2445.6	-0.13518	0.22741	0.96624
4.392	7.9434	-43002	2445.4	-0.13479	0.22692	0.96692
4.394	7.8799	-43005	2445.2	-0.1344	0.22643	0.96761
4.396	7.7107	-43006	2445	-0.134	0.22594	0.96829
4.398	7.5687	-43008	2444.8	-0.13361	0.22546	0.96897
4.4	7.5641	-43007	2444.6	-0.13322	0.22497	0.96966
4.402	7.6124	-43007	2444.3	-0.13361	0.22487	0.97005
4.404	7.7685	-43007	2444.1	-0.134	0.22477	0.97044
4.406	7.9293	-43008	2443.9	-0.1344	0.22468	0.97083
4.408	7.9122	-43016	2443.6	-0.13479	0.22458	0.97122
4.41	7.8604	-43025	2443.4	-0.13518	0.22448	0.97161
4.412	7.7432	-43025	2443.1	-0.1344	0.22594	0.97122
4.414	7.579	-43025	2442.8	-0.13361	0.22741	0.97083
4.416	7.512	-43022	2442.6	-0.13283	0.22887	0.97044
4.418	7.5258	-43020	2442.3	-0.13205	0.23034	0.97005
4.42	7.6431	-43022	2442.1	-0.13127	0.2318	0.96966
4.422	7.827	-43025	2441.9	-0.1303	0.23112	0.97005
4.424	7.8761	-43027	2441.7	-0.12932	0.23043	0.97044
4.426	7.8523	-43029	2441.5	-0.12834	0.22975	0.97083
4.428	7.7534	-43030	2441.3	-0.12737	0.22907	0.97122
4.43	7.5851	-43031	2441.1	-0.12639	0.22838	0.97161
4.432	7.5052	-43032	2440.8	-0.12571	0.22819	0.9719
4.434	7.5146	-43033	2440.6	-0.12503	0.22799	0.97219
4.436	7.5916	-43036	2440.3	-0.12434	0.2278	0.97249
4.438	7.7635	-43039	2440.1	-0.12366	0.2276	0.97278
4.44	7.8834	-43042	2439.8	-0.12298	0.22741	0.97307
4.442	7.8817	-43046	2439.5	-0.12415	0.22741	0.97385
4.444	7.802	-43053	2439.3	-0.12532	0.22741	0.97463
4.446	7.6481	-43060	2439	-0.12649	0.22741	0.97541
4.448	7.5222	-43061	2438.7	-0.12766	0.22741	0.9762
4.45	7.5072	-43061	2438.5	-0.12883	0.22741	0.97698
4.452	7.5619	-43060	2438.2	-0.12786	0.22731	0.97678
4.454	7.6958	-43058	2437.9	-0.12688	0.22721	0.97659
4.456	7.8383	-43059	2437.6	-0.1259	0.22712	0.97639
4.458	7.8568	-43060	2437.3	-0.12493	0.22702	0.9762
4.46	7.8012	-43065	2437.1	-0.12395	0.22692	0.976
4.462	7.6866	-43069	2436.8	-0.12385	0.22653	0.97551
4.464	7.5479	-43075	2436.5	-0.12376	0.22614	0.97502
4.466	7.5058	-43080	2436.2	-0.12366	0.22575	0.97454
4.468	7.534	-43083	2436	-0.12356	0.22536	0.97405
4.47	7.6295	-43086	2435.7	-0.12346	0.22497	0.97356
4.472	7.812	-43090	2435.4	-0.12395	0.22594	0.97376
4.474	7.8715	-43093	2435.2	-0.12444	0.22692	0.97395
4.476	7.8251	-43094	2434.9	-0.12493	0.2279	0.97415
4.478	7.7354	-43094	2434.6	-0.12542	0.22887	0.97434
4.48	7.5645	-43094	2434.3	-0.1259	0.22985	0.97454
4.482	7.4498	-43093	2434.1	-0.12639	0.22975	0.97512
4.484	7.4747	-43097	2433.9	-0.12688	0.22965	0.97571
4.486	7.5481	-43100	2433.6	-0.12737	0.22956	0.97629
4.488	7.7529	-43102	2433.3	-0.12786	0.22946	0.97688
4.49	7.8949	-43105	2433	-0.12834	0.22936	0.97746
4.492	7.8918	-43109	2432.7	-0.12795	0.22887	0.97659
4.494	7.8656	-43113	2432.4	-0.12756	0.22838	0.97571
4.496	7.7373	-43118	2432.1	-0.12717	0.2279	0.97483
4.498	7.6487	-43122	2431.8	-0.12678	0.22741	0.97395
4.5	7.6965	-43125	2431.5	-0.12639	0.22692	0.97307
4.502	7.7972	-43129	2431.2	-0.12581	0.22614	0.97346
4.504	8.0146	-43133	2431	-0.12522	0.22536	0.97385
4.506	8.2272	-43137	2430.7	-0.12464	0.22458	0.97424
4.508	8.2869	-43140	2430.4	-0.12405	0.2238	0.97463
4.51	8.2636	-43142	2430.1	-0.12346	0.22302	0.97502
4.512	8.1556	-43143	2429.8	-0.12356	0.22253	0.97532
4.514	8.045	-43144	2429.5	-0.12366	0.22204	0.97561
4.516	8.0215	-43142	2429.2	-0.12376	0.22155	0.9759
4.518	8.0307	-43140	2428.9	-0.12385	0.22106	0.9762
4.52	8.1151	-43143	2428.5	-0.12395	0.22058	0.97649
4.522	8.2127	-43146	2428.3	-0.12366	0.22224	0.976
4.524	8.2002	-43151	2428	-0.12337	0.22389	0.97551
4.526	8.1117	-43156	2427.7	-0.12307	0.22555	0.97502
4.528	7.9314	-43160	2427.5	-0.12278	0.22721	0.97454
4.53	7.6767	-43165	2427.2	-0.12249	0.22887	0.97405
4.532	7.5132	-43171	2427	-0.12278	0.22702	0.97434
4.534	7.4736	-43177	2426.8	-0.12307	0.22516	0.97463
4.536	7.5222	-43180	2426.5	-0.12337	0.22331	0.97493
4.538	7.6718	-43183	2426.2	-0.12366	0.22145	0.97522
4.54	7.7937	-43183	2426	-0.12395	0.2196	0.97551
4.542	7.8011	-43182	2425.7	-0.12444	0.22087	0.97561
4.544	7.7484	-43179	2425.4	-0.12493	0.22214	0.97571
4.546	7.6147	-43175	2425.1	-0.12542	0.22341	0.9758
4.548	7.4869	-43180	2424.8	-0.1259	0.22468	0.9759
4.55	7.476	-43186	2424.5	-0.12639	0.22594	0.976
4.552	7.5373	-43189	2424.1	-0.1259	0.22585	0.97561
4.554	7.6794	-43192	2423.7	-0.12542	0.22575	0.97522
4.556	7.859	-43198	2423.3	-0.12493	0.22565	0.97483
4.558	7.8643	-43203	2422.9	-0.12444	0.22555	0.97444
4.56	7.7931	-43199	2422.6	-0.12395	0.22546	0.97405
4.562	7.6811	-43196	2422.3	-0.12346	0.22565	0.97395
4.564	7.5129	-43204	2422	-0.12298	0.22585	0.97385
4.566	7.4764	-43212	2421.8	-0.12249	0.22604	0.97376
4.568	7.5296	-43214	2421.7	-0.122	0.22624	0.97366
4.57	7.6258	-43215	2421.5	-0.12151	0.22643	0.97356
4.572	7.8316	-43217	2421.6	-0.122	0.22624	0.97288
4.574	7.8876	-43219	2421.6	-0.12249	0.22604	0.97219
4.576	7.8248	-43224	2421.6	-0.12298	0.22585	0.97151
4.578	7.7498	-43230	2421.7	-0.12346	0.22565	0.97083
4.58	7.5694	-43230	2421.8	-0.12395	0.22546	0.97014
4.582	7.4792	-43230	2421.7	-0.12317	0.22546	0.97053
4.584	7.4739	-43234	2421.6	-0.12239	0.22546	0.97092
4.586	7.556	-43237	2421.4	-0.12161	0.22546	0.97132
4.588	7.7658	-43242	2421.1	-0.12083	0.22546	0.97171
4.59	7.8592	-43247	2420.9	-0.12005	0.22546	0.9721
4.592	7.8505	-43249	2420.4	-0.12122	0.22546	0.97268
4.594	7.7978	-43251	2419.9	-0.12239	0.22546	0.97327
4.596	7.6518	-43257	2419.4	-0.12356	0.22546	0.97385
4.598	7.5298	-43264	2418.9	-0.12473	0.22546	0.97444
4.6	7.5107	-43263	2418.3	-0.1259	0.22546	0.97502
4.602	7.5603	-43262	2417.9	-0.1262	0.22672	0.97463
4.604	7.7019	-43266	2417.4	-0.12649	0.22799	0.97424
4.606	7.8449	-43270	2417	-0.12678	0.22926	0.97385
4.608	7.8799	-43275	2416.6	-0.12708	0.23053	0.97346
4.61	7.8356	-43280	2416.3	-0.12737	0.2318	0.97307
4.612	7.7049	-43279	2416	-0.12708	0.23092	0.9718
4.614	7.5431	-43277	2415.8	-0.12678	0.23004	0.97053
4.616	7.4822	-43278	2415.6	-0.12649	0.22916	0.96927
4.618	7.5243	-43279	2415.5	-0.1262	0.22829	0.968
4.62	7.6409	-43290	2415.3	-0.1259	0.22741	0.96673
4.622	7.7984	-43302	2415.6	-0.12756	0.22809	0.96663
4.624	7.871	-43302	2415.8	-0.12922	0.22877	0.96653
4.626	7.8378	-43301	2416.5	-0.13088	0.22946	0.96644
4.628	7.7551	-43301	2417.6	-0.13254	0.23014	0.96634
4.63	7.6049	-43300	2418.7	-0.1342	0.23082	0.96624
4.632	7.4884	-43309	2420.7	-0.13586	0.23043	0.96644
4.634	7.5087	-43318	2422.8	-0.13752	0.23004	0.96663
4.636	7.5992	-43319	2425	-0.13918	0.22965	0.96683
4.638	7.7719	-43320	2427.6	-0.14084	0.22926	0.96702
4.64	7.8981	-43328	2430.1	-0.1425	0.22887	0.96722
4.642	7.8995	-43337	2432.7	-0.14152	0.22799	0.96975
4.644	7.8389	-43329	2435.4	-0.14054	0.22712	0.97229
4.646	7.6671	-43321	2438.1	-0.13957	0.22624	0.97483
4.648	7.517	-43327	2441	-0.13859	0.22536	0.97737
4.65	7.5295	-43334	2443.8	-0.13762	0.22448	0.9799
4.652	7.5925	-43335	2446.7	-0.13752	0.2237	0.98156
4.654	7.7352	-43337	2449.6	-0.13742	0.22292	0.98322
4.656	7.8979	-43338	2452.5	-0.13732	0.22214	0.98488
4.658	7.9283	-43338	2455.3	-0.13723	0.22136	0.98654
4.66	7.9008	-43341	2458.1	-0.13713	0.22058	0.9882
4.662	7.7741	-43344	2460.7	-0.13635	0.22145	0.98761
4.664	7.5755	-43339	2463.3	-0.13557	0.22233	0.98703
4.666	7.5432	-43334	2465.8	-0.13479	0.22321	0.98644
4.668	7.572	-43337	2468	-0.134	0.22409	0.98586
4.67	7.6934	-43341	2470.3	-0.13322	0.22497	0.98527
4.672	7.8815	-43340	2472.2	-0.1342	0.22468	0.98498
4.674	7.9509	-43339	2474.1	-0.13518	0.22438	0.98469
4.676	7.9252	-43336	2475.9	-0.13615	0.22409	0.98439
4.678	7.8236	-43333	2477.7	-0.13713	0.2238	0.9841
4.68	7.6527	-43326	2479.4	-0.1381	0.2235	0.98381
4.682	7.5737	-43318	2480.8	-0.1382	0.2238	0.98283
4.684	7.5802	-43318	2482.3	-0.1383	0.22409	0.98186
4.686	7.6585	-43319	2483.6	-0.1384	0.22438	0.98088
4.688	7.8245	-43315	2484.9	-0.13849	0.22468	0.9799
4.69	7.94	-43311	2486.1	-0.13859	0.22497	0.97893
4.692	7.9639	-43303	2487.1	-0.1381	0.22468	0.97893
4.694	7.9167	-43296	2488.1	-0.13762	0.22438	0.97893
4.696	7.7692	-43290	2489	-0.13713	0.22409	0.97893
